[{"trial_n":1,"span":8,"encoder":"28502180","distractor":"28002180","target":"present","response":"present","rt":"7021.7999999821","correct":true,"confidence":-1},{"trial_n":2,"span":8,"encoder":"87470256","distractor":"80470256","target":"present","response":"present","rt":"3821","correct":true,"confidence":-1},{"trial_n":3,"span":10,"encoder":"1115806548","distractor":"1135806548","target":"absent","response":"absent","rt":"2396.6999999881","correct":true,"confidence":-1},{"trial_n":4,"span":10,"encoder":"2224620182","distractor":"5224620182","target":"absent","response":"present","rt":"2359.400000006","correct":false,"confidence":-1},{"trial_n":5,"span":8,"encoder":"71204750","distractor":"74204750","target":"present","response":"present","rt":"1459.5","correct":true,"confidence":-1},{"trial_n":6,"span":8,"encoder":"93650121","distractor":"92650121","target":"absent","response":"absent","rt":"1918","correct":true,"confidence":-1},{"trial_n":7,"span":10,"encoder":"1997872288","distractor":"1997822288","target":"absent","response":"present","rt":"2519.2999999821","correct":false,"confidence":-1},{"trial_n":8,"span":8,"encoder":"94111608","distractor":"94151608","target":"present","response":"present","rt":"2675.1999999881","correct":true,"confidence":-1},{"trial_n":9,"span":8,"encoder":"90019355","distractor":"90019345","target":"present","response":"present","rt":"4099","correct":true,"confidence":-1},{"trial_n":10,"span":10,"encoder":"7530660241","distractor":"7530640241","target":"present","response":"present","rt":"3553.1000000238","correct":true,"confidence":-1},{"trial_n":11,"span":10,"encoder":"3232601043","distractor":"3232701043","target":"present","response":"present","rt":"4141.6999999881","correct":true,"confidence":-1},{"trial_n":12,"span":11,"encoder":"36387383002","distractor":"36387883002","target":"absent","response":"present","rt":"2030.2000000179","correct":false,"confidence":-1},{"trial_n":13,"span":10,"encoder":"9396005116","distractor":"1396005116","target":"present","response":"absent","rt":"3854.3000000119","correct":false,"confidence":-1},{"trial_n":14,"span":9,"encoder":"469699545","distractor":"463699545","target":"absent","response":"present","rt":"2210.5","correct":false,"confidence":-1},{"trial_n":15,"span":8,"encoder":"98010345","distractor":"98910345","target":"present","response":"present","rt":"4365.3000000119","correct":true,"confidence":-1},{"trial_n":16,"span":8,"encoder":"72467752","distractor":"72467750","target":"absent","response":"present","rt":"3584.3999999762","correct":false,"confidence":-1},{"trial_n":17,"span":7,"encoder":"2247529","distractor":"2242529","target":"present","response":"absent","rt":"3424.3999999762","correct":false,"confidence":-1},{"trial_n":18,"span":6,"encoder":"360058","distractor":"560058","target":"absent","response":"absent","rt":"3024.6000000238","correct":true,"confidence":-1},{"trial_n":19,"span":6,"encoder":"395010","distractor":"195010","target":"present","response":"present","rt":"2285.400000006","correct":true,"confidence":-1},{"trial_n":20,"span":7,"encoder":"6475617","distractor":"6375617","target":"present","response":"present","rt":"3897.900000006","correct":true,"confidence":-1},{"trial_n":21,"span":7,"encoder":"2692612","distractor":"2992612","target":"absent","response":"absent","rt":"3556.1999999881","correct":true,"confidence":5},{"trial_n":22,"span":8,"encoder":"87190066","distractor":"87190056","target":"absent","response":"absent","rt":"4470","correct":true,"confidence":3},{"trial_n":23,"span":8,"encoder":"46376269","distractor":"96376269","target":"absent","response":"absent","rt":"4107.400000006","correct":true,"confidence":4},{"trial_n":24,"span":9,"encoder":"702697993","distractor":"702697393","target":"absent","response":"absent","rt":"4872.1999999881","correct":true,"confidence":3},{"trial_n":25,"span":9,"encoder":"791282870","distractor":"791282370","target":"absent","response":"present","rt":"5378.2999999821","correct":false,"confidence":3},{"trial_n":26,"span":8,"encoder":"18812757","distractor":"18822757","target":"present","response":"present","rt":"4919.5","correct":true,"confidence":4},{"trial_n":27,"span":8,"encoder":"20618136","distractor":"20218136","target":"present","response":"present","rt":"4121.8999999762","correct":true,"confidence":3},{"trial_n":28,"span":9,"encoder":"956590775","distractor":"957590775","target":"present","response":"present","rt":"2995.6000000238","correct":true,"confidence":4},{"trial_n":29,"span":9,"encoder":"309214790","distractor":"399214790","target":"absent","response":"absent","rt":"2589.5","correct":true,"confidence":2},{"trial_n":30,"span":10,"encoder":"8287023753","distractor":"8287823753","target":"present","response":"present","rt":"2734.400000006","correct":true,"confidence":4},{"trial_n":31,"span":10,"encoder":"0012458055","distractor":"0012458955","target":"present","response":"present","rt":"4329.8999999762","correct":true,"confidence":4},{"trial_n":32,"span":11,"encoder":"44200699262","distractor":"44201699262","target":"absent","response":"present","rt":"4876.400000006","correct":false,"confidence":3},{"trial_n":33,"span":10,"encoder":"2216406202","distractor":"2216406272","target":"present","response":"present","rt":"3670.6999999881","correct":true,"confidence":4},{"trial_n":34,"span":10,"encoder":"5497502073","distractor":"5497502973","target":"absent","response":"present","rt":"4355.6999999881","correct":false,"confidence":4},{"trial_n":35,"span":9,"encoder":"625024747","distractor":"625094747","target":"present","response":"present","rt":"4077.8000000119","correct":true,"confidence":3},{"trial_n":36,"span":9,"encoder":"899179492","distractor":"899179498","target":"present","response":"present","rt":"2921.3999999762","correct":true,"confidence":3},{"trial_n":37,"span":10,"encoder":"0226394286","distractor":"0626394286","target":"absent","response":"absent","rt":"5135.099999994","correct":true,"confidence":3},{"trial_n":38,"span":10,"encoder":"7491197809","distractor":"7481197809","target":"absent","response":"absent","rt":"4093.599999994","correct":true,"confidence":3},{"trial_n":39,"span":11,"encoder":"04029133056","distractor":"04020133056","target":"present","response":"present","rt":"5910.400000006","correct":true,"confidence":3},{"trial_n":40,"span":11,"encoder":"17171835917","distractor":"17171835957","target":"absent","response":"present","rt":"6149.5","correct":false,"confidence":4},{"trial_n":41,"span":10,"encoder":"9996738330","distractor":"9996718330","target":"absent","response":"present","rt":"3703.099999994","correct":false,"confidence":4},{"trial_n":42,"span":9,"encoder":"401891580","distractor":"401892580","target":"absent","response":"absent","rt":"5103.3000000119","correct":true,"confidence":3},{"trial_n":43,"span":9,"encoder":"364605436","distractor":"363605436","target":"present","response":"present","rt":"4039.8000000119","correct":true,"confidence":3},{"trial_n":44,"span":10,"encoder":"1789455193","distractor":"1789455493","target":"present","response":"present","rt":"4768.6999999881","correct":true,"confidence":3},{"trial_n":45,"span":10,"encoder":"0410011821","distractor":"0410011825","target":"absent","response":"absent","rt":"4987.3000000119","correct":true,"confidence":4},{"trial_n":46,"span":11,"encoder":"95865193840","distractor":"99865193840","target":"absent","response":"absent","rt":"5573.900000006","correct":true,"confidence":3},{"trial_n":47,"span":11,"encoder":"59476869249","distractor":"59476869242","target":"present","response":"present","rt":"3414.099999994","correct":true,"confidence":2},{"trial_n":48,"span":12,"encoder":"581937837675","distractor":"581937837375","target":"absent","response":"absent","rt":"5836.599999994","correct":true,"confidence":3},{"trial_n":49,"span":12,"encoder":"849669250876","distractor":"849669260876","target":"absent","response":"absent","rt":"3797.6999999881","correct":true,"confidence":2},{"trial_n":50,"span":13,"encoder":"3110727350153","distractor":"3180727350153","target":"present","response":"present","rt":"5747","correct":true,"confidence":2},{"trial_n":51,"span":13,"encoder":"7705783958414","distractor":"7705723958414","target":"present","response":"present","rt":"5904.8000000119","correct":true,"confidence":4},{"trial_n":52,"span":14,"encoder":"66221146568152","distractor":"66221146468152","target":"present","response":"present","rt":"6068.099999994","correct":true,"confidence":4},{"trial_n":53,"span":14,"encoder":"76611346862907","distractor":"76611348862907","target":"absent","response":"present","rt":"5404.3999999762","correct":false,"confidence":3},{"trial_n":54,"span":13,"encoder":"6121454874050","distractor":"6121454874058","target":"present","response":"present","rt":"5610.7999999821","correct":true,"confidence":3},{"trial_n":55,"span":13,"encoder":"1086878732625","distractor":"7086878732625","target":"absent","response":"present","rt":"4511.400000006","correct":false,"confidence":3},{"trial_n":56,"span":12,"encoder":"628129920057","distractor":"628129950057","target":"absent","response":"present","rt":"4362.7999999821","correct":false,"confidence":3},{"trial_n":57,"span":11,"encoder":"22118230141","distractor":"22118630141","target":"present","response":"present","rt":"4129.8000000119","correct":true,"confidence":4},{"trial_n":58,"span":11,"encoder":"44212558915","distractor":"44212258915","target":"absent","response":"present","rt":"3239.900000006","correct":false,"confidence":4},{"trial_n":59,"span":10,"encoder":"7755419225","distractor":"7755412225","target":"absent","response":"present","rt":"4242.1000000238","correct":false,"confidence":4},{"trial_n":60,"span":9,"encoder":"013773674","distractor":"073773674","target":"present","response":"present","rt":"2651.400000006","correct":true,"confidence":3},{"trial_n":61,"span":9,"encoder":"350504323","distractor":"550504323","target":"absent","response":"absent","rt":"2263.8000000119","correct":true,"confidence":5},{"trial_n":62,"span":10,"encoder":"9335672332","distractor":"9335672336","target":"absent","response":"present","rt":"4761.5","correct":false,"confidence":2},{"trial_n":63,"span":9,"encoder":"252177583","distractor":"258177583","target":"absent","response":"present","rt":"3270.5","correct":false,"confidence":4},{"trial_n":64,"span":8,"encoder":"03372464","distractor":"03372264","target":"present","response":"present","rt":"3608.400000006","correct":true,"confidence":5},{"trial_n":65,"span":8,"encoder":"05067053","distractor":"01067053","target":"present","response":"present","rt":"2601.2999999821","correct":true,"confidence":5},{"trial_n":66,"span":9,"encoder":"745381225","distractor":"745381228","target":"absent","response":"absent","rt":"4112.8000000119","correct":true,"confidence":3},{"trial_n":67,"span":9,"encoder":"313187905","distractor":"313687905","target":"present","response":"present","rt":"3641.1000000238","correct":true,"confidence":4},{"trial_n":68,"span":10,"encoder":"2555997854","distractor":"2553997854","target":"present","response":"present","rt":"3896.1999999881","correct":true,"confidence":3},{"trial_n":69,"span":10,"encoder":"5487272175","distractor":"5487272075","target":"present","response":"present","rt":"4061.5","correct":true,"confidence":4},{"trial_n":70,"span":11,"encoder":"41666464504","distractor":"41661464504","target":"present","response":"present","rt":"5304.599999994","correct":true,"confidence":4},{"trial_n":71,"span":8,"encoder":"58110920","distractor":"58110900","target":"present","response":"present","rt":"3374.599999994","correct":true,"confidence":-1},{"trial_n":72,"span":8,"encoder":"12724195","distractor":"22724195","target":"present","response":"present","rt":"2235.6999999881","correct":true,"confidence":-1},{"trial_n":73,"span":9,"encoder":"231170589","distractor":"231370589","target":"absent","response":"present","rt":"14163.599999994","correct":false,"confidence":-1},{"trial_n":74,"span":8,"encoder":"23609162","distractor":"23609462","target":"absent","response":"absent","rt":"2322.1999999881","correct":true,"confidence":-1},{"trial_n":75,"span":8,"encoder":"45922733","distractor":"45922713","target":"present","response":"present","rt":"3953.6999999881","correct":true,"confidence":-1},{"trial_n":76,"span":9,"encoder":"214684421","distractor":"214694421","target":"present","response":"absent","rt":"6309.1999999881","correct":false,"confidence":-1},{"trial_n":77,"span":8,"encoder":"92198136","distractor":"92193136","target":"present","response":"present","rt":"13574.899999976","correct":true,"confidence":-1},{"trial_n":78,"span":8,"encoder":"87573755","distractor":"87573765","target":"absent","response":"absent","rt":"2373.7000000179","correct":true,"confidence":-1},{"trial_n":79,"span":9,"encoder":"640838873","distractor":"640438873","target":"present","response":"present","rt":"8396.8000000119","correct":true,"confidence":-1},{"trial_n":80,"span":9,"encoder":"458139473","distractor":"458132473","target":"absent","response":"absent","rt":"4050","correct":true,"confidence":-1},{"trial_n":81,"span":10,"encoder":"0548678524","distractor":"0544678524","target":"absent","response":"present","rt":"5499","correct":false,"confidence":-1},{"trial_n":82,"span":9,"encoder":"738015925","distractor":"738015225","target":"present","response":"present","rt":"2030.099999994","correct":true,"confidence":-1},{"trial_n":83,"span":9,"encoder":"309293278","distractor":"309293238","target":"present","response":"present","rt":"5210.7999999821","correct":true,"confidence":-1},{"trial_n":84,"span":10,"encoder":"7503127652","distractor":"7503127632","target":"absent","response":"absent","rt":"5004.900000006","correct":true,"confidence":-1},{"trial_n":85,"span":10,"encoder":"3072290539","distractor":"3092290539","target":"present","response":"present","rt":"6591","correct":true,"confidence":-1},{"trial_n":86,"span":11,"encoder":"91774918211","distractor":"91774978211","target":"absent","response":"present","rt":"12918.799999982","correct":false,"confidence":-1},{"trial_n":87,"span":10,"encoder":"3334690277","distractor":"3334690207","target":"present","response":"absent","rt":"6986.6999999881","correct":false,"confidence":-1},{"trial_n":88,"span":9,"encoder":"877565179","distractor":"877565178","target":"absent","response":"absent","rt":"4791.900000006","correct":true,"confidence":-1},{"trial_n":89,"span":9,"encoder":"082237229","distractor":"982237229","target":"present","response":"present","rt":"4484.3000000119","correct":true,"confidence":-1},{"trial_n":90,"span":10,"encoder":"2997349364","distractor":"2997349864","target":"absent","response":"present","rt":"8008.3999999762","correct":false,"confidence":-1},{"trial_n":91,"span":9,"encoder":"232854487","distractor":"232454487","target":"present","response":"absent","rt":"5769.2999999821","correct":false,"confidence":2},{"trial_n":92,"span":8,"encoder":"52756610","distractor":"52456610","target":"present","response":"present","rt":"4751.599999994","correct":true,"confidence":5},{"trial_n":93,"span":8,"encoder":"30710923","distractor":"30410923","target":"absent","response":"absent","rt":"2752.2999999821","correct":true,"confidence":4},{"trial_n":94,"span":9,"encoder":"796647040","distractor":"796647340","target":"present","response":"present","rt":"6650.6000000238","correct":true,"confidence":5},{"trial_n":95,"span":9,"encoder":"329295363","distractor":"329295963","target":"absent","response":"absent","rt":"7586.2999999821","correct":true,"confidence":4},{"trial_n":96,"span":10,"encoder":"3755611706","distractor":"3755611786","target":"present","response":"present","rt":"4742.599999994","correct":true,"confidence":5},{"trial_n":97,"span":10,"encoder":"1776126547","distractor":"1773126547","target":"absent","response":"absent","rt":"3084.099999994","correct":true,"confidence":5},{"trial_n":98,"span":11,"encoder":"81359744573","distractor":"81359724573","target":"present","response":"present","rt":"7509.7999999821","correct":true,"confidence":3},{"trial_n":99,"span":11,"encoder":"04518111155","distractor":"04518112155","target":"present","response":"present","rt":"6813.1000000238","correct":true,"confidence":5},{"trial_n":100,"span":12,"encoder":"779323947184","distractor":"779323947584","target":"absent","response":"absent","rt":"13589.800000012","correct":true,"confidence":3},{"trial_n":101,"span":12,"encoder":"335607807893","distractor":"335607809893","target":"present","response":"present","rt":"5236.599999994","correct":true,"confidence":3},{"trial_n":102,"span":13,"encoder":"6834354533387","distractor":"6834354534387","target":"absent","response":"present","rt":"10140.900000006","correct":false,"confidence":4},{"trial_n":103,"span":12,"encoder":"820234459159","distractor":"920234459159","target":"present","response":"present","rt":"3101","correct":true,"confidence":4},{"trial_n":104,"span":12,"encoder":"278159736687","distractor":"278859736687","target":"present","response":"absent","rt":"12390.799999982","correct":false,"confidence":3},{"trial_n":105,"span":11,"encoder":"60421245365","distractor":"60421245363","target":"present","response":"absent","rt":"8916.099999994","correct":false,"confidence":2},{"trial_n":106,"span":10,"encoder":"8378175432","distractor":"8378175433","target":"present","response":"absent","rt":"8267.099999994","correct":false,"confidence":3},{"trial_n":107,"span":9,"encoder":"876041329","distractor":"176041329","target":"present","response":"present","rt":"5023.6000000238","correct":true,"confidence":4},{"trial_n":108,"span":9,"encoder":"404805878","distractor":"404808878","target":"present","response":"present","rt":"6374.900000006","correct":true,"confidence":4},{"trial_n":109,"span":10,"encoder":"4066099021","distractor":"0066099021","target":"absent","response":"absent","rt":"2901.599999994","correct":true,"confidence":5},{"trial_n":110,"span":10,"encoder":"4063037160","distractor":"4053037160","target":"absent","response":"absent","rt":"5488.599999994","correct":true,"confidence":4},{"trial_n":111,"span":11,"encoder":"07675028044","distractor":"07675028944","target":"absent","response":"absent","rt":"3279.3000000119","correct":true,"confidence":3},{"trial_n":112,"span":11,"encoder":"60937736515","distractor":"60937726515","target":"absent","response":"absent","rt":"8708.3000000119","correct":true,"confidence":2},{"trial_n":113,"span":12,"encoder":"480505600262","distractor":"480505670262","target":"absent","response":"present","rt":"9383","correct":false,"confidence":3},{"trial_n":114,"span":11,"encoder":"62604602773","distractor":"62604612773","target":"present","response":"present","rt":"8099.7000000179","correct":true,"confidence":3},{"trial_n":115,"span":11,"encoder":"43262702690","distractor":"43262702695","target":"absent","response":"absent","rt":"5812.900000006","correct":true,"confidence":4},{"trial_n":116,"span":12,"encoder":"708170688919","distractor":"708270688919","target":"absent","response":"absent","rt":"12208.300000012","correct":true,"confidence":4},{"trial_n":117,"span":12,"encoder":"255529049542","distractor":"258529049542","target":"absent","response":"absent","rt":"2273.400000006","correct":true,"confidence":5},{"trial_n":118,"span":13,"encoder":"5998154195588","distractor":"5998154095588","target":"absent","response":"absent","rt":"6879.7999999821","correct":true,"confidence":5},{"trial_n":119,"span":13,"encoder":"5795690833379","distractor":"5795694833379","target":"present","response":"present","rt":"12090.400000006","correct":true,"confidence":4},{"trial_n":120,"span":14,"encoder":"48824369522829","distractor":"48824369522729","target":"present","response":"present","rt":"3508.099999994","correct":true,"confidence":5},{"trial_n":121,"span":14,"encoder":"78143060569350","distractor":"78193060569350","target":"absent","response":"present","rt":"5399.099999994","correct":false,"confidence":4},{"trial_n":122,"span":13,"encoder":"9781756799003","distractor":"9711756799003","target":"absent","response":"absent","rt":"3971.400000006","correct":true,"confidence":4},{"trial_n":123,"span":13,"encoder":"8944574319859","distractor":"8944574319869","target":"present","response":"present","rt":"4726","correct":true,"confidence":3},{"trial_n":124,"span":14,"encoder":"00492041451474","distractor":"00492048451474","target":"absent","response":"absent","rt":"7915.8000000119","correct":true,"confidence":2},{"trial_n":125,"span":14,"encoder":"30357748166307","distractor":"30357748166377","target":"present","response":"present","rt":"6618.5","correct":true,"confidence":4},{"trial_n":126,"span":15,"encoder":"880872914547396","distractor":"890872914547396","target":"absent","response":"absent","rt":"3439.7000000179","correct":true,"confidence":4},{"trial_n":127,"span":15,"encoder":"705716892755537","distractor":"705716892759537","target":"absent","response":"present","rt":"4544.599999994","correct":false,"confidence":1},{"trial_n":128,"span":14,"encoder":"43299356720123","distractor":"43299056720123","target":"present","response":"absent","rt":"4921.2999999821","correct":false,"confidence":2},{"trial_n":129,"span":13,"encoder":"7307372690397","distractor":"5307372690397","target":"absent","response":"absent","rt":"2335","correct":true,"confidence":5},{"trial_n":130,"span":13,"encoder":"0296455147460","distractor":"0291455147460","target":"absent","response":"absent","rt":"6794.3000000119","correct":true,"confidence":3},{"trial_n":131,"span":14,"encoder":"70496063142068","distractor":"70496063542068","target":"absent","response":"absent","rt":"6422.7000000179","correct":true,"confidence":3},{"trial_n":132,"span":14,"encoder":"83641832064490","distractor":"83641832060490","target":"absent","response":"absent","rt":"8514.6999999881","correct":true,"confidence":3},{"trial_n":133,"span":15,"encoder":"554274139998417","distractor":"554271139998417","target":"present","response":"present","rt":"11555.100000024","correct":true,"confidence":3},{"trial_n":134,"span":15,"encoder":"009326381951298","distractor":"039326381951298","target":"absent","response":"absent","rt":"2765.7000000179","correct":true,"confidence":3},{"trial_n":135,"span":16,"encoder":"3603472370267553","distractor":"3403472370267553","target":"present","response":"absent","rt":"5164.599999994","correct":false,"confidence":4},{"trial_n":136,"span":15,"encoder":"291381177145327","distractor":"291381977145327","target":"present","response":"absent","rt":"5306.8000000119","correct":false,"confidence":3},{"trial_n":137,"span":14,"encoder":"55605466990514","distractor":"55605466950514","target":"absent","response":"absent","rt":"11384.900000006","correct":true,"confidence":2},{"trial_n":138,"span":14,"encoder":"89947640487129","distractor":"89947640487127","target":"present","response":"absent","rt":"8464.8000000119","correct":false,"confidence":3},{"trial_n":139,"span":13,"encoder":"7879576991926","distractor":"7871576991926","target":"present","response":"present","rt":"3835.599999994","correct":true,"confidence":4},{"trial_n":140,"span":13,"encoder":"4844918199513","distractor":"4844918189513","target":"present","response":"absent","rt":"9204.8999999762","correct":false,"confidence":3}]