[{"trial_n":1,"n_dots":4.25,"target":"left","response":"left","rt":1606,"correct":true,"confidence":-1},{"trial_n":2,"n_dots":4.25,"target":"left","response":"right","rt":765.59999999404,"correct":false,"confidence":-1},{"trial_n":3,"n_dots":4.65,"target":"right","response":"right","rt":476.79999999702,"correct":true,"confidence":-1},{"trial_n":4,"n_dots":4.65,"target":"right","response":"right","rt":533.79999999702,"correct":true,"confidence":-1},{"trial_n":5,"n_dots":4.25,"target":"right","response":"right","rt":833.29999999702,"correct":true,"confidence":-1},{"trial_n":6,"n_dots":4.25,"target":"right","response":"right","rt":34154,"correct":true,"confidence":-1},{"trial_n":7,"n_dots":3.85,"target":"left","response":"left","rt":515.89999999106,"correct":true,"confidence":-1},{"trial_n":8,"n_dots":3.85,"target":"left","response":"left","rt":342,"correct":true,"confidence":-1},{"trial_n":9,"n_dots":3.65,"target":"right","response":"right","rt":497.79999999702,"correct":true,"confidence":-1},{"trial_n":10,"n_dots":3.65,"target":"right","response":"right","rt":257.5,"correct":true,"confidence":-1},{"trial_n":11,"n_dots":3.45,"target":"left","response":"left","rt":362.5,"correct":true,"confidence":-1},{"trial_n":12,"n_dots":3.45,"target":"left","response":"right","rt":298.09999999404,"correct":false,"confidence":-1},{"trial_n":13,"n_dots":3.55,"target":"left","response":"left","rt":841.40000000596,"correct":true,"confidence":-1},{"trial_n":14,"n_dots":3.55,"target":"left","response":"left","rt":390.19999998808,"correct":true,"confidence":-1},{"trial_n":15,"n_dots":3.45,"target":"right","response":"right","rt":355.19999998808,"correct":true,"confidence":-1},{"trial_n":16,"n_dots":3.45,"target":"left","response":"right","rt":159.29999999702,"correct":false,"confidence":-1},{"trial_n":17,"n_dots":3.55,"target":"right","response":"left","rt":446.09999999404,"correct":false,"confidence":-1},{"trial_n":18,"n_dots":3.65,"target":"left","response":"left","rt":265,"correct":true,"confidence":-1},{"trial_n":19,"n_dots":3.65,"target":"left","response":"left","rt":427.40000000596,"correct":true,"confidence":-1},{"trial_n":20,"n_dots":3.55,"target":"right","response":"right","rt":375.79999999702,"correct":true,"confidence":-1},{"trial_n":21,"n_dots":3.55,"target":"right","response":"right","rt":395.79999999702,"correct":true,"confidence":5},{"trial_n":22,"n_dots":3.45,"target":"right","response":"right","rt":183,"correct":true,"confidence":5},{"trial_n":23,"n_dots":3.45,"target":"left","response":"right","rt":1656.799999997,"correct":false,"confidence":5},{"trial_n":24,"n_dots":3.55,"target":"left","response":"left","rt":2683.5,"correct":true,"confidence":4},{"trial_n":25,"n_dots":3.55,"target":"left","response":"left","rt":340.09999999404,"correct":true,"confidence":3},{"trial_n":26,"n_dots":3.45,"target":"right","response":"right","rt":147.39999999106,"correct":true,"confidence":5},{"trial_n":27,"n_dots":3.45,"target":"left","response":"left","rt":1432.799999997,"correct":true,"confidence":3},{"trial_n":28,"n_dots":3.35,"target":"left","response":"right","rt":917.5,"correct":false,"confidence":5},{"trial_n":29,"n_dots":3.45,"target":"left","response":"left","rt":893.19999998808,"correct":true,"confidence":3},{"trial_n":30,"n_dots":3.45,"target":"left","response":"right","rt":389.70000000298,"correct":false,"confidence":3},{"trial_n":31,"n_dots":3.55,"target":"right","response":"right","rt":425.10000000894,"correct":true,"confidence":3},{"trial_n":32,"n_dots":3.55,"target":"right","response":"right","rt":444.5,"correct":true,"confidence":3},{"trial_n":33,"n_dots":3.45,"target":"right","response":"right","rt":173.30000001192,"correct":true,"confidence":3},{"trial_n":34,"n_dots":3.45,"target":"right","response":"right","rt":260,"correct":true,"confidence":1},{"trial_n":35,"n_dots":3.35,"target":"left","response":"left","rt":646.79999999702,"correct":true,"confidence":1},{"trial_n":36,"n_dots":3.35,"target":"right","response":"right","rt":636.5,"correct":true,"confidence":2},{"trial_n":37,"n_dots":3.25,"target":"left","response":"right","rt":523.39999999106,"correct":false,"confidence":1},{"trial_n":38,"n_dots":3.35,"target":"left","response":"left","rt":541.29999999702,"correct":true,"confidence":4},{"trial_n":39,"n_dots":3.35,"target":"left","response":"left","rt":1076.5,"correct":true,"confidence":2},{"trial_n":40,"n_dots":3.25,"target":"right","response":"right","rt":519.5,"correct":true,"confidence":4},{"trial_n":41,"n_dots":3.25,"target":"left","response":"left","rt":1227,"correct":true,"confidence":4},{"trial_n":42,"n_dots":3.15,"target":"right","response":"left","rt":220.89999999106,"correct":false,"confidence":3},{"trial_n":43,"n_dots":3.25,"target":"right","response":"right","rt":566.40000000596,"correct":true,"confidence":2},{"trial_n":44,"n_dots":3.25,"target":"left","response":"left","rt":283.90000000596,"correct":true,"confidence":4},{"trial_n":45,"n_dots":3.15,"target":"left","response":"left","rt":272.59999999404,"correct":true,"confidence":3},{"trial_n":46,"n_dots":3.15,"target":"right","response":"right","rt":769.09999999404,"correct":true,"confidence":3},{"trial_n":47,"n_dots":3.05,"target":"left","response":"left","rt":1124,"correct":true,"confidence":2},{"trial_n":48,"n_dots":3.05,"target":"right","response":"right","rt":619.40000000596,"correct":true,"confidence":4},{"trial_n":49,"n_dots":2.95,"target":"left","response":"right","rt":487.40000000596,"correct":false,"confidence":2},{"trial_n":50,"n_dots":3.05,"target":"right","response":"right","rt":1407.5,"correct":true,"confidence":3},{"trial_n":51,"n_dots":3.05,"target":"right","response":"right","rt":493.59999999404,"correct":true,"confidence":4},{"trial_n":52,"n_dots":2.95,"target":"right","response":"right","rt":441.09999999404,"correct":true,"confidence":4},{"trial_n":53,"n_dots":2.95,"target":"left","response":"left","rt":583.20000000298,"correct":true,"confidence":5},{"trial_n":54,"n_dots":2.85,"target":"right","response":"right","rt":1343,"correct":true,"confidence":3},{"trial_n":55,"n_dots":2.85,"target":"right","response":"right","rt":965.79999999702,"correct":true,"confidence":3},{"trial_n":56,"n_dots":2.75,"target":"right","response":"right","rt":613.29999999702,"correct":true,"confidence":2},{"trial_n":57,"n_dots":2.75,"target":"left","response":"right","rt":742.20000000298,"correct":false,"confidence":3},{"trial_n":58,"n_dots":2.85,"target":"right","response":"right","rt":456,"correct":true,"confidence":5},{"trial_n":59,"n_dots":2.85,"target":"left","response":"right","rt":399.40000000596,"correct":false,"confidence":3},{"trial_n":60,"n_dots":2.95,"target":"right","response":"right","rt":790.30000001192,"correct":true,"confidence":3},{"trial_n":61,"n_dots":2.95,"target":"left","response":"left","rt":763.5,"correct":true,"confidence":3},{"trial_n":62,"n_dots":2.85,"target":"right","response":"left","rt":593.90000000596,"correct":false,"confidence":2},{"trial_n":63,"n_dots":2.95,"target":"left","response":"left","rt":174.60000000894,"correct":true,"confidence":3},{"trial_n":64,"n_dots":2.95,"target":"left","response":"right","rt":376.20000000298,"correct":false,"confidence":3},{"trial_n":65,"n_dots":3.05,"target":"left","response":"left","rt":331.70000000298,"correct":true,"confidence":3},{"trial_n":66,"n_dots":3.05,"target":"right","response":"right","rt":330.40000000596,"correct":true,"confidence":2},{"trial_n":67,"n_dots":2.95,"target":"left","response":"left","rt":350,"correct":true,"confidence":3},{"trial_n":68,"n_dots":2.95,"target":"left","response":"left","rt":370.59999999404,"correct":true,"confidence":2},{"trial_n":69,"n_dots":2.85,"target":"right","response":"right","rt":318.30000001192,"correct":true,"confidence":3},{"trial_n":70,"n_dots":2.85,"target":"right","response":"right","rt":714,"correct":true,"confidence":2},{"trial_n":71,"n_dots":2.75,"target":"right","response":"right","rt":520.79999999702,"correct":true,"confidence":3},{"trial_n":72,"n_dots":2.75,"target":"right","response":"right","rt":277,"correct":true,"confidence":2},{"trial_n":73,"n_dots":2.65,"target":"right","response":"right","rt":564.29999999702,"correct":true,"confidence":3},{"trial_n":74,"n_dots":2.65,"target":"right","response":"right","rt":244.80000001192,"correct":true,"confidence":2},{"trial_n":75,"n_dots":2.55,"target":"right","response":"left","rt":347.90000000596,"correct":false,"confidence":2},{"trial_n":76,"n_dots":2.65,"target":"left","response":"left","rt":307.70000000298,"correct":true,"confidence":2},{"trial_n":77,"n_dots":2.65,"target":"left","response":"right","rt":398.60000000894,"correct":false,"confidence":1},{"trial_n":78,"n_dots":2.75,"target":"left","response":"left","rt":170.29999999702,"correct":true,"confidence":3},{"trial_n":79,"n_dots":2.75,"target":"right","response":"right","rt":1193,"correct":true,"confidence":3},{"trial_n":80,"n_dots":2.65,"target":"right","response":"left","rt":4013.1999999881,"correct":false,"confidence":2},{"trial_n":81,"n_dots":2.75,"target":"left","response":"right","rt":801.20000000298,"correct":false,"confidence":3},{"trial_n":82,"n_dots":2.85,"target":"left","response":"left","rt":315.60000000894,"correct":true,"confidence":2},{"trial_n":83,"n_dots":2.85,"target":"right","response":"right","rt":546,"correct":true,"confidence":2},{"trial_n":84,"n_dots":2.75,"target":"left","response":"right","rt":1507.400000006,"correct":false,"confidence":2},{"trial_n":85,"n_dots":2.85,"target":"right","response":"right","rt":776.09999999404,"correct":true,"confidence":2},{"trial_n":86,"n_dots":2.85,"target":"left","response":"left","rt":221.59999999404,"correct":true,"confidence":2},{"trial_n":87,"n_dots":2.75,"target":"left","response":"right","rt":299.20000000298,"correct":false,"confidence":2},{"trial_n":88,"n_dots":2.85,"target":"left","response":"right","rt":422,"correct":false,"confidence":2},{"trial_n":89,"n_dots":2.95,"target":"left","response":"left","rt":252.70000000298,"correct":true,"confidence":2},{"trial_n":90,"n_dots":2.95,"target":"right","response":"left","rt":846.90000000596,"correct":false,"confidence":1},{"trial_n":91,"n_dots":3.05,"target":"right","response":"right","rt":2317.8999999911,"correct":true,"confidence":2},{"trial_n":92,"n_dots":3.05,"target":"left","response":"left","rt":1517.8000000119,"correct":true,"confidence":2},{"trial_n":93,"n_dots":2.95,"target":"left","response":"right","rt":290,"correct":false,"confidence":2},{"trial_n":94,"n_dots":3.05,"target":"right","response":"right","rt":222.90000000596,"correct":true,"confidence":2},{"trial_n":95,"n_dots":3.05,"target":"right","response":"right","rt":757.89999999106,"correct":true,"confidence":2},{"trial_n":96,"n_dots":2.95,"target":"left","response":"left","rt":289.29999999702,"correct":true,"confidence":2},{"trial_n":97,"n_dots":2.95,"target":"right","response":"right","rt":259.70000000298,"correct":true,"confidence":2},{"trial_n":98,"n_dots":2.85,"target":"left","response":"right","rt":1030.1999999881,"correct":false,"confidence":2},{"trial_n":99,"n_dots":2.95,"target":"left","response":"right","rt":723.90000000596,"correct":false,"confidence":2},{"trial_n":100,"n_dots":3.05,"target":"right","response":"right","rt":87.20000000298,"correct":true,"confidence":2},{"trial_n":101,"n_dots":3.05,"target":"left","response":"left","rt":929.59999999404,"correct":true,"confidence":2},{"trial_n":102,"n_dots":2.95,"target":"right","response":"right","rt":103.39999999106,"correct":true,"confidence":2},{"trial_n":103,"n_dots":2.95,"target":"left","response":"left","rt":974.60000000894,"correct":true,"confidence":2},{"trial_n":104,"n_dots":2.85,"target":"right","response":"left","rt":89278,"correct":false,"confidence":1},{"trial_n":105,"n_dots":2.95,"target":"left","response":"left","rt":443.20000000298,"correct":true,"confidence":3},{"trial_n":106,"n_dots":2.95,"target":"right","response":"right","rt":270.70000000298,"correct":true,"confidence":2},{"trial_n":107,"n_dots":2.85,"target":"left","response":"left","rt":140.60000000894,"correct":true,"confidence":3},{"trial_n":108,"n_dots":2.85,"target":"right","response":"right","rt":234.90000000596,"correct":true,"confidence":3},{"trial_n":109,"n_dots":2.75,"target":"right","response":"right","rt":338.30000001192,"correct":true,"confidence":3},{"trial_n":110,"n_dots":2.75,"target":"left","response":"left","rt":826.10000000894,"correct":true,"confidence":3},{"trial_n":111,"n_dots":2.65,"target":"right","response":"right","rt":426.70000000298,"correct":true,"confidence":3},{"trial_n":112,"n_dots":2.65,"target":"left","response":"left","rt":473.10000000894,"correct":true,"confidence":3},{"trial_n":113,"n_dots":2.55,"target":"right","response":"right","rt":307,"correct":true,"confidence":4},{"trial_n":114,"n_dots":2.55,"target":"left","response":"left","rt":292.90000000596,"correct":true,"confidence":2},{"trial_n":115,"n_dots":2.45,"target":"left","response":"left","rt":307.20000000298,"correct":true,"confidence":3},{"trial_n":116,"n_dots":2.45,"target":"right","response":"right","rt":267.09999999404,"correct":true,"confidence":3},{"trial_n":117,"n_dots":2.35,"target":"left","response":"right","rt":319.70000000298,"correct":false,"confidence":3},{"trial_n":118,"n_dots":2.45,"target":"right","response":"right","rt":276.20000000298,"correct":true,"confidence":3},{"trial_n":119,"n_dots":2.45,"target":"right","response":"right","rt":315.09999999404,"correct":true,"confidence":4},{"trial_n":120,"n_dots":2.35,"target":"right","response":"right","rt":181.79999999702,"correct":true,"confidence":2}]