[{"trial_n":1,"span":8,"encoder":"55243325","distractor":"55273325","target":"present","response":"present","rt":"7645.5","correct":true,"confidence":-1},{"trial_n":2,"span":8,"encoder":"89049269","distractor":"89049209","target":"present","response":"present","rt":"1512.799999997","correct":true,"confidence":-1},{"trial_n":3,"span":10,"encoder":"5586455085","distractor":"5587455085","target":"absent","response":"absent","rt":"1567.8999999911","correct":true,"confidence":-1},{"trial_n":4,"span":10,"encoder":"2260048531","distractor":"2260048931","target":"absent","response":"absent","rt":"2852.099999994","correct":true,"confidence":-1},{"trial_n":5,"span":12,"encoder":"774154364242","distractor":"774154264242","target":"present","response":"present","rt":"3130.299999997","correct":true,"confidence":-1},{"trial_n":6,"span":12,"encoder":"749076018679","distractor":"746076018679","target":"absent","response":"present","rt":"1551.099999994","correct":false,"confidence":-1},{"trial_n":7,"span":10,"encoder":"2073662457","distractor":"2973662457","target":"absent","response":"absent","rt":"1269.799999997","correct":true,"confidence":-1},{"trial_n":8,"span":10,"encoder":"9225309214","distractor":"9225309216","target":"present","response":"absent","rt":"2118.099999994","correct":false,"confidence":-1},{"trial_n":9,"span":8,"encoder":"08108309","distractor":"08008309","target":"present","response":"present","rt":"736.90000000596","correct":true,"confidence":-1},{"trial_n":10,"span":8,"encoder":"95605672","distractor":"95105672","target":"present","response":"present","rt":"765.89999999106","correct":true,"confidence":-1},{"trial_n":11,"span":10,"encoder":"8380348561","distractor":"8380548561","target":"absent","response":"present","rt":"3294.299999997","correct":false,"confidence":-1},{"trial_n":12,"span":9,"encoder":"472353986","distractor":"472353988","target":"present","response":"absent","rt":"587.29999999702","correct":false,"confidence":-1},{"trial_n":13,"span":8,"encoder":"30540658","distractor":"32540658","target":"absent","response":"present","rt":"1856.900000006","correct":false,"confidence":-1},{"trial_n":14,"span":7,"encoder":"8757568","distractor":"6757568","target":"absent","response":"present","rt":"763.79999999702","correct":false,"confidence":-1},{"trial_n":15,"span":6,"encoder":"448706","distractor":"447706","target":"absent","response":"present","rt":"1174.599999994","correct":false,"confidence":-1},{"trial_n":16,"span":5,"encoder":"34193","distractor":"31193","target":"present","response":"present","rt":"732.70000000298","correct":true,"confidence":-1},{"trial_n":17,"span":5,"encoder":"56695","distractor":"56195","target":"absent","response":"absent","rt":"2699.700000003","correct":true,"confidence":-1},{"trial_n":18,"span":6,"encoder":"316605","distractor":"310605","target":"absent","response":"present","rt":"1970.799999997","correct":false,"confidence":-1},{"trial_n":19,"span":5,"encoder":"61421","distractor":"61423","target":"absent","response":"present","rt":"670.29999999702","correct":false,"confidence":-1},{"trial_n":20,"span":4,"encoder":"9400","distractor":"1400","target":"present","response":"present","rt":"695","correct":true,"confidence":-1},{"trial_n":21,"span":4,"encoder":"2815","distractor":"2816","target":"present","response":"present","rt":"726.69999998808","correct":true,"confidence":5},{"trial_n":22,"span":5,"encoder":"35718","distractor":"32718","target":"absent","response":"present","rt":"699.90000000596","correct":false,"confidence":5},{"trial_n":23,"span":4,"encoder":"8680","distractor":"8180","target":"absent","response":"absent","rt":"1187.6999999881","correct":true,"confidence":5},{"trial_n":24,"span":4,"encoder":"4013","distractor":"4413","target":"present","response":"present","rt":"706.10000000894","correct":true,"confidence":5},{"trial_n":25,"span":5,"encoder":"05609","distractor":"25609","target":"absent","response":"absent","rt":"1286.900000006","correct":true,"confidence":5},{"trial_n":26,"span":5,"encoder":"92434","distractor":"92634","target":"present","response":"present","rt":"2014.900000006","correct":true,"confidence":5},{"trial_n":27,"span":6,"encoder":"101653","distractor":"101673","target":"present","response":"present","rt":"2007.1000000089","correct":true,"confidence":5},{"trial_n":28,"span":6,"encoder":"972683","distractor":"972682","target":"present","response":"absent","rt":"1711.799999997","correct":false,"confidence":4},{"trial_n":29,"span":5,"encoder":"80368","distractor":"85368","target":"present","response":"present","rt":"2632.799999997","correct":true,"confidence":5},{"trial_n":30,"span":5,"encoder":"91392","distractor":"71392","target":"absent","response":"absent","rt":"1053.599999994","correct":true,"confidence":5},{"trial_n":31,"span":6,"encoder":"756173","distractor":"736173","target":"absent","response":"absent","rt":"2902.099999994","correct":true,"confidence":4},{"trial_n":32,"span":6,"encoder":"437551","distractor":"439551","target":"absent","response":"absent","rt":"1319.8999999911","correct":true,"confidence":5},{"trial_n":33,"span":7,"encoder":"5472187","distractor":"5172187","target":"absent","response":"present","rt":"4065.400000006","correct":false,"confidence":4},{"trial_n":34,"span":6,"encoder":"254161","distractor":"254061","target":"present","response":"absent","rt":"2604.8000000119","correct":false,"confidence":4},{"trial_n":35,"span":5,"encoder":"01105","distractor":"01305","target":"absent","response":"absent","rt":"866.89999999106","correct":true,"confidence":5},{"trial_n":36,"span":5,"encoder":"12033","distractor":"14033","target":"absent","response":"absent","rt":"858.20000000298","correct":true,"confidence":5},{"trial_n":37,"span":6,"encoder":"958529","distractor":"998529","target":"present","response":"present","rt":"2957.1000000089","correct":true,"confidence":5},{"trial_n":38,"span":6,"encoder":"872375","distractor":"872379","target":"absent","response":"absent","rt":"2543.5","correct":true,"confidence":5},{"trial_n":39,"span":7,"encoder":"6494662","distractor":"6474662","target":"present","response":"present","rt":"3136.900000006","correct":true,"confidence":5},{"trial_n":40,"span":7,"encoder":"1193668","distractor":"6193668","target":"present","response":"present","rt":"2903.5","correct":true,"confidence":5},{"trial_n":41,"span":8,"encoder":"65683589","distractor":"65683189","target":"absent","response":"absent","rt":"1746.6999999881","correct":true,"confidence":4},{"trial_n":42,"span":8,"encoder":"78824761","distractor":"28824761","target":"present","response":"present","rt":"2973.099999994","correct":true,"confidence":4},{"trial_n":43,"span":9,"encoder":"014775536","distractor":"614775536","target":"present","response":"present","rt":"1719.799999997","correct":true,"confidence":4},{"trial_n":44,"span":9,"encoder":"287585594","distractor":"281585594","target":"present","response":"present","rt":"3294.900000006","correct":true,"confidence":4},{"trial_n":45,"span":10,"encoder":"2948766097","distractor":"2948666097","target":"present","response":"absent","rt":"1632.299999997","correct":false,"confidence":3},{"trial_n":46,"span":9,"encoder":"983014672","distractor":"980014672","target":"absent","response":"absent","rt":"1618","correct":true,"confidence":4},{"trial_n":47,"span":9,"encoder":"328457582","distractor":"828457582","target":"present","response":"present","rt":"2890","correct":true,"confidence":4},{"trial_n":48,"span":10,"encoder":"4999555951","distractor":"4999555151","target":"present","response":"present","rt":"2582.299999997","correct":true,"confidence":5},{"trial_n":49,"span":10,"encoder":"7016349203","distractor":"7216349203","target":"absent","response":"present","rt":"2877.599999994","correct":false,"confidence":4},{"trial_n":50,"span":9,"encoder":"417115649","distractor":"417115849","target":"present","response":"present","rt":"1334.099999994","correct":true,"confidence":4},{"trial_n":51,"span":9,"encoder":"079224272","distractor":"072224272","target":"absent","response":"absent","rt":"5011.400000006","correct":true,"confidence":3},{"trial_n":52,"span":10,"encoder":"1545910698","distractor":"1545912698","target":"absent","response":"absent","rt":"1254.799999997","correct":true,"confidence":4},{"trial_n":53,"span":10,"encoder":"9992051862","distractor":"9932051862","target":"present","response":"present","rt":"2571.5","correct":true,"confidence":5},{"trial_n":54,"span":11,"encoder":"80896982111","distractor":"80896982211","target":"present","response":"present","rt":"4283.299999997","correct":true,"confidence":5},{"trial_n":55,"span":11,"encoder":"32721026939","distractor":"02721026939","target":"present","response":"present","rt":"1174.200000003","correct":true,"confidence":4},{"trial_n":56,"span":12,"encoder":"821845489919","distractor":"821845484919","target":"present","response":"absent","rt":"1810.6000000089","correct":false,"confidence":4},{"trial_n":57,"span":11,"encoder":"38740605607","distractor":"78740605607","target":"absent","response":"present","rt":"3312.200000003","correct":false,"confidence":4},{"trial_n":58,"span":10,"encoder":"9272848560","distractor":"9282848560","target":"absent","response":"absent","rt":"863.39999999106","correct":true,"confidence":2},{"trial_n":59,"span":10,"encoder":"4171655832","distractor":"4171695832","target":"absent","response":"absent","rt":"2122.900000006","correct":true,"confidence":4},{"trial_n":60,"span":11,"encoder":"42362196871","distractor":"42362196071","target":"present","response":"present","rt":"2373.8999999911","correct":true,"confidence":5},{"trial_n":61,"span":11,"encoder":"83053346241","distractor":"83053345241","target":"absent","response":"present","rt":"5068.5","correct":false,"confidence":3},{"trial_n":62,"span":10,"encoder":"1463245243","distractor":"1463245253","target":"present","response":"present","rt":"4740.8999999911","correct":true,"confidence":2},{"trial_n":63,"span":10,"encoder":"5220273699","distractor":"5220273698","target":"absent","response":"absent","rt":"922.5","correct":true,"confidence":5},{"trial_n":64,"span":11,"encoder":"47712877208","distractor":"47712837208","target":"absent","response":"absent","rt":"2079.6999999881","correct":true,"confidence":4},{"trial_n":65,"span":11,"encoder":"61537480411","distractor":"61537480611","target":"present","response":"present","rt":"2796.099999994","correct":true,"confidence":4},{"trial_n":66,"span":12,"encoder":"005854860168","distractor":"005854863168","target":"absent","response":"present","rt":"1612.6999999881","correct":false,"confidence":4},{"trial_n":67,"span":11,"encoder":"67939673948","distractor":"67936673948","target":"present","response":"present","rt":"7455.200000003","correct":true,"confidence":3},{"trial_n":68,"span":11,"encoder":"81214496587","distractor":"81204496587","target":"present","response":"present","rt":"2806.900000006","correct":true,"confidence":4},{"trial_n":69,"span":12,"encoder":"686270637800","distractor":"686279637800","target":"present","response":"present","rt":"4328.099999994","correct":true,"confidence":3},{"trial_n":70,"span":12,"encoder":"110742975054","distractor":"110942975054","target":"absent","response":"absent","rt":"1756.400000006","correct":true,"confidence":4},{"trial_n":71,"span":8,"encoder":"48635124","distractor":"45635124","target":"present","response":"absent","rt":"4090.599999994","correct":false,"confidence":-1},{"trial_n":72,"span":7,"encoder":"2044182","distractor":"2544182","target":"present","response":"present","rt":"1007.1000000089","correct":true,"confidence":-1},{"trial_n":73,"span":7,"encoder":"6104368","distractor":"6101368","target":"absent","response":"absent","rt":"3135.799999997","correct":true,"confidence":-1},{"trial_n":74,"span":8,"encoder":"35329752","distractor":"37329752","target":"absent","response":"present","rt":"7826.1000000089","correct":false,"confidence":-1},{"trial_n":75,"span":7,"encoder":"4887085","distractor":"4887385","target":"present","response":"absent","rt":"3531.299999997","correct":false,"confidence":-1},{"trial_n":76,"span":6,"encoder":"748673","distractor":"718673","target":"absent","response":"present","rt":"2612.5","correct":false,"confidence":-1},{"trial_n":77,"span":5,"encoder":"62182","distractor":"62282","target":"absent","response":"absent","rt":"5881.299999997","correct":true,"confidence":-1},{"trial_n":78,"span":5,"encoder":"05480","distractor":"01480","target":"absent","response":"absent","rt":"3638.599999994","correct":true,"confidence":-1},{"trial_n":79,"span":6,"encoder":"405657","distractor":"405637","target":"present","response":"present","rt":"3327.200000003","correct":true,"confidence":-1},{"trial_n":80,"span":6,"encoder":"026830","distractor":"026838","target":"present","response":"present","rt":"1615.1000000089","correct":true,"confidence":-1},{"trial_n":81,"span":7,"encoder":"9771563","distractor":"2771563","target":"present","response":"present","rt":"2335.799999997","correct":true,"confidence":-1},{"trial_n":82,"span":7,"encoder":"1638577","distractor":"1637577","target":"present","response":"absent","rt":"1356.3999999911","correct":false,"confidence":-1},{"trial_n":83,"span":6,"encoder":"321737","distractor":"326737","target":"absent","response":"present","rt":"605.20000000298","correct":false,"confidence":-1},{"trial_n":84,"span":5,"encoder":"20769","distractor":"20761","target":"present","response":"absent","rt":"787.70000000298","correct":false,"confidence":-1},{"trial_n":85,"span":4,"encoder":"3382","distractor":"0382","target":"absent","response":"absent","rt":"1283.3000000119","correct":true,"confidence":-1},{"trial_n":86,"span":4,"encoder":"1207","distractor":"1237","target":"present","response":"present","rt":"1410.400000006","correct":true,"confidence":-1},{"trial_n":87,"span":5,"encoder":"16633","distractor":"66633","target":"present","response":"present","rt":"2283.1000000089","correct":true,"confidence":-1},{"trial_n":88,"span":5,"encoder":"19929","distractor":"12929","target":"absent","response":"absent","rt":"3630.700000003","correct":true,"confidence":-1},{"trial_n":89,"span":6,"encoder":"312489","distractor":"312409","target":"present","response":"present","rt":"35349.899999991","correct":true,"confidence":-1},{"trial_n":90,"span":6,"encoder":"749252","distractor":"749254","target":"absent","response":"absent","rt":"697.79999999702","correct":true,"confidence":-1},{"trial_n":91,"span":7,"encoder":"2530368","distractor":"2730368","target":"absent","response":"present","rt":"693.70000000298","correct":false,"confidence":1},{"trial_n":92,"span":6,"encoder":"222126","distractor":"226126","target":"absent","response":"absent","rt":"2325.400000006","correct":true,"confidence":2},{"trial_n":93,"span":6,"encoder":"492491","distractor":"492431","target":"absent","response":"present","rt":"582.40000000596","correct":false,"confidence":1},{"trial_n":94,"span":5,"encoder":"59734","distractor":"59737","target":"present","response":"absent","rt":"682.80000001192","correct":false,"confidence":1},{"trial_n":95,"span":4,"encoder":"3029","distractor":"3429","target":"present","response":"present","rt":"1349.5","correct":true,"confidence":1},{"trial_n":96,"span":4,"encoder":"1984","distractor":"9984","target":"absent","response":"absent","rt":"1416.200000003","correct":true,"confidence":3},{"trial_n":97,"span":5,"encoder":"55053","distractor":"55353","target":"present","response":"present","rt":"1335.5","correct":true,"confidence":5},{"trial_n":98,"span":5,"encoder":"84254","distractor":"84234","target":"absent","response":"absent","rt":"1673.900000006","correct":true,"confidence":4},{"trial_n":99,"span":6,"encoder":"484030","distractor":"414030","target":"present","response":"present","rt":"1507.8000000119","correct":true,"confidence":5},{"trial_n":100,"span":6,"encoder":"531531","distractor":"531541","target":"present","response":"present","rt":"1810.299999997","correct":true,"confidence":5},{"trial_n":101,"span":7,"encoder":"4741462","distractor":"4741562","target":"absent","response":"absent","rt":"4879.200000003","correct":true,"confidence":2},{"trial_n":102,"span":7,"encoder":"1861691","distractor":"1861699","target":"present","response":"present","rt":"3981.8000000119","correct":true,"confidence":4},{"trial_n":103,"span":8,"encoder":"93646920","distractor":"93646990","target":"absent","response":"absent","rt":"2743.5","correct":true,"confidence":4},{"trial_n":104,"span":8,"encoder":"63421133","distractor":"73421133","target":"present","response":"present","rt":"3958.400000006","correct":true,"confidence":4},{"trial_n":105,"span":9,"encoder":"524521653","distractor":"524521553","target":"absent","response":"absent","rt":"1683.700000003","correct":true,"confidence":4},{"trial_n":106,"span":9,"encoder":"728643838","distractor":"728643830","target":"present","response":"present","rt":"1625.099999994","correct":true,"confidence":5},{"trial_n":107,"span":10,"encoder":"8185997735","distractor":"8185997705","target":"present","response":"present","rt":"1192.599999994","correct":true,"confidence":4},{"trial_n":108,"span":10,"encoder":"8794886449","distractor":"8794886489","target":"absent","response":"absent","rt":"2246.8999999911","correct":true,"confidence":4},{"trial_n":109,"span":11,"encoder":"85194006259","distractor":"85190006259","target":"absent","response":"absent","rt":"3562.400000006","correct":true,"confidence":4},{"trial_n":110,"span":11,"encoder":"89813356895","distractor":"89813356195","target":"present","response":"present","rt":"3022","correct":true,"confidence":4},{"trial_n":111,"span":12,"encoder":"201303180764","distractor":"201803180764","target":"present","response":"present","rt":"5456.900000006","correct":true,"confidence":2},{"trial_n":112,"span":12,"encoder":"284210768170","distractor":"884210768170","target":"absent","response":"absent","rt":"6380.599999994","correct":true,"confidence":3},{"trial_n":113,"span":13,"encoder":"4086485425355","distractor":"4086485425455","target":"present","response":"present","rt":"2266.5","correct":true,"confidence":5},{"trial_n":114,"span":13,"encoder":"6438722883238","distractor":"6438722883237","target":"present","response":"present","rt":"1930","correct":true,"confidence":4},{"trial_n":115,"span":14,"encoder":"81096772948616","distractor":"81096772948016","target":"present","response":"present","rt":"4557.6000000089","correct":true,"confidence":4},{"trial_n":116,"span":14,"encoder":"45637030444204","distractor":"45637030544204","target":"present","response":"present","rt":"1440.099999994","correct":true,"confidence":5},{"trial_n":117,"span":15,"encoder":"466829246609028","distractor":"466129246609028","target":"absent","response":"absent","rt":"6497.5","correct":true,"confidence":4},{"trial_n":118,"span":15,"encoder":"911112700804184","distractor":"911012700804184","target":"absent","response":"absent","rt":"4414.1000000089","correct":true,"confidence":3},{"trial_n":119,"span":16,"encoder":"3433985268850118","distractor":"3483985268850118","target":"present","response":"present","rt":"7147.8999999911","correct":true,"confidence":2},{"trial_n":120,"span":16,"encoder":"4429569386442364","distractor":"4429569386442864","target":"present","response":"absent","rt":"9026.200000003","correct":false,"confidence":2},{"trial_n":121,"span":15,"encoder":"557919463090648","distractor":"557919463030648","target":"present","response":"present","rt":"20479.299999997","correct":true,"confidence":1},{"trial_n":122,"span":15,"encoder":"878183230117386","distractor":"878183260117386","target":"present","response":"absent","rt":"4154.700000003","correct":false,"confidence":1},{"trial_n":123,"span":14,"encoder":"96557073469065","distractor":"96557073469035","target":"absent","response":"absent","rt":"9356.599999994","correct":true,"confidence":1},{"trial_n":124,"span":14,"encoder":"82976628640310","distractor":"82976628640314","target":"present","response":"present","rt":"1001","correct":true,"confidence":1},{"trial_n":125,"span":15,"encoder":"033326252542146","distractor":"033336252542146","target":"absent","response":"absent","rt":"1074.299999997","correct":true,"confidence":1},{"trial_n":126,"span":15,"encoder":"258417038329971","distractor":"258417033329971","target":"absent","response":"absent","rt":"720.69999998808","correct":true,"confidence":1},{"trial_n":127,"span":16,"encoder":"3735217215077475","distractor":"3736217215077475","target":"absent","response":"present","rt":"1251.700000003","correct":false,"confidence":1},{"trial_n":128,"span":15,"encoder":"297781080527940","distractor":"297781480527940","target":"absent","response":"absent","rt":"490.59999999404","correct":true,"confidence":1},{"trial_n":129,"span":15,"encoder":"030100015127935","distractor":"030102015127935","target":"present","response":"present","rt":"2025.1000000089","correct":true,"confidence":5},{"trial_n":130,"span":16,"encoder":"5213861866035244","distractor":"5213861866035240","target":"present","response":"present","rt":"1610.5","correct":true,"confidence":5},{"trial_n":131,"span":16,"encoder":"4392546481003037","distractor":"4392546481003087","target":"absent","response":"absent","rt":"12933.300000012","correct":true,"confidence":1},{"trial_n":132,"span":17,"encoder":"03457719306287962","distractor":"03457719306287862","target":"absent","response":"present","rt":"4906.8999999911","correct":false,"confidence":1},{"trial_n":133,"span":16,"encoder":"0495971460551953","distractor":"0495975460551953","target":"present","response":"absent","rt":"4330.900000006","correct":false,"confidence":1},{"trial_n":134,"span":15,"encoder":"360840589231626","distractor":"360840585231626","target":"absent","response":"present","rt":"2478","correct":false,"confidence":1},{"trial_n":135,"span":14,"encoder":"04196767839610","distractor":"04195767839610","target":"present","response":"absent","rt":"3544.099999994","correct":false,"confidence":1},{"trial_n":136,"span":13,"encoder":"2063406858510","distractor":"2063456858510","target":"absent","response":"present","rt":"4345.299999997","correct":false,"confidence":1},{"trial_n":137,"span":12,"encoder":"392424446790","distractor":"392494446790","target":"present","response":"present","rt":"3910.200000003","correct":true,"confidence":1},{"trial_n":138,"span":12,"encoder":"092285270540","distractor":"792285270540","target":"absent","response":"absent","rt":"2339","correct":true,"confidence":1},{"trial_n":139,"span":13,"encoder":"8981367313885","distractor":"8981357313885","target":"absent","response":"present","rt":"2884.3999999911","correct":false,"confidence":1},{"trial_n":140,"span":12,"encoder":"852691200932","distractor":"852691600932","target":"absent","response":"present","rt":"1555.599999994","correct":false,"confidence":1}]