[{"trial_n":1,"n_dots":4.25,"target":"left","response":"left","rt":1908.8999998569,"correct":true,"confidence":-1},{"trial_n":2,"n_dots":4.25,"target":"right","response":"right","rt":1094.9000000954,"correct":true,"confidence":-1},{"trial_n":3,"n_dots":3.85,"target":"right","response":"left","rt":574.70000004768,"correct":false,"confidence":-1},{"trial_n":4,"n_dots":4.25,"target":"right","response":"right","rt":382.79999995232,"correct":true,"confidence":-1},{"trial_n":5,"n_dots":4.25,"target":"right","response":"right","rt":347,"correct":true,"confidence":-1},{"trial_n":6,"n_dots":3.85,"target":"left","response":"left","rt":242.20000004768,"correct":true,"confidence":-1},{"trial_n":7,"n_dots":3.85,"target":"left","response":"left","rt":486.39999985695,"correct":true,"confidence":-1},{"trial_n":8,"n_dots":3.65,"target":"left","response":"right","rt":257.59999990463,"correct":false,"confidence":-1},{"trial_n":9,"n_dots":3.85,"target":"left","response":"left","rt":443.09999990463,"correct":true,"confidence":-1},{"trial_n":10,"n_dots":3.85,"target":"left","response":"left","rt":434.09999990463,"correct":true,"confidence":-1},{"trial_n":11,"n_dots":3.65,"target":"right","response":"left","rt":362.60000014305,"correct":false,"confidence":-1},{"trial_n":12,"n_dots":3.85,"target":"left","response":"left","rt":564.79999995232,"correct":true,"confidence":-1},{"trial_n":13,"n_dots":3.85,"target":"left","response":"left","rt":208,"correct":true,"confidence":-1},{"trial_n":14,"n_dots":3.75,"target":"right","response":"right","rt":312.89999985695,"correct":true,"confidence":-1},{"trial_n":15,"n_dots":3.75,"target":"right","response":"right","rt":335.5,"correct":true,"confidence":-1},{"trial_n":16,"n_dots":3.65,"target":"right","response":"left","rt":463.70000004768,"correct":false,"confidence":-1},{"trial_n":17,"n_dots":3.75,"target":"left","response":"left","rt":413.20000004768,"correct":true,"confidence":-1},{"trial_n":18,"n_dots":3.75,"target":"right","response":"right","rt":402.79999995232,"correct":true,"confidence":-1},{"trial_n":19,"n_dots":3.65,"target":"left","response":"left","rt":539.79999995232,"correct":true,"confidence":-1},{"trial_n":20,"n_dots":3.65,"target":"right","response":"right","rt":450.20000004768,"correct":true,"confidence":-1},{"trial_n":21,"n_dots":3.55,"target":"right","response":"right","rt":551.29999995232,"correct":true,"confidence":4},{"trial_n":22,"n_dots":3.55,"target":"right","response":"left","rt":618,"correct":false,"confidence":3},{"trial_n":23,"n_dots":3.65,"target":"left","response":"left","rt":1166,"correct":true,"confidence":2},{"trial_n":24,"n_dots":3.65,"target":"left","response":"left","rt":1091.9000000954,"correct":true,"confidence":5},{"trial_n":25,"n_dots":3.55,"target":"left","response":"right","rt":769.79999995232,"correct":false,"confidence":1},{"trial_n":26,"n_dots":3.65,"target":"right","response":"left","rt":829.5,"correct":false,"confidence":4},{"trial_n":27,"n_dots":3.75,"target":"left","response":"left","rt":484.19999980927,"correct":true,"confidence":4},{"trial_n":28,"n_dots":3.75,"target":"right","response":"right","rt":551.79999995232,"correct":true,"confidence":3},{"trial_n":29,"n_dots":3.65,"target":"right","response":"right","rt":901.70000004768,"correct":true,"confidence":4},{"trial_n":30,"n_dots":3.65,"target":"left","response":"left","rt":451.5,"correct":true,"confidence":4},{"trial_n":31,"n_dots":3.55,"target":"right","response":"right","rt":664,"correct":true,"confidence":5},{"trial_n":32,"n_dots":3.55,"target":"right","response":"right","rt":840.40000009537,"correct":true,"confidence":2},{"trial_n":33,"n_dots":3.45,"target":"left","response":"left","rt":895,"correct":true,"confidence":3},{"trial_n":34,"n_dots":3.45,"target":"left","response":"left","rt":1087,"correct":true,"confidence":3},{"trial_n":35,"n_dots":3.35,"target":"left","response":"left","rt":832.5,"correct":true,"confidence":3},{"trial_n":36,"n_dots":3.35,"target":"right","response":"right","rt":779.09999990463,"correct":true,"confidence":3},{"trial_n":37,"n_dots":3.25,"target":"right","response":"left","rt":896.89999985695,"correct":false,"confidence":3},{"trial_n":38,"n_dots":3.35,"target":"right","response":"right","rt":447.10000014305,"correct":true,"confidence":4},{"trial_n":39,"n_dots":3.35,"target":"left","response":"left","rt":439.5,"correct":true,"confidence":4},{"trial_n":40,"n_dots":3.25,"target":"right","response":"left","rt":852.70000004768,"correct":false,"confidence":4},{"trial_n":41,"n_dots":3.35,"target":"left","response":"right","rt":570.29999995232,"correct":false,"confidence":2},{"trial_n":42,"n_dots":3.45,"target":"left","response":"left","rt":796,"correct":true,"confidence":4},{"trial_n":43,"n_dots":3.45,"target":"left","response":"left","rt":1598.6000001431,"correct":true,"confidence":5},{"trial_n":44,"n_dots":3.35,"target":"right","response":"right","rt":1095.5,"correct":true,"confidence":4},{"trial_n":45,"n_dots":3.35,"target":"left","response":"left","rt":1188.1000001431,"correct":true,"confidence":5},{"trial_n":46,"n_dots":3.25,"target":"right","response":"right","rt":1227.3999998569,"correct":true,"confidence":1},{"trial_n":47,"n_dots":3.25,"target":"right","response":"left","rt":632.29999995232,"correct":false,"confidence":4},{"trial_n":48,"n_dots":3.35,"target":"right","response":"right","rt":691.79999995232,"correct":true,"confidence":3},{"trial_n":49,"n_dots":3.35,"target":"right","response":"left","rt":386.29999995232,"correct":false,"confidence":5},{"trial_n":50,"n_dots":3.45,"target":"right","response":"left","rt":685.5,"correct":false,"confidence":5},{"trial_n":51,"n_dots":3.55,"target":"right","response":"left","rt":691.70000004768,"correct":false,"confidence":3},{"trial_n":52,"n_dots":3.65,"target":"left","response":"left","rt":1102.2000000477,"correct":true,"confidence":4},{"trial_n":53,"n_dots":3.65,"target":"right","response":"left","rt":1230.0999999046,"correct":false,"confidence":4},{"trial_n":54,"n_dots":3.75,"target":"left","response":"left","rt":530.60000014305,"correct":true,"confidence":4},{"trial_n":55,"n_dots":3.75,"target":"right","response":"left","rt":1273.0999999046,"correct":false,"confidence":3},{"trial_n":56,"n_dots":3.85,"target":"right","response":"right","rt":1091.5,"correct":true,"confidence":2},{"trial_n":57,"n_dots":3.85,"target":"left","response":"left","rt":1106.5,"correct":true,"confidence":3},{"trial_n":58,"n_dots":3.75,"target":"right","response":"right","rt":462.10000014305,"correct":true,"confidence":5},{"trial_n":59,"n_dots":3.75,"target":"left","response":"left","rt":617,"correct":true,"confidence":3},{"trial_n":60,"n_dots":3.65,"target":"left","response":"left","rt":386.39999985695,"correct":true,"confidence":3},{"trial_n":61,"n_dots":3.65,"target":"right","response":"right","rt":530.70000004768,"correct":true,"confidence":4},{"trial_n":62,"n_dots":3.55,"target":"left","response":"left","rt":365.70000004768,"correct":true,"confidence":3},{"trial_n":63,"n_dots":3.55,"target":"right","response":"right","rt":701.79999995232,"correct":true,"confidence":3},{"trial_n":64,"n_dots":3.45,"target":"right","response":"right","rt":399.79999995232,"correct":true,"confidence":4},{"trial_n":65,"n_dots":3.45,"target":"right","response":"right","rt":767.79999995232,"correct":true,"confidence":3},{"trial_n":66,"n_dots":3.35,"target":"left","response":"left","rt":1624.7999999523,"correct":true,"confidence":3},{"trial_n":67,"n_dots":3.35,"target":"left","response":"left","rt":619.30000019073,"correct":true,"confidence":3},{"trial_n":68,"n_dots":3.25,"target":"right","response":"left","rt":878.5,"correct":false,"confidence":3},{"trial_n":69,"n_dots":3.35,"target":"left","response":"left","rt":1122.6000001431,"correct":true,"confidence":3},{"trial_n":70,"n_dots":3.35,"target":"left","response":"left","rt":756.60000014305,"correct":true,"confidence":4},{"trial_n":71,"n_dots":3.25,"target":"left","response":"left","rt":1434.7000000477,"correct":true,"confidence":3},{"trial_n":72,"n_dots":3.25,"target":"left","response":"left","rt":279.20000004768,"correct":true,"confidence":4},{"trial_n":73,"n_dots":3.15,"target":"right","response":"left","rt":378.10000014305,"correct":false,"confidence":4},{"trial_n":74,"n_dots":3.25,"target":"right","response":"left","rt":196.79999995232,"correct":false,"confidence":4},{"trial_n":75,"n_dots":3.35,"target":"right","response":"left","rt":1019,"correct":false,"confidence":4},{"trial_n":76,"n_dots":3.45,"target":"left","response":"left","rt":313.79999995232,"correct":true,"confidence":4},{"trial_n":77,"n_dots":3.45,"target":"left","response":"left","rt":367.10000014305,"correct":true,"confidence":5},{"trial_n":78,"n_dots":3.35,"target":"right","response":"right","rt":563.70000004768,"correct":true,"confidence":4},{"trial_n":79,"n_dots":3.35,"target":"left","response":"left","rt":470.80000019073,"correct":true,"confidence":3},{"trial_n":80,"n_dots":3.25,"target":"right","response":"right","rt":699.70000004768,"correct":true,"confidence":3},{"trial_n":81,"n_dots":3.25,"target":"left","response":"right","rt":659.20000004768,"correct":false,"confidence":4},{"trial_n":82,"n_dots":3.35,"target":"right","response":"right","rt":244.29999995232,"correct":true,"confidence":4},{"trial_n":83,"n_dots":3.35,"target":"right","response":"right","rt":1512.9000000954,"correct":true,"confidence":4},{"trial_n":84,"n_dots":3.25,"target":"left","response":"left","rt":658.09999990463,"correct":true,"confidence":4},{"trial_n":85,"n_dots":3.25,"target":"left","response":"left","rt":435.20000004768,"correct":true,"confidence":4},{"trial_n":86,"n_dots":3.15,"target":"right","response":"right","rt":475.59999990463,"correct":true,"confidence":4},{"trial_n":87,"n_dots":3.15,"target":"left","response":"left","rt":367.20000004768,"correct":true,"confidence":5},{"trial_n":88,"n_dots":3.05,"target":"left","response":"left","rt":411.80000019073,"correct":true,"confidence":5},{"trial_n":89,"n_dots":3.05,"target":"right","response":"right","rt":435.20000004768,"correct":true,"confidence":5},{"trial_n":90,"n_dots":2.95,"target":"right","response":"left","rt":580.29999995232,"correct":false,"confidence":2},{"trial_n":91,"n_dots":3.05,"target":"right","response":"right","rt":792.09999990463,"correct":true,"confidence":4},{"trial_n":92,"n_dots":3.05,"target":"left","response":"left","rt":353.09999990463,"correct":true,"confidence":3},{"trial_n":93,"n_dots":2.95,"target":"left","response":"left","rt":925.90000009537,"correct":true,"confidence":4},{"trial_n":94,"n_dots":2.95,"target":"right","response":"right","rt":1193.4000000954,"correct":true,"confidence":3},{"trial_n":95,"n_dots":2.85,"target":"left","response":"left","rt":870.5,"correct":true,"confidence":3},{"trial_n":96,"n_dots":2.85,"target":"right","response":"left","rt":349.29999995232,"correct":false,"confidence":4},{"trial_n":97,"n_dots":2.95,"target":"right","response":"right","rt":426.79999995232,"correct":true,"confidence":4},{"trial_n":98,"n_dots":2.95,"target":"left","response":"left","rt":382.40000009537,"correct":true,"confidence":2},{"trial_n":99,"n_dots":2.85,"target":"right","response":"right","rt":446.09999990463,"correct":true,"confidence":1},{"trial_n":100,"n_dots":2.85,"target":"right","response":"left","rt":430.29999995232,"correct":false,"confidence":3},{"trial_n":101,"n_dots":2.95,"target":"left","response":"left","rt":1292,"correct":true,"confidence":3},{"trial_n":102,"n_dots":2.95,"target":"left","response":"left","rt":847.79999995232,"correct":true,"confidence":4},{"trial_n":103,"n_dots":2.85,"target":"right","response":"left","rt":679.30000019073,"correct":false,"confidence":4},{"trial_n":104,"n_dots":2.95,"target":"left","response":"left","rt":632.59999990463,"correct":true,"confidence":4},{"trial_n":105,"n_dots":2.95,"target":"left","response":"left","rt":1007.5,"correct":true,"confidence":5},{"trial_n":106,"n_dots":2.85,"target":"left","response":"left","rt":53.300000190735,"correct":true,"confidence":4},{"trial_n":107,"n_dots":2.85,"target":"left","response":"left","rt":403.29999995232,"correct":true,"confidence":5},{"trial_n":108,"n_dots":2.75,"target":"left","response":"left","rt":481.10000014305,"correct":true,"confidence":5},{"trial_n":109,"n_dots":2.75,"target":"left","response":"right","rt":810.60000014305,"correct":false,"confidence":3},{"trial_n":110,"n_dots":2.85,"target":"left","response":"left","rt":765.39999985695,"correct":true,"confidence":3},{"trial_n":111,"n_dots":2.85,"target":"left","response":"left","rt":630.60000014305,"correct":true,"confidence":5},{"trial_n":112,"n_dots":2.75,"target":"right","response":"right","rt":705.29999995232,"correct":true,"confidence":2},{"trial_n":113,"n_dots":2.75,"target":"right","response":"right","rt":892.60000014305,"correct":true,"confidence":4},{"trial_n":114,"n_dots":2.65,"target":"left","response":"left","rt":405.70000004768,"correct":true,"confidence":3},{"trial_n":115,"n_dots":2.65,"target":"right","response":"left","rt":597.40000009537,"correct":false,"confidence":5},{"trial_n":116,"n_dots":2.75,"target":"right","response":"right","rt":442.69999980927,"correct":true,"confidence":4},{"trial_n":117,"n_dots":2.75,"target":"right","response":"left","rt":583.70000004768,"correct":false,"confidence":3},{"trial_n":118,"n_dots":2.85,"target":"left","response":"left","rt":341.39999985695,"correct":true,"confidence":5},{"trial_n":119,"n_dots":2.85,"target":"right","response":"left","rt":873.79999995232,"correct":false,"confidence":3},{"trial_n":120,"n_dots":2.95,"target":"left","response":"left","rt":563.79999995232,"correct":true,"confidence":2}]