[{"trial_n":1,"min":25,"max":230,"target":"present","response":"present","rt":3655,"correct":true,"confidence":-1},{"trial_n":2,"min":25,"max":230,"target":"present","response":"present","rt":2455,"correct":true,"confidence":-1},{"trial_n":3,"min":41,"max":214,"target":"absent","response":"absent","rt":1047,"correct":true,"confidence":-1},{"trial_n":4,"min":41,"max":214,"target":"absent","response":"absent","rt":714,"correct":true,"confidence":-1},{"trial_n":5,"min":57,"max":198,"target":"present","response":"present","rt":1137,"correct":true,"confidence":-1},{"trial_n":6,"min":57,"max":198,"target":"absent","response":"absent","rt":982,"correct":true,"confidence":-1},{"trial_n":7,"min":73,"max":182,"target":"absent","response":"absent","rt":798,"correct":true,"confidence":-1},{"trial_n":8,"min":73,"max":182,"target":"absent","response":"absent","rt":649,"correct":true,"confidence":-1},{"trial_n":9,"min":89,"max":166,"target":"absent","response":"absent","rt":700,"correct":true,"confidence":-1},{"trial_n":10,"min":89,"max":166,"target":"present","response":"present","rt":1904,"correct":true,"confidence":-1},{"trial_n":11,"min":97,"max":158,"target":"present","response":"absent","rt":1091,"correct":false,"confidence":-1},{"trial_n":12,"min":89,"max":166,"target":"absent","response":"absent","rt":2299,"correct":true,"confidence":-1},{"trial_n":13,"min":89,"max":166,"target":"absent","response":"absent","rt":882,"correct":true,"confidence":-1},{"trial_n":14,"min":97,"max":158,"target":"present","response":"absent","rt":1191,"correct":false,"confidence":-1},{"trial_n":15,"min":89,"max":166,"target":"present","response":"absent","rt":1257,"correct":false,"confidence":-1},{"trial_n":16,"min":81,"max":174,"target":"absent","response":"present","rt":1132,"correct":false,"confidence":-1},{"trial_n":17,"min":73,"max":182,"target":"absent","response":"present","rt":1050,"correct":false,"confidence":-1},{"trial_n":18,"min":65,"max":190,"target":"present","response":"present","rt":776,"correct":true,"confidence":-1},{"trial_n":19,"min":65,"max":190,"target":"present","response":"present","rt":826,"correct":true,"confidence":-1},{"trial_n":20,"min":73,"max":182,"target":"present","response":"present","rt":543,"correct":true,"confidence":-1},{"trial_n":21,"min":73,"max":182,"target":"absent","response":"present","rt":1739,"correct":false,"confidence":3},{"trial_n":22,"min":69,"max":186,"target":"absent","response":"absent","rt":21267,"correct":true,"confidence":1},{"trial_n":23,"min":69,"max":186,"target":"present","response":"present","rt":1059,"correct":true,"confidence":4},{"trial_n":24,"min":73,"max":182,"target":"present","response":"present","rt":844,"correct":true,"confidence":5},{"trial_n":25,"min":73,"max":182,"target":"absent","response":"present","rt":2384,"correct":false,"confidence":2},{"trial_n":26,"min":69,"max":186,"target":"absent","response":"absent","rt":1151,"correct":true,"confidence":4},{"trial_n":27,"min":69,"max":186,"target":"absent","response":"absent","rt":1135,"correct":true,"confidence":4},{"trial_n":28,"min":73,"max":182,"target":"present","response":"present","rt":1075,"correct":true,"confidence":3},{"trial_n":29,"min":73,"max":182,"target":"absent","response":"absent","rt":1017,"correct":true,"confidence":2},{"trial_n":30,"min":77,"max":178,"target":"absent","response":"present","rt":2351,"correct":false,"confidence":2},{"trial_n":31,"min":75,"max":180,"target":"absent","response":"present","rt":940,"correct":false,"confidence":3},{"trial_n":32,"min":73,"max":182,"target":"present","response":"present","rt":810,"correct":true,"confidence":4},{"trial_n":33,"min":73,"max":182,"target":"absent","response":"absent","rt":1017,"correct":true,"confidence":1},{"trial_n":34,"min":75,"max":180,"target":"present","response":"present","rt":877,"correct":true,"confidence":5},{"trial_n":35,"min":75,"max":180,"target":"present","response":"present","rt":860,"correct":true,"confidence":4},{"trial_n":36,"min":77,"max":178,"target":"absent","response":"absent","rt":1001,"correct":true,"confidence":4},{"trial_n":37,"min":77,"max":178,"target":"present","response":"present","rt":777,"correct":true,"confidence":3},{"trial_n":38,"min":79,"max":176,"target":"absent","response":"absent","rt":885.99999999997,"correct":true,"confidence":1},{"trial_n":39,"min":79,"max":176,"target":"absent","response":"absent","rt":1218,"correct":true,"confidence":4},{"trial_n":40,"min":81,"max":174,"target":"absent","response":"absent","rt":935,"correct":true,"confidence":3},{"trial_n":41,"min":81,"max":174,"target":"absent","response":"present","rt":1638,"correct":false,"confidence":2},{"trial_n":42,"min":80,"max":175,"target":"absent","response":"absent","rt":1102,"correct":true,"confidence":4},{"trial_n":43,"min":80,"max":175,"target":"present","response":"present","rt":1378,"correct":true,"confidence":5},{"trial_n":44,"min":81,"max":174,"target":"present","response":"present","rt":945,"correct":true,"confidence":4},{"trial_n":45,"min":81,"max":174,"target":"present","response":"present","rt":761,"correct":true,"confidence":4},{"trial_n":46,"min":82,"max":173,"target":"present","response":"present","rt":644,"correct":true,"confidence":4},{"trial_n":47,"min":82,"max":173,"target":"present","response":"absent","rt":3161,"correct":false,"confidence":2},{"trial_n":48,"min":81,"max":174,"target":"present","response":"absent","rt":28013,"correct":false,"confidence":1},{"trial_n":49,"min":80,"max":175,"target":"absent","response":"absent","rt":1369,"correct":true,"confidence":2},{"trial_n":50,"min":80,"max":175,"target":"present","response":"present","rt":996,"correct":true,"confidence":2},{"trial_n":51,"min":81,"max":174,"target":"present","response":"present","rt":1633,"correct":true,"confidence":3},{"trial_n":52,"min":81,"max":174,"target":"absent","response":"absent","rt":1030,"correct":true,"confidence":1},{"trial_n":53,"min":82,"max":173,"target":"present","response":"absent","rt":1624,"correct":false,"confidence":2},{"trial_n":54,"min":81,"max":174,"target":"present","response":"absent","rt":1575,"correct":false,"confidence":1},{"trial_n":55,"min":80,"max":175,"target":"absent","response":"absent","rt":2064.0000000001,"correct":true,"confidence":4},{"trial_n":56,"min":80,"max":175,"target":"absent","response":"absent","rt":1548,"correct":true,"confidence":2},{"trial_n":57,"min":81,"max":174,"target":"absent","response":"absent","rt":1764.0000000001,"correct":true,"confidence":4},{"trial_n":58,"min":81,"max":174,"target":"present","response":"present","rt":1258,"correct":true,"confidence":3},{"trial_n":59,"min":82,"max":173,"target":"absent","response":"present","rt":1549.0000000001,"correct":false,"confidence":2},{"trial_n":60,"min":81,"max":174,"target":"absent","response":"absent","rt":1132.0000000001,"correct":true,"confidence":2},{"trial_n":61,"min":81,"max":174,"target":"present","response":"present","rt":1175.9999999999,"correct":true,"confidence":4},{"trial_n":62,"min":82,"max":173,"target":"present","response":"absent","rt":1726.0000000001,"correct":false,"confidence":2},{"trial_n":63,"min":81,"max":174,"target":"absent","response":"absent","rt":1450,"correct":true,"confidence":1},{"trial_n":64,"min":81,"max":174,"target":"present","response":"absent","rt":1394,"correct":false,"confidence":3},{"trial_n":65,"min":80,"max":175,"target":"present","response":"present","rt":728,"correct":true,"confidence":4},{"trial_n":66,"min":80,"max":175,"target":"present","response":"absent","rt":911,"correct":false,"confidence":3},{"trial_n":67,"min":79,"max":176,"target":"absent","response":"absent","rt":2500,"correct":true,"confidence":2},{"trial_n":68,"min":79,"max":176,"target":"present","response":"present","rt":960.99999999994,"correct":true,"confidence":4},{"trial_n":69,"min":80,"max":175,"target":"present","response":"present","rt":911,"correct":true,"confidence":3},{"trial_n":70,"min":80,"max":175,"target":"present","response":"absent","rt":10712,"correct":false,"confidence":1},{"trial_n":71,"min":41,"max":214,"target":"present","response":"present","rt":4941,"correct":true,"confidence":-1},{"trial_n":72,"min":41,"max":214,"target":"present","response":"present","rt":221,"correct":true,"confidence":-1},{"trial_n":73,"min":57,"max":198,"target":"absent","response":"absent","rt":317.99999999994,"correct":true,"confidence":-1},{"trial_n":74,"min":57,"max":198,"target":"absent","response":"absent","rt":452,"correct":true,"confidence":-1},{"trial_n":75,"min":73,"max":182,"target":"present","response":"present","rt":289.00000000012,"correct":true,"confidence":-1},{"trial_n":76,"min":73,"max":182,"target":"absent","response":"absent","rt":396.99999999994,"correct":true,"confidence":-1},{"trial_n":77,"min":89,"max":166,"target":"absent","response":"present","rt":964.00000000006,"correct":false,"confidence":-1},{"trial_n":78,"min":73,"max":182,"target":"absent","response":"absent","rt":304.99999999994,"correct":true,"confidence":-1},{"trial_n":79,"min":73,"max":182,"target":"absent","response":"absent","rt":527,"correct":true,"confidence":-1},{"trial_n":80,"min":89,"max":166,"target":"present","response":"present","rt":392,"correct":true,"confidence":-1},{"trial_n":81,"min":89,"max":166,"target":"present","response":"present","rt":421.00000000012,"correct":true,"confidence":-1},{"trial_n":82,"min":97,"max":158,"target":"present","response":"absent","rt":368,"correct":false,"confidence":-1},{"trial_n":83,"min":89,"max":166,"target":"absent","response":"present","rt":584.00000000012,"correct":false,"confidence":-1},{"trial_n":84,"min":81,"max":174,"target":"absent","response":"present","rt":776,"correct":false,"confidence":-1},{"trial_n":85,"min":73,"max":182,"target":"present","response":"present","rt":510,"correct":true,"confidence":-1},{"trial_n":86,"min":73,"max":182,"target":"present","response":"present","rt":430,"correct":true,"confidence":-1},{"trial_n":87,"min":81,"max":174,"target":"present","response":"present","rt":314,"correct":true,"confidence":-1},{"trial_n":88,"min":81,"max":174,"target":"present","response":"present","rt":305,"correct":true,"confidence":-1},{"trial_n":89,"min":89,"max":166,"target":"present","response":"present","rt":533.99999999988,"correct":true,"confidence":-1},{"trial_n":90,"min":89,"max":166,"target":"present","response":"absent","rt":428,"correct":false,"confidence":-1},{"trial_n":91,"min":85,"max":170,"target":"absent","response":"present","rt":1238,"correct":false,"confidence":2},{"trial_n":92,"min":81,"max":174,"target":"absent","response":"absent","rt":737,"correct":true,"confidence":4},{"trial_n":93,"min":81,"max":174,"target":"present","response":"present","rt":1229,"correct":true,"confidence":4},{"trial_n":94,"min":85,"max":170,"target":"present","response":"present","rt":703,"correct":true,"confidence":3},{"trial_n":95,"min":85,"max":170,"target":"present","response":"absent","rt":1337,"correct":false,"confidence":2},{"trial_n":96,"min":81,"max":174,"target":"absent","response":"absent","rt":653,"correct":true,"confidence":4},{"trial_n":97,"min":81,"max":174,"target":"absent","response":"present","rt":729,"correct":false,"confidence":1},{"trial_n":98,"min":77,"max":178,"target":"absent","response":"absent","rt":514.00000000012,"correct":true,"confidence":4},{"trial_n":99,"min":77,"max":178,"target":"absent","response":"absent","rt":829.99999999988,"correct":true,"confidence":5},{"trial_n":100,"min":81,"max":174,"target":"present","response":"present","rt":365,"correct":true,"confidence":5},{"trial_n":101,"min":81,"max":174,"target":"present","response":"present","rt":182,"correct":true,"confidence":5},{"trial_n":102,"min":83,"max":172,"target":"present","response":"present","rt":173,"correct":true,"confidence":5},{"trial_n":103,"min":83,"max":172,"target":"absent","response":"absent","rt":749,"correct":true,"confidence":4},{"trial_n":104,"min":85,"max":170,"target":"present","response":"present","rt":212,"correct":true,"confidence":4},{"trial_n":105,"min":85,"max":170,"target":"absent","response":"absent","rt":628,"correct":true,"confidence":4},{"trial_n":106,"min":87,"max":168,"target":"present","response":"present","rt":280,"correct":true,"confidence":3},{"trial_n":107,"min":87,"max":168,"target":"present","response":"present","rt":444,"correct":true,"confidence":2},{"trial_n":108,"min":89,"max":166,"target":"absent","response":"present","rt":654,"correct":false,"confidence":2},{"trial_n":109,"min":87,"max":168,"target":"absent","response":"absent","rt":649,"correct":true,"confidence":2},{"trial_n":110,"min":87,"max":168,"target":"absent","response":"present","rt":388,"correct":false,"confidence":3},{"trial_n":111,"min":86,"max":169,"target":"absent","response":"present","rt":419.00000000012,"correct":false,"confidence":2},{"trial_n":112,"min":85,"max":170,"target":"present","response":"present","rt":387.99999999988,"correct":true,"confidence":2},{"trial_n":113,"min":85,"max":170,"target":"absent","response":"absent","rt":819.00000000012,"correct":true,"confidence":3},{"trial_n":114,"min":86,"max":169,"target":"present","response":"present","rt":613,"correct":true,"confidence":3},{"trial_n":115,"min":86,"max":169,"target":"absent","response":"present","rt":523.99999999988,"correct":false,"confidence":2},{"trial_n":116,"min":85,"max":170,"target":"absent","response":"present","rt":522.99999999988,"correct":false,"confidence":1},{"trial_n":117,"min":84,"max":171,"target":"present","response":"present","rt":616,"correct":true,"confidence":2},{"trial_n":118,"min":84,"max":171,"target":"absent","response":"absent","rt":726,"correct":true,"confidence":2},{"trial_n":119,"min":85,"max":170,"target":"present","response":"present","rt":450,"correct":true,"confidence":4},{"trial_n":120,"min":85,"max":170,"target":"present","response":"present","rt":163,"correct":true,"confidence":4},{"trial_n":121,"min":86,"max":169,"target":"present","response":"present","rt":873,"correct":true,"confidence":2},{"trial_n":122,"min":86,"max":169,"target":"absent","response":"absent","rt":547,"correct":true,"confidence":3},{"trial_n":123,"min":87,"max":168,"target":"present","response":"present","rt":285,"correct":true,"confidence":4},{"trial_n":124,"min":87,"max":168,"target":"absent","response":"present","rt":1147.0000000001,"correct":false,"confidence":1},{"trial_n":125,"min":86,"max":169,"target":"absent","response":"present","rt":590,"correct":false,"confidence":2},{"trial_n":126,"min":85,"max":170,"target":"absent","response":"absent","rt":547,"correct":true,"confidence":4},{"trial_n":127,"min":85,"max":170,"target":"present","response":"present","rt":984,"correct":true,"confidence":2},{"trial_n":128,"min":86,"max":169,"target":"absent","response":"absent","rt":697,"correct":true,"confidence":3},{"trial_n":129,"min":86,"max":169,"target":"present","response":"present","rt":772.00000000012,"correct":true,"confidence":4},{"trial_n":130,"min":87,"max":168,"target":"present","response":"present","rt":476,"correct":true,"confidence":5},{"trial_n":131,"min":87,"max":168,"target":"absent","response":"absent","rt":1053,"correct":true,"confidence":1},{"trial_n":132,"min":88,"max":167,"target":"present","response":"present","rt":768,"correct":true,"confidence":2},{"trial_n":133,"min":88,"max":167,"target":"absent","response":"absent","rt":1345,"correct":true,"confidence":1},{"trial_n":134,"min":89,"max":166,"target":"present","response":"present","rt":483,"correct":true,"confidence":4},{"trial_n":135,"min":89,"max":166,"target":"absent","response":"absent","rt":743,"correct":true,"confidence":5},{"trial_n":136,"min":90,"max":165,"target":"present","response":"present","rt":474.99999999988,"correct":true,"confidence":4},{"trial_n":137,"min":90,"max":165,"target":"absent","response":"absent","rt":865.99999999988,"correct":true,"confidence":5},{"trial_n":138,"min":91,"max":164,"target":"absent","response":"present","rt":681,"correct":false,"confidence":4},{"trial_n":139,"min":90,"max":165,"target":"present","response":"present","rt":486,"correct":true,"confidence":5},{"trial_n":140,"min":90,"max":165,"target":"present","response":"present","rt":832,"correct":true,"confidence":2}]