[{"trial_n":1,"n_dots":4.25,"target":"left","response":"left","rt":6043.0999999642,"correct":true,"confidence":-1},{"trial_n":2,"n_dots":4.25,"target":"right","response":"right","rt":1181.3999999762,"correct":true,"confidence":-1},{"trial_n":3,"n_dots":3.85,"target":"left","response":"left","rt":384.30000001192,"correct":true,"confidence":-1},{"trial_n":4,"n_dots":3.85,"target":"left","response":"left","rt":328.30000001192,"correct":true,"confidence":-1},{"trial_n":5,"n_dots":3.45,"target":"left","response":"left","rt":370.29999995232,"correct":true,"confidence":-1},{"trial_n":6,"n_dots":3.45,"target":"right","response":"right","rt":461.40000003576,"correct":true,"confidence":-1},{"trial_n":7,"n_dots":3.05,"target":"left","response":"left","rt":257.39999997616,"correct":true,"confidence":-1},{"trial_n":8,"n_dots":3.05,"target":"left","response":"left","rt":263.39999997616,"correct":true,"confidence":-1},{"trial_n":9,"n_dots":2.85,"target":"left","response":"right","rt":688.69999998808,"correct":false,"confidence":-1},{"trial_n":10,"n_dots":3.05,"target":"right","response":"right","rt":260.10000002384,"correct":true,"confidence":-1},{"trial_n":11,"n_dots":3.05,"target":"left","response":"left","rt":617.90000003576,"correct":true,"confidence":-1},{"trial_n":12,"n_dots":2.85,"target":"right","response":"left","rt":286.19999998808,"correct":false,"confidence":-1},{"trial_n":13,"n_dots":2.95,"target":"right","response":"left","rt":101.30000001192,"correct":false,"confidence":-1},{"trial_n":14,"n_dots":3.05,"target":"left","response":"left","rt":2172.9000000358,"correct":true,"confidence":-1},{"trial_n":15,"n_dots":3.05,"target":"left","response":"right","rt":498.89999997616,"correct":false,"confidence":-1},{"trial_n":16,"n_dots":3.15,"target":"left","response":"left","rt":31,"correct":true,"confidence":-1},{"trial_n":17,"n_dots":3.15,"target":"left","response":"left","rt":638.5,"correct":true,"confidence":-1},{"trial_n":18,"n_dots":3.05,"target":"right","response":"right","rt":220.90000003576,"correct":true,"confidence":-1},{"trial_n":19,"n_dots":3.05,"target":"right","response":"right","rt":15.899999976158,"correct":true,"confidence":-1},{"trial_n":20,"n_dots":2.95,"target":"right","response":"right","rt":729.90000003576,"correct":true,"confidence":-1},{"trial_n":21,"n_dots":2.95,"target":"left","response":"left","rt":310.10000002384,"correct":true,"confidence":1},{"trial_n":22,"n_dots":2.85,"target":"left","response":"right","rt":596.5,"correct":false,"confidence":1},{"trial_n":23,"n_dots":2.95,"target":"left","response":"left","rt":165.19999998808,"correct":true,"confidence":1},{"trial_n":24,"n_dots":2.95,"target":"right","response":"right","rt":45.5,"correct":true,"confidence":1},{"trial_n":25,"n_dots":2.85,"target":"right","response":"right","rt":512.60000002384,"correct":true,"confidence":1},{"trial_n":26,"n_dots":2.85,"target":"right","response":"left","rt":860.40000003576,"correct":false,"confidence":1},{"trial_n":27,"n_dots":2.95,"target":"left","response":"left","rt":58.099999964237,"correct":true,"confidence":1},{"trial_n":28,"n_dots":2.95,"target":"left","response":"left","rt":181.19999998808,"correct":true,"confidence":1},{"trial_n":29,"n_dots":2.85,"target":"left","response":"left","rt":142.5,"correct":true,"confidence":1},{"trial_n":30,"n_dots":2.85,"target":"right","response":"right","rt":599.40000003576,"correct":true,"confidence":1},{"trial_n":31,"n_dots":2.75,"target":"left","response":"left","rt":42.5,"correct":true,"confidence":1},{"trial_n":32,"n_dots":2.75,"target":"right","response":"right","rt":654.10000002384,"correct":true,"confidence":1},{"trial_n":33,"n_dots":2.65,"target":"right","response":"left","rt":9.5,"correct":false,"confidence":1},{"trial_n":34,"n_dots":2.75,"target":"right","response":"right","rt":167.30000001192,"correct":true,"confidence":1},{"trial_n":35,"n_dots":2.75,"target":"right","response":"left","rt":271.60000002384,"correct":false,"confidence":1},{"trial_n":36,"n_dots":2.85,"target":"left","response":"right","rt":311.79999995232,"correct":false,"confidence":1},{"trial_n":37,"n_dots":2.95,"target":"right","response":"right","rt":688.60000002384,"correct":true,"confidence":1},{"trial_n":38,"n_dots":2.95,"target":"left","response":"left","rt":399.19999998808,"correct":true,"confidence":1},{"trial_n":39,"n_dots":2.85,"target":"left","response":"right","rt":436.30000001192,"correct":false,"confidence":1},{"trial_n":40,"n_dots":2.95,"target":"right","response":"left","rt":424.5,"correct":false,"confidence":1},{"trial_n":41,"n_dots":3.05,"target":"right","response":"right","rt":80.900000035763,"correct":true,"confidence":1},{"trial_n":42,"n_dots":3.05,"target":"left","response":"left","rt":1166.6999999881,"correct":true,"confidence":1},{"trial_n":43,"n_dots":2.95,"target":"left","response":"left","rt":292.09999996424,"correct":true,"confidence":1},{"trial_n":44,"n_dots":2.95,"target":"left","response":"left","rt":660.5,"correct":true,"confidence":1},{"trial_n":45,"n_dots":2.85,"target":"left","response":"right","rt":332.40000003576,"correct":false,"confidence":1},{"trial_n":46,"n_dots":2.95,"target":"right","response":"right","rt":710.5,"correct":true,"confidence":1},{"trial_n":47,"n_dots":2.95,"target":"left","response":"left","rt":225.5,"correct":true,"confidence":1},{"trial_n":48,"n_dots":2.85,"target":"right","response":"right","rt":33.400000035763,"correct":true,"confidence":1},{"trial_n":49,"n_dots":2.85,"target":"right","response":"left","rt":612.40000003576,"correct":false,"confidence":1},{"trial_n":50,"n_dots":2.95,"target":"left","response":"left","rt":229.30000001192,"correct":true,"confidence":1},{"trial_n":51,"n_dots":2.95,"target":"right","response":"right","rt":167.70000004768,"correct":true,"confidence":1},{"trial_n":52,"n_dots":2.85,"target":"right","response":"left","rt":24.100000023842,"correct":false,"confidence":1},{"trial_n":53,"n_dots":2.95,"target":"right","response":"right","rt":417.39999997616,"correct":true,"confidence":1},{"trial_n":54,"n_dots":2.95,"target":"left","response":"left","rt":501.40000003576,"correct":true,"confidence":1},{"trial_n":55,"n_dots":2.85,"target":"left","response":"left","rt":171,"correct":true,"confidence":1},{"trial_n":56,"n_dots":2.85,"target":"right","response":"left","rt":-2.5999999642372,"correct":false,"confidence":1},{"trial_n":57,"n_dots":2.95,"target":"left","response":"left","rt":471.80000001192,"correct":true,"confidence":1},{"trial_n":58,"n_dots":2.95,"target":"right","response":"right","rt":567.5,"correct":true,"confidence":1},{"trial_n":59,"n_dots":2.85,"target":"right","response":"right","rt":103.59999996424,"correct":true,"confidence":1},{"trial_n":60,"n_dots":2.85,"target":"left","response":"right","rt":1635.7000000477,"correct":false,"confidence":1},{"trial_n":61,"n_dots":2.95,"target":"left","response":"left","rt":2350.0999999642,"correct":true,"confidence":1},{"trial_n":62,"n_dots":2.95,"target":"right","response":"right","rt":696.10000002384,"correct":true,"confidence":1},{"trial_n":63,"n_dots":2.85,"target":"left","response":"right","rt":524,"correct":false,"confidence":1},{"trial_n":64,"n_dots":2.95,"target":"right","response":"right","rt":543.80000001192,"correct":true,"confidence":1},{"trial_n":65,"n_dots":2.95,"target":"left","response":"left","rt":418.60000002384,"correct":true,"confidence":1},{"trial_n":66,"n_dots":2.85,"target":"left","response":"right","rt":396.10000002384,"correct":false,"confidence":1},{"trial_n":67,"n_dots":2.95,"target":"left","response":"right","rt":256.79999995232,"correct":false,"confidence":1},{"trial_n":68,"n_dots":3.05,"target":"right","response":"right","rt":2.3999999761581,"correct":true,"confidence":1},{"trial_n":69,"n_dots":3.05,"target":"left","response":"right","rt":12.599999964237,"correct":false,"confidence":1},{"trial_n":70,"n_dots":3.15,"target":"right","response":"left","rt":55.600000023842,"correct":false,"confidence":1},{"trial_n":71,"n_dots":3.25,"target":"right","response":"left","rt":200.60000002384,"correct":false,"confidence":1},{"trial_n":72,"n_dots":3.35,"target":"left","response":"left","rt":378.80000001192,"correct":true,"confidence":1},{"trial_n":73,"n_dots":3.35,"target":"right","response":"right","rt":846.19999998808,"correct":true,"confidence":1},{"trial_n":74,"n_dots":3.25,"target":"right","response":"right","rt":57.900000035763,"correct":true,"confidence":1},{"trial_n":75,"n_dots":3.25,"target":"right","response":"left","rt":172.30000001192,"correct":false,"confidence":1},{"trial_n":76,"n_dots":3.35,"target":"right","response":"right","rt":219.70000004768,"correct":true,"confidence":1},{"trial_n":77,"n_dots":3.35,"target":"left","response":"left","rt":297.30000001192,"correct":true,"confidence":1},{"trial_n":78,"n_dots":3.25,"target":"left","response":"right","rt":205.09999996424,"correct":false,"confidence":1},{"trial_n":79,"n_dots":3.35,"target":"right","response":"right","rt":303.80000001192,"correct":true,"confidence":1},{"trial_n":80,"n_dots":3.35,"target":"right","response":"right","rt":21.599999964237,"correct":true,"confidence":1},{"trial_n":81,"n_dots":3.25,"target":"right","response":"right","rt":437.19999998808,"correct":true,"confidence":1},{"trial_n":82,"n_dots":3.25,"target":"left","response":"right","rt":594.90000003576,"correct":false,"confidence":1},{"trial_n":83,"n_dots":3.35,"target":"right","response":"right","rt":23,"correct":true,"confidence":1},{"trial_n":84,"n_dots":3.35,"target":"right","response":"right","rt":921.69999998808,"correct":true,"confidence":1},{"trial_n":85,"n_dots":3.25,"target":"left","response":"left","rt":203.30000001192,"correct":true,"confidence":1},{"trial_n":86,"n_dots":3.25,"target":"left","response":"left","rt":111.39999997616,"correct":true,"confidence":1},{"trial_n":87,"n_dots":3.15,"target":"left","response":"right","rt":132.39999997616,"correct":false,"confidence":1},{"trial_n":88,"n_dots":3.25,"target":"left","response":"right","rt":1399.3999999762,"correct":false,"confidence":1},{"trial_n":89,"n_dots":3.35,"target":"left","response":"left","rt":306.69999998808,"correct":true,"confidence":3},{"trial_n":90,"n_dots":3.35,"target":"right","response":"right","rt":447,"correct":true,"confidence":1},{"trial_n":91,"n_dots":3.25,"target":"left","response":"left","rt":532.5,"correct":true,"confidence":1},{"trial_n":92,"n_dots":3.25,"target":"right","response":"left","rt":461.60000002384,"correct":false,"confidence":1},{"trial_n":93,"n_dots":3.35,"target":"right","response":"right","rt":352.39999997616,"correct":true,"confidence":1},{"trial_n":94,"n_dots":3.35,"target":"right","response":"right","rt":21.200000047684,"correct":true,"confidence":1},{"trial_n":95,"n_dots":3.25,"target":"right","response":"right","rt":118.69999998808,"correct":true,"confidence":1},{"trial_n":96,"n_dots":3.25,"target":"left","response":"left","rt":134.59999996424,"correct":true,"confidence":1},{"trial_n":97,"n_dots":3.15,"target":"left","response":"left","rt":20.300000011921,"correct":true,"confidence":1},{"trial_n":98,"n_dots":3.15,"target":"left","response":"left","rt":213.90000003576,"correct":true,"confidence":1},{"trial_n":99,"n_dots":3.05,"target":"left","response":"left","rt":315.5,"correct":true,"confidence":1},{"trial_n":100,"n_dots":3.05,"target":"right","response":"right","rt":275.59999996424,"correct":true,"confidence":1},{"trial_n":101,"n_dots":2.95,"target":"left","response":"left","rt":455.59999996424,"correct":true,"confidence":1},{"trial_n":102,"n_dots":2.95,"target":"right","response":"right","rt":232.90000003576,"correct":true,"confidence":1},{"trial_n":103,"n_dots":2.85,"target":"right","response":"right","rt":396.89999997616,"correct":true,"confidence":1},{"trial_n":104,"n_dots":2.85,"target":"right","response":"left","rt":448.80000001192,"correct":false,"confidence":1},{"trial_n":105,"n_dots":2.95,"target":"left","response":"left","rt":375.69999998808,"correct":true,"confidence":1},{"trial_n":106,"n_dots":2.95,"target":"right","response":"right","rt":489.69999998808,"correct":true,"confidence":1},{"trial_n":107,"n_dots":2.85,"target":"right","response":"right","rt":49.900000035763,"correct":true,"confidence":1},{"trial_n":108,"n_dots":2.85,"target":"right","response":"right","rt":4.8000000119209,"correct":true,"confidence":1},{"trial_n":109,"n_dots":2.75,"target":"right","response":"right","rt":825.80000001192,"correct":true,"confidence":1},{"trial_n":110,"n_dots":2.75,"target":"left","response":"left","rt":234.20000004768,"correct":true,"confidence":1},{"trial_n":111,"n_dots":2.65,"target":"right","response":"right","rt":217.19999998808,"correct":true,"confidence":1},{"trial_n":112,"n_dots":2.65,"target":"left","response":"left","rt":718.20000004768,"correct":true,"confidence":1},{"trial_n":113,"n_dots":2.55,"target":"left","response":"right","rt":481,"correct":false,"confidence":1},{"trial_n":114,"n_dots":2.65,"target":"left","response":"left","rt":238.59999996424,"correct":true,"confidence":1},{"trial_n":115,"n_dots":2.65,"target":"right","response":"right","rt":53.099999964237,"correct":true,"confidence":1},{"trial_n":116,"n_dots":2.55,"target":"left","response":"left","rt":234.39999997616,"correct":true,"confidence":1},{"trial_n":117,"n_dots":2.55,"target":"right","response":"right","rt":64.5,"correct":true,"confidence":1},{"trial_n":118,"n_dots":2.45,"target":"right","response":"right","rt":771,"correct":true,"confidence":1},{"trial_n":119,"n_dots":2.45,"target":"left","response":"right","rt":92.5,"correct":false,"confidence":1},{"trial_n":120,"n_dots":2.55,"target":"right","response":"left","rt":530,"correct":false,"confidence":1}]