[{"trial_n":1,"min":25,"max":230,"target":"present","response":"present","rt":9460,"correct":true,"confidence":-1},{"trial_n":2,"min":25,"max":230,"target":"present","response":"present","rt":1198.2999999989,"correct":true,"confidence":-1},{"trial_n":3,"min":41,"max":214,"target":"absent","response":"absent","rt":298.09999999963,"correct":true,"confidence":-1},{"trial_n":4,"min":41,"max":214,"target":"absent","response":"absent","rt":404.90000000037,"correct":true,"confidence":-1},{"trial_n":5,"min":57,"max":198,"target":"present","response":"present","rt":345,"correct":true,"confidence":-1},{"trial_n":6,"min":57,"max":198,"target":"absent","response":"absent","rt":407.29999999888,"correct":true,"confidence":-1},{"trial_n":7,"min":73,"max":182,"target":"present","response":"present","rt":196.09999999963,"correct":true,"confidence":-1},{"trial_n":8,"min":73,"max":182,"target":"absent","response":"absent","rt":314.30000000075,"correct":true,"confidence":-1},{"trial_n":9,"min":89,"max":166,"target":"present","response":"absent","rt":328.39999999851,"correct":false,"confidence":-1},{"trial_n":10,"min":73,"max":182,"target":"present","response":"present","rt":370.20000000112,"correct":true,"confidence":-1},{"trial_n":11,"min":73,"max":182,"target":"present","response":"present","rt":544,"correct":true,"confidence":-1},{"trial_n":12,"min":81,"max":174,"target":"absent","response":"absent","rt":302.40000000037,"correct":true,"confidence":-1},{"trial_n":13,"min":81,"max":174,"target":"present","response":"present","rt":877.19999999925,"correct":true,"confidence":-1},{"trial_n":14,"min":89,"max":166,"target":"absent","response":"absent","rt":457.70000000112,"correct":true,"confidence":-1},{"trial_n":15,"min":89,"max":166,"target":"absent","response":"absent","rt":368.90000000037,"correct":true,"confidence":-1},{"trial_n":16,"min":97,"max":158,"target":"present","response":"absent","rt":413.90000000037,"correct":false,"confidence":-1},{"trial_n":17,"min":89,"max":166,"target":"absent","response":"absent","rt":744.40000000037,"correct":true,"confidence":-1},{"trial_n":18,"min":89,"max":166,"target":"present","response":"absent","rt":399.5,"correct":false,"confidence":-1},{"trial_n":19,"min":81,"max":174,"target":"present","response":"present","rt":622.70000000112,"correct":true,"confidence":-1},{"trial_n":20,"min":81,"max":174,"target":"absent","response":"absent","rt":515.10000000149,"correct":true,"confidence":-1},{"trial_n":21,"min":85,"max":170,"target":"present","response":"present","rt":833.80000000075,"correct":true,"confidence":2},{"trial_n":22,"min":85,"max":170,"target":"absent","response":"present","rt":1665.6999999993,"correct":false,"confidence":1},{"trial_n":23,"min":81,"max":174,"target":"absent","response":"present","rt":563.30000000075,"correct":false,"confidence":2},{"trial_n":24,"min":77,"max":178,"target":"present","response":"present","rt":1132.2000000011,"correct":true,"confidence":4},{"trial_n":25,"min":77,"max":178,"target":"absent","response":"absent","rt":1779.5999999996,"correct":true,"confidence":1},{"trial_n":26,"min":81,"max":174,"target":"absent","response":"absent","rt":1133.0999999996,"correct":true,"confidence":3},{"trial_n":27,"min":81,"max":174,"target":"absent","response":"present","rt":1007,"correct":false,"confidence":2},{"trial_n":28,"min":77,"max":178,"target":"absent","response":"present","rt":1945.4000000004,"correct":false,"confidence":1},{"trial_n":29,"min":73,"max":182,"target":"absent","response":"present","rt":2879.6999999993,"correct":false,"confidence":1},{"trial_n":30,"min":69,"max":186,"target":"present","response":"present","rt":692.5,"correct":true,"confidence":5},{"trial_n":31,"min":69,"max":186,"target":"present","response":"present","rt":1002,"correct":true,"confidence":5},{"trial_n":32,"min":71,"max":184,"target":"present","response":"present","rt":682.29999999888,"correct":true,"confidence":5},{"trial_n":33,"min":71,"max":184,"target":"absent","response":"present","rt":1650,"correct":false,"confidence":4},{"trial_n":34,"min":69,"max":186,"target":"absent","response":"present","rt":762.69999999925,"correct":false,"confidence":4},{"trial_n":35,"min":67,"max":188,"target":"present","response":"present","rt":1561.3000000007,"correct":true,"confidence":5},{"trial_n":36,"min":67,"max":188,"target":"absent","response":"absent","rt":1971.4000000004,"correct":true,"confidence":4},{"trial_n":37,"min":69,"max":186,"target":"absent","response":"absent","rt":921.59999999963,"correct":true,"confidence":2},{"trial_n":38,"min":69,"max":186,"target":"absent","response":"absent","rt":696.90000000037,"correct":true,"confidence":3},{"trial_n":39,"min":71,"max":184,"target":"present","response":"present","rt":894.69999999925,"correct":true,"confidence":4},{"trial_n":40,"min":71,"max":184,"target":"present","response":"present","rt":730.5,"correct":true,"confidence":3},{"trial_n":41,"min":72,"max":183,"target":"present","response":"present","rt":1037,"correct":true,"confidence":4},{"trial_n":42,"min":72,"max":183,"target":"absent","response":"absent","rt":1176.4000000004,"correct":true,"confidence":4},{"trial_n":43,"min":73,"max":182,"target":"present","response":"present","rt":657,"correct":true,"confidence":3},{"trial_n":44,"min":73,"max":182,"target":"absent","response":"absent","rt":2637,"correct":true,"confidence":2},{"trial_n":45,"min":74,"max":181,"target":"present","response":"present","rt":700.30000000075,"correct":true,"confidence":4},{"trial_n":46,"min":74,"max":181,"target":"absent","response":"absent","rt":1039.9000000004,"correct":true,"confidence":4},{"trial_n":47,"min":75,"max":180,"target":"present","response":"present","rt":1039.1999999993,"correct":true,"confidence":2},{"trial_n":48,"min":75,"max":180,"target":"absent","response":"absent","rt":885.59999999963,"correct":true,"confidence":4},{"trial_n":49,"min":76,"max":179,"target":"present","response":"absent","rt":922.69999999925,"correct":false,"confidence":1},{"trial_n":50,"min":75,"max":180,"target":"absent","response":"absent","rt":1255.8000000007,"correct":true,"confidence":2},{"trial_n":51,"min":75,"max":180,"target":"absent","response":"present","rt":928.5,"correct":false,"confidence":3},{"trial_n":52,"min":74,"max":181,"target":"absent","response":"absent","rt":782.5,"correct":true,"confidence":2},{"trial_n":53,"min":74,"max":181,"target":"absent","response":"absent","rt":760.69999999925,"correct":true,"confidence":2},{"trial_n":54,"min":75,"max":180,"target":"present","response":"present","rt":794.30000000075,"correct":true,"confidence":3},{"trial_n":55,"min":75,"max":180,"target":"absent","response":"absent","rt":719.5,"correct":true,"confidence":2},{"trial_n":56,"min":76,"max":179,"target":"present","response":"present","rt":866.40000000037,"correct":true,"confidence":3},{"trial_n":57,"min":76,"max":179,"target":"present","response":"present","rt":963.70000000112,"correct":true,"confidence":3},{"trial_n":58,"min":77,"max":178,"target":"absent","response":"absent","rt":950.79999999888,"correct":true,"confidence":1},{"trial_n":59,"min":77,"max":178,"target":"absent","response":"absent","rt":1419.2999999989,"correct":true,"confidence":4},{"trial_n":60,"min":78,"max":177,"target":"present","response":"absent","rt":710.69999999925,"correct":false,"confidence":4},{"trial_n":61,"min":77,"max":178,"target":"present","response":"absent","rt":1003.9000000004,"correct":false,"confidence":4},{"trial_n":62,"min":76,"max":179,"target":"present","response":"present","rt":682.19999999925,"correct":true,"confidence":3},{"trial_n":63,"min":76,"max":179,"target":"absent","response":"absent","rt":685.89999999851,"correct":true,"confidence":4},{"trial_n":64,"min":77,"max":178,"target":"present","response":"present","rt":1082.9000000004,"correct":true,"confidence":4},{"trial_n":65,"min":77,"max":178,"target":"present","response":"absent","rt":608.40000000037,"correct":false,"confidence":4},{"trial_n":66,"min":76,"max":179,"target":"present","response":"present","rt":923.09999999963,"correct":true,"confidence":5},{"trial_n":67,"min":76,"max":179,"target":"absent","response":"absent","rt":829.59999999963,"correct":true,"confidence":2},{"trial_n":68,"min":77,"max":178,"target":"present","response":"absent","rt":856.40000000037,"correct":false,"confidence":2},{"trial_n":69,"min":76,"max":179,"target":"present","response":"present","rt":738.5,"correct":true,"confidence":4},{"trial_n":70,"min":76,"max":179,"target":"present","response":"present","rt":747.5,"correct":true,"confidence":4},{"trial_n":71,"min":41,"max":214,"target":"present","response":"present","rt":5142.0999999996,"correct":true,"confidence":-1},{"trial_n":72,"min":41,"max":214,"target":"present","response":"present","rt":461.5,"correct":true,"confidence":-1},{"trial_n":73,"min":57,"max":198,"target":"absent","response":"absent","rt":968.90000000037,"correct":true,"confidence":-1},{"trial_n":74,"min":57,"max":198,"target":"absent","response":"present","rt":474.90000000037,"correct":false,"confidence":-1},{"trial_n":75,"min":41,"max":214,"target":"present","response":"present","rt":410.19999999925,"correct":true,"confidence":-1},{"trial_n":76,"min":41,"max":214,"target":"present","response":"present","rt":363.89999999851,"correct":true,"confidence":-1},{"trial_n":77,"min":57,"max":198,"target":"present","response":"present","rt":388.09999999963,"correct":true,"confidence":-1},{"trial_n":78,"min":57,"max":198,"target":"present","response":"present","rt":431.40000000037,"correct":true,"confidence":-1},{"trial_n":79,"min":73,"max":182,"target":"absent","response":"absent","rt":431.40000000037,"correct":true,"confidence":-1},{"trial_n":80,"min":73,"max":182,"target":"absent","response":"absent","rt":348.5,"correct":true,"confidence":-1},{"trial_n":81,"min":81,"max":174,"target":"absent","response":"absent","rt":771.40000000037,"correct":true,"confidence":-1},{"trial_n":82,"min":81,"max":174,"target":"present","response":"present","rt":306.5,"correct":true,"confidence":-1},{"trial_n":83,"min":89,"max":166,"target":"absent","response":"absent","rt":723.90000000037,"correct":true,"confidence":-1},{"trial_n":84,"min":89,"max":166,"target":"absent","response":"present","rt":1275.4000000004,"correct":false,"confidence":-1},{"trial_n":85,"min":81,"max":174,"target":"present","response":"present","rt":321.5,"correct":true,"confidence":-1},{"trial_n":86,"min":81,"max":174,"target":"present","response":"absent","rt":238.60000000149,"correct":false,"confidence":-1},{"trial_n":87,"min":73,"max":182,"target":"present","response":"present","rt":675.69999999925,"correct":true,"confidence":-1},{"trial_n":88,"min":73,"max":182,"target":"present","response":"present","rt":964.80000000075,"correct":true,"confidence":-1},{"trial_n":89,"min":81,"max":174,"target":"absent","response":"absent","rt":317.89999999851,"correct":true,"confidence":-1},{"trial_n":90,"min":81,"max":174,"target":"present","response":"present","rt":1432.5999999996,"correct":true,"confidence":-1},{"trial_n":91,"min":85,"max":170,"target":"absent","response":"absent","rt":1033.1000000015,"correct":true,"confidence":2},{"trial_n":92,"min":85,"max":170,"target":"absent","response":"present","rt":873,"correct":false,"confidence":2},{"trial_n":93,"min":81,"max":174,"target":"present","response":"present","rt":435.19999999925,"correct":true,"confidence":5},{"trial_n":94,"min":81,"max":174,"target":"absent","response":"present","rt":603.60000000149,"correct":false,"confidence":1},{"trial_n":95,"min":77,"max":178,"target":"present","response":"present","rt":359,"correct":true,"confidence":4},{"trial_n":96,"min":77,"max":178,"target":"absent","response":"present","rt":724.80000000075,"correct":false,"confidence":1},{"trial_n":97,"min":73,"max":182,"target":"absent","response":"present","rt":530.19999999925,"correct":false,"confidence":1},{"trial_n":98,"min":69,"max":186,"target":"present","response":"present","rt":323.59999999963,"correct":true,"confidence":3},{"trial_n":99,"min":69,"max":186,"target":"present","response":"present","rt":276.19999999925,"correct":true,"confidence":4},{"trial_n":100,"min":73,"max":182,"target":"present","response":"present","rt":360.5,"correct":true,"confidence":4},{"trial_n":101,"min":73,"max":182,"target":"absent","response":"absent","rt":917.70000000112,"correct":true,"confidence":2},{"trial_n":102,"min":75,"max":180,"target":"absent","response":"absent","rt":1049.3000000007,"correct":true,"confidence":2},{"trial_n":103,"min":75,"max":180,"target":"present","response":"present","rt":139,"correct":true,"confidence":3},{"trial_n":104,"min":77,"max":178,"target":"present","response":"present","rt":451.59999999963,"correct":true,"confidence":4},{"trial_n":105,"min":77,"max":178,"target":"present","response":"present","rt":871.29999999888,"correct":true,"confidence":1},{"trial_n":106,"min":79,"max":176,"target":"present","response":"present","rt":574.10000000149,"correct":true,"confidence":5},{"trial_n":107,"min":79,"max":176,"target":"absent","response":"present","rt":292.69999999925,"correct":false,"confidence":4},{"trial_n":108,"min":77,"max":178,"target":"absent","response":"absent","rt":4609.5999999996,"correct":true,"confidence":1},{"trial_n":109,"min":77,"max":178,"target":"present","response":"present","rt":213.90000000037,"correct":true,"confidence":5},{"trial_n":110,"min":79,"max":176,"target":"absent","response":"absent","rt":783,"correct":true,"confidence":3},{"trial_n":111,"min":79,"max":176,"target":"present","response":"present","rt":617.19999999925,"correct":true,"confidence":3},{"trial_n":112,"min":80,"max":175,"target":"present","response":"present","rt":104.29999999888,"correct":true,"confidence":3},{"trial_n":113,"min":80,"max":175,"target":"absent","response":"present","rt":125,"correct":false,"confidence":3},{"trial_n":114,"min":79,"max":176,"target":"present","response":"present","rt":419.5,"correct":true,"confidence":3},{"trial_n":115,"min":79,"max":176,"target":"absent","response":"absent","rt":994.20000000112,"correct":true,"confidence":4},{"trial_n":116,"min":80,"max":175,"target":"present","response":"present","rt":251.40000000037,"correct":true,"confidence":4},{"trial_n":117,"min":80,"max":175,"target":"present","response":"present","rt":146.29999999888,"correct":true,"confidence":4},{"trial_n":118,"min":81,"max":174,"target":"absent","response":"present","rt":765,"correct":false,"confidence":1},{"trial_n":119,"min":80,"max":175,"target":"absent","response":"absent","rt":1456.1999999993,"correct":true,"confidence":2},{"trial_n":120,"min":80,"max":175,"target":"present","response":"absent","rt":543.90000000037,"correct":false,"confidence":2},{"trial_n":121,"min":79,"max":176,"target":"absent","response":"present","rt":1850.8999999985,"correct":false,"confidence":1},{"trial_n":122,"min":78,"max":177,"target":"absent","response":"present","rt":335.30000000075,"correct":false,"confidence":1},{"trial_n":123,"min":77,"max":178,"target":"present","response":"present","rt":406.09999999963,"correct":true,"confidence":2},{"trial_n":124,"min":77,"max":178,"target":"present","response":"present","rt":652.60000000149,"correct":true,"confidence":2},{"trial_n":125,"min":78,"max":177,"target":"absent","response":"absent","rt":833.19999999925,"correct":true,"confidence":2},{"trial_n":126,"min":78,"max":177,"target":"present","response":"present","rt":328.59999999963,"correct":true,"confidence":3},{"trial_n":127,"min":79,"max":176,"target":"absent","response":"present","rt":1229,"correct":false,"confidence":1},{"trial_n":128,"min":78,"max":177,"target":"present","response":"present","rt":738.70000000112,"correct":true,"confidence":3},{"trial_n":129,"min":78,"max":177,"target":"absent","response":"absent","rt":1131.4000000004,"correct":true,"confidence":2},{"trial_n":130,"min":79,"max":176,"target":"present","response":"present","rt":614.89999999851,"correct":true,"confidence":3},{"trial_n":131,"min":79,"max":176,"target":"present","response":"present","rt":252.69999999925,"correct":true,"confidence":3},{"trial_n":132,"min":80,"max":175,"target":"absent","response":"present","rt":654.5,"correct":false,"confidence":4},{"trial_n":133,"min":79,"max":176,"target":"absent","response":"absent","rt":1293.8000000007,"correct":true,"confidence":1},{"trial_n":134,"min":79,"max":176,"target":"present","response":"present","rt":1320.9000000004,"correct":true,"confidence":1},{"trial_n":135,"min":80,"max":175,"target":"absent","response":"absent","rt":680,"correct":true,"confidence":1},{"trial_n":136,"min":80,"max":175,"target":"absent","response":"absent","rt":853.30000000075,"correct":true,"confidence":1},{"trial_n":137,"min":81,"max":174,"target":"present","response":"absent","rt":495.90000000037,"correct":false,"confidence":2},{"trial_n":138,"min":80,"max":175,"target":"absent","response":"present","rt":472.20000000112,"correct":false,"confidence":1},{"trial_n":139,"min":79,"max":176,"target":"absent","response":"present","rt":810.29999999888,"correct":false,"confidence":1},{"trial_n":140,"min":78,"max":177,"target":"absent","response":"absent","rt":790.80000000075,"correct":true,"confidence":2}]