[{"trial_n":1,"n_dots":4.25,"target":"right","response":"left","rt":6873.8999999985,"correct":false,"confidence":-1},{"trial_n":2,"n_dots":4.25,"target":"right","response":"right","rt":655,"correct":true,"confidence":-1},{"trial_n":3,"n_dots":4.25,"target":"right","response":"left","rt":416.40000000037,"correct":false,"confidence":-1},{"trial_n":4,"n_dots":4.65,"target":"right","response":"right","rt":799.40000000037,"correct":true,"confidence":-1},{"trial_n":5,"n_dots":4.65,"target":"left","response":"left","rt":322.59999999963,"correct":true,"confidence":-1},{"trial_n":6,"n_dots":4.25,"target":"right","response":"right","rt":313.40000000037,"correct":true,"confidence":-1},{"trial_n":7,"n_dots":4.25,"target":"left","response":"left","rt":604.5,"correct":true,"confidence":-1},{"trial_n":8,"n_dots":4.05,"target":"right","response":"right","rt":376.5,"correct":true,"confidence":-1},{"trial_n":9,"n_dots":4.05,"target":"right","response":"right","rt":345.5,"correct":true,"confidence":-1},{"trial_n":10,"n_dots":3.85,"target":"left","response":"left","rt":348.90000000037,"correct":true,"confidence":-1},{"trial_n":11,"n_dots":3.85,"target":"left","response":"left","rt":285.30000000075,"correct":true,"confidence":-1},{"trial_n":12,"n_dots":3.65,"target":"left","response":"left","rt":305.59999999963,"correct":true,"confidence":-1},{"trial_n":13,"n_dots":3.65,"target":"left","response":"left","rt":286,"correct":true,"confidence":-1},{"trial_n":14,"n_dots":3.55,"target":"left","response":"left","rt":308.40000000037,"correct":true,"confidence":-1},{"trial_n":15,"n_dots":3.55,"target":"left","response":"left","rt":292.5,"correct":true,"confidence":-1},{"trial_n":16,"n_dots":3.45,"target":"right","response":"right","rt":534.29999999888,"correct":true,"confidence":-1},{"trial_n":17,"n_dots":3.45,"target":"right","response":"left","rt":549.79999999888,"correct":false,"confidence":-1},{"trial_n":18,"n_dots":3.55,"target":"right","response":"right","rt":499.29999999888,"correct":true,"confidence":-1},{"trial_n":19,"n_dots":3.55,"target":"right","response":"right","rt":388.09999999963,"correct":true,"confidence":-1},{"trial_n":20,"n_dots":3.45,"target":"left","response":"left","rt":287.19999999925,"correct":true,"confidence":-1},{"trial_n":21,"n_dots":3.45,"target":"right","response":"left","rt":914.69999999925,"correct":false,"confidence":1},{"trial_n":22,"n_dots":3.55,"target":"left","response":"left","rt":278.69999999925,"correct":true,"confidence":5},{"trial_n":23,"n_dots":3.55,"target":"left","response":"left","rt":439.70000000112,"correct":true,"confidence":3},{"trial_n":24,"n_dots":3.45,"target":"right","response":"right","rt":564.90000000037,"correct":true,"confidence":1},{"trial_n":25,"n_dots":3.45,"target":"left","response":"left","rt":1371.8000000007,"correct":true,"confidence":1},{"trial_n":26,"n_dots":3.35,"target":"right","response":"right","rt":435.19999999925,"correct":true,"confidence":3},{"trial_n":27,"n_dots":3.35,"target":"right","response":"right","rt":437.60000000149,"correct":true,"confidence":5},{"trial_n":28,"n_dots":3.25,"target":"right","response":"right","rt":864.80000000075,"correct":true,"confidence":4},{"trial_n":29,"n_dots":3.25,"target":"left","response":"left","rt":2113.1999999993,"correct":true,"confidence":3},{"trial_n":30,"n_dots":3.15,"target":"left","response":"left","rt":1239.5,"correct":true,"confidence":2},{"trial_n":31,"n_dots":3.15,"target":"left","response":"left","rt":886.80000000075,"correct":true,"confidence":4},{"trial_n":32,"n_dots":3.05,"target":"right","response":"right","rt":363.40000000037,"correct":true,"confidence":2},{"trial_n":33,"n_dots":3.05,"target":"right","response":"right","rt":339.29999999888,"correct":true,"confidence":1},{"trial_n":34,"n_dots":2.95,"target":"right","response":"right","rt":680.80000000075,"correct":true,"confidence":2},{"trial_n":35,"n_dots":2.95,"target":"left","response":"left","rt":1278.3999999985,"correct":true,"confidence":2},{"trial_n":36,"n_dots":2.85,"target":"right","response":"right","rt":1642,"correct":true,"confidence":1},{"trial_n":37,"n_dots":2.85,"target":"left","response":"left","rt":840.5,"correct":true,"confidence":1},{"trial_n":38,"n_dots":2.75,"target":"left","response":"left","rt":322.59999999963,"correct":true,"confidence":3},{"trial_n":39,"n_dots":2.75,"target":"right","response":"right","rt":347.69999999925,"correct":true,"confidence":4},{"trial_n":40,"n_dots":2.65,"target":"left","response":"right","rt":857,"correct":false,"confidence":2},{"trial_n":41,"n_dots":2.75,"target":"left","response":"left","rt":444.40000000037,"correct":true,"confidence":1},{"trial_n":42,"n_dots":2.75,"target":"right","response":"right","rt":280.19999999925,"correct":true,"confidence":4},{"trial_n":43,"n_dots":2.65,"target":"left","response":"left","rt":299.59999999963,"correct":true,"confidence":2},{"trial_n":44,"n_dots":2.65,"target":"left","response":"left","rt":298.90000000037,"correct":true,"confidence":3},{"trial_n":45,"n_dots":2.55,"target":"right","response":"left","rt":518.69999999925,"correct":false,"confidence":1},{"trial_n":46,"n_dots":2.65,"target":"left","response":"left","rt":764.29999999888,"correct":true,"confidence":1},{"trial_n":47,"n_dots":2.65,"target":"right","response":"right","rt":796.80000000075,"correct":true,"confidence":1},{"trial_n":48,"n_dots":2.55,"target":"left","response":"left","rt":622,"correct":true,"confidence":4},{"trial_n":49,"n_dots":2.55,"target":"left","response":"left","rt":347.69999999925,"correct":true,"confidence":3},{"trial_n":50,"n_dots":2.45,"target":"left","response":"left","rt":303,"correct":true,"confidence":2},{"trial_n":51,"n_dots":2.45,"target":"right","response":"right","rt":441.69999999925,"correct":true,"confidence":1},{"trial_n":52,"n_dots":2.35,"target":"left","response":"left","rt":720.5,"correct":true,"confidence":1},{"trial_n":53,"n_dots":2.35,"target":"left","response":"left","rt":334.90000000037,"correct":true,"confidence":1},{"trial_n":54,"n_dots":2.25,"target":"right","response":"right","rt":521.5,"correct":true,"confidence":1},{"trial_n":55,"n_dots":2.25,"target":"right","response":"left","rt":312.40000000037,"correct":false,"confidence":3},{"trial_n":56,"n_dots":2.35,"target":"left","response":"left","rt":287.10000000149,"correct":true,"confidence":4},{"trial_n":57,"n_dots":2.35,"target":"left","response":"left","rt":394.70000000112,"correct":true,"confidence":1},{"trial_n":58,"n_dots":2.25,"target":"right","response":"left","rt":375,"correct":false,"confidence":2},{"trial_n":59,"n_dots":2.35,"target":"right","response":"left","rt":419.39999999851,"correct":false,"confidence":1},{"trial_n":60,"n_dots":2.45,"target":"right","response":"left","rt":307.60000000149,"correct":false,"confidence":2},{"trial_n":61,"n_dots":2.55,"target":"right","response":"right","rt":394.20000000112,"correct":true,"confidence":1},{"trial_n":62,"n_dots":2.55,"target":"right","response":"right","rt":641,"correct":true,"confidence":1},{"trial_n":63,"n_dots":2.45,"target":"left","response":"left","rt":363.59999999963,"correct":true,"confidence":2},{"trial_n":64,"n_dots":2.45,"target":"right","response":"left","rt":327.89999999851,"correct":false,"confidence":3},{"trial_n":65,"n_dots":2.55,"target":"left","response":"left","rt":818.30000000075,"correct":true,"confidence":2},{"trial_n":66,"n_dots":2.55,"target":"right","response":"right","rt":321.5,"correct":true,"confidence":4},{"trial_n":67,"n_dots":2.45,"target":"right","response":"right","rt":271.79999999888,"correct":true,"confidence":5},{"trial_n":68,"n_dots":2.45,"target":"right","response":"right","rt":287.5,"correct":true,"confidence":4},{"trial_n":69,"n_dots":2.35,"target":"left","response":"left","rt":323.90000000037,"correct":true,"confidence":3},{"trial_n":70,"n_dots":2.35,"target":"right","response":"right","rt":261,"correct":true,"confidence":4},{"trial_n":71,"n_dots":2.25,"target":"right","response":"right","rt":366.19999999925,"correct":true,"confidence":3},{"trial_n":72,"n_dots":2.25,"target":"left","response":"right","rt":1749.9000000004,"correct":false,"confidence":1},{"trial_n":73,"n_dots":2.35,"target":"right","response":"right","rt":1941.1999999993,"correct":true,"confidence":1},{"trial_n":74,"n_dots":2.35,"target":"right","response":"right","rt":1341.8000000007,"correct":true,"confidence":3},{"trial_n":75,"n_dots":2.25,"target":"right","response":"left","rt":305.90000000037,"correct":false,"confidence":2},{"trial_n":76,"n_dots":2.35,"target":"left","response":"left","rt":850.40000000037,"correct":true,"confidence":1},{"trial_n":77,"n_dots":2.35,"target":"right","response":"right","rt":338.40000000037,"correct":true,"confidence":1},{"trial_n":78,"n_dots":2.25,"target":"left","response":"left","rt":450.19999999925,"correct":true,"confidence":1},{"trial_n":79,"n_dots":2.25,"target":"left","response":"right","rt":538.80000000075,"correct":false,"confidence":1},{"trial_n":80,"n_dots":2.35,"target":"right","response":"left","rt":307.5,"correct":false,"confidence":1},{"trial_n":81,"n_dots":2.45,"target":"left","response":"right","rt":383.90000000037,"correct":false,"confidence":1},{"trial_n":82,"n_dots":2.55,"target":"left","response":"left","rt":4.4000000003725,"correct":true,"confidence":3},{"trial_n":83,"n_dots":2.55,"target":"left","response":"left","rt":277.80000000075,"correct":true,"confidence":2},{"trial_n":84,"n_dots":2.45,"target":"right","response":"left","rt":2033.2999999989,"correct":false,"confidence":1},{"trial_n":85,"n_dots":2.55,"target":"left","response":"left","rt":539,"correct":true,"confidence":2},{"trial_n":86,"n_dots":2.55,"target":"left","response":"left","rt":1500,"correct":true,"confidence":3},{"trial_n":87,"n_dots":2.45,"target":"right","response":"left","rt":832.79999999888,"correct":false,"confidence":3},{"trial_n":88,"n_dots":2.55,"target":"left","response":"left","rt":314,"correct":true,"confidence":3},{"trial_n":89,"n_dots":2.55,"target":"left","response":"left","rt":295.09999999963,"correct":true,"confidence":5},{"trial_n":90,"n_dots":2.45,"target":"right","response":"left","rt":716.29999999888,"correct":false,"confidence":1},{"trial_n":91,"n_dots":2.55,"target":"left","response":"left","rt":344.29999999888,"correct":true,"confidence":3},{"trial_n":92,"n_dots":2.55,"target":"right","response":"left","rt":267,"correct":false,"confidence":3},{"trial_n":93,"n_dots":2.65,"target":"left","response":"left","rt":304.39999999851,"correct":true,"confidence":2},{"trial_n":94,"n_dots":2.65,"target":"left","response":"left","rt":760.59999999963,"correct":true,"confidence":4},{"trial_n":95,"n_dots":2.55,"target":"right","response":"left","rt":317.10000000149,"correct":false,"confidence":1},{"trial_n":96,"n_dots":2.65,"target":"left","response":"left","rt":1516.7999999989,"correct":true,"confidence":1},{"trial_n":97,"n_dots":2.65,"target":"right","response":"right","rt":878.59999999963,"correct":true,"confidence":1},{"trial_n":98,"n_dots":2.55,"target":"left","response":"left","rt":2008.2000000011,"correct":true,"confidence":2},{"trial_n":99,"n_dots":2.55,"target":"right","response":"right","rt":2277.5,"correct":true,"confidence":1},{"trial_n":100,"n_dots":2.45,"target":"left","response":"right","rt":2071.7999999989,"correct":false,"confidence":1},{"trial_n":101,"n_dots":2.55,"target":"left","response":"right","rt":1013.5999999996,"correct":false,"confidence":2},{"trial_n":102,"n_dots":2.65,"target":"left","response":"left","rt":4341.5,"correct":true,"confidence":2},{"trial_n":103,"n_dots":2.65,"target":"right","response":"left","rt":656.10000000149,"correct":false,"confidence":2},{"trial_n":104,"n_dots":2.75,"target":"right","response":"left","rt":694.30000000075,"correct":false,"confidence":2},{"trial_n":105,"n_dots":2.85,"target":"left","response":"left","rt":583.09999999963,"correct":true,"confidence":3},{"trial_n":106,"n_dots":2.85,"target":"right","response":"left","rt":330.10000000149,"correct":false,"confidence":3},{"trial_n":107,"n_dots":2.95,"target":"left","response":"left","rt":302.60000000149,"correct":true,"confidence":3},{"trial_n":108,"n_dots":2.95,"target":"right","response":"left","rt":313,"correct":false,"confidence":3},{"trial_n":109,"n_dots":3.05,"target":"right","response":"left","rt":360.20000000112,"correct":false,"confidence":3},{"trial_n":110,"n_dots":3.15,"target":"right","response":"right","rt":1170.9000000004,"correct":true,"confidence":1},{"trial_n":111,"n_dots":3.15,"target":"right","response":"left","rt":347.5,"correct":false,"confidence":3},{"trial_n":112,"n_dots":3.25,"target":"left","response":"left","rt":493.89999999851,"correct":true,"confidence":2},{"trial_n":113,"n_dots":3.25,"target":"right","response":"right","rt":985.69999999925,"correct":true,"confidence":3},{"trial_n":114,"n_dots":3.15,"target":"left","response":"left","rt":1582.6999999993,"correct":true,"confidence":4},{"trial_n":115,"n_dots":3.15,"target":"left","response":"left","rt":1300.9000000004,"correct":true,"confidence":2},{"trial_n":116,"n_dots":3.05,"target":"left","response":"left","rt":879.80000000075,"correct":true,"confidence":2},{"trial_n":117,"n_dots":3.05,"target":"left","response":"left","rt":911.09999999963,"correct":true,"confidence":1},{"trial_n":118,"n_dots":2.95,"target":"right","response":"left","rt":1374.5,"correct":false,"confidence":1},{"trial_n":119,"n_dots":3.05,"target":"left","response":"left","rt":412.40000000037,"correct":true,"confidence":3},{"trial_n":120,"n_dots":3.05,"target":"right","response":"left","rt":475.90000000037,"correct":false,"confidence":2}]