[{"trial_n":1,"min":25,"max":230,"target":"present","response":"present","rt":6128.5999999046,"correct":true,"confidence":-1},{"trial_n":2,"min":25,"max":230,"target":"present","response":"absent","rt":3991.4000000954,"correct":false,"confidence":-1},{"trial_n":3,"min":9,"max":246,"target":"absent","response":"present","rt":629,"correct":false,"confidence":-1},{"trial_n":4,"min":0,"max":255,"target":"absent","response":"absent","rt":3706.9000000954,"correct":true,"confidence":-1},{"trial_n":5,"min":0,"max":255,"target":"present","response":"present","rt":570.60000014305,"correct":true,"confidence":-1},{"trial_n":6,"min":16,"max":239,"target":"present","response":"present","rt":414.19999980927,"correct":true,"confidence":-1},{"trial_n":7,"min":16,"max":239,"target":"present","response":"absent","rt":238.89999985695,"correct":false,"confidence":-1},{"trial_n":8,"min":0,"max":255,"target":"absent","response":"absent","rt":614.70000004768,"correct":true,"confidence":-1},{"trial_n":9,"min":0,"max":255,"target":"present","response":"present","rt":437.10000014305,"correct":true,"confidence":-1},{"trial_n":10,"min":16,"max":239,"target":"present","response":"present","rt":499.80000019073,"correct":true,"confidence":-1},{"trial_n":11,"min":16,"max":239,"target":"present","response":"present","rt":499.5,"correct":true,"confidence":-1},{"trial_n":12,"min":24,"max":231,"target":"present","response":"present","rt":457.90000009537,"correct":true,"confidence":-1},{"trial_n":13,"min":24,"max":231,"target":"present","response":"present","rt":455.10000014305,"correct":true,"confidence":-1},{"trial_n":14,"min":32,"max":223,"target":"absent","response":"absent","rt":423.39999985695,"correct":true,"confidence":-1},{"trial_n":15,"min":32,"max":223,"target":"present","response":"absent","rt":292.79999995232,"correct":false,"confidence":-1},{"trial_n":16,"min":24,"max":231,"target":"absent","response":"absent","rt":670.20000004768,"correct":true,"confidence":-1},{"trial_n":17,"min":24,"max":231,"target":"present","response":"present","rt":579.5,"correct":true,"confidence":-1},{"trial_n":18,"min":32,"max":223,"target":"absent","response":"absent","rt":521.40000009537,"correct":true,"confidence":-1},{"trial_n":19,"min":32,"max":223,"target":"absent","response":"absent","rt":530.40000009537,"correct":true,"confidence":-1},{"trial_n":20,"min":40,"max":215,"target":"present","response":"present","rt":480.20000004768,"correct":true,"confidence":-1},{"trial_n":21,"min":40,"max":215,"target":"present","response":"present","rt":2288.3999998569,"correct":true,"confidence":4},{"trial_n":22,"min":44,"max":211,"target":"present","response":"present","rt":874.29999995232,"correct":true,"confidence":3},{"trial_n":23,"min":44,"max":211,"target":"absent","response":"absent","rt":780.19999980927,"correct":true,"confidence":4},{"trial_n":24,"min":48,"max":207,"target":"absent","response":"absent","rt":774.89999985695,"correct":true,"confidence":4},{"trial_n":25,"min":48,"max":207,"target":"absent","response":"absent","rt":904.39999985695,"correct":true,"confidence":4},{"trial_n":26,"min":52,"max":203,"target":"present","response":"present","rt":735.20000004768,"correct":true,"confidence":4},{"trial_n":27,"min":52,"max":203,"target":"present","response":"present","rt":897.89999985695,"correct":true,"confidence":4},{"trial_n":28,"min":56,"max":199,"target":"present","response":"present","rt":745.59999990463,"correct":true,"confidence":4},{"trial_n":29,"min":56,"max":199,"target":"present","response":"present","rt":792.19999980927,"correct":true,"confidence":2},{"trial_n":30,"min":60,"max":195,"target":"present","response":"present","rt":783.70000004768,"correct":true,"confidence":1},{"trial_n":31,"min":60,"max":195,"target":"absent","response":"absent","rt":797.10000014305,"correct":true,"confidence":1},{"trial_n":32,"min":62,"max":193,"target":"present","response":"absent","rt":655.60000014305,"correct":false,"confidence":4},{"trial_n":33,"min":60,"max":195,"target":"absent","response":"absent","rt":536.5,"correct":true,"confidence":4},{"trial_n":34,"min":60,"max":195,"target":"present","response":"present","rt":770.70000004768,"correct":true,"confidence":2},{"trial_n":35,"min":62,"max":193,"target":"absent","response":"absent","rt":2417.2999999523,"correct":true,"confidence":4},{"trial_n":36,"min":62,"max":193,"target":"present","response":"present","rt":684.29999995232,"correct":true,"confidence":4},{"trial_n":37,"min":64,"max":191,"target":"present","response":"present","rt":647,"correct":true,"confidence":3},{"trial_n":38,"min":64,"max":191,"target":"absent","response":"absent","rt":537.40000009537,"correct":true,"confidence":4},{"trial_n":39,"min":66,"max":189,"target":"present","response":"present","rt":599,"correct":true,"confidence":4},{"trial_n":40,"min":66,"max":189,"target":"absent","response":"absent","rt":544.5,"correct":true,"confidence":4},{"trial_n":41,"min":67,"max":188,"target":"present","response":"absent","rt":1243.2999999523,"correct":false,"confidence":1},{"trial_n":42,"min":66,"max":189,"target":"absent","response":"absent","rt":713.70000004768,"correct":true,"confidence":5},{"trial_n":43,"min":66,"max":189,"target":"absent","response":"absent","rt":629.70000004768,"correct":true,"confidence":5},{"trial_n":44,"min":67,"max":188,"target":"absent","response":"absent","rt":578.79999995232,"correct":true,"confidence":5},{"trial_n":45,"min":67,"max":188,"target":"present","response":"present","rt":852.59999990463,"correct":true,"confidence":5},{"trial_n":46,"min":68,"max":187,"target":"absent","response":"absent","rt":719.10000014305,"correct":true,"confidence":5},{"trial_n":47,"min":68,"max":187,"target":"absent","response":"absent","rt":557.79999995232,"correct":true,"confidence":3},{"trial_n":48,"min":69,"max":186,"target":"absent","response":"absent","rt":552.80000019073,"correct":true,"confidence":4},{"trial_n":49,"min":69,"max":186,"target":"absent","response":"absent","rt":525.29999995232,"correct":true,"confidence":3},{"trial_n":50,"min":70,"max":185,"target":"absent","response":"absent","rt":526,"correct":true,"confidence":4},{"trial_n":51,"min":70,"max":185,"target":"present","response":"present","rt":881.20000004768,"correct":true,"confidence":4},{"trial_n":52,"min":71,"max":184,"target":"absent","response":"absent","rt":526.39999985695,"correct":true,"confidence":4},{"trial_n":53,"min":71,"max":184,"target":"present","response":"present","rt":666,"correct":true,"confidence":4},{"trial_n":54,"min":72,"max":183,"target":"absent","response":"absent","rt":508.79999995232,"correct":true,"confidence":4},{"trial_n":55,"min":72,"max":183,"target":"absent","response":"absent","rt":361.09999990463,"correct":true,"confidence":3},{"trial_n":56,"min":73,"max":182,"target":"absent","response":"absent","rt":388.39999985695,"correct":true,"confidence":4},{"trial_n":57,"min":73,"max":182,"target":"absent","response":"absent","rt":149.09999990463,"correct":true,"confidence":4},{"trial_n":58,"min":74,"max":181,"target":"absent","response":"absent","rt":1041.1999998093,"correct":true,"confidence":4},{"trial_n":59,"min":74,"max":181,"target":"present","response":"present","rt":712.69999980927,"correct":true,"confidence":4},{"trial_n":60,"min":75,"max":180,"target":"present","response":"present","rt":704,"correct":true,"confidence":4},{"trial_n":61,"min":75,"max":180,"target":"present","response":"present","rt":620.60000014305,"correct":true,"confidence":4},{"trial_n":62,"min":76,"max":179,"target":"present","response":"present","rt":549.79999995232,"correct":true,"confidence":4},{"trial_n":63,"min":76,"max":179,"target":"absent","response":"absent","rt":307.5,"correct":true,"confidence":4},{"trial_n":64,"min":77,"max":178,"target":"present","response":"present","rt":724.90000009537,"correct":true,"confidence":5},{"trial_n":65,"min":77,"max":178,"target":"absent","response":"absent","rt":602.60000014305,"correct":true,"confidence":4},{"trial_n":66,"min":78,"max":177,"target":"absent","response":"absent","rt":425.5,"correct":true,"confidence":4},{"trial_n":67,"min":78,"max":177,"target":"absent","response":"absent","rt":398.59999990463,"correct":true,"confidence":4},{"trial_n":68,"min":79,"max":176,"target":"absent","response":"absent","rt":571,"correct":true,"confidence":4},{"trial_n":69,"min":79,"max":176,"target":"present","response":"present","rt":636.89999985695,"correct":true,"confidence":5},{"trial_n":70,"min":80,"max":175,"target":"present","response":"present","rt":679.5,"correct":true,"confidence":3},{"trial_n":71,"min":41,"max":214,"target":"present","response":"absent","rt":3394.0999999046,"correct":false,"confidence":-1},{"trial_n":72,"min":41,"max":214,"target":"present","response":"present","rt":2244.4000000954,"correct":true,"confidence":-1},{"trial_n":73,"min":41,"max":214,"target":"absent","response":"absent","rt":1173.1000001431,"correct":true,"confidence":-1},{"trial_n":74,"min":57,"max":198,"target":"absent","response":"absent","rt":1629.4000000954,"correct":true,"confidence":-1},{"trial_n":75,"min":57,"max":198,"target":"present","response":"present","rt":1014.0999999046,"correct":true,"confidence":-1},{"trial_n":76,"min":73,"max":182,"target":"present","response":"present","rt":762.60000014305,"correct":true,"confidence":-1},{"trial_n":77,"min":73,"max":182,"target":"present","response":"absent","rt":1018.0999999046,"correct":false,"confidence":-1},{"trial_n":78,"min":57,"max":198,"target":"absent","response":"absent","rt":1106,"correct":true,"confidence":-1},{"trial_n":79,"min":57,"max":198,"target":"present","response":"present","rt":801.19999980927,"correct":true,"confidence":-1},{"trial_n":80,"min":73,"max":182,"target":"absent","response":"absent","rt":2154.3999998569,"correct":true,"confidence":-1},{"trial_n":81,"min":73,"max":182,"target":"present","response":"present","rt":894.40000009537,"correct":true,"confidence":-1},{"trial_n":82,"min":81,"max":174,"target":"absent","response":"present","rt":2366.2999999523,"correct":false,"confidence":-1},{"trial_n":83,"min":73,"max":182,"target":"present","response":"present","rt":1068.7000000477,"correct":true,"confidence":-1},{"trial_n":84,"min":73,"max":182,"target":"absent","response":"absent","rt":1290.8999998569,"correct":true,"confidence":-1},{"trial_n":85,"min":81,"max":174,"target":"present","response":"present","rt":839.5,"correct":true,"confidence":-1},{"trial_n":86,"min":81,"max":174,"target":"absent","response":"present","rt":917,"correct":false,"confidence":-1},{"trial_n":87,"min":73,"max":182,"target":"present","response":"present","rt":1478.2000000477,"correct":true,"confidence":-1},{"trial_n":88,"min":73,"max":182,"target":"present","response":"present","rt":845.60000014305,"correct":true,"confidence":-1},{"trial_n":89,"min":81,"max":174,"target":"present","response":"present","rt":621.09999990463,"correct":true,"confidence":-1},{"trial_n":90,"min":81,"max":174,"target":"absent","response":"absent","rt":1215.4000000954,"correct":true,"confidence":-1},{"trial_n":91,"min":85,"max":170,"target":"absent","response":"present","rt":1505,"correct":false,"confidence":1},{"trial_n":92,"min":81,"max":174,"target":"absent","response":"present","rt":1026.7999999523,"correct":false,"confidence":5},{"trial_n":93,"min":77,"max":178,"target":"present","response":"present","rt":634.90000009537,"correct":true,"confidence":5},{"trial_n":94,"min":77,"max":178,"target":"present","response":"present","rt":574.09999990463,"correct":true,"confidence":5},{"trial_n":95,"min":81,"max":174,"target":"present","response":"present","rt":612.20000004768,"correct":true,"confidence":4},{"trial_n":96,"min":81,"max":174,"target":"absent","response":"present","rt":1318.2000000477,"correct":false,"confidence":1},{"trial_n":97,"min":77,"max":178,"target":"present","response":"present","rt":594.70000004768,"correct":true,"confidence":5},{"trial_n":98,"min":77,"max":178,"target":"present","response":"present","rt":665.70000004768,"correct":true,"confidence":5},{"trial_n":99,"min":81,"max":174,"target":"present","response":"present","rt":694,"correct":true,"confidence":3},{"trial_n":100,"min":81,"max":174,"target":"absent","response":"absent","rt":773.89999985695,"correct":true,"confidence":5},{"trial_n":101,"min":83,"max":172,"target":"absent","response":"absent","rt":1046.0999999046,"correct":true,"confidence":1},{"trial_n":102,"min":83,"max":172,"target":"absent","response":"present","rt":1494.7999999523,"correct":false,"confidence":1},{"trial_n":103,"min":81,"max":174,"target":"present","response":"absent","rt":684,"correct":false,"confidence":1},{"trial_n":104,"min":79,"max":176,"target":"present","response":"present","rt":570.40000009537,"correct":true,"confidence":4},{"trial_n":105,"min":79,"max":176,"target":"present","response":"present","rt":560.59999990463,"correct":true,"confidence":5},{"trial_n":106,"min":81,"max":174,"target":"present","response":"present","rt":518.29999995232,"correct":true,"confidence":5},{"trial_n":107,"min":81,"max":174,"target":"present","response":"present","rt":433.90000009537,"correct":true,"confidence":5},{"trial_n":108,"min":83,"max":172,"target":"absent","response":"absent","rt":801.10000014305,"correct":true,"confidence":4},{"trial_n":109,"min":83,"max":172,"target":"absent","response":"absent","rt":842.79999995232,"correct":true,"confidence":3},{"trial_n":110,"min":85,"max":170,"target":"absent","response":"absent","rt":958.89999985695,"correct":true,"confidence":5},{"trial_n":111,"min":85,"max":170,"target":"present","response":"present","rt":839.90000009537,"correct":true,"confidence":3},{"trial_n":112,"min":86,"max":169,"target":"present","response":"present","rt":1099.8999998569,"correct":true,"confidence":1},{"trial_n":113,"min":86,"max":169,"target":"present","response":"present","rt":556.20000004768,"correct":true,"confidence":5},{"trial_n":114,"min":87,"max":168,"target":"absent","response":"present","rt":719,"correct":false,"confidence":2},{"trial_n":115,"min":86,"max":169,"target":"present","response":"present","rt":5448.6999998093,"correct":true,"confidence":1},{"trial_n":116,"min":86,"max":169,"target":"present","response":"present","rt":627.79999995232,"correct":true,"confidence":4},{"trial_n":117,"min":87,"max":168,"target":"present","response":"present","rt":658.59999990463,"correct":true,"confidence":4},{"trial_n":118,"min":87,"max":168,"target":"present","response":"present","rt":535.09999990463,"correct":true,"confidence":4},{"trial_n":119,"min":88,"max":167,"target":"absent","response":"present","rt":867.19999980927,"correct":false,"confidence":1},{"trial_n":120,"min":87,"max":168,"target":"present","response":"present","rt":751.40000009537,"correct":true,"confidence":4},{"trial_n":121,"min":87,"max":168,"target":"absent","response":"present","rt":635.19999980927,"correct":false,"confidence":1},{"trial_n":122,"min":86,"max":169,"target":"absent","response":"absent","rt":587.20000004768,"correct":true,"confidence":5},{"trial_n":123,"min":86,"max":169,"target":"absent","response":"absent","rt":2263.4000000954,"correct":true,"confidence":5},{"trial_n":124,"min":87,"max":168,"target":"present","response":"absent","rt":2073,"correct":false,"confidence":1},{"trial_n":125,"min":86,"max":169,"target":"absent","response":"absent","rt":778.40000009537,"correct":true,"confidence":1},{"trial_n":126,"min":86,"max":169,"target":"absent","response":"present","rt":760.19999980927,"correct":false,"confidence":1},{"trial_n":127,"min":85,"max":170,"target":"present","response":"present","rt":742.39999985695,"correct":true,"confidence":1},{"trial_n":128,"min":85,"max":170,"target":"absent","response":"absent","rt":880.80000019073,"correct":true,"confidence":1},{"trial_n":129,"min":86,"max":169,"target":"absent","response":"absent","rt":902.70000004768,"correct":true,"confidence":3},{"trial_n":130,"min":86,"max":169,"target":"present","response":"present","rt":698.60000014305,"correct":true,"confidence":3},{"trial_n":131,"min":87,"max":168,"target":"present","response":"present","rt":510,"correct":true,"confidence":2},{"trial_n":132,"min":87,"max":168,"target":"present","response":"present","rt":607.79999995232,"correct":true,"confidence":4},{"trial_n":133,"min":88,"max":167,"target":"absent","response":"absent","rt":769.29999995232,"correct":true,"confidence":1},{"trial_n":134,"min":88,"max":167,"target":"absent","response":"absent","rt":820.09999990463,"correct":true,"confidence":1},{"trial_n":135,"min":89,"max":166,"target":"absent","response":"present","rt":943.19999980927,"correct":false,"confidence":1},{"trial_n":136,"min":88,"max":167,"target":"absent","response":"absent","rt":767.70000004768,"correct":true,"confidence":1},{"trial_n":137,"min":88,"max":167,"target":"absent","response":"present","rt":681.60000014305,"correct":false,"confidence":3},{"trial_n":138,"min":87,"max":168,"target":"absent","response":"present","rt":1098.4000000954,"correct":false,"confidence":1},{"trial_n":139,"min":86,"max":169,"target":"absent","response":"absent","rt":776.5,"correct":true,"confidence":4},{"trial_n":140,"min":86,"max":169,"target":"absent","response":"present","rt":758,"correct":false,"confidence":1}]