[{"trial_n":1,"min":25,"max":230,"target":"present","response":"absent","rt":5029,"correct":false,"confidence":-1},{"trial_n":2,"min":25,"max":230,"target":"present","response":"present","rt":1691,"correct":true,"confidence":-1},{"trial_n":3,"min":25,"max":230,"target":"absent","response":"absent","rt":623,"correct":true,"confidence":-1},{"trial_n":4,"min":41,"max":214,"target":"absent","response":"absent","rt":453,"correct":true,"confidence":-1},{"trial_n":5,"min":41,"max":214,"target":"present","response":"present","rt":803,"correct":true,"confidence":-1},{"trial_n":6,"min":57,"max":198,"target":"present","response":"present","rt":1080,"correct":true,"confidence":-1},{"trial_n":7,"min":57,"max":198,"target":"present","response":"present","rt":591,"correct":true,"confidence":-1},{"trial_n":8,"min":73,"max":182,"target":"absent","response":"absent","rt":519,"correct":true,"confidence":-1},{"trial_n":9,"min":73,"max":182,"target":"present","response":"absent","rt":505,"correct":false,"confidence":-1},{"trial_n":10,"min":57,"max":198,"target":"absent","response":"absent","rt":883,"correct":true,"confidence":-1},{"trial_n":11,"min":57,"max":198,"target":"present","response":"present","rt":1112,"correct":true,"confidence":-1},{"trial_n":12,"min":65,"max":190,"target":"present","response":"present","rt":768,"correct":true,"confidence":-1},{"trial_n":13,"min":65,"max":190,"target":"absent","response":"present","rt":579,"correct":false,"confidence":-1},{"trial_n":14,"min":57,"max":198,"target":"present","response":"present","rt":532.00000000001,"correct":true,"confidence":-1},{"trial_n":15,"min":57,"max":198,"target":"present","response":"present","rt":511.00000000001,"correct":true,"confidence":-1},{"trial_n":16,"min":65,"max":190,"target":"absent","response":"absent","rt":642,"correct":true,"confidence":-1},{"trial_n":17,"min":65,"max":190,"target":"present","response":"present","rt":461.99999999999,"correct":true,"confidence":-1},{"trial_n":18,"min":73,"max":182,"target":"present","response":"present","rt":652,"correct":true,"confidence":-1},{"trial_n":19,"min":73,"max":182,"target":"present","response":"present","rt":543,"correct":true,"confidence":-1},{"trial_n":20,"min":81,"max":174,"target":"absent","response":"absent","rt":598,"correct":true,"confidence":-1},{"trial_n":21,"min":81,"max":174,"target":"present","response":"present","rt":628,"correct":true,"confidence":4},{"trial_n":22,"min":85,"max":170,"target":"absent","response":"absent","rt":563,"correct":true,"confidence":3},{"trial_n":23,"min":85,"max":170,"target":"absent","response":"absent","rt":1083,"correct":true,"confidence":3},{"trial_n":24,"min":89,"max":166,"target":"absent","response":"absent","rt":728,"correct":true,"confidence":2},{"trial_n":25,"min":89,"max":166,"target":"absent","response":"absent","rt":722,"correct":true,"confidence":3},{"trial_n":26,"min":93,"max":162,"target":"absent","response":"present","rt":1425,"correct":false,"confidence":2},{"trial_n":27,"min":89,"max":166,"target":"present","response":"present","rt":1435,"correct":true,"confidence":4},{"trial_n":28,"min":89,"max":166,"target":"absent","response":"present","rt":830.99999999999,"correct":false,"confidence":4},{"trial_n":29,"min":85,"max":170,"target":"absent","response":"present","rt":1448,"correct":false,"confidence":2},{"trial_n":30,"min":81,"max":174,"target":"present","response":"present","rt":794,"correct":true,"confidence":3},{"trial_n":31,"min":81,"max":174,"target":"absent","response":"present","rt":1838,"correct":false,"confidence":2},{"trial_n":32,"min":79,"max":176,"target":"present","response":"present","rt":1291,"correct":true,"confidence":5},{"trial_n":33,"min":79,"max":176,"target":"present","response":"present","rt":725,"correct":true,"confidence":3},{"trial_n":34,"min":81,"max":174,"target":"absent","response":"absent","rt":548.99999999997,"correct":true,"confidence":3},{"trial_n":35,"min":81,"max":174,"target":"absent","response":"absent","rt":948,"correct":true,"confidence":2},{"trial_n":36,"min":83,"max":172,"target":"absent","response":"absent","rt":573,"correct":true,"confidence":3},{"trial_n":37,"min":83,"max":172,"target":"absent","response":"absent","rt":877,"correct":true,"confidence":4},{"trial_n":38,"min":85,"max":170,"target":"present","response":"present","rt":1074,"correct":true,"confidence":4},{"trial_n":39,"min":85,"max":170,"target":"absent","response":"present","rt":2848,"correct":false,"confidence":3},{"trial_n":40,"min":83,"max":172,"target":"absent","response":"absent","rt":782,"correct":true,"confidence":3},{"trial_n":41,"min":83,"max":172,"target":"present","response":"present","rt":607,"correct":true,"confidence":4},{"trial_n":42,"min":84,"max":171,"target":"absent","response":"present","rt":1158,"correct":false,"confidence":2},{"trial_n":43,"min":83,"max":172,"target":"present","response":"present","rt":726,"correct":true,"confidence":4},{"trial_n":44,"min":83,"max":172,"target":"present","response":"present","rt":830,"correct":true,"confidence":3},{"trial_n":45,"min":84,"max":171,"target":"absent","response":"absent","rt":516,"correct":true,"confidence":3},{"trial_n":46,"min":84,"max":171,"target":"present","response":"present","rt":782.00000000003,"correct":true,"confidence":3},{"trial_n":47,"min":85,"max":170,"target":"absent","response":"absent","rt":650,"correct":true,"confidence":3},{"trial_n":48,"min":85,"max":170,"target":"present","response":"present","rt":701,"correct":true,"confidence":4},{"trial_n":49,"min":86,"max":169,"target":"absent","response":"absent","rt":527,"correct":true,"confidence":4},{"trial_n":50,"min":86,"max":169,"target":"absent","response":"absent","rt":579.99999999997,"correct":true,"confidence":4},{"trial_n":51,"min":87,"max":168,"target":"present","response":"absent","rt":658.00000000003,"correct":false,"confidence":2},{"trial_n":52,"min":86,"max":169,"target":"absent","response":"absent","rt":660,"correct":true,"confidence":4},{"trial_n":53,"min":86,"max":169,"target":"absent","response":"absent","rt":816,"correct":true,"confidence":3},{"trial_n":54,"min":87,"max":168,"target":"present","response":"present","rt":2169,"correct":true,"confidence":3},{"trial_n":55,"min":87,"max":168,"target":"absent","response":"present","rt":687,"correct":false,"confidence":3},{"trial_n":56,"min":86,"max":169,"target":"absent","response":"absent","rt":529,"correct":true,"confidence":4},{"trial_n":57,"min":86,"max":169,"target":"present","response":"present","rt":808,"correct":true,"confidence":3},{"trial_n":58,"min":87,"max":168,"target":"absent","response":"absent","rt":761,"correct":true,"confidence":3},{"trial_n":59,"min":87,"max":168,"target":"present","response":"absent","rt":1961,"correct":false,"confidence":2},{"trial_n":60,"min":86,"max":169,"target":"absent","response":"present","rt":1258,"correct":false,"confidence":3},{"trial_n":61,"min":85,"max":170,"target":"present","response":"present","rt":625,"correct":true,"confidence":4},{"trial_n":62,"min":85,"max":170,"target":"absent","response":"absent","rt":546,"correct":true,"confidence":3},{"trial_n":63,"min":86,"max":169,"target":"present","response":"present","rt":795,"correct":true,"confidence":3},{"trial_n":64,"min":86,"max":169,"target":"present","response":"present","rt":843.00000000003,"correct":true,"confidence":2},{"trial_n":65,"min":87,"max":168,"target":"present","response":"present","rt":976,"correct":true,"confidence":2},{"trial_n":66,"min":87,"max":168,"target":"present","response":"present","rt":744,"correct":true,"confidence":4},{"trial_n":67,"min":88,"max":167,"target":"present","response":"present","rt":654.00000000003,"correct":true,"confidence":4},{"trial_n":68,"min":88,"max":167,"target":"absent","response":"absent","rt":605.00000000003,"correct":true,"confidence":3},{"trial_n":69,"min":89,"max":166,"target":"present","response":"absent","rt":2397,"correct":false,"confidence":1},{"trial_n":70,"min":88,"max":167,"target":"present","response":"absent","rt":2578,"correct":false,"confidence":2},{"trial_n":71,"min":41,"max":214,"target":"present","response":"present","rt":2458,"correct":true,"confidence":-1},{"trial_n":72,"min":41,"max":214,"target":"present","response":"present","rt":675,"correct":true,"confidence":-1},{"trial_n":73,"min":57,"max":198,"target":"absent","response":"absent","rt":887,"correct":true,"confidence":-1},{"trial_n":74,"min":57,"max":198,"target":"absent","response":"absent","rt":1187,"correct":true,"confidence":-1},{"trial_n":75,"min":73,"max":182,"target":"present","response":"present","rt":818.00000000006,"correct":true,"confidence":-1},{"trial_n":76,"min":73,"max":182,"target":"absent","response":"absent","rt":1132,"correct":true,"confidence":-1},{"trial_n":77,"min":89,"max":166,"target":"absent","response":"present","rt":944,"correct":false,"confidence":-1},{"trial_n":78,"min":73,"max":182,"target":"absent","response":"absent","rt":632,"correct":true,"confidence":-1},{"trial_n":79,"min":73,"max":182,"target":"present","response":"absent","rt":979.99999999994,"correct":false,"confidence":-1},{"trial_n":80,"min":57,"max":198,"target":"present","response":"present","rt":369,"correct":true,"confidence":-1},{"trial_n":81,"min":57,"max":198,"target":"absent","response":"absent","rt":599,"correct":true,"confidence":-1},{"trial_n":82,"min":65,"max":190,"target":"absent","response":"absent","rt":562,"correct":true,"confidence":-1},{"trial_n":83,"min":65,"max":190,"target":"present","response":"absent","rt":3072,"correct":false,"confidence":-1},{"trial_n":84,"min":57,"max":198,"target":"present","response":"present","rt":285,"correct":true,"confidence":-1},{"trial_n":85,"min":57,"max":198,"target":"absent","response":"absent","rt":469,"correct":true,"confidence":-1},{"trial_n":86,"min":65,"max":190,"target":"present","response":"present","rt":318,"correct":true,"confidence":-1},{"trial_n":87,"min":65,"max":190,"target":"absent","response":"absent","rt":549,"correct":true,"confidence":-1},{"trial_n":88,"min":73,"max":182,"target":"absent","response":"absent","rt":583,"correct":true,"confidence":-1},{"trial_n":89,"min":73,"max":182,"target":"present","response":"present","rt":325.99999999994,"correct":true,"confidence":-1},{"trial_n":90,"min":81,"max":174,"target":"absent","response":"absent","rt":633.00000000006,"correct":true,"confidence":-1},{"trial_n":91,"min":81,"max":174,"target":"absent","response":"absent","rt":2000,"correct":true,"confidence":2},{"trial_n":92,"min":85,"max":170,"target":"present","response":"absent","rt":928,"correct":false,"confidence":3},{"trial_n":93,"min":81,"max":174,"target":"present","response":"present","rt":1263,"correct":true,"confidence":2},{"trial_n":94,"min":81,"max":174,"target":"absent","response":"absent","rt":2014,"correct":true,"confidence":1},{"trial_n":95,"min":85,"max":170,"target":"present","response":"present","rt":424,"correct":true,"confidence":4},{"trial_n":96,"min":85,"max":170,"target":"absent","response":"absent","rt":1207,"correct":true,"confidence":4},{"trial_n":97,"min":89,"max":166,"target":"present","response":"present","rt":572,"correct":true,"confidence":5},{"trial_n":98,"min":89,"max":166,"target":"absent","response":"absent","rt":1860,"correct":true,"confidence":3},{"trial_n":99,"min":93,"max":162,"target":"absent","response":"absent","rt":1025.0000000001,"correct":true,"confidence":1},{"trial_n":100,"min":93,"max":162,"target":"present","response":"present","rt":531.00000000006,"correct":true,"confidence":4},{"trial_n":101,"min":95,"max":160,"target":"present","response":"present","rt":583,"correct":true,"confidence":3},{"trial_n":102,"min":95,"max":160,"target":"present","response":"present","rt":562,"correct":true,"confidence":5},{"trial_n":103,"min":97,"max":158,"target":"absent","response":"present","rt":1816.0000000001,"correct":false,"confidence":2},{"trial_n":104,"min":95,"max":160,"target":"present","response":"present","rt":867,"correct":true,"confidence":4},{"trial_n":105,"min":95,"max":160,"target":"present","response":"present","rt":841,"correct":true,"confidence":3},{"trial_n":106,"min":97,"max":158,"target":"present","response":"present","rt":846,"correct":true,"confidence":2},{"trial_n":107,"min":97,"max":158,"target":"absent","response":"absent","rt":780,"correct":true,"confidence":3},{"trial_n":108,"min":99,"max":156,"target":"present","response":"absent","rt":1087,"correct":false,"confidence":3},{"trial_n":109,"min":97,"max":158,"target":"absent","response":"present","rt":1126,"correct":false,"confidence":1},{"trial_n":110,"min":95,"max":160,"target":"present","response":"present","rt":816.99999999994,"correct":true,"confidence":1},{"trial_n":111,"min":95,"max":160,"target":"absent","response":"present","rt":1031,"correct":false,"confidence":3},{"trial_n":112,"min":94,"max":161,"target":"absent","response":"absent","rt":664.99999999994,"correct":true,"confidence":3},{"trial_n":113,"min":94,"max":161,"target":"present","response":"absent","rt":894,"correct":false,"confidence":2},{"trial_n":114,"min":93,"max":162,"target":"present","response":"absent","rt":1407.9999999999,"correct":false,"confidence":1},{"trial_n":115,"min":92,"max":163,"target":"present","response":"present","rt":940,"correct":true,"confidence":1},{"trial_n":116,"min":92,"max":163,"target":"absent","response":"absent","rt":1685.9999999999,"correct":true,"confidence":1},{"trial_n":117,"min":93,"max":162,"target":"absent","response":"absent","rt":1528,"correct":true,"confidence":1},{"trial_n":118,"min":93,"max":162,"target":"absent","response":"present","rt":517,"correct":false,"confidence":2},{"trial_n":119,"min":92,"max":163,"target":"absent","response":"present","rt":1123,"correct":false,"confidence":3},{"trial_n":120,"min":91,"max":164,"target":"absent","response":"absent","rt":883,"correct":true,"confidence":3},{"trial_n":121,"min":91,"max":164,"target":"absent","response":"present","rt":505,"correct":false,"confidence":2},{"trial_n":122,"min":90,"max":165,"target":"absent","response":"present","rt":889,"correct":false,"confidence":3},{"trial_n":123,"min":89,"max":166,"target":"absent","response":"absent","rt":1833,"correct":true,"confidence":2},{"trial_n":124,"min":89,"max":166,"target":"present","response":"present","rt":522,"correct":true,"confidence":4},{"trial_n":125,"min":90,"max":165,"target":"present","response":"present","rt":677.99999999994,"correct":true,"confidence":3},{"trial_n":126,"min":90,"max":165,"target":"absent","response":"present","rt":1003,"correct":false,"confidence":1},{"trial_n":127,"min":89,"max":166,"target":"present","response":"present","rt":376.99999999994,"correct":true,"confidence":5},{"trial_n":128,"min":89,"max":166,"target":"absent","response":"absent","rt":763,"correct":true,"confidence":4},{"trial_n":129,"min":90,"max":165,"target":"absent","response":"absent","rt":1419,"correct":true,"confidence":3},{"trial_n":130,"min":90,"max":165,"target":"present","response":"present","rt":829.00000000006,"correct":true,"confidence":2},{"trial_n":131,"min":91,"max":164,"target":"absent","response":"present","rt":365,"correct":false,"confidence":4},{"trial_n":132,"min":90,"max":165,"target":"present","response":"present","rt":556,"correct":true,"confidence":4},{"trial_n":133,"min":90,"max":165,"target":"present","response":"absent","rt":1827.9999999999,"correct":false,"confidence":1},{"trial_n":134,"min":89,"max":166,"target":"present","response":"present","rt":272.99999999994,"correct":true,"confidence":3},{"trial_n":135,"min":89,"max":166,"target":"present","response":"present","rt":1094,"correct":true,"confidence":3},{"trial_n":136,"min":90,"max":165,"target":"present","response":"present","rt":803,"correct":true,"confidence":2},{"trial_n":137,"min":90,"max":165,"target":"absent","response":"absent","rt":1150,"correct":true,"confidence":1},{"trial_n":138,"min":91,"max":164,"target":"present","response":"absent","rt":1616,"correct":false,"confidence":1},{"trial_n":139,"min":90,"max":165,"target":"present","response":"present","rt":695,"correct":true,"confidence":2},{"trial_n":140,"min":90,"max":165,"target":"present","response":"absent","rt":1618,"correct":false,"confidence":1}]