[{"trial_n":1,"n_dots":4.25,"target":"right","response":"left","rt":5062,"correct":false,"confidence":-1},{"trial_n":2,"n_dots":4.25,"target":"right","response":"right","rt":875,"correct":true,"confidence":-1},{"trial_n":3,"n_dots":4.25,"target":"right","response":"right","rt":461,"correct":true,"confidence":-1},{"trial_n":4,"n_dots":3.85,"target":"right","response":"right","rt":409,"correct":true,"confidence":-1},{"trial_n":5,"n_dots":3.85,"target":"right","response":"right","rt":425,"correct":true,"confidence":-1},{"trial_n":6,"n_dots":3.45,"target":"left","response":"left","rt":369,"correct":true,"confidence":-1},{"trial_n":7,"n_dots":3.45,"target":"right","response":"right","rt":682,"correct":true,"confidence":-1},{"trial_n":8,"n_dots":3.25,"target":"right","response":"right","rt":559,"correct":true,"confidence":-1},{"trial_n":9,"n_dots":3.25,"target":"right","response":"left","rt":557,"correct":false,"confidence":-1},{"trial_n":10,"n_dots":3.45,"target":"left","response":"right","rt":739,"correct":false,"confidence":-1},{"trial_n":11,"n_dots":3.65,"target":"right","response":"right","rt":568.99999999999,"correct":true,"confidence":-1},{"trial_n":12,"n_dots":3.65,"target":"right","response":"right","rt":583,"correct":true,"confidence":-1},{"trial_n":13,"n_dots":3.55,"target":"left","response":"right","rt":707,"correct":false,"confidence":-1},{"trial_n":14,"n_dots":3.65,"target":"left","response":"left","rt":390,"correct":true,"confidence":-1},{"trial_n":15,"n_dots":3.65,"target":"left","response":"left","rt":385,"correct":true,"confidence":-1},{"trial_n":16,"n_dots":3.55,"target":"left","response":"left","rt":348,"correct":true,"confidence":-1},{"trial_n":17,"n_dots":3.55,"target":"right","response":"right","rt":370,"correct":true,"confidence":-1},{"trial_n":18,"n_dots":3.45,"target":"right","response":"right","rt":398,"correct":true,"confidence":-1},{"trial_n":19,"n_dots":3.45,"target":"left","response":"left","rt":335,"correct":true,"confidence":-1},{"trial_n":20,"n_dots":3.35,"target":"left","response":"left","rt":337.00000000001,"correct":true,"confidence":-1},{"trial_n":21,"n_dots":3.35,"target":"right","response":"right","rt":27,"correct":true,"confidence":3},{"trial_n":22,"n_dots":3.25,"target":"right","response":"right","rt":339,"correct":true,"confidence":3},{"trial_n":23,"n_dots":3.25,"target":"right","response":"left","rt":83,"correct":false,"confidence":3},{"trial_n":24,"n_dots":3.35,"target":"right","response":"right","rt":128,"correct":true,"confidence":2},{"trial_n":25,"n_dots":3.35,"target":"left","response":"left","rt":824.99999999999,"correct":true,"confidence":2},{"trial_n":26,"n_dots":3.25,"target":"left","response":"right","rt":324,"correct":false,"confidence":4},{"trial_n":27,"n_dots":3.35,"target":"right","response":"left","rt":360,"correct":false,"confidence":4},{"trial_n":28,"n_dots":3.45,"target":"right","response":"right","rt":326,"correct":true,"confidence":3},{"trial_n":29,"n_dots":3.45,"target":"right","response":"right","rt":295,"correct":true,"confidence":4},{"trial_n":30,"n_dots":3.35,"target":"right","response":"right","rt":254.00000000001,"correct":true,"confidence":5},{"trial_n":31,"n_dots":3.35,"target":"left","response":"left","rt":753,"correct":true,"confidence":5},{"trial_n":32,"n_dots":3.25,"target":"left","response":"left","rt":425,"correct":true,"confidence":5},{"trial_n":33,"n_dots":3.25,"target":"left","response":"left","rt":533,"correct":true,"confidence":4},{"trial_n":34,"n_dots":3.15,"target":"left","response":"left","rt":441,"correct":true,"confidence":4},{"trial_n":35,"n_dots":3.15,"target":"left","response":"left","rt":495,"correct":true,"confidence":4},{"trial_n":36,"n_dots":3.05,"target":"right","response":"right","rt":1085,"correct":true,"confidence":3},{"trial_n":37,"n_dots":3.05,"target":"right","response":"left","rt":554,"correct":false,"confidence":4},{"trial_n":38,"n_dots":3.15,"target":"left","response":"left","rt":349,"correct":true,"confidence":3},{"trial_n":39,"n_dots":3.15,"target":"right","response":"right","rt":660,"correct":true,"confidence":3},{"trial_n":40,"n_dots":3.05,"target":"right","response":"left","rt":1207,"correct":false,"confidence":3},{"trial_n":41,"n_dots":3.15,"target":"right","response":"right","rt":466,"correct":true,"confidence":3},{"trial_n":42,"n_dots":3.15,"target":"right","response":"right","rt":1688,"correct":true,"confidence":2},{"trial_n":43,"n_dots":3.05,"target":"left","response":"left","rt":473,"correct":true,"confidence":4},{"trial_n":44,"n_dots":3.05,"target":"left","response":"left","rt":958,"correct":true,"confidence":2},{"trial_n":45,"n_dots":2.95,"target":"left","response":"right","rt":349,"correct":false,"confidence":2},{"trial_n":46,"n_dots":3.05,"target":"left","response":"right","rt":367,"correct":false,"confidence":4},{"trial_n":47,"n_dots":3.15,"target":"right","response":"right","rt":1226,"correct":true,"confidence":2},{"trial_n":48,"n_dots":3.15,"target":"left","response":"left","rt":415,"correct":true,"confidence":2},{"trial_n":49,"n_dots":3.05,"target":"right","response":"left","rt":333,"correct":false,"confidence":2},{"trial_n":50,"n_dots":3.15,"target":"left","response":"left","rt":460,"correct":true,"confidence":2},{"trial_n":51,"n_dots":3.15,"target":"right","response":"left","rt":372,"correct":false,"confidence":2},{"trial_n":52,"n_dots":3.25,"target":"right","response":"left","rt":374.00000000003,"correct":false,"confidence":2},{"trial_n":53,"n_dots":3.35,"target":"right","response":"right","rt":457,"correct":true,"confidence":2},{"trial_n":54,"n_dots":3.35,"target":"right","response":"left","rt":773,"correct":false,"confidence":2},{"trial_n":55,"n_dots":3.45,"target":"right","response":"right","rt":532.99999999997,"correct":true,"confidence":1},{"trial_n":56,"n_dots":3.45,"target":"left","response":"left","rt":670.99999999997,"correct":true,"confidence":1},{"trial_n":57,"n_dots":3.35,"target":"right","response":"right","rt":408,"correct":true,"confidence":3},{"trial_n":58,"n_dots":3.35,"target":"left","response":"left","rt":1883,"correct":true,"confidence":2},{"trial_n":59,"n_dots":3.25,"target":"left","response":"left","rt":619,"correct":true,"confidence":2},{"trial_n":60,"n_dots":3.25,"target":"left","response":"left","rt":1029,"correct":true,"confidence":2},{"trial_n":61,"n_dots":3.15,"target":"left","response":"left","rt":730,"correct":true,"confidence":3},{"trial_n":62,"n_dots":3.15,"target":"left","response":"left","rt":724,"correct":true,"confidence":3},{"trial_n":63,"n_dots":3.05,"target":"right","response":"left","rt":539.99999999997,"correct":false,"confidence":2},{"trial_n":64,"n_dots":3.15,"target":"right","response":"right","rt":1443,"correct":true,"confidence":3},{"trial_n":65,"n_dots":3.15,"target":"left","response":"right","rt":1639,"correct":false,"confidence":4},{"trial_n":66,"n_dots":3.25,"target":"right","response":"left","rt":730,"correct":false,"confidence":2},{"trial_n":67,"n_dots":3.35,"target":"right","response":"right","rt":1941,"correct":true,"confidence":4},{"trial_n":68,"n_dots":3.35,"target":"left","response":"left","rt":781,"correct":true,"confidence":3},{"trial_n":69,"n_dots":3.25,"target":"right","response":"right","rt":679.00000000006,"correct":true,"confidence":4},{"trial_n":70,"n_dots":3.25,"target":"right","response":"right","rt":507,"correct":true,"confidence":2},{"trial_n":71,"n_dots":3.15,"target":"left","response":"left","rt":714,"correct":true,"confidence":2},{"trial_n":72,"n_dots":3.15,"target":"left","response":"left","rt":841,"correct":true,"confidence":2},{"trial_n":73,"n_dots":3.05,"target":"right","response":"right","rt":344,"correct":true,"confidence":2},{"trial_n":74,"n_dots":3.05,"target":"left","response":"right","rt":500,"correct":false,"confidence":2},{"trial_n":75,"n_dots":3.15,"target":"right","response":"right","rt":381,"correct":true,"confidence":3},{"trial_n":76,"n_dots":3.15,"target":"right","response":"right","rt":724.99999999994,"correct":true,"confidence":3},{"trial_n":77,"n_dots":3.05,"target":"right","response":"right","rt":553,"correct":true,"confidence":3},{"trial_n":78,"n_dots":3.05,"target":"right","response":"right","rt":746,"correct":true,"confidence":3},{"trial_n":79,"n_dots":2.95,"target":"left","response":"left","rt":711,"correct":true,"confidence":2},{"trial_n":80,"n_dots":2.95,"target":"right","response":"right","rt":526,"correct":true,"confidence":2},{"trial_n":81,"n_dots":2.85,"target":"right","response":"left","rt":202,"correct":false,"confidence":2},{"trial_n":82,"n_dots":2.95,"target":"left","response":"left","rt":1057,"correct":true,"confidence":4},{"trial_n":83,"n_dots":2.95,"target":"left","response":"left","rt":423,"correct":true,"confidence":2},{"trial_n":84,"n_dots":2.85,"target":"left","response":"right","rt":3102,"correct":false,"confidence":2},{"trial_n":85,"n_dots":2.95,"target":"right","response":"left","rt":518,"correct":false,"confidence":2},{"trial_n":86,"n_dots":3.05,"target":"left","response":"left","rt":183,"correct":true,"confidence":2},{"trial_n":87,"n_dots":3.05,"target":"left","response":"left","rt":291,"correct":true,"confidence":2},{"trial_n":88,"n_dots":2.95,"target":"left","response":"left","rt":1112,"correct":true,"confidence":4},{"trial_n":89,"n_dots":2.95,"target":"right","response":"left","rt":530,"correct":false,"confidence":3},{"trial_n":90,"n_dots":3.05,"target":"left","response":"left","rt":1536,"correct":true,"confidence":2},{"trial_n":91,"n_dots":3.05,"target":"right","response":"left","rt":846,"correct":false,"confidence":3},{"trial_n":92,"n_dots":3.15,"target":"left","response":"left","rt":762,"correct":true,"confidence":2},{"trial_n":93,"n_dots":3.15,"target":"left","response":"left","rt":617,"correct":true,"confidence":4},{"trial_n":94,"n_dots":3.05,"target":"left","response":"left","rt":1138,"correct":true,"confidence":3},{"trial_n":95,"n_dots":3.05,"target":"left","response":"left","rt":822,"correct":true,"confidence":3},{"trial_n":96,"n_dots":2.95,"target":"left","response":"left","rt":605.00000000006,"correct":true,"confidence":4},{"trial_n":97,"n_dots":2.95,"target":"left","response":"right","rt":607,"correct":false,"confidence":2},{"trial_n":98,"n_dots":3.05,"target":"left","response":"right","rt":586.99999999994,"correct":false,"confidence":3},{"trial_n":99,"n_dots":3.15,"target":"right","response":"right","rt":273,"correct":true,"confidence":4},{"trial_n":100,"n_dots":3.15,"target":"left","response":"left","rt":665.99999999994,"correct":true,"confidence":2},{"trial_n":101,"n_dots":3.05,"target":"right","response":"right","rt":75.999999999942,"correct":true,"confidence":4},{"trial_n":102,"n_dots":3.05,"target":"right","response":"right","rt":233,"correct":true,"confidence":5},{"trial_n":103,"n_dots":2.95,"target":"left","response":"left","rt":211.00000000006,"correct":true,"confidence":4},{"trial_n":104,"n_dots":2.95,"target":"right","response":"right","rt":339,"correct":true,"confidence":3},{"trial_n":105,"n_dots":2.85,"target":"right","response":"right","rt":310,"correct":true,"confidence":3},{"trial_n":106,"n_dots":2.85,"target":"right","response":"left","rt":1159,"correct":false,"confidence":3},{"trial_n":107,"n_dots":2.95,"target":"left","response":"left","rt":739.99999999994,"correct":true,"confidence":2},{"trial_n":108,"n_dots":2.95,"target":"left","response":"right","rt":406,"correct":false,"confidence":2},{"trial_n":109,"n_dots":3.05,"target":"left","response":"left","rt":744,"correct":true,"confidence":4},{"trial_n":110,"n_dots":3.05,"target":"right","response":"right","rt":586,"correct":true,"confidence":3},{"trial_n":111,"n_dots":2.95,"target":"left","response":"left","rt":692,"correct":true,"confidence":5},{"trial_n":112,"n_dots":2.95,"target":"right","response":"right","rt":303,"correct":true,"confidence":4},{"trial_n":113,"n_dots":2.85,"target":"right","response":"right","rt":701,"correct":true,"confidence":4},{"trial_n":114,"n_dots":2.85,"target":"left","response":"left","rt":628.00000000006,"correct":true,"confidence":4},{"trial_n":115,"n_dots":2.75,"target":"left","response":"left","rt":862.00000000006,"correct":true,"confidence":4},{"trial_n":116,"n_dots":2.75,"target":"left","response":"left","rt":593,"correct":true,"confidence":4},{"trial_n":117,"n_dots":2.65,"target":"right","response":"right","rt":511,"correct":true,"confidence":3},{"trial_n":118,"n_dots":2.65,"target":"left","response":"left","rt":678,"correct":true,"confidence":3},{"trial_n":119,"n_dots":2.55,"target":"left","response":"right","rt":441,"correct":false,"confidence":4},{"trial_n":120,"n_dots":2.65,"target":"left","response":"left","rt":761,"correct":true,"confidence":3}]