[{"trial_n":1,"n_dots":4.25,"target":"right","response":"left","rt":7501,"correct":false,"confidence":-1},{"trial_n":2,"n_dots":4.25,"target":"right","response":"right","rt":2248,"correct":true,"confidence":-1},{"trial_n":3,"n_dots":4.25,"target":"left","response":"left","rt":807,"correct":true,"confidence":-1},{"trial_n":4,"n_dots":3.85,"target":"right","response":"right","rt":567,"correct":true,"confidence":-1},{"trial_n":5,"n_dots":3.85,"target":"right","response":"right","rt":419.00000000012,"correct":true,"confidence":-1},{"trial_n":6,"n_dots":3.45,"target":"left","response":"left","rt":299,"correct":true,"confidence":-1},{"trial_n":7,"n_dots":3.45,"target":"right","response":"left","rt":323,"correct":false,"confidence":-1},{"trial_n":8,"n_dots":3.65,"target":"right","response":"left","rt":61.000000000116,"correct":false,"confidence":-1},{"trial_n":9,"n_dots":3.85,"target":"left","response":"left","rt":176.99999999988,"correct":true,"confidence":-1},{"trial_n":10,"n_dots":3.85,"target":"left","response":"left","rt":125,"correct":true,"confidence":-1},{"trial_n":11,"n_dots":3.65,"target":"right","response":"right","rt":280,"correct":true,"confidence":-1},{"trial_n":12,"n_dots":3.65,"target":"right","response":"left","rt":102.99999999988,"correct":false,"confidence":-1},{"trial_n":13,"n_dots":3.75,"target":"left","response":"left","rt":206,"correct":true,"confidence":-1},{"trial_n":14,"n_dots":3.75,"target":"right","response":"left","rt":337,"correct":false,"confidence":-1},{"trial_n":15,"n_dots":3.85,"target":"left","response":"left","rt":247,"correct":true,"confidence":-1},{"trial_n":16,"n_dots":3.85,"target":"left","response":"left","rt":285,"correct":true,"confidence":-1},{"trial_n":17,"n_dots":3.75,"target":"left","response":"left","rt":1232,"correct":true,"confidence":-1},{"trial_n":18,"n_dots":3.75,"target":"left","response":"right","rt":354,"correct":false,"confidence":-1},{"trial_n":19,"n_dots":3.85,"target":"right","response":"left","rt":53,"correct":false,"confidence":-1},{"trial_n":20,"n_dots":3.95,"target":"right","response":"left","rt":427.00000000012,"correct":false,"confidence":-1},{"trial_n":21,"n_dots":4.05,"target":"left","response":"left","rt":209.99999999988,"correct":true,"confidence":3},{"trial_n":22,"n_dots":4.05,"target":"right","response":"right","rt":1245,"correct":true,"confidence":4},{"trial_n":23,"n_dots":3.95,"target":"right","response":"left","rt":383,"correct":false,"confidence":4},{"trial_n":24,"n_dots":4.05,"target":"left","response":"left","rt":297,"correct":true,"confidence":5},{"trial_n":25,"n_dots":4.05,"target":"left","response":"right","rt":1915,"correct":false,"confidence":2},{"trial_n":26,"n_dots":4.15,"target":"left","response":"left","rt":712.99999999988,"correct":true,"confidence":4},{"trial_n":27,"n_dots":4.15,"target":"right","response":"right","rt":663,"correct":true,"confidence":3},{"trial_n":28,"n_dots":4.05,"target":"left","response":"left","rt":721,"correct":true,"confidence":2},{"trial_n":29,"n_dots":4.05,"target":"right","response":"left","rt":1325,"correct":false,"confidence":1},{"trial_n":30,"n_dots":4.15,"target":"right","response":"left","rt":1073,"correct":false,"confidence":1},{"trial_n":31,"n_dots":4.25,"target":"right","response":"right","rt":483.99999999988,"correct":true,"confidence":3},{"trial_n":32,"n_dots":4.25,"target":"left","response":"left","rt":589.00000000012,"correct":true,"confidence":2},{"trial_n":33,"n_dots":4.15,"target":"right","response":"right","rt":925,"correct":true,"confidence":1},{"trial_n":34,"n_dots":4.15,"target":"left","response":"left","rt":355,"correct":true,"confidence":3},{"trial_n":35,"n_dots":4.05,"target":"right","response":"right","rt":379,"correct":true,"confidence":3},{"trial_n":36,"n_dots":4.05,"target":"left","response":"left","rt":1131,"correct":true,"confidence":2},{"trial_n":37,"n_dots":3.95,"target":"left","response":"left","rt":437,"correct":true,"confidence":2},{"trial_n":38,"n_dots":3.95,"target":"left","response":"left","rt":501,"correct":true,"confidence":3},{"trial_n":39,"n_dots":3.85,"target":"right","response":"right","rt":351,"correct":true,"confidence":2},{"trial_n":40,"n_dots":3.85,"target":"left","response":"left","rt":1688,"correct":true,"confidence":2},{"trial_n":41,"n_dots":3.75,"target":"right","response":"right","rt":413,"correct":true,"confidence":4},{"trial_n":42,"n_dots":3.75,"target":"right","response":"left","rt":1034,"correct":false,"confidence":1},{"trial_n":43,"n_dots":3.85,"target":"left","response":"left","rt":583,"correct":true,"confidence":2},{"trial_n":44,"n_dots":3.85,"target":"right","response":"right","rt":578,"correct":true,"confidence":3},{"trial_n":45,"n_dots":3.75,"target":"right","response":"right","rt":674,"correct":true,"confidence":2},{"trial_n":46,"n_dots":3.75,"target":"left","response":"left","rt":288,"correct":true,"confidence":4},{"trial_n":47,"n_dots":3.65,"target":"right","response":"right","rt":436,"correct":true,"confidence":4},{"trial_n":48,"n_dots":3.65,"target":"left","response":"left","rt":77,"correct":true,"confidence":4},{"trial_n":49,"n_dots":3.55,"target":"left","response":"left","rt":244,"correct":true,"confidence":4},{"trial_n":50,"n_dots":3.55,"target":"right","response":"right","rt":502,"correct":true,"confidence":3},{"trial_n":51,"n_dots":3.45,"target":"right","response":"right","rt":1065,"correct":true,"confidence":2},{"trial_n":52,"n_dots":3.45,"target":"left","response":"left","rt":314,"correct":true,"confidence":3},{"trial_n":53,"n_dots":3.35,"target":"left","response":"left","rt":183.00000000023,"correct":true,"confidence":4},{"trial_n":54,"n_dots":3.35,"target":"right","response":"right","rt":193,"correct":true,"confidence":4},{"trial_n":55,"n_dots":3.25,"target":"left","response":"left","rt":196,"correct":true,"confidence":4},{"trial_n":56,"n_dots":3.25,"target":"left","response":"left","rt":747,"correct":true,"confidence":2},{"trial_n":57,"n_dots":3.15,"target":"right","response":"left","rt":641,"correct":false,"confidence":2},{"trial_n":58,"n_dots":3.25,"target":"left","response":"left","rt":157,"correct":true,"confidence":3},{"trial_n":59,"n_dots":3.25,"target":"left","response":"left","rt":507.99999999977,"correct":true,"confidence":3},{"trial_n":60,"n_dots":3.15,"target":"right","response":"left","rt":2113,"correct":false,"confidence":2},{"trial_n":61,"n_dots":3.25,"target":"left","response":"left","rt":698,"correct":true,"confidence":2},{"trial_n":62,"n_dots":3.25,"target":"left","response":"left","rt":406,"correct":true,"confidence":3},{"trial_n":63,"n_dots":3.15,"target":"right","response":"right","rt":388,"correct":true,"confidence":2},{"trial_n":64,"n_dots":3.15,"target":"left","response":"left","rt":374,"correct":true,"confidence":4},{"trial_n":65,"n_dots":3.05,"target":"right","response":"right","rt":416,"correct":true,"confidence":5},{"trial_n":66,"n_dots":3.05,"target":"right","response":"left","rt":1149.9999999998,"correct":false,"confidence":1},{"trial_n":67,"n_dots":3.15,"target":"left","response":"left","rt":143,"correct":true,"confidence":2},{"trial_n":68,"n_dots":3.15,"target":"left","response":"left","rt":930,"correct":true,"confidence":2},{"trial_n":69,"n_dots":3.05,"target":"right","response":"right","rt":346.00000000023,"correct":true,"confidence":4},{"trial_n":70,"n_dots":3.05,"target":"right","response":"right","rt":735,"correct":true,"confidence":2},{"trial_n":71,"n_dots":2.95,"target":"right","response":"right","rt":436,"correct":true,"confidence":3},{"trial_n":72,"n_dots":2.95,"target":"right","response":"left","rt":1970,"correct":false,"confidence":2},{"trial_n":73,"n_dots":3.05,"target":"right","response":"left","rt":2660.9999999998,"correct":false,"confidence":2},{"trial_n":74,"n_dots":3.15,"target":"right","response":"left","rt":596,"correct":false,"confidence":3},{"trial_n":75,"n_dots":3.25,"target":"right","response":"left","rt":1045,"correct":false,"confidence":1},{"trial_n":76,"n_dots":3.35,"target":"left","response":"left","rt":280,"correct":true,"confidence":2},{"trial_n":77,"n_dots":3.35,"target":"right","response":"right","rt":297,"correct":true,"confidence":4},{"trial_n":78,"n_dots":3.25,"target":"right","response":"left","rt":340,"correct":false,"confidence":1},{"trial_n":79,"n_dots":3.35,"target":"right","response":"right","rt":321,"correct":true,"confidence":5},{"trial_n":80,"n_dots":3.35,"target":"left","response":"left","rt":1416,"correct":true,"confidence":2},{"trial_n":81,"n_dots":3.25,"target":"left","response":"right","rt":1507,"correct":false,"confidence":3},{"trial_n":82,"n_dots":3.35,"target":"left","response":"right","rt":918,"correct":false,"confidence":2},{"trial_n":83,"n_dots":3.45,"target":"right","response":"right","rt":222,"correct":true,"confidence":2},{"trial_n":84,"n_dots":3.45,"target":"right","response":"right","rt":302,"correct":true,"confidence":3},{"trial_n":85,"n_dots":3.35,"target":"left","response":"left","rt":117,"correct":true,"confidence":3},{"trial_n":86,"n_dots":3.35,"target":"left","response":"left","rt":640,"correct":true,"confidence":3},{"trial_n":87,"n_dots":3.25,"target":"right","response":"left","rt":1391,"correct":false,"confidence":1},{"trial_n":88,"n_dots":3.35,"target":"left","response":"left","rt":1036,"correct":true,"confidence":2},{"trial_n":89,"n_dots":3.35,"target":"left","response":"left","rt":928,"correct":true,"confidence":3},{"trial_n":90,"n_dots":3.25,"target":"right","response":"left","rt":886,"correct":false,"confidence":1},{"trial_n":91,"n_dots":3.35,"target":"left","response":"left","rt":547,"correct":true,"confidence":2},{"trial_n":92,"n_dots":3.35,"target":"right","response":"left","rt":647,"correct":false,"confidence":2},{"trial_n":93,"n_dots":3.45,"target":"right","response":"right","rt":728,"correct":true,"confidence":2},{"trial_n":94,"n_dots":3.45,"target":"left","response":"left","rt":43.999999999767,"correct":true,"confidence":2},{"trial_n":95,"n_dots":3.35,"target":"left","response":"right","rt":976,"correct":false,"confidence":1},{"trial_n":96,"n_dots":3.45,"target":"right","response":"right","rt":624,"correct":true,"confidence":2},{"trial_n":97,"n_dots":3.45,"target":"right","response":"left","rt":309,"correct":false,"confidence":2},{"trial_n":98,"n_dots":3.55,"target":"right","response":"left","rt":962,"correct":false,"confidence":2},{"trial_n":99,"n_dots":3.65,"target":"left","response":"left","rt":376,"correct":true,"confidence":3},{"trial_n":100,"n_dots":3.65,"target":"left","response":"right","rt":439,"correct":false,"confidence":1},{"trial_n":101,"n_dots":3.75,"target":"left","response":"left","rt":546.99999999977,"correct":true,"confidence":2},{"trial_n":102,"n_dots":3.75,"target":"right","response":"right","rt":288,"correct":true,"confidence":3},{"trial_n":103,"n_dots":3.65,"target":"right","response":"right","rt":511,"correct":true,"confidence":2},{"trial_n":104,"n_dots":3.65,"target":"left","response":"left","rt":538,"correct":true,"confidence":1},{"trial_n":105,"n_dots":3.55,"target":"left","response":"left","rt":602,"correct":true,"confidence":2},{"trial_n":106,"n_dots":3.55,"target":"left","response":"left","rt":448,"correct":true,"confidence":1},{"trial_n":107,"n_dots":3.45,"target":"right","response":"right","rt":279,"correct":true,"confidence":2},{"trial_n":108,"n_dots":3.45,"target":"right","response":"right","rt":1202,"correct":true,"confidence":1},{"trial_n":109,"n_dots":3.35,"target":"left","response":"left","rt":780,"correct":true,"confidence":2},{"trial_n":110,"n_dots":3.35,"target":"left","response":"left","rt":518.00000000023,"correct":true,"confidence":1},{"trial_n":111,"n_dots":3.25,"target":"right","response":"right","rt":237.99999999977,"correct":true,"confidence":3},{"trial_n":112,"n_dots":3.25,"target":"left","response":"left","rt":727,"correct":true,"confidence":3},{"trial_n":113,"n_dots":3.15,"target":"right","response":"right","rt":1659.9999999998,"correct":true,"confidence":1},{"trial_n":114,"n_dots":3.15,"target":"right","response":"right","rt":185,"correct":true,"confidence":3},{"trial_n":115,"n_dots":3.05,"target":"left","response":"left","rt":639.00000000023,"correct":true,"confidence":2},{"trial_n":116,"n_dots":3.05,"target":"right","response":"right","rt":313,"correct":true,"confidence":1},{"trial_n":117,"n_dots":2.95,"target":"left","response":"left","rt":437,"correct":true,"confidence":1},{"trial_n":118,"n_dots":2.95,"target":"left","response":"right","rt":331,"correct":false,"confidence":2},{"trial_n":119,"n_dots":3.05,"target":"left","response":"left","rt":829,"correct":true,"confidence":3},{"trial_n":120,"n_dots":3.05,"target":"left","response":"right","rt":413,"correct":false,"confidence":4}]