[{"trial_n":1,"span":8,"encoder":"22047941","distractor":"72047941","target":"present","response":"absent","rt":"6173","correct":false,"confidence":-1},{"trial_n":2,"span":6,"encoder":"806321","distractor":"806121","target":"present","response":"present","rt":"1668","correct":true,"confidence":-1},{"trial_n":3,"span":6,"encoder":"853276","distractor":"883276","target":"absent","response":"absent","rt":"1643","correct":true,"confidence":-1},{"trial_n":4,"span":8,"encoder":"35675767","distractor":"35675367","target":"absent","response":"present","rt":"1672","correct":false,"confidence":-1},{"trial_n":5,"span":6,"encoder":"374699","distractor":"374669","target":"present","response":"present","rt":"1343","correct":true,"confidence":-1},{"trial_n":6,"span":6,"encoder":"444520","distractor":"144520","target":"absent","response":"absent","rt":"1990","correct":true,"confidence":-1},{"trial_n":7,"span":8,"encoder":"64878613","distractor":"64876613","target":"absent","response":"absent","rt":"2155","correct":true,"confidence":-1},{"trial_n":8,"span":8,"encoder":"94572751","distractor":"94552751","target":"absent","response":"absent","rt":"1592","correct":true,"confidence":-1},{"trial_n":9,"span":10,"encoder":"5936145907","distractor":"5936125907","target":"absent","response":"present","rt":"3809","correct":false,"confidence":-1},{"trial_n":10,"span":8,"encoder":"11355484","distractor":"10355484","target":"absent","response":"absent","rt":"4823","correct":true,"confidence":-1},{"trial_n":11,"span":8,"encoder":"29511898","distractor":"59511898","target":"absent","response":"present","rt":"3005","correct":false,"confidence":-1},{"trial_n":12,"span":7,"encoder":"8372189","distractor":"8332189","target":"present","response":"present","rt":"1611","correct":true,"confidence":-1},{"trial_n":13,"span":7,"encoder":"1909934","distractor":"0909934","target":"present","response":"present","rt":"1963","correct":true,"confidence":-1},{"trial_n":14,"span":8,"encoder":"59088277","distractor":"59008277","target":"absent","response":"absent","rt":"2761","correct":true,"confidence":-1},{"trial_n":15,"span":8,"encoder":"64687972","distractor":"54687972","target":"absent","response":"present","rt":"1489","correct":false,"confidence":-1},{"trial_n":16,"span":7,"encoder":"3426093","distractor":"3424093","target":"absent","response":"present","rt":"1489","correct":false,"confidence":-1},{"trial_n":17,"span":6,"encoder":"374294","distractor":"474294","target":"present","response":"absent","rt":"3132","correct":false,"confidence":-1},{"trial_n":18,"span":5,"encoder":"41929","distractor":"41029","target":"present","response":"absent","rt":"1873","correct":false,"confidence":-1},{"trial_n":19,"span":4,"encoder":"4654","distractor":"4652","target":"present","response":"absent","rt":"2105","correct":false,"confidence":-1},{"trial_n":20,"span":3,"encoder":"039","distractor":"037","target":"present","response":"present","rt":"1096","correct":true,"confidence":-1},{"trial_n":21,"span":3,"encoder":"323","distractor":"320","target":"absent","response":"absent","rt":"1564","correct":true,"confidence":5},{"trial_n":22,"span":4,"encoder":"1730","distractor":"1735","target":"present","response":"present","rt":"1450","correct":true,"confidence":5},{"trial_n":23,"span":4,"encoder":"9840","distractor":"9880","target":"present","response":"present","rt":"1244","correct":true,"confidence":5},{"trial_n":24,"span":5,"encoder":"83369","distractor":"83349","target":"absent","response":"present","rt":"2519","correct":false,"confidence":2},{"trial_n":25,"span":4,"encoder":"3995","distractor":"3095","target":"present","response":"present","rt":"1676","correct":true,"confidence":5},{"trial_n":26,"span":4,"encoder":"1489","distractor":"1989","target":"absent","response":"absent","rt":"1430","correct":true,"confidence":5},{"trial_n":27,"span":5,"encoder":"42642","distractor":"42612","target":"absent","response":"absent","rt":"4744","correct":true,"confidence":3},{"trial_n":28,"span":5,"encoder":"36260","distractor":"96260","target":"present","response":"present","rt":"5137","correct":true,"confidence":5},{"trial_n":29,"span":6,"encoder":"783646","distractor":"783246","target":"absent","response":"absent","rt":"3437","correct":true,"confidence":4},{"trial_n":30,"span":6,"encoder":"798800","distractor":"798820","target":"present","response":"absent","rt":"2569","correct":false,"confidence":3},{"trial_n":31,"span":5,"encoder":"22485","distractor":"22495","target":"present","response":"absent","rt":"1822.0000000001","correct":false,"confidence":3},{"trial_n":32,"span":4,"encoder":"9425","distractor":"9325","target":"absent","response":"absent","rt":"1632","correct":true,"confidence":5},{"trial_n":33,"span":4,"encoder":"2996","distractor":"2916","target":"absent","response":"absent","rt":"1606","correct":true,"confidence":5},{"trial_n":34,"span":5,"encoder":"17149","distractor":"17449","target":"present","response":"present","rt":"4511","correct":true,"confidence":5},{"trial_n":35,"span":5,"encoder":"26158","distractor":"24158","target":"absent","response":"absent","rt":"1728","correct":true,"confidence":5},{"trial_n":36,"span":6,"encoder":"344069","distractor":"344769","target":"present","response":"present","rt":"2731","correct":true,"confidence":4},{"trial_n":37,"span":6,"encoder":"206743","distractor":"206741","target":"present","response":"present","rt":"2443","correct":true,"confidence":3},{"trial_n":38,"span":7,"encoder":"0864531","distractor":"2864531","target":"absent","response":"absent","rt":"5033","correct":true,"confidence":5},{"trial_n":39,"span":7,"encoder":"6228405","distractor":"6288405","target":"absent","response":"absent","rt":"5482","correct":true,"confidence":2},{"trial_n":40,"span":8,"encoder":"80904940","distractor":"80914940","target":"absent","response":"absent","rt":"3145","correct":true,"confidence":3},{"trial_n":41,"span":8,"encoder":"82520080","distractor":"82520086","target":"absent","response":"absent","rt":"2112","correct":true,"confidence":5},{"trial_n":42,"span":9,"encoder":"165010438","distractor":"165310438","target":"present","response":"present","rt":"4448","correct":true,"confidence":2},{"trial_n":43,"span":9,"encoder":"208293247","distractor":"208293217","target":"absent","response":"present","rt":"5355","correct":false,"confidence":2},{"trial_n":44,"span":8,"encoder":"25916539","distractor":"25416539","target":"present","response":"present","rt":"7677.0000000001","correct":true,"confidence":2},{"trial_n":45,"span":8,"encoder":"46974553","distractor":"46994553","target":"present","response":"present","rt":"4082","correct":true,"confidence":1},{"trial_n":46,"span":9,"encoder":"519502973","distractor":"599502973","target":"absent","response":"absent","rt":"3822","correct":true,"confidence":5},{"trial_n":47,"span":9,"encoder":"845457473","distractor":"845457475","target":"present","response":"present","rt":"4135","correct":true,"confidence":4},{"trial_n":48,"span":10,"encoder":"1497407181","distractor":"1497400181","target":"present","response":"absent","rt":"2692","correct":false,"confidence":4},{"trial_n":49,"span":9,"encoder":"865289065","distractor":"865289060","target":"absent","response":"absent","rt":"2797","correct":true,"confidence":5},{"trial_n":50,"span":9,"encoder":"588338996","distractor":"588328996","target":"absent","response":"absent","rt":"3041","correct":true,"confidence":4},{"trial_n":51,"span":10,"encoder":"6226185432","distractor":"6226285432","target":"absent","response":"absent","rt":"4765","correct":true,"confidence":3},{"trial_n":52,"span":10,"encoder":"5358232616","distractor":"5358232016","target":"present","response":"present","rt":"5482","correct":true,"confidence":4},{"trial_n":53,"span":11,"encoder":"99856232512","distractor":"99856232562","target":"present","response":"absent","rt":"3740","correct":false,"confidence":2},{"trial_n":54,"span":10,"encoder":"7649467722","distractor":"7649467772","target":"present","response":"present","rt":"3072.9999999999","correct":true,"confidence":2},{"trial_n":55,"span":10,"encoder":"2308728733","distractor":"2308328733","target":"present","response":"present","rt":"4350","correct":true,"confidence":2},{"trial_n":56,"span":11,"encoder":"50006949138","distractor":"50006941138","target":"present","response":"present","rt":"4392","correct":true,"confidence":2},{"trial_n":57,"span":11,"encoder":"49636149008","distractor":"49616149008","target":"absent","response":"absent","rt":"2336","correct":true,"confidence":1},{"trial_n":58,"span":12,"encoder":"230592848948","distractor":"230592848998","target":"present","response":"absent","rt":"5035","correct":false,"confidence":3},{"trial_n":59,"span":11,"encoder":"83088769154","distractor":"83988769154","target":"present","response":"present","rt":"4035","correct":true,"confidence":1},{"trial_n":60,"span":11,"encoder":"22930801322","distractor":"42930801322","target":"present","response":"absent","rt":"4320","correct":false,"confidence":2},{"trial_n":61,"span":10,"encoder":"7551195411","distractor":"7551195311","target":"absent","response":"present","rt":"2432","correct":false,"confidence":3},{"trial_n":62,"span":9,"encoder":"893254135","distractor":"893454135","target":"present","response":"present","rt":"3542","correct":true,"confidence":2},{"trial_n":63,"span":9,"encoder":"351341266","distractor":"351241266","target":"present","response":"absent","rt":"5546","correct":false,"confidence":3},{"trial_n":64,"span":8,"encoder":"30871073","distractor":"30871083","target":"absent","response":"present","rt":"6082.9999999999","correct":false,"confidence":3},{"trial_n":65,"span":7,"encoder":"2330957","distractor":"2330954","target":"present","response":"present","rt":"2078","correct":true,"confidence":3},{"trial_n":66,"span":7,"encoder":"6934519","distractor":"6634519","target":"absent","response":"absent","rt":"5242","correct":true,"confidence":5},{"trial_n":67,"span":8,"encoder":"99343817","distractor":"99383817","target":"absent","response":"absent","rt":"4782","correct":true,"confidence":1},{"trial_n":68,"span":8,"encoder":"59960698","distractor":"59969698","target":"present","response":"absent","rt":"2001","correct":false,"confidence":4},{"trial_n":69,"span":7,"encoder":"4442123","distractor":"4242123","target":"present","response":"present","rt":"3742","correct":true,"confidence":2},{"trial_n":70,"span":7,"encoder":"5633759","distractor":"5613759","target":"absent","response":"absent","rt":"3585","correct":true,"confidence":3},{"trial_n":71,"span":8,"encoder":"97723300","distractor":"77723300","target":"present","response":"present","rt":"4716","correct":true,"confidence":-1},{"trial_n":72,"span":8,"encoder":"68677292","distractor":"68670292","target":"present","response":"present","rt":"5621","correct":true,"confidence":-1},{"trial_n":73,"span":9,"encoder":"524372291","distractor":"124372291","target":"absent","response":"absent","rt":"3562","correct":true,"confidence":-1},{"trial_n":74,"span":9,"encoder":"950110652","distractor":"950910652","target":"absent","response":"absent","rt":"4593.0000000001","correct":true,"confidence":-1},{"trial_n":75,"span":10,"encoder":"5507728426","distractor":"4507728426","target":"present","response":"present","rt":"2008","correct":true,"confidence":-1},{"trial_n":76,"span":10,"encoder":"1943158313","distractor":"1943158318","target":"absent","response":"absent","rt":"7270","correct":true,"confidence":-1},{"trial_n":77,"span":11,"encoder":"73807654119","distractor":"73800654119","target":"present","response":"present","rt":"2786","correct":true,"confidence":-1},{"trial_n":78,"span":11,"encoder":"45179616843","distractor":"45779616843","target":"absent","response":"absent","rt":"6901","correct":true,"confidence":-1},{"trial_n":79,"span":12,"encoder":"530841727932","distractor":"532841727932","target":"present","response":"absent","rt":"6292.0000000002","correct":false,"confidence":-1},{"trial_n":80,"span":11,"encoder":"46622622626","distractor":"46122622626","target":"present","response":"present","rt":"5852","correct":true,"confidence":-1},{"trial_n":81,"span":11,"encoder":"09610839690","distractor":"09690839690","target":"present","response":"present","rt":"8467","correct":true,"confidence":-1},{"trial_n":82,"span":12,"encoder":"070609007172","distractor":"070609008172","target":"absent","response":"absent","rt":"5617","correct":true,"confidence":-1},{"trial_n":83,"span":12,"encoder":"357551392723","distractor":"357551292723","target":"present","response":"absent","rt":"4988","correct":false,"confidence":-1},{"trial_n":84,"span":11,"encoder":"25846294763","distractor":"25846394763","target":"present","response":"present","rt":"6299","correct":true,"confidence":-1},{"trial_n":85,"span":11,"encoder":"46708459204","distractor":"42708459204","target":"present","response":"present","rt":"7543","correct":true,"confidence":-1},{"trial_n":86,"span":12,"encoder":"922491854925","distractor":"922491554925","target":"present","response":"present","rt":"4468.9999999998","correct":true,"confidence":-1},{"trial_n":87,"span":12,"encoder":"900408417254","distractor":"900408467254","target":"absent","response":"absent","rt":"5993","correct":true,"confidence":-1},{"trial_n":88,"span":13,"encoder":"9584244236366","distractor":"9554244236366","target":"present","response":"present","rt":"6583","correct":true,"confidence":-1},{"trial_n":89,"span":13,"encoder":"9776109683486","distractor":"9776104683486","target":"present","response":"present","rt":"6865","correct":true,"confidence":-1},{"trial_n":90,"span":14,"encoder":"22397106294609","distractor":"22397136294609","target":"present","response":"present","rt":"4423","correct":true,"confidence":-1},{"trial_n":91,"span":14,"encoder":"53801826768653","distractor":"53801826763653","target":"present","response":"present","rt":"7979","correct":true,"confidence":2},{"trial_n":92,"span":15,"encoder":"917368469395366","distractor":"913368469395366","target":"present","response":"present","rt":"5404.9999999998","correct":true,"confidence":5},{"trial_n":93,"span":15,"encoder":"954997207509424","distractor":"954997207509224","target":"present","response":"absent","rt":"6615.9999999998","correct":false,"confidence":3},{"trial_n":94,"span":14,"encoder":"55746910852057","distractor":"55746910852007","target":"absent","response":"present","rt":"5582","correct":false,"confidence":3},{"trial_n":95,"span":13,"encoder":"8951413966039","distractor":"8952413966039","target":"present","response":"present","rt":"6117","correct":true,"confidence":3},{"trial_n":96,"span":13,"encoder":"6481295061654","distractor":"6451295061654","target":"absent","response":"present","rt":"8224","correct":false,"confidence":2},{"trial_n":97,"span":12,"encoder":"274900594602","distractor":"274900594672","target":"present","response":"present","rt":"7455.9999999998","correct":true,"confidence":5},{"trial_n":98,"span":12,"encoder":"419903498413","distractor":"413903498413","target":"absent","response":"absent","rt":"5775","correct":true,"confidence":2},{"trial_n":99,"span":13,"encoder":"5684934193331","distractor":"5684934198331","target":"present","response":"absent","rt":"3795","correct":false,"confidence":5},{"trial_n":100,"span":12,"encoder":"473554278248","distractor":"473554278268","target":"absent","response":"absent","rt":"4647.9999999998","correct":true,"confidence":4},{"trial_n":101,"span":12,"encoder":"647642122739","distractor":"647642124739","target":"absent","response":"absent","rt":"1943","correct":true,"confidence":5},{"trial_n":102,"span":13,"encoder":"8338840053438","distractor":"8338840013438","target":"present","response":"absent","rt":"5696","correct":false,"confidence":2},{"trial_n":103,"span":12,"encoder":"211075905598","distractor":"211095905598","target":"present","response":"present","rt":"8735","correct":true,"confidence":2},{"trial_n":104,"span":12,"encoder":"809330115794","distractor":"809330115795","target":"absent","response":"absent","rt":"33077","correct":true,"confidence":2},{"trial_n":105,"span":13,"encoder":"8450390134327","distractor":"8450390130327","target":"absent","response":"absent","rt":"4648.0000000002","correct":true,"confidence":3},{"trial_n":106,"span":13,"encoder":"6430532293847","distractor":"6430532293845","target":"present","response":"present","rt":"9842","correct":true,"confidence":4},{"trial_n":107,"span":14,"encoder":"02900977241136","distractor":"32900977241136","target":"absent","response":"absent","rt":"7716","correct":true,"confidence":4},{"trial_n":108,"span":14,"encoder":"94679436558915","distractor":"94679436858915","target":"present","response":"present","rt":"4939","correct":true,"confidence":3},{"trial_n":109,"span":15,"encoder":"090859770995083","distractor":"090859070995083","target":"absent","response":"absent","rt":"22043","correct":true,"confidence":2},{"trial_n":110,"span":15,"encoder":"348714787474898","distractor":"148714787474898","target":"absent","response":"present","rt":"11638","correct":false,"confidence":3},{"trial_n":111,"span":14,"encoder":"57546607451281","distractor":"57546607451881","target":"absent","response":"absent","rt":"3566","correct":true,"confidence":5},{"trial_n":112,"span":14,"encoder":"49419237338545","distractor":"49419237338515","target":"absent","response":"absent","rt":"13343","correct":true,"confidence":2},{"trial_n":113,"span":15,"encoder":"842670750624499","distractor":"842670750224499","target":"absent","response":"absent","rt":"3493.9999999998","correct":true,"confidence":4},{"trial_n":114,"span":15,"encoder":"919886165443708","distractor":"919846165443708","target":"absent","response":"present","rt":"8425","correct":false,"confidence":3},{"trial_n":115,"span":14,"encoder":"03903785973540","distractor":"03903785773540","target":"absent","response":"absent","rt":"7974.0000000002","correct":true,"confidence":3},{"trial_n":116,"span":14,"encoder":"91110657850626","distractor":"91110657856626","target":"present","response":"present","rt":"6539.0000000002","correct":true,"confidence":3},{"trial_n":117,"span":15,"encoder":"862138857800970","distractor":"862138857800950","target":"present","response":"present","rt":"3618.9999999995","correct":true,"confidence":2},{"trial_n":118,"span":15,"encoder":"466417421850135","distractor":"466417421850145","target":"present","response":"present","rt":"2273.9999999998","correct":true,"confidence":5},{"trial_n":119,"span":16,"encoder":"5254611374673522","distractor":"5254611374673542","target":"present","response":"present","rt":"1981.0000000002","correct":true,"confidence":5},{"trial_n":120,"span":16,"encoder":"4755559029088739","distractor":"4755559029088799","target":"present","response":"present","rt":"8823","correct":true,"confidence":3},{"trial_n":121,"span":17,"encoder":"52593408498214090","distractor":"52553408498214090","target":"absent","response":"present","rt":"3752","correct":false,"confidence":3},{"trial_n":122,"span":16,"encoder":"8879864917635568","distractor":"8879864915635568","target":"present","response":"present","rt":"8615","correct":true,"confidence":2},{"trial_n":123,"span":16,"encoder":"4435863419798262","distractor":"4435863419798267","target":"present","response":"present","rt":"2387.9999999995","correct":true,"confidence":5},{"trial_n":124,"span":17,"encoder":"58600089297218312","distractor":"58600089297288312","target":"absent","response":"absent","rt":"3901","correct":true,"confidence":3},{"trial_n":125,"span":17,"encoder":"55313129095143488","distractor":"55313129095143408","target":"absent","response":"present","rt":"2624","correct":false,"confidence":3},{"trial_n":126,"span":16,"encoder":"9796521970213177","distractor":"9766521970213177","target":"present","response":"present","rt":"5607","correct":true,"confidence":1},{"trial_n":127,"span":16,"encoder":"8476191319512738","distractor":"8476193319512738","target":"absent","response":"absent","rt":"6062","correct":true,"confidence":3},{"trial_n":128,"span":17,"encoder":"11669761058586496","distractor":"11669761088586496","target":"absent","response":"absent","rt":"5725","correct":true,"confidence":1},{"trial_n":129,"span":17,"encoder":"43914615488377532","distractor":"43914615488357532","target":"present","response":"present","rt":"5505.9999999995","correct":true,"confidence":3},{"trial_n":130,"span":18,"encoder":"965020134969225811","distractor":"965070134969225811","target":"absent","response":"present","rt":"4610.0000000005","correct":false,"confidence":3},{"trial_n":131,"span":17,"encoder":"54172995619807379","distractor":"54172995819807379","target":"absent","response":"present","rt":"8061","correct":false,"confidence":2},{"trial_n":132,"span":16,"encoder":"1721480866634365","distractor":"1721480866634385","target":"present","response":"present","rt":"4317","correct":true,"confidence":4},{"trial_n":133,"span":16,"encoder":"8515825242967718","distractor":"3515825242967718","target":"absent","response":"absent","rt":"8698","correct":true,"confidence":3},{"trial_n":134,"span":17,"encoder":"55645770478100108","distractor":"55645170478100108","target":"present","response":"present","rt":"5278","correct":true,"confidence":2},{"trial_n":135,"span":17,"encoder":"38478436392562618","distractor":"38478436392562018","target":"present","response":"present","rt":"3646","correct":true,"confidence":4},{"trial_n":136,"span":18,"encoder":"518879240990117672","distractor":"518889240990117672","target":"absent","response":"absent","rt":"6804.9999999995","correct":true,"confidence":3},{"trial_n":137,"span":18,"encoder":"747169359875328647","distractor":"797169359875328647","target":"absent","response":"absent","rt":"4247","correct":true,"confidence":2},{"trial_n":138,"span":19,"encoder":"9284606253741372168","distractor":"9284606259741372168","target":"absent","response":"present","rt":"8532.9999999995","correct":false,"confidence":2},{"trial_n":139,"span":18,"encoder":"647849249777506092","distractor":"647849249774506092","target":"absent","response":"absent","rt":"3210","correct":true,"confidence":5},{"trial_n":140,"span":18,"encoder":"637375269246480605","distractor":"637375289246480605","target":"absent","response":"present","rt":"6915","correct":false,"confidence":2}]