[{"trial_n":1,"min":25,"max":230,"target":"present","response":"absent","rt":13952,"correct":false,"confidence":-1},{"trial_n":2,"min":25,"max":230,"target":"present","response":"absent","rt":1824.3000000119,"correct":false,"confidence":-1},{"trial_n":3,"min":9,"max":246,"target":"absent","response":"present","rt":2330.2999999523,"correct":false,"confidence":-1},{"trial_n":4,"min":0,"max":255,"target":"absent","response":"present","rt":1813.7000000477,"correct":false,"confidence":-1},{"trial_n":5,"min":0,"max":255,"target":"present","response":"absent","rt":2935.1999999881,"correct":false,"confidence":-1},{"trial_n":6,"min":0,"max":255,"target":"present","response":"present","rt":1095.6000000238,"correct":true,"confidence":-1},{"trial_n":7,"min":0,"max":255,"target":"absent","response":"absent","rt":1084.1000000238,"correct":true,"confidence":-1},{"trial_n":8,"min":16,"max":239,"target":"present","response":"present","rt":1555.1000000238,"correct":true,"confidence":-1},{"trial_n":9,"min":16,"max":239,"target":"present","response":"present","rt":820.20000004768,"correct":true,"confidence":-1},{"trial_n":10,"min":32,"max":223,"target":"absent","response":"absent","rt":1331.1999999881,"correct":true,"confidence":-1},{"trial_n":11,"min":32,"max":223,"target":"absent","response":"absent","rt":3063,"correct":true,"confidence":-1},{"trial_n":12,"min":40,"max":215,"target":"present","response":"absent","rt":1402.7999999523,"correct":false,"confidence":-1},{"trial_n":13,"min":32,"max":223,"target":"absent","response":"present","rt":1257.6000000238,"correct":false,"confidence":-1},{"trial_n":14,"min":24,"max":231,"target":"absent","response":"present","rt":1547.6999999881,"correct":false,"confidence":-1},{"trial_n":15,"min":16,"max":239,"target":"present","response":"present","rt":748.30000001192,"correct":true,"confidence":-1},{"trial_n":16,"min":16,"max":239,"target":"absent","response":"absent","rt":596.39999997616,"correct":true,"confidence":-1},{"trial_n":17,"min":24,"max":231,"target":"absent","response":"absent","rt":631.30000001192,"correct":true,"confidence":-1},{"trial_n":18,"min":24,"max":231,"target":"absent","response":"absent","rt":861,"correct":true,"confidence":-1},{"trial_n":19,"min":32,"max":223,"target":"present","response":"absent","rt":1130.6000000238,"correct":false,"confidence":-1},{"trial_n":20,"min":24,"max":231,"target":"present","response":"present","rt":735.80000001192,"correct":true,"confidence":-1},{"trial_n":21,"min":24,"max":231,"target":"absent","response":"present","rt":7092.5,"correct":false,"confidence":2},{"trial_n":22,"min":20,"max":235,"target":"absent","response":"absent","rt":1751.5,"correct":true,"confidence":1},{"trial_n":23,"min":20,"max":235,"target":"absent","response":"absent","rt":1239.1000000238,"correct":true,"confidence":1},{"trial_n":24,"min":24,"max":231,"target":"present","response":"present","rt":926,"correct":true,"confidence":3},{"trial_n":25,"min":24,"max":231,"target":"absent","response":"absent","rt":873.40000003576,"correct":true,"confidence":1},{"trial_n":26,"min":28,"max":227,"target":"absent","response":"absent","rt":895.80000001192,"correct":true,"confidence":1},{"trial_n":27,"min":28,"max":227,"target":"present","response":"present","rt":1213.6000000238,"correct":true,"confidence":3},{"trial_n":28,"min":32,"max":223,"target":"absent","response":"absent","rt":1143.3000000119,"correct":true,"confidence":1},{"trial_n":29,"min":32,"max":223,"target":"absent","response":"absent","rt":1620.1999999881,"correct":true,"confidence":1},{"trial_n":30,"min":36,"max":219,"target":"absent","response":"absent","rt":736.20000004768,"correct":true,"confidence":1},{"trial_n":31,"min":36,"max":219,"target":"absent","response":"absent","rt":1404.8999999762,"correct":true,"confidence":1},{"trial_n":32,"min":38,"max":217,"target":"present","response":"present","rt":1168.8000000119,"correct":true,"confidence":1},{"trial_n":33,"min":38,"max":217,"target":"present","response":"absent","rt":750.30000001192,"correct":false,"confidence":1},{"trial_n":34,"min":36,"max":219,"target":"absent","response":"absent","rt":1247.5999999642,"correct":true,"confidence":1},{"trial_n":35,"min":36,"max":219,"target":"absent","response":"absent","rt":1150.1000000238,"correct":true,"confidence":1},{"trial_n":36,"min":38,"max":217,"target":"present","response":"present","rt":975.80000001192,"correct":true,"confidence":1},{"trial_n":37,"min":38,"max":217,"target":"present","response":"present","rt":1076.0999999642,"correct":true,"confidence":1},{"trial_n":38,"min":40,"max":215,"target":"present","response":"absent","rt":1716,"correct":false,"confidence":1},{"trial_n":39,"min":38,"max":217,"target":"present","response":"present","rt":618.30000001192,"correct":true,"confidence":1},{"trial_n":40,"min":38,"max":217,"target":"present","response":"present","rt":977.10000002384,"correct":true,"confidence":1},{"trial_n":41,"min":39,"max":216,"target":"present","response":"present","rt":807.5,"correct":true,"confidence":1},{"trial_n":42,"min":39,"max":216,"target":"present","response":"absent","rt":928.89999997616,"correct":false,"confidence":1},{"trial_n":43,"min":38,"max":217,"target":"present","response":"absent","rt":1024,"correct":false,"confidence":1},{"trial_n":44,"min":37,"max":218,"target":"absent","response":"absent","rt":1005.6999999881,"correct":true,"confidence":1},{"trial_n":45,"min":37,"max":218,"target":"absent","response":"absent","rt":992.69999998808,"correct":true,"confidence":1},{"trial_n":46,"min":38,"max":217,"target":"absent","response":"absent","rt":830.60000002384,"correct":true,"confidence":1},{"trial_n":47,"min":38,"max":217,"target":"absent","response":"absent","rt":679,"correct":true,"confidence":1},{"trial_n":48,"min":39,"max":216,"target":"present","response":"present","rt":488.5,"correct":true,"confidence":1},{"trial_n":49,"min":39,"max":216,"target":"absent","response":"absent","rt":588.69999998808,"correct":true,"confidence":1},{"trial_n":50,"min":40,"max":215,"target":"absent","response":"absent","rt":1113.8000000119,"correct":true,"confidence":1},{"trial_n":51,"min":40,"max":215,"target":"present","response":"present","rt":1186,"correct":true,"confidence":1},{"trial_n":52,"min":41,"max":214,"target":"absent","response":"absent","rt":837.39999997616,"correct":true,"confidence":1},{"trial_n":53,"min":41,"max":214,"target":"absent","response":"absent","rt":1057.1000000238,"correct":true,"confidence":1},{"trial_n":54,"min":42,"max":213,"target":"present","response":"present","rt":1228.3999999762,"correct":true,"confidence":1},{"trial_n":55,"min":42,"max":213,"target":"present","response":"absent","rt":622.90000003576,"correct":false,"confidence":1},{"trial_n":56,"min":41,"max":214,"target":"present","response":"present","rt":532.59999996424,"correct":true,"confidence":1},{"trial_n":57,"min":41,"max":214,"target":"present","response":"present","rt":1995.4000000358,"correct":true,"confidence":1},{"trial_n":58,"min":42,"max":213,"target":"present","response":"absent","rt":1676.6000000238,"correct":false,"confidence":1},{"trial_n":59,"min":41,"max":214,"target":"present","response":"present","rt":729.40000003576,"correct":true,"confidence":1},{"trial_n":60,"min":41,"max":214,"target":"absent","response":"absent","rt":1039.4000000358,"correct":true,"confidence":1},{"trial_n":61,"min":42,"max":213,"target":"present","response":"present","rt":1366.3999999762,"correct":true,"confidence":3},{"trial_n":62,"min":42,"max":213,"target":"present","response":"absent","rt":849.30000001192,"correct":false,"confidence":3},{"trial_n":63,"min":41,"max":214,"target":"absent","response":"absent","rt":1420.8000000119,"correct":true,"confidence":1},{"trial_n":64,"min":41,"max":214,"target":"absent","response":"absent","rt":840.30000001192,"correct":true,"confidence":1},{"trial_n":65,"min":42,"max":213,"target":"absent","response":"absent","rt":502.30000001192,"correct":true,"confidence":1},{"trial_n":66,"min":42,"max":213,"target":"absent","response":"absent","rt":382.69999998808,"correct":true,"confidence":1},{"trial_n":67,"min":43,"max":212,"target":"present","response":"present","rt":1360.5,"correct":true,"confidence":3},{"trial_n":68,"min":43,"max":212,"target":"present","response":"absent","rt":843.5,"correct":false,"confidence":3},{"trial_n":69,"min":42,"max":213,"target":"present","response":"absent","rt":1005.6000000238,"correct":false,"confidence":3},{"trial_n":70,"min":41,"max":214,"target":"present","response":"present","rt":902.69999998808,"correct":true,"confidence":3},{"trial_n":71,"min":41,"max":214,"target":"present","response":"present","rt":2376.8000000119,"correct":true,"confidence":-1},{"trial_n":72,"min":41,"max":214,"target":"present","response":"present","rt":1667.4000000358,"correct":true,"confidence":-1},{"trial_n":73,"min":57,"max":198,"target":"absent","response":"absent","rt":1138,"correct":true,"confidence":-1},{"trial_n":74,"min":57,"max":198,"target":"absent","response":"absent","rt":1327.1999999881,"correct":true,"confidence":-1},{"trial_n":75,"min":73,"max":182,"target":"present","response":"present","rt":792.5,"correct":true,"confidence":-1},{"trial_n":76,"min":73,"max":182,"target":"absent","response":"absent","rt":743.80000001192,"correct":true,"confidence":-1},{"trial_n":77,"min":89,"max":166,"target":"present","response":"absent","rt":1165.8000000119,"correct":false,"confidence":-1},{"trial_n":78,"min":73,"max":182,"target":"present","response":"present","rt":488.30000001192,"correct":true,"confidence":-1},{"trial_n":79,"min":73,"max":182,"target":"absent","response":"absent","rt":389.59999996424,"correct":true,"confidence":-1},{"trial_n":80,"min":89,"max":166,"target":"absent","response":"absent","rt":534.5,"correct":true,"confidence":-1},{"trial_n":81,"min":89,"max":166,"target":"present","response":"present","rt":875.29999995232,"correct":true,"confidence":-1},{"trial_n":82,"min":97,"max":158,"target":"present","response":"present","rt":545.59999996424,"correct":true,"confidence":-1},{"trial_n":83,"min":97,"max":158,"target":"absent","response":"absent","rt":568.89999997616,"correct":true,"confidence":-1},{"trial_n":84,"min":105,"max":150,"target":"absent","response":"absent","rt":564.70000004768,"correct":true,"confidence":-1},{"trial_n":85,"min":105,"max":150,"target":"present","response":"absent","rt":1215.5,"correct":false,"confidence":-1},{"trial_n":86,"min":97,"max":158,"target":"absent","response":"present","rt":823.89999997616,"correct":false,"confidence":-1},{"trial_n":87,"min":89,"max":166,"target":"absent","response":"absent","rt":741,"correct":true,"confidence":-1},{"trial_n":88,"min":89,"max":166,"target":"absent","response":"absent","rt":705.89999997616,"correct":true,"confidence":-1},{"trial_n":89,"min":97,"max":158,"target":"present","response":"present","rt":760.19999998808,"correct":true,"confidence":-1},{"trial_n":90,"min":97,"max":158,"target":"absent","response":"absent","rt":609.30000001192,"correct":true,"confidence":-1},{"trial_n":91,"min":101,"max":154,"target":"present","response":"present","rt":904.10000002384,"correct":true,"confidence":3},{"trial_n":92,"min":101,"max":154,"target":"absent","response":"absent","rt":1652.5999999642,"correct":true,"confidence":1},{"trial_n":93,"min":105,"max":150,"target":"absent","response":"present","rt":1251.6999999881,"correct":false,"confidence":1},{"trial_n":94,"min":101,"max":154,"target":"present","response":"present","rt":712.5,"correct":true,"confidence":1},{"trial_n":95,"min":101,"max":154,"target":"present","response":"present","rt":926.80000001192,"correct":true,"confidence":3},{"trial_n":96,"min":105,"max":150,"target":"absent","response":"absent","rt":1768.5,"correct":true,"confidence":1},{"trial_n":97,"min":105,"max":150,"target":"absent","response":"absent","rt":1917.5999999642,"correct":true,"confidence":1},{"trial_n":98,"min":109,"max":146,"target":"present","response":"present","rt":764.30000001192,"correct":true,"confidence":1},{"trial_n":99,"min":109,"max":146,"target":"present","response":"present","rt":1053.3000000119,"correct":true,"confidence":1},{"trial_n":100,"min":113,"max":142,"target":"present","response":"present","rt":607.40000003576,"correct":true,"confidence":1},{"trial_n":101,"min":113,"max":142,"target":"absent","response":"present","rt":2559.8999999762,"correct":false,"confidence":1},{"trial_n":102,"min":111,"max":144,"target":"present","response":"present","rt":686.60000002384,"correct":true,"confidence":2},{"trial_n":103,"min":111,"max":144,"target":"present","response":"present","rt":609.60000002384,"correct":true,"confidence":2},{"trial_n":104,"min":113,"max":142,"target":"present","response":"present","rt":1287.3000000119,"correct":true,"confidence":1},{"trial_n":105,"min":113,"max":142,"target":"present","response":"absent","rt":1053.5,"correct":false,"confidence":1},{"trial_n":106,"min":111,"max":144,"target":"absent","response":"present","rt":1527.3000000119,"correct":false,"confidence":1},{"trial_n":107,"min":109,"max":146,"target":"absent","response":"absent","rt":862.80000001192,"correct":true,"confidence":1},{"trial_n":108,"min":109,"max":146,"target":"present","response":"present","rt":406.10000002384,"correct":true,"confidence":1},{"trial_n":109,"min":111,"max":144,"target":"absent","response":"absent","rt":795.79999995232,"correct":true,"confidence":1},{"trial_n":110,"min":111,"max":144,"target":"absent","response":"present","rt":855.79999995232,"correct":false,"confidence":1},{"trial_n":111,"min":110,"max":145,"target":"present","response":"present","rt":1529.6999999881,"correct":true,"confidence":1},{"trial_n":112,"min":110,"max":145,"target":"absent","response":"absent","rt":858.19999998808,"correct":true,"confidence":1},{"trial_n":113,"min":111,"max":144,"target":"absent","response":"absent","rt":737.79999995232,"correct":true,"confidence":1},{"trial_n":114,"min":111,"max":144,"target":"present","response":"absent","rt":324.89999997616,"correct":false,"confidence":1},{"trial_n":115,"min":110,"max":145,"target":"present","response":"present","rt":373,"correct":true,"confidence":1},{"trial_n":116,"min":110,"max":145,"target":"present","response":"present","rt":839.80000001192,"correct":true,"confidence":1},{"trial_n":117,"min":111,"max":144,"target":"present","response":"absent","rt":424.80000001192,"correct":false,"confidence":1},{"trial_n":118,"min":110,"max":145,"target":"absent","response":"absent","rt":340.80000001192,"correct":true,"confidence":1},{"trial_n":119,"min":110,"max":145,"target":"absent","response":"present","rt":1911.6000000238,"correct":false,"confidence":1},{"trial_n":120,"min":109,"max":146,"target":"absent","response":"present","rt":435.69999998808,"correct":false,"confidence":1},{"trial_n":121,"min":108,"max":147,"target":"absent","response":"present","rt":778,"correct":false,"confidence":1},{"trial_n":122,"min":107,"max":148,"target":"present","response":"present","rt":514.19999998808,"correct":true,"confidence":1},{"trial_n":123,"min":107,"max":148,"target":"present","response":"present","rt":406.19999998808,"correct":true,"confidence":1},{"trial_n":124,"min":108,"max":147,"target":"absent","response":"absent","rt":653.19999998808,"correct":true,"confidence":1},{"trial_n":125,"min":108,"max":147,"target":"absent","response":"present","rt":416.39999997616,"correct":false,"confidence":1},{"trial_n":126,"min":107,"max":148,"target":"present","response":"absent","rt":434.80000001192,"correct":false,"confidence":1},{"trial_n":127,"min":106,"max":149,"target":"absent","response":"absent","rt":817.89999997616,"correct":true,"confidence":1},{"trial_n":128,"min":106,"max":149,"target":"absent","response":"present","rt":611.60000002384,"correct":false,"confidence":1},{"trial_n":129,"min":105,"max":150,"target":"present","response":"present","rt":442.39999997616,"correct":true,"confidence":1},{"trial_n":130,"min":105,"max":150,"target":"present","response":"absent","rt":206.89999997616,"correct":false,"confidence":1},{"trial_n":131,"min":104,"max":151,"target":"absent","response":"present","rt":271.60000002384,"correct":false,"confidence":1},{"trial_n":132,"min":103,"max":152,"target":"present","response":"absent","rt":158.19999998808,"correct":false,"confidence":1},{"trial_n":133,"min":102,"max":153,"target":"present","response":"present","rt":145.40000003576,"correct":true,"confidence":1},{"trial_n":134,"min":102,"max":153,"target":"present","response":"present","rt":293,"correct":true,"confidence":1},{"trial_n":135,"min":103,"max":152,"target":"absent","response":"present","rt":427.29999995232,"correct":false,"confidence":1},{"trial_n":136,"min":102,"max":153,"target":"absent","response":"absent","rt":231.19999998808,"correct":true,"confidence":1},{"trial_n":137,"min":102,"max":153,"target":"present","response":"absent","rt":199.70000004768,"correct":false,"confidence":1},{"trial_n":138,"min":101,"max":154,"target":"present","response":"absent","rt":344.69999998808,"correct":false,"confidence":1},{"trial_n":139,"min":100,"max":155,"target":"absent","response":"present","rt":349.20000004768,"correct":false,"confidence":1},{"trial_n":140,"min":99,"max":156,"target":"present","response":"present","rt":606.70000004768,"correct":true,"confidence":1}]