[{"trial_n":1,"span":8,"encoder":"73029733","distractor":"73029738","target":"present","response":"absent","rt":"4368","correct":false,"confidence":-1},{"trial_n":2,"span":6,"encoder":"912224","distractor":"412224","target":"present","response":"present","rt":"2200","correct":true,"confidence":-1},{"trial_n":3,"span":6,"encoder":"422974","distractor":"322974","target":"absent","response":"absent","rt":"2718","correct":true,"confidence":-1},{"trial_n":4,"span":8,"encoder":"49547235","distractor":"49547245","target":"absent","response":"absent","rt":"2228","correct":true,"confidence":-1},{"trial_n":5,"span":8,"encoder":"62805419","distractor":"02805419","target":"present","response":"present","rt":"1880","correct":true,"confidence":-1},{"trial_n":6,"span":10,"encoder":"3479895534","distractor":"3479895834","target":"absent","response":"present","rt":"2204","correct":false,"confidence":-1},{"trial_n":7,"span":8,"encoder":"94343898","distractor":"94343298","target":"absent","response":"absent","rt":"2343","correct":true,"confidence":-1},{"trial_n":8,"span":8,"encoder":"32576313","distractor":"32576333","target":"present","response":"present","rt":"2227","correct":true,"confidence":-1},{"trial_n":9,"span":10,"encoder":"4449255191","distractor":"4449555191","target":"absent","response":"absent","rt":"1707","correct":true,"confidence":-1},{"trial_n":10,"span":10,"encoder":"3352772768","distractor":"3352472768","target":"present","response":"absent","rt":"1688","correct":false,"confidence":-1},{"trial_n":11,"span":8,"encoder":"32296035","distractor":"32296235","target":"absent","response":"present","rt":"1364","correct":false,"confidence":-1},{"trial_n":12,"span":7,"encoder":"4985247","distractor":"4385247","target":"absent","response":"absent","rt":"2195","correct":true,"confidence":-1},{"trial_n":13,"span":7,"encoder":"4086988","distractor":"4086982","target":"absent","response":"absent","rt":"1410","correct":true,"confidence":-1},{"trial_n":14,"span":8,"encoder":"62055822","distractor":"62055826","target":"present","response":"present","rt":"1817","correct":true,"confidence":-1},{"trial_n":15,"span":8,"encoder":"86354081","distractor":"86354086","target":"absent","response":"absent","rt":"1473","correct":true,"confidence":-1},{"trial_n":16,"span":9,"encoder":"990220420","distractor":"990220820","target":"present","response":"present","rt":"1917","correct":true,"confidence":-1},{"trial_n":17,"span":9,"encoder":"775168070","distractor":"785168070","target":"present","response":"present","rt":"952","correct":true,"confidence":-1},{"trial_n":18,"span":10,"encoder":"7465542572","distractor":"2465542572","target":"absent","response":"present","rt":"1827","correct":false,"confidence":-1},{"trial_n":19,"span":9,"encoder":"388216832","distractor":"388616832","target":"absent","response":"present","rt":"1589","correct":false,"confidence":-1},{"trial_n":20,"span":8,"encoder":"40242809","distractor":"70242809","target":"absent","response":"present","rt":"1881","correct":false,"confidence":-1},{"trial_n":21,"span":7,"encoder":"2283317","distractor":"2283347","target":"absent","response":"absent","rt":"1708","correct":true,"confidence":5},{"trial_n":22,"span":7,"encoder":"3377241","distractor":"3307241","target":"present","response":"present","rt":"2614","correct":true,"confidence":4},{"trial_n":23,"span":8,"encoder":"24044077","distractor":"24044477","target":"absent","response":"present","rt":"2671","correct":false,"confidence":1},{"trial_n":24,"span":7,"encoder":"2563805","distractor":"8563805","target":"absent","response":"present","rt":"1247","correct":false,"confidence":4},{"trial_n":25,"span":6,"encoder":"969423","distractor":"869423","target":"absent","response":"absent","rt":"2194","correct":true,"confidence":5},{"trial_n":26,"span":6,"encoder":"841035","distractor":"891035","target":"present","response":"present","rt":"1445","correct":true,"confidence":4},{"trial_n":27,"span":7,"encoder":"7380721","distractor":"7380723","target":"present","response":"present","rt":"1364","correct":true,"confidence":3},{"trial_n":28,"span":7,"encoder":"6234101","distractor":"1234101","target":"present","response":"present","rt":"1366","correct":true,"confidence":4},{"trial_n":29,"span":8,"encoder":"46357770","distractor":"46757770","target":"absent","response":"absent","rt":"2504","correct":true,"confidence":4},{"trial_n":30,"span":8,"encoder":"81192962","distractor":"81132962","target":"absent","response":"present","rt":"1090","correct":false,"confidence":3},{"trial_n":31,"span":7,"encoder":"3135122","distractor":"3135162","target":"absent","response":"absent","rt":"1423","correct":true,"confidence":5},{"trial_n":32,"span":7,"encoder":"7268836","distractor":"7268826","target":"absent","response":"absent","rt":"2036","correct":true,"confidence":5},{"trial_n":33,"span":8,"encoder":"45181453","distractor":"45181153","target":"present","response":"present","rt":"2060","correct":true,"confidence":3},{"trial_n":34,"span":8,"encoder":"51913139","distractor":"71913139","target":"absent","response":"present","rt":"1907.0000000001","correct":false,"confidence":3},{"trial_n":35,"span":7,"encoder":"1079179","distractor":"7079179","target":"absent","response":"absent","rt":"2021","correct":true,"confidence":2},{"trial_n":36,"span":7,"encoder":"0769369","distractor":"7769369","target":"present","response":"present","rt":"1856","correct":true,"confidence":4},{"trial_n":37,"span":8,"encoder":"12782741","distractor":"12772741","target":"present","response":"absent","rt":"3259.9999999999","correct":false,"confidence":4},{"trial_n":38,"span":7,"encoder":"0550923","distractor":"0550926","target":"present","response":"present","rt":"1389","correct":true,"confidence":3},{"trial_n":39,"span":7,"encoder":"0576303","distractor":"0576503","target":"absent","response":"absent","rt":"1622.9999999999","correct":true,"confidence":5},{"trial_n":40,"span":8,"encoder":"25869526","distractor":"55869526","target":"present","response":"present","rt":"1561","correct":true,"confidence":2},{"trial_n":41,"span":8,"encoder":"41410114","distractor":"41410115","target":"present","response":"present","rt":"2522","correct":true,"confidence":3},{"trial_n":42,"span":9,"encoder":"028647957","distractor":"025647957","target":"present","response":"present","rt":"1834","correct":true,"confidence":4},{"trial_n":43,"span":9,"encoder":"132467686","distractor":"632467686","target":"present","response":"present","rt":"3016","correct":true,"confidence":3},{"trial_n":44,"span":10,"encoder":"1459329097","distractor":"1459329997","target":"absent","response":"absent","rt":"1602.9999999999","correct":true,"confidence":4},{"trial_n":45,"span":10,"encoder":"9639081173","distractor":"9639081143","target":"present","response":"present","rt":"1670","correct":true,"confidence":2},{"trial_n":46,"span":11,"encoder":"51270109064","distractor":"51270109164","target":"absent","response":"absent","rt":"20696","correct":true,"confidence":1},{"trial_n":47,"span":11,"encoder":"77881274092","distractor":"77181274092","target":"present","response":"present","rt":"2613","correct":true,"confidence":4},{"trial_n":48,"span":12,"encoder":"878531688119","distractor":"875531688119","target":"absent","response":"present","rt":"1767","correct":false,"confidence":2},{"trial_n":49,"span":11,"encoder":"09397839589","distractor":"09397899589","target":"present","response":"present","rt":"1764","correct":true,"confidence":4},{"trial_n":50,"span":11,"encoder":"74043479614","distractor":"74043479604","target":"present","response":"present","rt":"2330","correct":true,"confidence":4},{"trial_n":51,"span":12,"encoder":"870846927963","distractor":"870846928963","target":"absent","response":"present","rt":"1393","correct":false,"confidence":4},{"trial_n":52,"span":11,"encoder":"54851860499","distractor":"54858860499","target":"present","response":"absent","rt":"1964","correct":false,"confidence":3},{"trial_n":53,"span":10,"encoder":"6417178393","distractor":"6487178393","target":"present","response":"present","rt":"64801","correct":true,"confidence":2},{"trial_n":54,"span":10,"encoder":"4049663188","distractor":"4049665188","target":"absent","response":"absent","rt":"1715","correct":true,"confidence":4},{"trial_n":55,"span":11,"encoder":"14592245458","distractor":"34592245458","target":"present","response":"absent","rt":"4573","correct":false,"confidence":4},{"trial_n":56,"span":10,"encoder":"5536170577","distractor":"5546170577","target":"present","response":"absent","rt":"2267.0000000001","correct":false,"confidence":4},{"trial_n":57,"span":9,"encoder":"737025963","distractor":"737525963","target":"absent","response":"absent","rt":"1529","correct":true,"confidence":5},{"trial_n":58,"span":9,"encoder":"967538881","distractor":"967530881","target":"present","response":"absent","rt":"12196","correct":false,"confidence":2},{"trial_n":59,"span":8,"encoder":"90186331","distractor":"90186831","target":"present","response":"absent","rt":"5359.9999999999","correct":false,"confidence":3},{"trial_n":60,"span":7,"encoder":"6239080","distractor":"6239680","target":"present","response":"absent","rt":"9153","correct":false,"confidence":1},{"trial_n":61,"span":6,"encoder":"180448","distractor":"480448","target":"present","response":"absent","rt":"2544","correct":false,"confidence":5},{"trial_n":62,"span":5,"encoder":"70878","distractor":"70978","target":"absent","response":"absent","rt":"3096","correct":true,"confidence":5},{"trial_n":63,"span":5,"encoder":"87605","distractor":"67605","target":"present","response":"present","rt":"1829","correct":true,"confidence":4},{"trial_n":64,"span":6,"encoder":"134457","distractor":"135457","target":"absent","response":"absent","rt":"1683","correct":true,"confidence":4},{"trial_n":65,"span":6,"encoder":"318484","distractor":"318284","target":"absent","response":"absent","rt":"1617","correct":true,"confidence":5},{"trial_n":66,"span":7,"encoder":"3696672","distractor":"3616672","target":"absent","response":"absent","rt":"2340","correct":true,"confidence":5},{"trial_n":67,"span":7,"encoder":"6931438","distractor":"6951438","target":"absent","response":"absent","rt":"1923.9999999999","correct":true,"confidence":1},{"trial_n":68,"span":8,"encoder":"83427218","distractor":"83423218","target":"present","response":"present","rt":"1744","correct":true,"confidence":3},{"trial_n":69,"span":8,"encoder":"64752425","distractor":"14752425","target":"present","response":"present","rt":"1494","correct":true,"confidence":4},{"trial_n":70,"span":9,"encoder":"500590154","distractor":"560590154","target":"present","response":"absent","rt":"1950","correct":false,"confidence":4},{"trial_n":71,"span":8,"encoder":"71493156","distractor":"75493156","target":"present","response":"present","rt":"3132.0000000001","correct":true,"confidence":-1},{"trial_n":72,"span":8,"encoder":"19193125","distractor":"19193120","target":"present","response":"present","rt":"1313","correct":true,"confidence":-1},{"trial_n":73,"span":9,"encoder":"250325869","distractor":"250323869","target":"absent","response":"present","rt":"5563","correct":false,"confidence":-1},{"trial_n":74,"span":8,"encoder":"85782062","distractor":"85782862","target":"absent","response":"absent","rt":"2179","correct":true,"confidence":-1},{"trial_n":75,"span":8,"encoder":"95561584","distractor":"93561584","target":"present","response":"absent","rt":"2163","correct":false,"confidence":-1},{"trial_n":76,"span":7,"encoder":"1165365","distractor":"1125365","target":"absent","response":"absent","rt":"1622.9999999999","correct":true,"confidence":-1},{"trial_n":77,"span":7,"encoder":"0216866","distractor":"0215866","target":"present","response":"absent","rt":"1759.0000000001","correct":false,"confidence":-1},{"trial_n":78,"span":6,"encoder":"477571","distractor":"477577","target":"absent","response":"present","rt":"2668","correct":false,"confidence":-1},{"trial_n":79,"span":5,"encoder":"29475","distractor":"29465","target":"absent","response":"absent","rt":"1365","correct":true,"confidence":-1},{"trial_n":80,"span":5,"encoder":"53137","distractor":"53138","target":"present","response":"present","rt":"2050","correct":true,"confidence":-1},{"trial_n":81,"span":6,"encoder":"175007","distractor":"775007","target":"absent","response":"absent","rt":"1572","correct":true,"confidence":-1},{"trial_n":82,"span":6,"encoder":"899974","distractor":"891974","target":"absent","response":"absent","rt":"1502.0000000001","correct":true,"confidence":-1},{"trial_n":83,"span":7,"encoder":"8860860","distractor":"8860864","target":"present","response":"present","rt":"2122","correct":true,"confidence":-1},{"trial_n":84,"span":7,"encoder":"9851747","distractor":"9853747","target":"present","response":"present","rt":"1791","correct":true,"confidence":-1},{"trial_n":85,"span":8,"encoder":"15840880","distractor":"15840883","target":"absent","response":"absent","rt":"1884","correct":true,"confidence":-1},{"trial_n":86,"span":8,"encoder":"28721988","distractor":"28821988","target":"absent","response":"absent","rt":"1376","correct":true,"confidence":-1},{"trial_n":87,"span":9,"encoder":"603670044","distractor":"603676044","target":"absent","response":"present","rt":"1405","correct":false,"confidence":-1},{"trial_n":88,"span":8,"encoder":"41784309","distractor":"42784309","target":"present","response":"absent","rt":"2666","correct":false,"confidence":-1},{"trial_n":89,"span":7,"encoder":"5427646","distractor":"5827646","target":"present","response":"absent","rt":"1411","correct":false,"confidence":-1},{"trial_n":90,"span":6,"encoder":"475188","distractor":"475168","target":"present","response":"present","rt":"1704","correct":true,"confidence":-1},{"trial_n":91,"span":6,"encoder":"109204","distractor":"108204","target":"absent","response":"absent","rt":"1587","correct":true,"confidence":4},{"trial_n":92,"span":7,"encoder":"8346786","distractor":"8386786","target":"present","response":"present","rt":"1547","correct":true,"confidence":3},{"trial_n":93,"span":7,"encoder":"7760266","distractor":"7760966","target":"present","response":"present","rt":"1331","correct":true,"confidence":4},{"trial_n":94,"span":8,"encoder":"27463473","distractor":"27463373","target":"absent","response":"absent","rt":"1586.0000000001","correct":true,"confidence":4},{"trial_n":95,"span":8,"encoder":"04033172","distractor":"64033172","target":"present","response":"present","rt":"1371.0000000001","correct":true,"confidence":5},{"trial_n":96,"span":9,"encoder":"930637225","distractor":"930637295","target":"absent","response":"present","rt":"1224.0000000001","correct":false,"confidence":1},{"trial_n":97,"span":8,"encoder":"81195905","distractor":"81195995","target":"present","response":"present","rt":"2255.9999999999","correct":true,"confidence":2},{"trial_n":98,"span":8,"encoder":"98805045","distractor":"99805045","target":"present","response":"absent","rt":"1838.9999999999","correct":false,"confidence":1},{"trial_n":99,"span":7,"encoder":"0979918","distractor":"0979916","target":"absent","response":"absent","rt":"2014.9999999998","correct":true,"confidence":4},{"trial_n":100,"span":7,"encoder":"9926536","distractor":"9926534","target":"present","response":"present","rt":"3764.9999999998","correct":true,"confidence":4},{"trial_n":101,"span":8,"encoder":"84411313","distractor":"64411313","target":"present","response":"present","rt":"2567","correct":true,"confidence":5},{"trial_n":102,"span":8,"encoder":"83883723","distractor":"53883723","target":"absent","response":"absent","rt":"3191","correct":true,"confidence":5},{"trial_n":103,"span":9,"encoder":"348880818","distractor":"348880418","target":"present","response":"absent","rt":"3664","correct":false,"confidence":4},{"trial_n":104,"span":8,"encoder":"80909220","distractor":"89909220","target":"present","response":"present","rt":"3058","correct":true,"confidence":5},{"trial_n":105,"span":8,"encoder":"95628366","distractor":"95628362","target":"absent","response":"absent","rt":"2791.9999999998","correct":true,"confidence":1},{"trial_n":106,"span":9,"encoder":"106807686","distractor":"106807682","target":"present","response":"absent","rt":"2162","correct":false,"confidence":3},{"trial_n":107,"span":8,"encoder":"59257159","distractor":"59257119","target":"present","response":"absent","rt":"2230","correct":false,"confidence":3},{"trial_n":108,"span":7,"encoder":"7824287","distractor":"7820287","target":"absent","response":"present","rt":"2006","correct":false,"confidence":1},{"trial_n":109,"span":6,"encoder":"943221","distractor":"943921","target":"present","response":"present","rt":"1868","correct":true,"confidence":4},{"trial_n":110,"span":6,"encoder":"172687","distractor":"170687","target":"absent","response":"absent","rt":"1851","correct":true,"confidence":3},{"trial_n":111,"span":7,"encoder":"1832532","distractor":"1832534","target":"present","response":"present","rt":"2478","correct":true,"confidence":4},{"trial_n":112,"span":7,"encoder":"2382070","distractor":"0382070","target":"present","response":"absent","rt":"2389","correct":false,"confidence":3},{"trial_n":113,"span":6,"encoder":"132700","distractor":"132600","target":"absent","response":"absent","rt":"1537","correct":true,"confidence":5},{"trial_n":114,"span":6,"encoder":"171007","distractor":"141007","target":"present","response":"present","rt":"3001.9999999998","correct":true,"confidence":5},{"trial_n":115,"span":7,"encoder":"0670395","distractor":"0620395","target":"present","response":"present","rt":"1241","correct":true,"confidence":3},{"trial_n":116,"span":7,"encoder":"0014671","distractor":"0064671","target":"present","response":"present","rt":"1875","correct":true,"confidence":5},{"trial_n":117,"span":8,"encoder":"45706860","distractor":"49706860","target":"present","response":"present","rt":"1928.9999999998","correct":true,"confidence":3},{"trial_n":118,"span":8,"encoder":"74663330","distractor":"74663230","target":"present","response":"present","rt":"1631","correct":true,"confidence":3},{"trial_n":119,"span":9,"encoder":"017186683","distractor":"017886683","target":"absent","response":"absent","rt":"1366","correct":true,"confidence":1},{"trial_n":120,"span":9,"encoder":"592879175","distractor":"512879175","target":"present","response":"present","rt":"3654","correct":true,"confidence":3},{"trial_n":121,"span":10,"encoder":"9271408844","distractor":"9271408849","target":"absent","response":"absent","rt":"2869.9999999998","correct":true,"confidence":4},{"trial_n":122,"span":10,"encoder":"7283686018","distractor":"7243686018","target":"absent","response":"present","rt":"2475.0000000002","correct":false,"confidence":2},{"trial_n":123,"span":9,"encoder":"709471146","distractor":"709475146","target":"absent","response":"present","rt":"1788","correct":false,"confidence":3},{"trial_n":124,"span":8,"encoder":"55884667","distractor":"55884662","target":"present","response":"present","rt":"3299","correct":true,"confidence":3},{"trial_n":125,"span":8,"encoder":"48023825","distractor":"98023825","target":"absent","response":"absent","rt":"3217","correct":true,"confidence":5},{"trial_n":126,"span":9,"encoder":"753795937","distractor":"759795937","target":"present","response":"present","rt":"2885","correct":true,"confidence":4},{"trial_n":127,"span":9,"encoder":"320200202","distractor":"420200202","target":"present","response":"present","rt":"2340","correct":true,"confidence":2},{"trial_n":128,"span":10,"encoder":"7670989933","distractor":"7670989939","target":"absent","response":"absent","rt":"3574","correct":true,"confidence":4},{"trial_n":129,"span":10,"encoder":"5897118194","distractor":"5837118194","target":"present","response":"present","rt":"6495","correct":true,"confidence":4},{"trial_n":130,"span":11,"encoder":"07038691726","distractor":"07038691716","target":"absent","response":"present","rt":"2916.9999999998","correct":false,"confidence":2},{"trial_n":131,"span":10,"encoder":"3697031540","distractor":"2697031540","target":"absent","response":"absent","rt":"1389","correct":true,"confidence":5},{"trial_n":132,"span":10,"encoder":"0919568209","distractor":"0919568309","target":"absent","response":"present","rt":"3629","correct":false,"confidence":2},{"trial_n":133,"span":9,"encoder":"725348926","distractor":"725348928","target":"absent","response":"present","rt":"7756.0000000002","correct":false,"confidence":1},{"trial_n":134,"span":8,"encoder":"17412014","distractor":"17482014","target":"absent","response":"absent","rt":"1805","correct":true,"confidence":3},{"trial_n":135,"span":8,"encoder":"25009491","distractor":"25029491","target":"present","response":"present","rt":"2004","correct":true,"confidence":4},{"trial_n":136,"span":9,"encoder":"268466556","distractor":"268426556","target":"absent","response":"absent","rt":"2177.0000000002","correct":true,"confidence":2},{"trial_n":137,"span":9,"encoder":"239313882","distractor":"239313881","target":"absent","response":"absent","rt":"2477","correct":true,"confidence":4},{"trial_n":138,"span":10,"encoder":"8382500457","distractor":"8382500497","target":"absent","response":"absent","rt":"2347","correct":true,"confidence":4},{"trial_n":139,"span":10,"encoder":"2514383748","distractor":"2514383745","target":"absent","response":"present","rt":"2766","correct":false,"confidence":1},{"trial_n":140,"span":9,"encoder":"550830717","distractor":"550830777","target":"present","response":"absent","rt":"2058.9999999998","correct":false,"confidence":1}]