[{"trial_n":1,"min":25,"max":230,"target":"present","response":"present","rt":10397.8,"correct":true,"confidence":-1},{"trial_n":2,"min":25,"max":230,"target":"present","response":"present","rt":3776.2999999998,"correct":true,"confidence":-1},{"trial_n":3,"min":41,"max":214,"target":"absent","response":"absent","rt":1063.8000000003,"correct":true,"confidence":-1},{"trial_n":4,"min":41,"max":214,"target":"absent","response":"absent","rt":575,"correct":true,"confidence":-1},{"trial_n":5,"min":57,"max":198,"target":"present","response":"absent","rt":680.39999999991,"correct":false,"confidence":-1},{"trial_n":6,"min":41,"max":214,"target":"present","response":"present","rt":898,"correct":true,"confidence":-1},{"trial_n":7,"min":41,"max":214,"target":"present","response":"present","rt":732.69999999972,"correct":true,"confidence":-1},{"trial_n":8,"min":57,"max":198,"target":"absent","response":"absent","rt":533.5,"correct":true,"confidence":-1},{"trial_n":9,"min":57,"max":198,"target":"absent","response":"absent","rt":442.10000000009,"correct":true,"confidence":-1},{"trial_n":10,"min":73,"max":182,"target":"present","response":"present","rt":328.10000000009,"correct":true,"confidence":-1},{"trial_n":11,"min":73,"max":182,"target":"absent","response":"absent","rt":327.69999999972,"correct":true,"confidence":-1},{"trial_n":12,"min":81,"max":174,"target":"absent","response":"absent","rt":373.19999999972,"correct":true,"confidence":-1},{"trial_n":13,"min":81,"max":174,"target":"present","response":"present","rt":157.89999999991,"correct":true,"confidence":-1},{"trial_n":14,"min":89,"max":166,"target":"absent","response":"absent","rt":275.20000000019,"correct":true,"confidence":-1},{"trial_n":15,"min":89,"max":166,"target":"present","response":"present","rt":97,"correct":true,"confidence":-1},{"trial_n":16,"min":97,"max":158,"target":"present","response":"absent","rt":307,"correct":false,"confidence":-1},{"trial_n":17,"min":89,"max":166,"target":"present","response":"absent","rt":655.20000000019,"correct":false,"confidence":-1},{"trial_n":18,"min":81,"max":174,"target":"absent","response":"present","rt":398.89999999991,"correct":false,"confidence":-1},{"trial_n":19,"min":73,"max":182,"target":"absent","response":"absent","rt":492.79999999981,"correct":true,"confidence":-1},{"trial_n":20,"min":73,"max":182,"target":"absent","response":"absent","rt":945,"correct":true,"confidence":-1},{"trial_n":21,"min":77,"max":178,"target":"absent","response":"absent","rt":722.89999999991,"correct":true,"confidence":4},{"trial_n":22,"min":77,"max":178,"target":"absent","response":"absent","rt":2285.8999999999,"correct":true,"confidence":3},{"trial_n":23,"min":81,"max":174,"target":"absent","response":"absent","rt":920.5,"correct":true,"confidence":5},{"trial_n":24,"min":81,"max":174,"target":"present","response":"absent","rt":2116.4000000004,"correct":false,"confidence":5},{"trial_n":25,"min":77,"max":178,"target":"present","response":"present","rt":991.39999999991,"correct":true,"confidence":3},{"trial_n":26,"min":77,"max":178,"target":"absent","response":"present","rt":1340.2000000002,"correct":false,"confidence":3},{"trial_n":27,"min":73,"max":182,"target":"present","response":"present","rt":1371.3000000003,"correct":true,"confidence":5},{"trial_n":28,"min":73,"max":182,"target":"present","response":"present","rt":1110.3000000003,"correct":true,"confidence":4},{"trial_n":29,"min":77,"max":178,"target":"absent","response":"absent","rt":1017.1000000001,"correct":true,"confidence":4},{"trial_n":30,"min":77,"max":178,"target":"absent","response":"present","rt":984.10000000009,"correct":false,"confidence":5},{"trial_n":31,"min":75,"max":180,"target":"present","response":"present","rt":797.10000000009,"correct":true,"confidence":4},{"trial_n":32,"min":75,"max":180,"target":"present","response":"present","rt":759.60000000009,"correct":true,"confidence":1},{"trial_n":33,"min":77,"max":178,"target":"present","response":"absent","rt":4995.1000000001,"correct":false,"confidence":1},{"trial_n":34,"min":75,"max":180,"target":"present","response":"present","rt":756.20000000019,"correct":true,"confidence":3},{"trial_n":35,"min":75,"max":180,"target":"present","response":"present","rt":895.70000000019,"correct":true,"confidence":4},{"trial_n":36,"min":77,"max":178,"target":"absent","response":"present","rt":1835.3999999999,"correct":false,"confidence":4},{"trial_n":37,"min":75,"max":180,"target":"absent","response":"absent","rt":928.89999999991,"correct":true,"confidence":5},{"trial_n":38,"min":75,"max":180,"target":"present","response":"present","rt":800.20000000019,"correct":true,"confidence":4},{"trial_n":39,"min":77,"max":178,"target":"absent","response":"present","rt":3564.7999999998,"correct":false,"confidence":3},{"trial_n":40,"min":75,"max":180,"target":"present","response":"present","rt":796.69999999972,"correct":true,"confidence":5},{"trial_n":41,"min":75,"max":180,"target":"absent","response":"present","rt":896.5,"correct":false,"confidence":3},{"trial_n":42,"min":74,"max":181,"target":"present","response":"present","rt":849.39999999991,"correct":true,"confidence":4},{"trial_n":43,"min":74,"max":181,"target":"absent","response":"absent","rt":876.89999999991,"correct":true,"confidence":4},{"trial_n":44,"min":75,"max":180,"target":"absent","response":"absent","rt":1414.7000000002,"correct":true,"confidence":1},{"trial_n":45,"min":75,"max":180,"target":"present","response":"present","rt":1056,"correct":true,"confidence":4},{"trial_n":46,"min":76,"max":179,"target":"present","response":"present","rt":664.19999999972,"correct":true,"confidence":4},{"trial_n":47,"min":76,"max":179,"target":"absent","response":"present","rt":1164.1999999997,"correct":false,"confidence":4},{"trial_n":48,"min":75,"max":180,"target":"absent","response":"absent","rt":846,"correct":true,"confidence":3},{"trial_n":49,"min":75,"max":180,"target":"absent","response":"absent","rt":1232.5,"correct":true,"confidence":3},{"trial_n":50,"min":76,"max":179,"target":"absent","response":"absent","rt":827.30000000028,"correct":true,"confidence":1},{"trial_n":51,"min":76,"max":179,"target":"present","response":"present","rt":977.80000000028,"correct":true,"confidence":4},{"trial_n":52,"min":77,"max":178,"target":"absent","response":"present","rt":2350.8999999999,"correct":false,"confidence":3},{"trial_n":53,"min":76,"max":179,"target":"absent","response":"present","rt":808.60000000009,"correct":false,"confidence":4},{"trial_n":54,"min":75,"max":180,"target":"present","response":"present","rt":698.60000000009,"correct":true,"confidence":5},{"trial_n":55,"min":75,"max":180,"target":"absent","response":"absent","rt":3861.1000000001,"correct":true,"confidence":3},{"trial_n":56,"min":76,"max":179,"target":"present","response":"present","rt":1083.7000000002,"correct":true,"confidence":4},{"trial_n":57,"min":76,"max":179,"target":"present","response":"present","rt":820.39999999991,"correct":true,"confidence":5},{"trial_n":58,"min":77,"max":178,"target":"present","response":"present","rt":1778.1999999997,"correct":true,"confidence":4},{"trial_n":59,"min":77,"max":178,"target":"absent","response":"absent","rt":1471.2999999998,"correct":true,"confidence":2},{"trial_n":60,"min":78,"max":177,"target":"absent","response":"absent","rt":1273.2000000002,"correct":true,"confidence":4},{"trial_n":61,"min":78,"max":177,"target":"present","response":"present","rt":632.10000000009,"correct":true,"confidence":5},{"trial_n":62,"min":79,"max":176,"target":"present","response":"present","rt":827.79999999981,"correct":true,"confidence":5},{"trial_n":63,"min":79,"max":176,"target":"absent","response":"present","rt":2580.7999999998,"correct":false,"confidence":4},{"trial_n":64,"min":78,"max":177,"target":"absent","response":"absent","rt":1700.8000000003,"correct":true,"confidence":2},{"trial_n":65,"min":78,"max":177,"target":"present","response":"present","rt":870,"correct":true,"confidence":5},{"trial_n":66,"min":79,"max":176,"target":"present","response":"present","rt":940.30000000028,"correct":true,"confidence":4},{"trial_n":67,"min":79,"max":176,"target":"present","response":"present","rt":708.79999999981,"correct":true,"confidence":5},{"trial_n":68,"min":80,"max":175,"target":"absent","response":"absent","rt":944.10000000009,"correct":true,"confidence":4},{"trial_n":69,"min":80,"max":175,"target":"present","response":"present","rt":615.79999999981,"correct":true,"confidence":4},{"trial_n":70,"min":81,"max":174,"target":"present","response":"present","rt":1695.2000000002,"correct":true,"confidence":4},{"trial_n":71,"min":41,"max":214,"target":"present","response":"present","rt":2859.7999999998,"correct":true,"confidence":-1},{"trial_n":72,"min":41,"max":214,"target":"present","response":"present","rt":853.60000000009,"correct":true,"confidence":-1},{"trial_n":73,"min":57,"max":198,"target":"absent","response":"absent","rt":698.60000000009,"correct":true,"confidence":-1},{"trial_n":74,"min":57,"max":198,"target":"absent","response":"absent","rt":391.90000000037,"correct":true,"confidence":-1},{"trial_n":75,"min":73,"max":182,"target":"present","response":"present","rt":677.5,"correct":true,"confidence":-1},{"trial_n":76,"min":73,"max":182,"target":"absent","response":"absent","rt":672.5,"correct":true,"confidence":-1},{"trial_n":77,"min":89,"max":166,"target":"present","response":"present","rt":647.5,"correct":true,"confidence":-1},{"trial_n":78,"min":89,"max":166,"target":"present","response":"present","rt":809.69999999972,"correct":true,"confidence":-1},{"trial_n":79,"min":105,"max":150,"target":"absent","response":"present","rt":431.79999999981,"correct":false,"confidence":-1},{"trial_n":80,"min":89,"max":166,"target":"present","response":"absent","rt":347.40000000037,"correct":false,"confidence":-1},{"trial_n":81,"min":81,"max":174,"target":"present","response":"absent","rt":953.30000000028,"correct":false,"confidence":-1},{"trial_n":82,"min":73,"max":182,"target":"present","response":"present","rt":339.19999999972,"correct":true,"confidence":-1},{"trial_n":83,"min":73,"max":182,"target":"present","response":"present","rt":440,"correct":true,"confidence":-1},{"trial_n":84,"min":81,"max":174,"target":"present","response":"present","rt":513.20000000019,"correct":true,"confidence":-1},{"trial_n":85,"min":81,"max":174,"target":"present","response":"present","rt":1467.7000000002,"correct":true,"confidence":-1},{"trial_n":86,"min":89,"max":166,"target":"present","response":"absent","rt":351.5,"correct":false,"confidence":-1},{"trial_n":87,"min":81,"max":174,"target":"absent","response":"present","rt":814.60000000009,"correct":false,"confidence":-1},{"trial_n":88,"min":73,"max":182,"target":"absent","response":"absent","rt":198.39999999991,"correct":true,"confidence":-1},{"trial_n":89,"min":73,"max":182,"target":"present","response":"absent","rt":586.70000000019,"correct":false,"confidence":-1},{"trial_n":90,"min":65,"max":190,"target":"absent","response":"absent","rt":545,"correct":true,"confidence":-1},{"trial_n":91,"min":65,"max":190,"target":"present","response":"present","rt":564,"correct":true,"confidence":5},{"trial_n":92,"min":69,"max":186,"target":"absent","response":"present","rt":1699,"correct":false,"confidence":4},{"trial_n":93,"min":65,"max":190,"target":"present","response":"present","rt":224.69999999972,"correct":true,"confidence":5},{"trial_n":94,"min":65,"max":190,"target":"present","response":"present","rt":286.70000000019,"correct":true,"confidence":5},{"trial_n":95,"min":69,"max":186,"target":"absent","response":"present","rt":972,"correct":false,"confidence":3},{"trial_n":96,"min":65,"max":190,"target":"absent","response":"absent","rt":2146.8999999999,"correct":true,"confidence":4},{"trial_n":97,"min":65,"max":190,"target":"absent","response":"absent","rt":976.39999999991,"correct":true,"confidence":5},{"trial_n":98,"min":69,"max":186,"target":"present","response":"present","rt":488.70000000019,"correct":true,"confidence":5},{"trial_n":99,"min":69,"max":186,"target":"present","response":"present","rt":704,"correct":true,"confidence":5},{"trial_n":100,"min":73,"max":182,"target":"absent","response":"absent","rt":1387.5,"correct":true,"confidence":1},{"trial_n":101,"min":73,"max":182,"target":"absent","response":"absent","rt":802.10000000009,"correct":true,"confidence":4},{"trial_n":102,"min":75,"max":180,"target":"absent","response":"absent","rt":2473,"correct":true,"confidence":3},{"trial_n":103,"min":75,"max":180,"target":"present","response":"present","rt":611.79999999981,"correct":true,"confidence":5},{"trial_n":104,"min":77,"max":178,"target":"absent","response":"absent","rt":6241,"correct":true,"confidence":3},{"trial_n":105,"min":77,"max":178,"target":"absent","response":"present","rt":788,"correct":false,"confidence":4},{"trial_n":106,"min":75,"max":180,"target":"present","response":"present","rt":523,"correct":true,"confidence":5},{"trial_n":107,"min":75,"max":180,"target":"present","response":"present","rt":453.39999999991,"correct":true,"confidence":5},{"trial_n":108,"min":77,"max":178,"target":"present","response":"present","rt":862.5,"correct":true,"confidence":5},{"trial_n":109,"min":77,"max":178,"target":"absent","response":"absent","rt":859.89999999991,"correct":true,"confidence":5},{"trial_n":110,"min":79,"max":176,"target":"present","response":"present","rt":968.60000000009,"correct":true,"confidence":5},{"trial_n":111,"min":79,"max":176,"target":"present","response":"present","rt":880.70000000019,"correct":true,"confidence":5},{"trial_n":112,"min":80,"max":175,"target":"present","response":"present","rt":735,"correct":true,"confidence":5},{"trial_n":113,"min":80,"max":175,"target":"present","response":"present","rt":519.30000000028,"correct":true,"confidence":5},{"trial_n":114,"min":81,"max":174,"target":"present","response":"present","rt":561.60000000009,"correct":true,"confidence":5},{"trial_n":115,"min":81,"max":174,"target":"absent","response":"present","rt":500.5,"correct":false,"confidence":3},{"trial_n":116,"min":80,"max":175,"target":"present","response":"present","rt":560.79999999981,"correct":true,"confidence":5},{"trial_n":117,"min":80,"max":175,"target":"absent","response":"absent","rt":1700.1999999997,"correct":true,"confidence":4},{"trial_n":118,"min":81,"max":174,"target":"present","response":"present","rt":1143,"correct":true,"confidence":5},{"trial_n":119,"min":81,"max":174,"target":"absent","response":"absent","rt":798.70000000019,"correct":true,"confidence":1},{"trial_n":120,"min":82,"max":173,"target":"absent","response":"absent","rt":4581.3999999999,"correct":true,"confidence":2},{"trial_n":121,"min":82,"max":173,"target":"present","response":"present","rt":127.89999999991,"correct":true,"confidence":5},{"trial_n":122,"min":83,"max":172,"target":"absent","response":"present","rt":912.60000000009,"correct":false,"confidence":5},{"trial_n":123,"min":82,"max":173,"target":"present","response":"absent","rt":1530.2000000002,"correct":false,"confidence":4},{"trial_n":124,"min":81,"max":174,"target":"absent","response":"present","rt":568.89999999991,"correct":false,"confidence":5},{"trial_n":125,"min":80,"max":175,"target":"present","response":"present","rt":725.5,"correct":true,"confidence":4},{"trial_n":126,"min":80,"max":175,"target":"absent","response":"present","rt":790.39999999991,"correct":false,"confidence":3},{"trial_n":127,"min":79,"max":176,"target":"absent","response":"absent","rt":911.39999999991,"correct":true,"confidence":5},{"trial_n":128,"min":79,"max":176,"target":"absent","response":"absent","rt":1347.6000000001,"correct":true,"confidence":5},{"trial_n":129,"min":80,"max":175,"target":"absent","response":"absent","rt":897.10000000009,"correct":true,"confidence":4},{"trial_n":130,"min":80,"max":175,"target":"absent","response":"absent","rt":1129.3999999999,"correct":true,"confidence":4},{"trial_n":131,"min":81,"max":174,"target":"present","response":"present","rt":900.39999999991,"correct":true,"confidence":5},{"trial_n":132,"min":81,"max":174,"target":"absent","response":"absent","rt":838.69999999972,"correct":true,"confidence":4},{"trial_n":133,"min":82,"max":173,"target":"absent","response":"absent","rt":1088.3000000003,"correct":true,"confidence":3},{"trial_n":134,"min":82,"max":173,"target":"absent","response":"absent","rt":1567.1999999997,"correct":true,"confidence":3},{"trial_n":135,"min":83,"max":172,"target":"absent","response":"present","rt":888.29999999981,"correct":false,"confidence":4},{"trial_n":136,"min":82,"max":173,"target":"present","response":"present","rt":1173.1000000001,"correct":true,"confidence":5},{"trial_n":137,"min":82,"max":173,"target":"present","response":"present","rt":2127.3999999999,"correct":true,"confidence":3},{"trial_n":138,"min":83,"max":172,"target":"present","response":"present","rt":1564.7999999998,"correct":true,"confidence":4},{"trial_n":139,"min":83,"max":172,"target":"absent","response":"absent","rt":1090.2000000002,"correct":true,"confidence":4},{"trial_n":140,"min":84,"max":171,"target":"absent","response":"absent","rt":900.79999999981,"correct":true,"confidence":3}]