[{"trial_n":1,"span":8,"encoder":"68256149","distractor":"78256149","target":"present","response":"absent","rt":"4103","correct":false,"confidence":-1},{"trial_n":2,"span":6,"encoder":"460338","distractor":"490338","target":"present","response":"present","rt":"1842.2000000011","correct":true,"confidence":-1},{"trial_n":3,"span":6,"encoder":"008495","distractor":"058495","target":"absent","response":"present","rt":"2400","correct":false,"confidence":-1},{"trial_n":4,"span":4,"encoder":"2722","distractor":"2922","target":"absent","response":"absent","rt":"3746.2999999989","correct":true,"confidence":-1},{"trial_n":5,"span":4,"encoder":"9755","distractor":"9715","target":"present","response":"present","rt":"2697.0999999996","correct":true,"confidence":-1},{"trial_n":6,"span":6,"encoder":"110954","distractor":"010954","target":"present","response":"present","rt":"1153.7999999989","correct":true,"confidence":-1},{"trial_n":7,"span":6,"encoder":"408138","distractor":"408137","target":"present","response":"present","rt":"718.60000000149","correct":true,"confidence":-1},{"trial_n":8,"span":8,"encoder":"85840528","distractor":"85800528","target":"absent","response":"present","rt":"1456","correct":false,"confidence":-1},{"trial_n":9,"span":6,"encoder":"656790","distractor":"656700","target":"absent","response":"absent","rt":"1997.2000000011","correct":true,"confidence":-1},{"trial_n":10,"span":6,"encoder":"864906","distractor":"868906","target":"present","response":"present","rt":"770.40000000037","correct":true,"confidence":-1},{"trial_n":11,"span":8,"encoder":"28416266","distractor":"28416261","target":"absent","response":"absent","rt":"1126.5","correct":true,"confidence":-1},{"trial_n":12,"span":8,"encoder":"27989021","distractor":"27989028","target":"present","response":"absent","rt":"624.19999999925","correct":false,"confidence":-1},{"trial_n":13,"span":7,"encoder":"7534275","distractor":"7524275","target":"absent","response":"present","rt":"881.30000000075","correct":false,"confidence":-1},{"trial_n":14,"span":6,"encoder":"509552","distractor":"502552","target":"absent","response":"present","rt":"948.90000000037","correct":false,"confidence":-1},{"trial_n":15,"span":5,"encoder":"75198","distractor":"75192","target":"absent","response":"absent","rt":"1002.8000000007","correct":true,"confidence":-1},{"trial_n":16,"span":5,"encoder":"83067","distractor":"23067","target":"present","response":"present","rt":"723.40000000037","correct":true,"confidence":-1},{"trial_n":17,"span":6,"encoder":"260515","distractor":"260535","target":"present","response":"present","rt":"835.09999999963","correct":true,"confidence":-1},{"trial_n":18,"span":6,"encoder":"473305","distractor":"403305","target":"absent","response":"present","rt":"1439.2000000011","correct":false,"confidence":-1},{"trial_n":19,"span":5,"encoder":"57721","distractor":"55721","target":"absent","response":"present","rt":"1227.9000000004","correct":false,"confidence":-1},{"trial_n":20,"span":4,"encoder":"3813","distractor":"3713","target":"absent","response":"absent","rt":"436.10000000149","correct":true,"confidence":-1},{"trial_n":21,"span":4,"encoder":"4621","distractor":"4623","target":"absent","response":"absent","rt":"2272.1999999993","correct":true,"confidence":5},{"trial_n":22,"span":5,"encoder":"75796","distractor":"25796","target":"present","response":"present","rt":"1809","correct":true,"confidence":5},{"trial_n":23,"span":5,"encoder":"99239","distractor":"99539","target":"present","response":"present","rt":"2191.5","correct":true,"confidence":5},{"trial_n":24,"span":6,"encoder":"754961","distractor":"758961","target":"present","response":"present","rt":"2428.9000000004","correct":true,"confidence":5},{"trial_n":25,"span":6,"encoder":"810266","distractor":"810265","target":"absent","response":"absent","rt":"3566","correct":true,"confidence":5},{"trial_n":26,"span":7,"encoder":"4695672","distractor":"4695642","target":"absent","response":"absent","rt":"4502.2000000011","correct":true,"confidence":5},{"trial_n":27,"span":7,"encoder":"9044691","distractor":"9844691","target":"present","response":"present","rt":"2014.9000000004","correct":true,"confidence":5},{"trial_n":28,"span":8,"encoder":"35295598","distractor":"35291598","target":"present","response":"present","rt":"4645.1999999993","correct":true,"confidence":3},{"trial_n":29,"span":8,"encoder":"49592698","distractor":"49596698","target":"present","response":"absent","rt":"4987.4000000004","correct":false,"confidence":2},{"trial_n":30,"span":7,"encoder":"9719792","distractor":"9519792","target":"absent","response":"absent","rt":"2535.9000000004","correct":true,"confidence":5},{"trial_n":31,"span":7,"encoder":"6594688","distractor":"6594788","target":"absent","response":"absent","rt":"2850.6999999993","correct":true,"confidence":5},{"trial_n":32,"span":8,"encoder":"30461500","distractor":"30461506","target":"present","response":"present","rt":"2852.5","correct":true,"confidence":5},{"trial_n":33,"span":8,"encoder":"42822532","distractor":"42822332","target":"present","response":"present","rt":"3250.9000000004","correct":true,"confidence":4},{"trial_n":34,"span":9,"encoder":"716512008","distractor":"716515008","target":"present","response":"present","rt":"2873.5999999996","correct":true,"confidence":3},{"trial_n":35,"span":9,"encoder":"307235585","distractor":"307235587","target":"absent","response":"present","rt":"2667.1999999993","correct":false,"confidence":5},{"trial_n":36,"span":8,"encoder":"41341936","distractor":"41345936","target":"absent","response":"absent","rt":"3333.0999999996","correct":true,"confidence":3},{"trial_n":37,"span":8,"encoder":"18057783","distractor":"18057723","target":"absent","response":"present","rt":"2107.2000000011","correct":false,"confidence":1},{"trial_n":38,"span":7,"encoder":"2477099","distractor":"2477999","target":"present","response":"present","rt":"1785","correct":true,"confidence":3},{"trial_n":39,"span":7,"encoder":"1731028","distractor":"6731028","target":"absent","response":"absent","rt":"2228.6999999993","correct":true,"confidence":4},{"trial_n":40,"span":8,"encoder":"50818354","distractor":"50818154","target":"absent","response":"absent","rt":"2505","correct":true,"confidence":4},{"trial_n":41,"span":8,"encoder":"79206531","distractor":"79246531","target":"present","response":"present","rt":"2553.5","correct":true,"confidence":4},{"trial_n":42,"span":9,"encoder":"794317960","distractor":"794317964","target":"present","response":"absent","rt":"3635.5999999996","correct":false,"confidence":2},{"trial_n":43,"span":8,"encoder":"16695586","distractor":"16795586","target":"absent","response":"absent","rt":"2769.9000000004","correct":true,"confidence":3},{"trial_n":44,"span":8,"encoder":"32991589","distractor":"32991579","target":"absent","response":"absent","rt":"2847.3999999985","correct":true,"confidence":4},{"trial_n":45,"span":9,"encoder":"000379915","distractor":"020379915","target":"present","response":"absent","rt":"3721","correct":false,"confidence":3},{"trial_n":46,"span":8,"encoder":"25448896","distractor":"25448866","target":"present","response":"absent","rt":"4758.8999999985","correct":false,"confidence":1},{"trial_n":47,"span":7,"encoder":"7321329","distractor":"7323329","target":"present","response":"present","rt":"3331.9000000004","correct":true,"confidence":5},{"trial_n":48,"span":7,"encoder":"3202230","distractor":"3272230","target":"absent","response":"present","rt":"2628","correct":false,"confidence":4},{"trial_n":49,"span":6,"encoder":"753658","distractor":"753650","target":"absent","response":"absent","rt":"3938.5999999996","correct":true,"confidence":3},{"trial_n":50,"span":6,"encoder":"795445","distractor":"795442","target":"present","response":"present","rt":"2359.3000000007","correct":true,"confidence":5},{"trial_n":51,"span":7,"encoder":"3040321","distractor":"3040331","target":"absent","response":"absent","rt":"2352.3000000007","correct":true,"confidence":4},{"trial_n":52,"span":7,"encoder":"1587915","distractor":"1527915","target":"absent","response":"absent","rt":"2807.7999999989","correct":true,"confidence":4},{"trial_n":53,"span":8,"encoder":"87906335","distractor":"87106335","target":"present","response":"present","rt":"2678","correct":true,"confidence":3},{"trial_n":54,"span":8,"encoder":"90648051","distractor":"90448051","target":"absent","response":"absent","rt":"3871.5999999996","correct":true,"confidence":2},{"trial_n":55,"span":9,"encoder":"626913378","distractor":"626973378","target":"absent","response":"present","rt":"2044.5999999996","correct":false,"confidence":2},{"trial_n":56,"span":8,"encoder":"70956789","distractor":"70951789","target":"absent","response":"absent","rt":"4019.1999999993","correct":true,"confidence":4},{"trial_n":57,"span":8,"encoder":"04854239","distractor":"04854237","target":"absent","response":"absent","rt":"2586.9000000004","correct":true,"confidence":5},{"trial_n":58,"span":9,"encoder":"252814776","distractor":"252814676","target":"present","response":"present","rt":"2908.6999999993","correct":true,"confidence":3},{"trial_n":59,"span":9,"encoder":"771297439","distractor":"771237439","target":"present","response":"present","rt":"3294.5","correct":true,"confidence":4},{"trial_n":60,"span":10,"encoder":"0097049335","distractor":"9097049335","target":"present","response":"present","rt":"4936.5","correct":true,"confidence":3},{"trial_n":61,"span":10,"encoder":"2180149669","distractor":"2180149639","target":"present","response":"present","rt":"2920.0999999996","correct":true,"confidence":5},{"trial_n":62,"span":11,"encoder":"80025848604","distractor":"80025848904","target":"absent","response":"absent","rt":"4866.5","correct":true,"confidence":5},{"trial_n":63,"span":11,"encoder":"00816562007","distractor":"00866562007","target":"absent","response":"present","rt":"3952.2999999989","correct":false,"confidence":3},{"trial_n":64,"span":10,"encoder":"8049760950","distractor":"8049760959","target":"present","response":"present","rt":"2430.8000000007","correct":true,"confidence":2},{"trial_n":65,"span":10,"encoder":"0554825019","distractor":"0554822019","target":"absent","response":"absent","rt":"3230.5","correct":true,"confidence":1},{"trial_n":66,"span":11,"encoder":"54686466558","distractor":"51686466558","target":"present","response":"present","rt":"3296.5999999996","correct":true,"confidence":3},{"trial_n":67,"span":11,"encoder":"09725492870","distractor":"09725492670","target":"present","response":"present","rt":"3884.0999999996","correct":true,"confidence":3},{"trial_n":68,"span":12,"encoder":"572179651645","distractor":"572179351645","target":"present","response":"present","rt":"5038.3999999985","correct":true,"confidence":1},{"trial_n":69,"span":12,"encoder":"188432690620","distractor":"188439690620","target":"present","response":"present","rt":"4330.2000000011","correct":true,"confidence":3},{"trial_n":70,"span":13,"encoder":"1171949794588","distractor":"1171941794588","target":"present","response":"present","rt":"6794.5","correct":true,"confidence":2},{"trial_n":71,"span":8,"encoder":"67673628","distractor":"66673628","target":"present","response":"present","rt":"6361.7000000011","correct":true,"confidence":-1},{"trial_n":72,"span":8,"encoder":"89313477","distractor":"89313467","target":"present","response":"present","rt":"3180.6999999993","correct":true,"confidence":-1},{"trial_n":73,"span":9,"encoder":"706343535","distractor":"006343535","target":"absent","response":"present","rt":"1232","correct":false,"confidence":-1},{"trial_n":74,"span":8,"encoder":"99327729","distractor":"99327929","target":"absent","response":"absent","rt":"3963.2000000011","correct":true,"confidence":-1},{"trial_n":75,"span":8,"encoder":"24853574","distractor":"24853524","target":"present","response":"present","rt":"6215","correct":true,"confidence":-1},{"trial_n":76,"span":9,"encoder":"784429083","distractor":"784429033","target":"absent","response":"present","rt":"401.80000000075","correct":false,"confidence":-1},{"trial_n":77,"span":8,"encoder":"72186681","distractor":"78186681","target":"absent","response":"present","rt":"3586.9000000004","correct":false,"confidence":-1},{"trial_n":78,"span":7,"encoder":"8124957","distractor":"8124357","target":"absent","response":"present","rt":"3030.5","correct":false,"confidence":-1},{"trial_n":79,"span":6,"encoder":"591842","distractor":"599842","target":"absent","response":"present","rt":"8734.9000000004","correct":false,"confidence":-1},{"trial_n":80,"span":5,"encoder":"33282","distractor":"53282","target":"absent","response":"present","rt":"5995.9000000004","correct":false,"confidence":-1},{"trial_n":81,"span":4,"encoder":"5680","distractor":"5600","target":"absent","response":"absent","rt":"224602.4","correct":true,"confidence":-1},{"trial_n":82,"span":4,"encoder":"7695","distractor":"7691","target":"present","response":"present","rt":"2028.1999999993","correct":true,"confidence":-1},{"trial_n":83,"span":5,"encoder":"57282","distractor":"57285","target":"present","response":"present","rt":"1451.4000000004","correct":true,"confidence":-1},{"trial_n":84,"span":5,"encoder":"09643","distractor":"09243","target":"present","response":"present","rt":"2663.3000000007","correct":true,"confidence":-1},{"trial_n":85,"span":6,"encoder":"398093","distractor":"378093","target":"present","response":"present","rt":"1747.1999999993","correct":true,"confidence":-1},{"trial_n":86,"span":6,"encoder":"198335","distractor":"398335","target":"present","response":"present","rt":"1336.3000000007","correct":true,"confidence":-1},{"trial_n":87,"span":7,"encoder":"5682041","distractor":"5182041","target":"absent","response":"present","rt":"4914.6999999993","correct":false,"confidence":-1},{"trial_n":88,"span":6,"encoder":"978498","distractor":"977498","target":"present","response":"absent","rt":"3353.0999999996","correct":false,"confidence":-1},{"trial_n":89,"span":5,"encoder":"38626","distractor":"58626","target":"absent","response":"absent","rt":"3201.5","correct":true,"confidence":-1},{"trial_n":90,"span":5,"encoder":"38380","distractor":"38350","target":"present","response":"present","rt":"2523.1000000015","correct":true,"confidence":-1},{"trial_n":91,"span":6,"encoder":"053783","distractor":"059783","target":"present","response":"present","rt":"2322.1999999993","correct":true,"confidence":4},{"trial_n":92,"span":6,"encoder":"084538","distractor":"084518","target":"present","response":"present","rt":"3682.9000000004","correct":true,"confidence":2},{"trial_n":93,"span":7,"encoder":"5139735","distractor":"5139745","target":"absent","response":"absent","rt":"3134.8000000007","correct":true,"confidence":5},{"trial_n":94,"span":7,"encoder":"1517150","distractor":"1517350","target":"absent","response":"absent","rt":"3790.1999999993","correct":true,"confidence":5},{"trial_n":95,"span":8,"encoder":"04450976","distractor":"04450975","target":"present","response":"present","rt":"4818.8999999985","correct":true,"confidence":5},{"trial_n":96,"span":8,"encoder":"25538114","distractor":"25539114","target":"absent","response":"absent","rt":"4045.7000000011","correct":true,"confidence":3},{"trial_n":97,"span":9,"encoder":"240130238","distractor":"220130238","target":"present","response":"present","rt":"3967.1999999993","correct":true,"confidence":3},{"trial_n":98,"span":9,"encoder":"233447768","distractor":"233447761","target":"present","response":"present","rt":"4276.6999999993","correct":true,"confidence":3},{"trial_n":99,"span":10,"encoder":"9454109641","distractor":"9654109641","target":"present","response":"present","rt":"7638.5999999996","correct":true,"confidence":2},{"trial_n":100,"span":10,"encoder":"2480562583","distractor":"2487562583","target":"present","response":"present","rt":"4177.4000000004","correct":true,"confidence":2},{"trial_n":101,"span":11,"encoder":"77231602140","distractor":"77231602440","target":"absent","response":"absent","rt":"2625.6999999993","correct":true,"confidence":5},{"trial_n":102,"span":11,"encoder":"75427897258","distractor":"75427697258","target":"present","response":"present","rt":"6458","correct":true,"confidence":2},{"trial_n":103,"span":12,"encoder":"713528524937","distractor":"713528524927","target":"absent","response":"absent","rt":"2311.3999999985","correct":true,"confidence":5},{"trial_n":104,"span":12,"encoder":"626613782615","distractor":"626613787615","target":"absent","response":"absent","rt":"4395.0999999996","correct":true,"confidence":5},{"trial_n":105,"span":13,"encoder":"9663390601041","distractor":"9663393601041","target":"absent","response":"absent","rt":"3471.6999999993","correct":true,"confidence":5},{"trial_n":106,"span":13,"encoder":"7284046773084","distractor":"7284046713084","target":"present","response":"present","rt":"6292.0999999996","correct":true,"confidence":5},{"trial_n":107,"span":14,"encoder":"69024810356023","distractor":"69024810366023","target":"absent","response":"absent","rt":"3557.7999999989","correct":true,"confidence":3},{"trial_n":108,"span":14,"encoder":"02021925314858","distractor":"02021905314858","target":"present","response":"present","rt":"8857.6000000015","correct":true,"confidence":2},{"trial_n":109,"span":15,"encoder":"200402344959411","distractor":"200402344659411","target":"absent","response":"absent","rt":"9369.9000000004","correct":true,"confidence":3},{"trial_n":110,"span":15,"encoder":"640054529982707","distractor":"660054529982707","target":"absent","response":"absent","rt":"4717.6999999993","correct":true,"confidence":2},{"trial_n":111,"span":16,"encoder":"1217312331337013","distractor":"1217382331337013","target":"absent","response":"absent","rt":"6900.1999999993","correct":true,"confidence":2},{"trial_n":112,"span":16,"encoder":"0392164886207140","distractor":"0392164886277140","target":"present","response":"present","rt":"786","correct":true,"confidence":2},{"trial_n":113,"span":17,"encoder":"94720387226744749","distractor":"94720387296744749","target":"present","response":"present","rt":"4869.3000000007","correct":true,"confidence":2},{"trial_n":114,"span":17,"encoder":"76204284766653445","distractor":"76214284766653445","target":"absent","response":"absent","rt":"6302.3000000007","correct":true,"confidence":3},{"trial_n":115,"span":18,"encoder":"533362931301083825","distractor":"533362991301083825","target":"absent","response":"absent","rt":"3686.8000000007","correct":true,"confidence":3},{"trial_n":116,"span":18,"encoder":"124769075010683284","distractor":"124769075010683984","target":"present","response":"absent","rt":"31339.199999999","correct":false,"confidence":3},{"trial_n":117,"span":17,"encoder":"77891790056990225","distractor":"72891790056990225","target":"present","response":"absent","rt":"4205","correct":false,"confidence":2},{"trial_n":118,"span":16,"encoder":"6751844543057413","distractor":"6751844543057416","target":"present","response":"absent","rt":"6707.8999999985","correct":false,"confidence":1},{"trial_n":119,"span":15,"encoder":"844605187380561","distractor":"840605187380561","target":"present","response":"present","rt":"92956.199999999","correct":true,"confidence":3},{"trial_n":120,"span":15,"encoder":"228620798327967","distractor":"228620791327967","target":"absent","response":"present","rt":"2187.2000000011","correct":false,"confidence":1},{"trial_n":121,"span":14,"encoder":"41850774694972","distractor":"41890774694972","target":"present","response":"present","rt":"3294.4000000004","correct":true,"confidence":1},{"trial_n":122,"span":14,"encoder":"10664026361649","distractor":"10664026361849","target":"present","response":"present","rt":"3467.1999999993","correct":true,"confidence":4},{"trial_n":123,"span":15,"encoder":"693176609859636","distractor":"693176609859635","target":"absent","response":"absent","rt":"10972.600000001","correct":true,"confidence":1},{"trial_n":124,"span":15,"encoder":"610460163019864","distractor":"619460163019864","target":"absent","response":"absent","rt":"6327.7999999989","correct":true,"confidence":3},{"trial_n":125,"span":16,"encoder":"7977430388213438","distractor":"7977430388213433","target":"present","response":"present","rt":"3132.7000000011","correct":true,"confidence":5},{"trial_n":126,"span":16,"encoder":"0137870894696186","distractor":"0137870894696286","target":"absent","response":"absent","rt":"4263.1999999993","correct":true,"confidence":3},{"trial_n":127,"span":17,"encoder":"78300226104114114","distractor":"78303226104114114","target":"absent","response":"absent","rt":"7509","correct":true,"confidence":2},{"trial_n":128,"span":17,"encoder":"38450726366583846","distractor":"38350726366583846","target":"absent","response":"absent","rt":"7932.7999999989","correct":true,"confidence":1},{"trial_n":129,"span":18,"encoder":"484580579865751979","distractor":"484570579865751979","target":"present","response":"present","rt":"5817.5","correct":true,"confidence":5},{"trial_n":130,"span":18,"encoder":"334608042626068748","distractor":"334608942626068748","target":"present","response":"present","rt":"9172.5","correct":true,"confidence":1},{"trial_n":131,"span":19,"encoder":"5493807184267777003","distractor":"5493907184267777003","target":"present","response":"present","rt":"8026.9000000004","correct":true,"confidence":2},{"trial_n":132,"span":19,"encoder":"6397790977671559453","distractor":"6297790977671559453","target":"present","response":"present","rt":"4619.7000000011","correct":true,"confidence":1},{"trial_n":133,"span":20,"encoder":"62173838250896427520","distractor":"62173830250896427520","target":"absent","response":"present","rt":"17494.5","correct":false,"confidence":2},{"trial_n":134,"span":19,"encoder":"9121999624547316098","distractor":"9121499624547316098","target":"absent","response":"present","rt":"5093.6999999993","correct":false,"confidence":1},{"trial_n":135,"span":18,"encoder":"439127689418492560","distractor":"439127689418492561","target":"present","response":"present","rt":"3564.3000000007","correct":true,"confidence":5},{"trial_n":136,"span":18,"encoder":"523475101240658116","distractor":"523475101240658166","target":"present","response":"present","rt":"7293.9000000004","correct":true,"confidence":1},{"trial_n":137,"span":19,"encoder":"5198037633645128334","distractor":"5198037633645028334","target":"absent","response":"absent","rt":"5650.3000000007","correct":true,"confidence":5},{"trial_n":138,"span":19,"encoder":"4158510318480784602","distractor":"4158516318480784602","target":"present","response":"absent","rt":"9740.9000000004","correct":false,"confidence":1},{"trial_n":139,"span":18,"encoder":"995359748919267830","distractor":"995353748919267830","target":"absent","response":"absent","rt":"6916.5999999996","correct":true,"confidence":1},{"trial_n":140,"span":18,"encoder":"051537778701125325","distractor":"051537778701125025","target":"absent","response":"absent","rt":"3093.1999999993","correct":true,"confidence":5}]