[{"trial_n":1,"span":8,"encoder":"24152753","distractor":"26152753","target":"present","response":"present","rt":"7826.8999999762","correct":true,"confidence":-1},{"trial_n":2,"span":8,"encoder":"12229168","distractor":"72229168","target":"present","response":"present","rt":"2720.9000000358","correct":true,"confidence":-1},{"trial_n":3,"span":10,"encoder":"1310061098","distractor":"1310081098","target":"absent","response":"absent","rt":"4054.8000000119","correct":true,"confidence":-1},{"trial_n":4,"span":10,"encoder":"5254567472","distractor":"5254517472","target":"absent","response":"absent","rt":"3938.3000000119","correct":true,"confidence":-1},{"trial_n":5,"span":12,"encoder":"118715804413","distractor":"118715802413","target":"present","response":"present","rt":"2582.8000000119","correct":true,"confidence":-1},{"trial_n":6,"span":12,"encoder":"773510496180","distractor":"773310496180","target":"present","response":"present","rt":"3855.1000000238","correct":true,"confidence":-1},{"trial_n":7,"span":14,"encoder":"04411250660590","distractor":"04411050660590","target":"present","response":"present","rt":"4185.3000000119","correct":true,"confidence":-1},{"trial_n":8,"span":14,"encoder":"21315556733158","distractor":"21315550733158","target":"absent","response":"present","rt":"2589.3999999762","correct":false,"confidence":-1},{"trial_n":9,"span":12,"encoder":"665382853583","distractor":"665389853583","target":"absent","response":"present","rt":"1589.8000000119","correct":false,"confidence":-1},{"trial_n":10,"span":10,"encoder":"2693308089","distractor":"2673308089","target":"present","response":"present","rt":"2977.6999999881","correct":true,"confidence":-1},{"trial_n":11,"span":10,"encoder":"8695761944","distractor":"3695761944","target":"present","response":"present","rt":"1728","correct":true,"confidence":-1},{"trial_n":12,"span":11,"encoder":"35947409390","distractor":"35947409395","target":"absent","response":"absent","rt":"2288.6999999881","correct":true,"confidence":-1},{"trial_n":13,"span":11,"encoder":"95058274436","distractor":"95058974436","target":"absent","response":"present","rt":"2068.0999999642","correct":false,"confidence":-1},{"trial_n":14,"span":10,"encoder":"7641452159","distractor":"7643452159","target":"present","response":"present","rt":"3422.8000000119","correct":true,"confidence":-1},{"trial_n":15,"span":10,"encoder":"5897069935","distractor":"5897069932","target":"present","response":"present","rt":"1529.3000000119","correct":true,"confidence":-1},{"trial_n":16,"span":11,"encoder":"85135118415","distractor":"85135119415","target":"absent","response":"present","rt":"8014.8000000119","correct":false,"confidence":-1},{"trial_n":17,"span":10,"encoder":"1734993256","distractor":"1734993286","target":"present","response":"present","rt":"1919.7999999523","correct":true,"confidence":-1},{"trial_n":18,"span":10,"encoder":"3078670451","distractor":"0078670451","target":"absent","response":"absent","rt":"2714.5","correct":true,"confidence":-1},{"trial_n":19,"span":11,"encoder":"95616215519","distractor":"95616212519","target":"present","response":"present","rt":"1958.5","correct":true,"confidence":-1},{"trial_n":20,"span":11,"encoder":"33431315055","distractor":"33431715055","target":"absent","response":"absent","rt":"3963.5","correct":true,"confidence":-1},{"trial_n":21,"span":12,"encoder":"253278154343","distractor":"243278154343","target":"absent","response":"present","rt":"1741.4000000358","correct":false,"confidence":2},{"trial_n":22,"span":11,"encoder":"63178869705","distractor":"63778869705","target":"absent","response":"absent","rt":"2779.8999999762","correct":true,"confidence":1},{"trial_n":23,"span":11,"encoder":"01521072566","distractor":"02521072566","target":"present","response":"present","rt":"1765.6000000238","correct":true,"confidence":1},{"trial_n":24,"span":12,"encoder":"280610569396","distractor":"280610169396","target":"present","response":"present","rt":"2170.3000000119","correct":true,"confidence":1},{"trial_n":25,"span":12,"encoder":"489828326320","distractor":"489828326325","target":"absent","response":"absent","rt":"1848.6999999881","correct":true,"confidence":4},{"trial_n":26,"span":13,"encoder":"5222261684798","distractor":"5222241684798","target":"absent","response":"absent","rt":"4576.5","correct":true,"confidence":1},{"trial_n":27,"span":13,"encoder":"4618803160376","distractor":"2618803160376","target":"present","response":"present","rt":"2118.5","correct":true,"confidence":1},{"trial_n":28,"span":14,"encoder":"09451207281456","distractor":"09451204281456","target":"present","response":"present","rt":"2535.5999999642","correct":true,"confidence":1},{"trial_n":29,"span":14,"encoder":"99665962490082","distractor":"99665969490082","target":"absent","response":"present","rt":"4266.6000000238","correct":false,"confidence":3},{"trial_n":30,"span":13,"encoder":"0141027364368","distractor":"0141027264368","target":"present","response":"present","rt":"6437.3000000119","correct":true,"confidence":3},{"trial_n":31,"span":13,"encoder":"5732811991068","distractor":"5732911991068","target":"present","response":"present","rt":"2587.8999999762","correct":true,"confidence":1},{"trial_n":32,"span":14,"encoder":"53536105618731","distractor":"93536105618731","target":"present","response":"present","rt":"2842.9000000358","correct":true,"confidence":1},{"trial_n":33,"span":14,"encoder":"74159314702720","distractor":"04159314702720","target":"present","response":"present","rt":"2715.7999999523","correct":true,"confidence":1},{"trial_n":34,"span":15,"encoder":"194909540639135","distractor":"194909580639135","target":"absent","response":"present","rt":"4111.7999999523","correct":false,"confidence":1},{"trial_n":35,"span":14,"encoder":"59346145531408","distractor":"59346145531308","target":"absent","response":"present","rt":"2299.9000000358","correct":false,"confidence":1},{"trial_n":36,"span":13,"encoder":"9543403416868","distractor":"9543403416888","target":"present","response":"present","rt":"4352.7999999523","correct":true,"confidence":1},{"trial_n":37,"span":13,"encoder":"9584578619849","distractor":"9584578619842","target":"present","response":"present","rt":"2117.1999999881","correct":true,"confidence":1},{"trial_n":38,"span":14,"encoder":"56039883163906","distractor":"86039883163906","target":"present","response":"absent","rt":"2873.1999999881","correct":false,"confidence":1},{"trial_n":39,"span":13,"encoder":"9908132929078","distractor":"9908132927078","target":"absent","response":"present","rt":"3849.5","correct":false,"confidence":1},{"trial_n":40,"span":12,"encoder":"312798895467","distractor":"342798895467","target":"present","response":"present","rt":"3099.3000000119","correct":true,"confidence":1},{"trial_n":41,"span":12,"encoder":"791655791560","distractor":"791655991560","target":"present","response":"absent","rt":"2872.2000000477","correct":false,"confidence":1},{"trial_n":42,"span":11,"encoder":"19972880382","distractor":"19972889382","target":"present","response":"present","rt":"2634.5","correct":true,"confidence":1},{"trial_n":43,"span":11,"encoder":"36486244644","distractor":"36486294644","target":"present","response":"present","rt":"2799.6000000238","correct":true,"confidence":1},{"trial_n":44,"span":12,"encoder":"568563584998","distractor":"568963584998","target":"absent","response":"present","rt":"1642.6000000238","correct":false,"confidence":1},{"trial_n":45,"span":11,"encoder":"38505701963","distractor":"38505701563","target":"absent","response":"present","rt":"2675.5","correct":false,"confidence":1},{"trial_n":46,"span":10,"encoder":"7664862507","distractor":"7665862507","target":"absent","response":"absent","rt":"2025","correct":true,"confidence":1},{"trial_n":47,"span":10,"encoder":"6683220731","distractor":"6689220731","target":"absent","response":"present","rt":"2436.3999999762","correct":false,"confidence":1},{"trial_n":48,"span":9,"encoder":"207546066","distractor":"205546066","target":"absent","response":"present","rt":"1949.3000000119","correct":false,"confidence":1},{"trial_n":49,"span":8,"encoder":"41826085","distractor":"41826485","target":"absent","response":"absent","rt":"1967","correct":true,"confidence":1},{"trial_n":50,"span":8,"encoder":"61130045","distractor":"61130845","target":"absent","response":"absent","rt":"2272.3000000119","correct":true,"confidence":1},{"trial_n":51,"span":9,"encoder":"699021199","distractor":"999021199","target":"present","response":"present","rt":"2812.5","correct":true,"confidence":1},{"trial_n":52,"span":9,"encoder":"411184179","distractor":"411182179","target":"absent","response":"present","rt":"2262.1999999881","correct":false,"confidence":1},{"trial_n":53,"span":8,"encoder":"63294255","distractor":"63214255","target":"present","response":"present","rt":"3398.5","correct":true,"confidence":3},{"trial_n":54,"span":8,"encoder":"00522252","distractor":"00520252","target":"absent","response":"absent","rt":"2305.5999999642","correct":true,"confidence":4},{"trial_n":55,"span":9,"encoder":"831334477","distractor":"831304477","target":"absent","response":"absent","rt":"2990.5","correct":true,"confidence":1},{"trial_n":56,"span":9,"encoder":"680387476","distractor":"640387476","target":"absent","response":"present","rt":"2068.2999999523","correct":false,"confidence":3},{"trial_n":57,"span":8,"encoder":"56726257","distractor":"57726257","target":"absent","response":"absent","rt":"2616.5","correct":true,"confidence":4},{"trial_n":58,"span":8,"encoder":"20526235","distractor":"20546235","target":"present","response":"present","rt":"3212.8000000119","correct":true,"confidence":3},{"trial_n":59,"span":9,"encoder":"728634624","distractor":"728664624","target":"present","response":"present","rt":"1864.5","correct":true,"confidence":2},{"trial_n":60,"span":9,"encoder":"950933326","distractor":"950933325","target":"present","response":"present","rt":"1498.9000000358","correct":true,"confidence":3},{"trial_n":61,"span":10,"encoder":"7603215374","distractor":"7603215174","target":"absent","response":"absent","rt":"2873.8999999762","correct":true,"confidence":1},{"trial_n":62,"span":10,"encoder":"7733011301","distractor":"7733011401","target":"present","response":"present","rt":"2619.8000000119","correct":true,"confidence":3},{"trial_n":63,"span":11,"encoder":"78689150503","distractor":"78689155503","target":"absent","response":"absent","rt":"2019.1999999881","correct":true,"confidence":1},{"trial_n":64,"span":11,"encoder":"07308597843","distractor":"07388597843","target":"present","response":"present","rt":"2167.3999999762","correct":true,"confidence":1},{"trial_n":65,"span":12,"encoder":"522255586286","distractor":"522245586286","target":"present","response":"present","rt":"2865.0999999642","correct":true,"confidence":3},{"trial_n":66,"span":12,"encoder":"385194576023","distractor":"385194572023","target":"absent","response":"present","rt":"1496.2000000477","correct":false,"confidence":1},{"trial_n":67,"span":11,"encoder":"90727669214","distractor":"90722669214","target":"absent","response":"absent","rt":"2653","correct":true,"confidence":2},{"trial_n":68,"span":11,"encoder":"99589996154","distractor":"99289996154","target":"absent","response":"present","rt":"5514.3000000119","correct":false,"confidence":1},{"trial_n":69,"span":10,"encoder":"0041243268","distractor":"0041243269","target":"present","response":"absent","rt":"2513.3000000119","correct":false,"confidence":1},{"trial_n":70,"span":9,"encoder":"766870512","distractor":"746870512","target":"present","response":"absent","rt":"3267.5","correct":false,"confidence":1},{"trial_n":71,"span":8,"encoder":"64207614","distractor":"64200614","target":"present","response":"present","rt":"3334.6999999881","correct":true,"confidence":-1},{"trial_n":72,"span":8,"encoder":"35259276","distractor":"35859276","target":"present","response":"present","rt":"2828.0999999642","correct":true,"confidence":-1},{"trial_n":73,"span":9,"encoder":"264675658","distractor":"260675658","target":"absent","response":"absent","rt":"3606","correct":true,"confidence":-1},{"trial_n":74,"span":9,"encoder":"207082115","distractor":"207082315","target":"absent","response":"absent","rt":"1505.8999999762","correct":true,"confidence":-1},{"trial_n":75,"span":10,"encoder":"1223496413","distractor":"1223496414","target":"present","response":"present","rt":"4577.9000000358","correct":true,"confidence":-1},{"trial_n":76,"span":10,"encoder":"9321264832","distractor":"9721264832","target":"absent","response":"present","rt":"4918","correct":false,"confidence":-1},{"trial_n":77,"span":9,"encoder":"674271487","distractor":"374271487","target":"absent","response":"present","rt":"3678.8000000119","correct":false,"confidence":-1},{"trial_n":78,"span":8,"encoder":"18560898","distractor":"18760898","target":"present","response":"present","rt":"4214.6000000238","correct":true,"confidence":-1},{"trial_n":79,"span":8,"encoder":"63675843","distractor":"68675843","target":"present","response":"absent","rt":"6612.6999999881","correct":false,"confidence":-1},{"trial_n":80,"span":7,"encoder":"1034526","distractor":"1034126","target":"present","response":"present","rt":"5118.3000000119","correct":true,"confidence":-1},{"trial_n":81,"span":7,"encoder":"2224489","distractor":"2220489","target":"present","response":"present","rt":"2529.1999999881","correct":true,"confidence":-1},{"trial_n":82,"span":8,"encoder":"94580103","distractor":"94480103","target":"absent","response":"absent","rt":"3135.5999999642","correct":true,"confidence":-1},{"trial_n":83,"span":8,"encoder":"83534935","distractor":"83534905","target":"present","response":"present","rt":"1807.9000000358","correct":true,"confidence":-1},{"trial_n":84,"span":9,"encoder":"049368418","distractor":"049367418","target":"present","response":"present","rt":"5462.0999999642","correct":true,"confidence":-1},{"trial_n":85,"span":9,"encoder":"973073821","distractor":"913073821","target":"absent","response":"absent","rt":"4422.6999999881","correct":true,"confidence":-1},{"trial_n":86,"span":10,"encoder":"9435904929","distractor":"9435904927","target":"present","response":"present","rt":"1167.3000000119","correct":true,"confidence":-1},{"trial_n":87,"span":10,"encoder":"1578148338","distractor":"1578148348","target":"absent","response":"absent","rt":"1478.4000000358","correct":true,"confidence":-1},{"trial_n":88,"span":11,"encoder":"80593708087","distractor":"87593708087","target":"absent","response":"absent","rt":"5412.3000000119","correct":true,"confidence":-1},{"trial_n":89,"span":11,"encoder":"33771433658","distractor":"33771434658","target":"absent","response":"absent","rt":"3077.1999999881","correct":true,"confidence":-1},{"trial_n":90,"span":12,"encoder":"390186821310","distractor":"390186825310","target":"present","response":"present","rt":"2830.5999999642","correct":true,"confidence":-1},{"trial_n":91,"span":12,"encoder":"490972105204","distractor":"490972104204","target":"absent","response":"present","rt":"3807.7999999523","correct":false,"confidence":1},{"trial_n":92,"span":11,"encoder":"46379617469","distractor":"46679617469","target":"present","response":"present","rt":"4419.7999999523","correct":true,"confidence":3},{"trial_n":93,"span":11,"encoder":"20064895026","distractor":"20074895026","target":"absent","response":"absent","rt":"7759.5","correct":true,"confidence":1},{"trial_n":94,"span":12,"encoder":"531182097691","distractor":"531582097691","target":"present","response":"absent","rt":"5295.3999999762","correct":false,"confidence":2},{"trial_n":95,"span":11,"encoder":"07402336205","distractor":"03402336205","target":"present","response":"present","rt":"6571.6999999881","correct":true,"confidence":2},{"trial_n":96,"span":11,"encoder":"76509693987","distractor":"76509693981","target":"absent","response":"absent","rt":"2291.5","correct":true,"confidence":4},{"trial_n":97,"span":12,"encoder":"710517251560","distractor":"310517251560","target":"present","response":"present","rt":"4320.3999999762","correct":true,"confidence":2},{"trial_n":98,"span":12,"encoder":"203540586640","distractor":"200540586640","target":"absent","response":"absent","rt":"3221.8000000119","correct":true,"confidence":2},{"trial_n":99,"span":13,"encoder":"9503318639354","distractor":"2503318639354","target":"present","response":"present","rt":"5364.1000000238","correct":true,"confidence":1},{"trial_n":100,"span":13,"encoder":"8037907263657","distractor":"8037907273657","target":"present","response":"present","rt":"6405.3999999762","correct":true,"confidence":1},{"trial_n":101,"span":14,"encoder":"02047154903095","distractor":"02007154903095","target":"absent","response":"absent","rt":"3306.3999999762","correct":true,"confidence":1},{"trial_n":102,"span":14,"encoder":"50699745397861","distractor":"50599745397861","target":"present","response":"present","rt":"5028","correct":true,"confidence":1},{"trial_n":103,"span":15,"encoder":"678261700180773","distractor":"678261200180773","target":"absent","response":"absent","rt":"16892.099999964","correct":true,"confidence":1},{"trial_n":104,"span":15,"encoder":"413668941581145","distractor":"213668941581145","target":"present","response":"present","rt":"7752.4000000358","correct":true,"confidence":4},{"trial_n":105,"span":16,"encoder":"8020345606257122","distractor":"8020345606257121","target":"present","response":"present","rt":"1808.9000000358","correct":true,"confidence":5},{"trial_n":106,"span":16,"encoder":"2368971002450751","distractor":"2368971002450951","target":"present","response":"present","rt":"2555.5999999642","correct":true,"confidence":5},{"trial_n":107,"span":17,"encoder":"32826182965434350","distractor":"32826182965436350","target":"present","response":"present","rt":"3171.8000000119","correct":true,"confidence":4},{"trial_n":108,"span":17,"encoder":"36609314276419701","distractor":"36609314076419701","target":"present","response":"present","rt":"8553.1000000238","correct":true,"confidence":3},{"trial_n":109,"span":18,"encoder":"047649917634931443","distractor":"047609917634931443","target":"present","response":"absent","rt":"9597.1999999881","correct":false,"confidence":1},{"trial_n":110,"span":17,"encoder":"04551905252601879","distractor":"04551905252601829","target":"absent","response":"absent","rt":"2343.9000000358","correct":true,"confidence":5},{"trial_n":111,"span":17,"encoder":"67114589130344507","distractor":"67114589130344500","target":"absent","response":"absent","rt":"1383.3999999762","correct":true,"confidence":5},{"trial_n":112,"span":18,"encoder":"285546705063297679","distractor":"285246705063297679","target":"absent","response":"absent","rt":"6426.3999999762","correct":true,"confidence":2},{"trial_n":113,"span":18,"encoder":"973515330655498205","distractor":"973515330659498205","target":"present","response":"present","rt":"8186.6000000238","correct":true,"confidence":3},{"trial_n":114,"span":19,"encoder":"7066704962462703107","distractor":"7066704962462703307","target":"absent","response":"absent","rt":"2217.9000000358","correct":true,"confidence":4},{"trial_n":115,"span":19,"encoder":"2023135733071221394","distractor":"5023135733071221394","target":"present","response":"present","rt":"8459.5","correct":true,"confidence":3},{"trial_n":116,"span":20,"encoder":"95739279277005242318","distractor":"95739279277055242318","target":"absent","response":"present","rt":"7772.8000000119","correct":false,"confidence":1},{"trial_n":117,"span":19,"encoder":"2906298701632951527","distractor":"2906298701634951527","target":"absent","response":"absent","rt":"4573.2999999523","correct":true,"confidence":3},{"trial_n":118,"span":19,"encoder":"2671568327520032578","distractor":"2071568327520032578","target":"present","response":"absent","rt":"6802.1000000238","correct":false,"confidence":2},{"trial_n":119,"span":18,"encoder":"273704763889879758","distractor":"273704769889879758","target":"absent","response":"present","rt":"10178.5","correct":false,"confidence":1},{"trial_n":120,"span":17,"encoder":"45209107591569643","distractor":"45209107592569643","target":"present","response":"absent","rt":"10880.699999988","correct":false,"confidence":2},{"trial_n":121,"span":16,"encoder":"5066712809612484","distractor":"7066712809612484","target":"absent","response":"absent","rt":"7405.4000000358","correct":true,"confidence":3},{"trial_n":122,"span":16,"encoder":"6968016419315610","distractor":"6968016419310610","target":"present","response":"absent","rt":"12704.899999976","correct":false,"confidence":1},{"trial_n":123,"span":15,"encoder":"748330660137781","distractor":"788330660137781","target":"absent","response":"absent","rt":"5592.6999999881","correct":true,"confidence":3},{"trial_n":124,"span":15,"encoder":"117730276151559","distractor":"117730276181559","target":"present","response":"present","rt":"3792.1000000238","correct":true,"confidence":4},{"trial_n":125,"span":16,"encoder":"0511471015429521","distractor":"0511471075429521","target":"absent","response":"absent","rt":"5666.5999999642","correct":true,"confidence":3},{"trial_n":126,"span":16,"encoder":"3525734469448388","distractor":"3525734469448348","target":"absent","response":"absent","rt":"1535.6000000238","correct":true,"confidence":5},{"trial_n":127,"span":17,"encoder":"64778840213154886","distractor":"64778840113154886","target":"absent","response":"absent","rt":"6020.1000000238","correct":true,"confidence":5},{"trial_n":128,"span":17,"encoder":"15374105161975219","distractor":"15374195161975219","target":"absent","response":"present","rt":"7138.1999999881","correct":false,"confidence":1},{"trial_n":129,"span":16,"encoder":"3468573146800201","distractor":"3468973146800201","target":"present","response":"absent","rt":"12228.599999964","correct":false,"confidence":1},{"trial_n":130,"span":15,"encoder":"024266156163898","distractor":"024266156663898","target":"absent","response":"absent","rt":"9266.5999999642","correct":true,"confidence":3},{"trial_n":131,"span":15,"encoder":"663918530839056","distractor":"663918530639056","target":"absent","response":"absent","rt":"7096.5","correct":true,"confidence":2},{"trial_n":132,"span":16,"encoder":"5327723848295100","distractor":"5327723848195100","target":"present","response":"present","rt":"6136.3999999762","correct":true,"confidence":1},{"trial_n":133,"span":16,"encoder":"6034160498734089","distractor":"6034160398734089","target":"absent","response":"absent","rt":"10910.800000012","correct":true,"confidence":1},{"trial_n":134,"span":17,"encoder":"64568702258592148","distractor":"64568702258792148","target":"absent","response":"absent","rt":"9365.3000000119","correct":true,"confidence":4},{"trial_n":135,"span":17,"encoder":"89107704370632886","distractor":"89107704370632856","target":"absent","response":"absent","rt":"2108.6000000238","correct":true,"confidence":5},{"trial_n":136,"span":18,"encoder":"805990823407651285","distractor":"805990823407251285","target":"absent","response":"absent","rt":"8395.1000000238","correct":true,"confidence":1},{"trial_n":137,"span":18,"encoder":"234061048078045397","distractor":"234061048078045597","target":"present","response":"present","rt":"2345.9000000358","correct":true,"confidence":5},{"trial_n":138,"span":19,"encoder":"6919048966143569913","distractor":"6919048966143539913","target":"present","response":"present","rt":"8537","correct":true,"confidence":1},{"trial_n":139,"span":19,"encoder":"8261283370234897394","distractor":"8261288370234897394","target":"present","response":"absent","rt":"7614.7999999523","correct":false,"confidence":1},{"trial_n":140,"span":18,"encoder":"263107892790555004","distractor":"263107892790525004","target":"present","response":"present","rt":"2787.8000000119","correct":true,"confidence":5}]