[{"trial_n":1,"span":8,"encoder":"39271022","distractor":"39201022","target":"present","response":"present","rt":"4698.7000000477","correct":true,"confidence":-1},{"trial_n":2,"span":8,"encoder":"12824873","distractor":"12324873","target":"present","response":"absent","rt":"3447.3999998569","correct":false,"confidence":-1},{"trial_n":3,"span":6,"encoder":"383946","distractor":"380946","target":"absent","response":"present","rt":"1208","correct":false,"confidence":-1},{"trial_n":4,"span":4,"encoder":"9114","distractor":"9314","target":"absent","response":"absent","rt":"1557.5","correct":true,"confidence":-1},{"trial_n":5,"span":4,"encoder":"6316","distractor":"2316","target":"present","response":"present","rt":"963.19999980927","correct":true,"confidence":-1},{"trial_n":6,"span":6,"encoder":"980137","distractor":"980147","target":"absent","response":"absent","rt":"2395.5","correct":true,"confidence":-1},{"trial_n":7,"span":6,"encoder":"283637","distractor":"283537","target":"present","response":"present","rt":"921.40000009537","correct":true,"confidence":-1},{"trial_n":8,"span":8,"encoder":"53590411","distractor":"63590411","target":"absent","response":"present","rt":"900.19999980927","correct":false,"confidence":-1},{"trial_n":9,"span":6,"encoder":"710955","distractor":"710952","target":"absent","response":"absent","rt":"1815.9000000954","correct":true,"confidence":-1},{"trial_n":10,"span":6,"encoder":"596632","distractor":"595632","target":"present","response":"present","rt":"1319.9000000954","correct":true,"confidence":-1},{"trial_n":11,"span":8,"encoder":"25794271","distractor":"25394271","target":"present","response":"present","rt":"1350.7999999523","correct":true,"confidence":-1},{"trial_n":12,"span":8,"encoder":"69928585","distractor":"69528585","target":"absent","response":"present","rt":"1309.2999999523","correct":false,"confidence":-1},{"trial_n":13,"span":7,"encoder":"5962376","distractor":"5962378","target":"absent","response":"absent","rt":"1003.1000001431","correct":true,"confidence":-1},{"trial_n":14,"span":7,"encoder":"4397552","distractor":"4397559","target":"present","response":"present","rt":"1334","correct":true,"confidence":-1},{"trial_n":15,"span":8,"encoder":"09046645","distractor":"09046615","target":"present","response":"absent","rt":"1680.7999999523","correct":false,"confidence":-1},{"trial_n":16,"span":7,"encoder":"4287960","distractor":"4280960","target":"absent","response":"present","rt":"752.40000009537","correct":false,"confidence":-1},{"trial_n":17,"span":6,"encoder":"840863","distractor":"840860","target":"absent","response":"absent","rt":"1221.7999999523","correct":true,"confidence":-1},{"trial_n":18,"span":6,"encoder":"959203","distractor":"951203","target":"absent","response":"present","rt":"782.59999990463","correct":false,"confidence":-1},{"trial_n":19,"span":5,"encoder":"19976","distractor":"19978","target":"present","response":"present","rt":"1319.4000000954","correct":true,"confidence":-1},{"trial_n":20,"span":5,"encoder":"86138","distractor":"86134","target":"absent","response":"absent","rt":"1154.7000000477","correct":true,"confidence":-1},{"trial_n":21,"span":6,"encoder":"953019","distractor":"653019","target":"present","response":"present","rt":"1841","correct":true,"confidence":4},{"trial_n":22,"span":6,"encoder":"000417","distractor":"000717","target":"absent","response":"absent","rt":"1379.5999999046","correct":true,"confidence":5},{"trial_n":23,"span":7,"encoder":"9133985","distractor":"9113985","target":"present","response":"present","rt":"1156.5","correct":true,"confidence":3},{"trial_n":24,"span":7,"encoder":"5878269","distractor":"5878969","target":"absent","response":"present","rt":"1175.2000000477","correct":false,"confidence":2},{"trial_n":25,"span":6,"encoder":"167811","distractor":"167911","target":"absent","response":"present","rt":"1218.9000000954","correct":false,"confidence":1},{"trial_n":26,"span":5,"encoder":"35969","distractor":"35962","target":"present","response":"present","rt":"1668.0999999046","correct":true,"confidence":4},{"trial_n":27,"span":5,"encoder":"60446","distractor":"60476","target":"absent","response":"absent","rt":"1299.2999999523","correct":true,"confidence":5},{"trial_n":28,"span":6,"encoder":"546826","distractor":"546886","target":"absent","response":"absent","rt":"2348.7999999523","correct":true,"confidence":5},{"trial_n":29,"span":6,"encoder":"939933","distractor":"939923","target":"present","response":"present","rt":"2447.6000001431","correct":true,"confidence":3},{"trial_n":30,"span":7,"encoder":"2308444","distractor":"2302444","target":"present","response":"present","rt":"1340.4000000954","correct":true,"confidence":3},{"trial_n":31,"span":7,"encoder":"4088571","distractor":"4088071","target":"absent","response":"present","rt":"1687.9000000954","correct":false,"confidence":1},{"trial_n":32,"span":6,"encoder":"904161","distractor":"604161","target":"absent","response":"present","rt":"1334.6999998093","correct":false,"confidence":4},{"trial_n":33,"span":5,"encoder":"42759","distractor":"48759","target":"present","response":"absent","rt":"1344.2000000477","correct":false,"confidence":4},{"trial_n":34,"span":4,"encoder":"1417","distractor":"2417","target":"present","response":"present","rt":"1012.3999998569","correct":true,"confidence":3},{"trial_n":35,"span":4,"encoder":"0145","distractor":"0141","target":"present","response":"present","rt":"1295.5999999046","correct":true,"confidence":4},{"trial_n":36,"span":5,"encoder":"62829","distractor":"62820","target":"absent","response":"absent","rt":"1211.4000000954","correct":true,"confidence":5},{"trial_n":37,"span":5,"encoder":"69097","distractor":"69697","target":"absent","response":"absent","rt":"3512.3999998569","correct":true,"confidence":3},{"trial_n":38,"span":6,"encoder":"420738","distractor":"420728","target":"present","response":"present","rt":"848.90000009537","correct":true,"confidence":4},{"trial_n":39,"span":6,"encoder":"641961","distractor":"646961","target":"present","response":"present","rt":"962.39999985695","correct":true,"confidence":5},{"trial_n":40,"span":7,"encoder":"8605865","distractor":"8605895","target":"absent","response":"present","rt":"999.29999995232","correct":false,"confidence":4},{"trial_n":41,"span":6,"encoder":"662439","distractor":"642439","target":"present","response":"present","rt":"1453.5","correct":true,"confidence":1},{"trial_n":42,"span":6,"encoder":"688350","distractor":"388350","target":"present","response":"present","rt":"951.09999990463","correct":true,"confidence":5},{"trial_n":43,"span":7,"encoder":"9156248","distractor":"3156248","target":"present","response":"present","rt":"820.69999980927","correct":true,"confidence":3},{"trial_n":44,"span":7,"encoder":"1572105","distractor":"1502105","target":"present","response":"present","rt":"829.09999990463","correct":true,"confidence":4},{"trial_n":45,"span":8,"encoder":"55728664","distractor":"55724664","target":"present","response":"present","rt":"1018.2999999523","correct":true,"confidence":3},{"trial_n":46,"span":8,"encoder":"56209226","distractor":"56239226","target":"present","response":"present","rt":"3282.5999999046","correct":true,"confidence":1},{"trial_n":47,"span":9,"encoder":"220787455","distractor":"220789455","target":"present","response":"present","rt":"1462.6999998093","correct":true,"confidence":1},{"trial_n":48,"span":9,"encoder":"634021797","distractor":"634021757","target":"absent","response":"absent","rt":"1049.5999999046","correct":true,"confidence":5},{"trial_n":49,"span":10,"encoder":"0013445887","distractor":"0013345887","target":"absent","response":"present","rt":"1339.0999999046","correct":false,"confidence":4},{"trial_n":50,"span":9,"encoder":"775788213","distractor":"795788213","target":"present","response":"absent","rt":"630.79999995232","correct":false,"confidence":1},{"trial_n":51,"span":8,"encoder":"88676683","distractor":"88626683","target":"absent","response":"present","rt":"787","correct":false,"confidence":4},{"trial_n":52,"span":7,"encoder":"0563064","distractor":"0563024","target":"present","response":"present","rt":"1368","correct":true,"confidence":1},{"trial_n":53,"span":7,"encoder":"6642939","distractor":"6642931","target":"present","response":"present","rt":"1228.5","correct":true,"confidence":5},{"trial_n":54,"span":8,"encoder":"09144278","distractor":"09144248","target":"absent","response":"present","rt":"1850.2000000477","correct":false,"confidence":2},{"trial_n":55,"span":7,"encoder":"4321672","distractor":"4321678","target":"absent","response":"absent","rt":"1329.2000000477","correct":true,"confidence":5},{"trial_n":56,"span":7,"encoder":"9350433","distractor":"9350434","target":"absent","response":"absent","rt":"1487.9000000954","correct":true,"confidence":5},{"trial_n":57,"span":8,"encoder":"17516504","distractor":"17516508","target":"absent","response":"present","rt":"667.20000004768","correct":false,"confidence":1},{"trial_n":58,"span":7,"encoder":"2444344","distractor":"2444341","target":"present","response":"present","rt":"1467.5","correct":true,"confidence":2},{"trial_n":59,"span":7,"encoder":"9411491","distractor":"9411471","target":"present","response":"present","rt":"953.5","correct":true,"confidence":3},{"trial_n":60,"span":8,"encoder":"79295371","distractor":"79295377","target":"present","response":"present","rt":"1070.3000001907","correct":true,"confidence":3},{"trial_n":61,"span":8,"encoder":"81870083","distractor":"84870083","target":"present","response":"present","rt":"713.09999990463","correct":true,"confidence":4},{"trial_n":62,"span":9,"encoder":"402661896","distractor":"402361896","target":"absent","response":"present","rt":"1013","correct":false,"confidence":3},{"trial_n":63,"span":8,"encoder":"11923603","distractor":"11923903","target":"present","response":"present","rt":"795.80000019073","correct":true,"confidence":4},{"trial_n":64,"span":8,"encoder":"31123158","distractor":"31120158","target":"absent","response":"present","rt":"1047.0999999046","correct":false,"confidence":4},{"trial_n":65,"span":7,"encoder":"2258516","distractor":"2258510","target":"present","response":"present","rt":"937.59999990463","correct":true,"confidence":4},{"trial_n":66,"span":7,"encoder":"8302684","distractor":"8202684","target":"present","response":"present","rt":"737.59999990463","correct":true,"confidence":4},{"trial_n":67,"span":8,"encoder":"22496920","distractor":"22496720","target":"absent","response":"present","rt":"1019.8999998569","correct":false,"confidence":3},{"trial_n":68,"span":7,"encoder":"7981361","distractor":"7281361","target":"absent","response":"present","rt":"1339.5","correct":false,"confidence":1},{"trial_n":69,"span":6,"encoder":"480394","distractor":"480344","target":"absent","response":"present","rt":"895.70000004768","correct":false,"confidence":1},{"trial_n":70,"span":5,"encoder":"59479","distractor":"79479","target":"absent","response":"present","rt":"903.40000009537","correct":false,"confidence":4},{"trial_n":71,"span":8,"encoder":"24065455","distractor":"24065452","target":"present","response":"absent","rt":"3620.8999998569","correct":false,"confidence":-1},{"trial_n":72,"span":7,"encoder":"2900017","distractor":"2600017","target":"present","response":"present","rt":"2981.5","correct":true,"confidence":-1},{"trial_n":73,"span":7,"encoder":"3359693","distractor":"3359793","target":"absent","response":"present","rt":"1804.2000000477","correct":false,"confidence":-1},{"trial_n":74,"span":6,"encoder":"453964","distractor":"453924","target":"absent","response":"absent","rt":"2070.2999999523","correct":true,"confidence":-1},{"trial_n":75,"span":6,"encoder":"636583","distractor":"936583","target":"present","response":"present","rt":"952.39999985695","correct":true,"confidence":-1},{"trial_n":76,"span":7,"encoder":"0833771","distractor":"1833771","target":"absent","response":"present","rt":"1040","correct":false,"confidence":-1},{"trial_n":77,"span":6,"encoder":"632838","distractor":"632538","target":"absent","response":"absent","rt":"1206","correct":true,"confidence":-1},{"trial_n":78,"span":6,"encoder":"304147","distractor":"304107","target":"absent","response":"absent","rt":"900.89999985695","correct":true,"confidence":-1},{"trial_n":79,"span":7,"encoder":"3692801","distractor":"3696801","target":"present","response":"absent","rt":"1237.7999999523","correct":false,"confidence":-1},{"trial_n":80,"span":6,"encoder":"017809","distractor":"017803","target":"absent","response":"present","rt":"869","correct":false,"confidence":-1},{"trial_n":81,"span":5,"encoder":"20750","distractor":"20650","target":"present","response":"present","rt":"1161","correct":true,"confidence":-1},{"trial_n":82,"span":5,"encoder":"68406","distractor":"68402","target":"absent","response":"present","rt":"913.09999990463","correct":false,"confidence":-1},{"trial_n":83,"span":4,"encoder":"7022","distractor":"7029","target":"present","response":"present","rt":"941.20000004768","correct":true,"confidence":-1},{"trial_n":84,"span":4,"encoder":"0961","distractor":"2961","target":"absent","response":"present","rt":"812.5","correct":false,"confidence":-1},{"trial_n":85,"span":3,"encoder":"073","distractor":"773","target":"absent","response":"present","rt":"1073.0999999046","correct":false,"confidence":-1},{"trial_n":86,"span":2,"encoder":"61","distractor":"66","target":"present","response":"present","rt":"816.79999995232","correct":true,"confidence":-1},{"trial_n":87,"span":2,"encoder":"10","distractor":"12","target":"present","response":"present","rt":"773.40000009537","correct":true,"confidence":-1},{"trial_n":88,"span":3,"encoder":"893","distractor":"873","target":"present","response":"present","rt":"732.70000004768","correct":true,"confidence":-1},{"trial_n":89,"span":3,"encoder":"449","distractor":"439","target":"absent","response":"absent","rt":"1007","correct":true,"confidence":-1},{"trial_n":90,"span":4,"encoder":"5357","distractor":"5358","target":"absent","response":"absent","rt":"1520.7999999523","correct":true,"confidence":-1},{"trial_n":91,"span":4,"encoder":"2922","distractor":"2992","target":"present","response":"present","rt":"990.79999995232","correct":true,"confidence":4},{"trial_n":92,"span":5,"encoder":"70684","distractor":"72684","target":"present","response":"present","rt":"1485.1999998093","correct":true,"confidence":4},{"trial_n":93,"span":5,"encoder":"78004","distractor":"28004","target":"absent","response":"absent","rt":"979.19999980927","correct":true,"confidence":5},{"trial_n":94,"span":6,"encoder":"034237","distractor":"034239","target":"present","response":"present","rt":"1570.7999999523","correct":true,"confidence":4},{"trial_n":95,"span":6,"encoder":"004449","distractor":"084449","target":"absent","response":"absent","rt":"913.29999995232","correct":true,"confidence":4},{"trial_n":96,"span":7,"encoder":"8971494","distractor":"8971194","target":"present","response":"present","rt":"1620.5999999046","correct":true,"confidence":4},{"trial_n":97,"span":7,"encoder":"1377721","distractor":"1377726","target":"absent","response":"absent","rt":"1504.0999999046","correct":true,"confidence":5},{"trial_n":98,"span":8,"encoder":"14704805","distractor":"14304805","target":"present","response":"absent","rt":"909","correct":false,"confidence":1},{"trial_n":99,"span":7,"encoder":"4467965","distractor":"4467955","target":"absent","response":"absent","rt":"1103.5","correct":true,"confidence":4},{"trial_n":100,"span":7,"encoder":"9469900","distractor":"2469900","target":"absent","response":"absent","rt":"1064.5999999046","correct":true,"confidence":1},{"trial_n":101,"span":8,"encoder":"36044966","distractor":"36046966","target":"absent","response":"absent","rt":"994.20000004768","correct":true,"confidence":1},{"trial_n":102,"span":8,"encoder":"91195788","distractor":"81195788","target":"present","response":"present","rt":"1663.5","correct":true,"confidence":3},{"trial_n":103,"span":9,"encoder":"187149382","distractor":"187141382","target":"present","response":"absent","rt":"1364.0999999046","correct":false,"confidence":1},{"trial_n":104,"span":8,"encoder":"39289351","distractor":"39489351","target":"present","response":"present","rt":"1187.2999999523","correct":true,"confidence":1},{"trial_n":105,"span":8,"encoder":"30957653","distractor":"30957053","target":"present","response":"absent","rt":"1119.1999998093","correct":false,"confidence":1},{"trial_n":106,"span":7,"encoder":"1107786","distractor":"7107786","target":"present","response":"present","rt":"1349.2999999523","correct":true,"confidence":4},{"trial_n":107,"span":7,"encoder":"4829104","distractor":"4829100","target":"present","response":"absent","rt":"2190.7000000477","correct":false,"confidence":1},{"trial_n":108,"span":6,"encoder":"554077","distractor":"554097","target":"present","response":"present","rt":"1426.7999999523","correct":true,"confidence":1},{"trial_n":109,"span":6,"encoder":"361794","distractor":"321794","target":"absent","response":"absent","rt":"870.90000009537","correct":true,"confidence":1},{"trial_n":110,"span":7,"encoder":"8219798","distractor":"8719798","target":"absent","response":"present","rt":"936.89999985695","correct":false,"confidence":3},{"trial_n":111,"span":6,"encoder":"521031","distractor":"521731","target":"absent","response":"present","rt":"1070.0999999046","correct":false,"confidence":1},{"trial_n":112,"span":5,"encoder":"18387","distractor":"16387","target":"present","response":"absent","rt":"1429.1000001431","correct":false,"confidence":3},{"trial_n":113,"span":4,"encoder":"8856","distractor":"8855","target":"present","response":"present","rt":"1196.8000001907","correct":true,"confidence":3},{"trial_n":114,"span":4,"encoder":"7502","distractor":"7542","target":"present","response":"present","rt":"924.29999995232","correct":true,"confidence":3},{"trial_n":115,"span":5,"encoder":"91268","distractor":"91468","target":"absent","response":"present","rt":"743.5","correct":false,"confidence":3},{"trial_n":116,"span":4,"encoder":"0363","distractor":"0361","target":"absent","response":"absent","rt":"1162.3000001907","correct":true,"confidence":4},{"trial_n":117,"span":4,"encoder":"3398","distractor":"3898","target":"present","response":"present","rt":"1312.2000000477","correct":true,"confidence":3},{"trial_n":118,"span":5,"encoder":"13253","distractor":"13273","target":"present","response":"present","rt":"861.79999995232","correct":true,"confidence":3},{"trial_n":119,"span":5,"encoder":"05381","distractor":"05383","target":"absent","response":"absent","rt":"982.89999985695","correct":true,"confidence":4},{"trial_n":120,"span":6,"encoder":"769992","distractor":"769995","target":"present","response":"present","rt":"754.29999995232","correct":true,"confidence":3},{"trial_n":121,"span":6,"encoder":"426769","distractor":"426669","target":"absent","response":"absent","rt":"887.5","correct":true,"confidence":3},{"trial_n":122,"span":7,"encoder":"7437474","distractor":"7434474","target":"absent","response":"present","rt":"685","correct":false,"confidence":2},{"trial_n":123,"span":6,"encoder":"568575","distractor":"568075","target":"present","response":"absent","rt":"3290.5","correct":false,"confidence":1},{"trial_n":124,"span":5,"encoder":"76225","distractor":"76295","target":"absent","response":"absent","rt":"1309.7000000477","correct":true,"confidence":3},{"trial_n":125,"span":5,"encoder":"78297","distractor":"18297","target":"absent","response":"absent","rt":"1505.6999998093","correct":true,"confidence":4},{"trial_n":126,"span":6,"encoder":"584814","distractor":"884814","target":"present","response":"present","rt":"779.09999990463","correct":true,"confidence":3},{"trial_n":127,"span":6,"encoder":"313347","distractor":"313345","target":"absent","response":"absent","rt":"660","correct":true,"confidence":1},{"trial_n":128,"span":7,"encoder":"5759145","distractor":"5759245","target":"absent","response":"absent","rt":"626.69999980927","correct":true,"confidence":1},{"trial_n":129,"span":7,"encoder":"1542923","distractor":"1542933","target":"absent","response":"absent","rt":"1203.5999999046","correct":true,"confidence":4},{"trial_n":130,"span":8,"encoder":"59418701","distractor":"56418701","target":"present","response":"present","rt":"965.5","correct":true,"confidence":1},{"trial_n":131,"span":8,"encoder":"21443627","distractor":"21403627","target":"present","response":"absent","rt":"622.5","correct":false,"confidence":1},{"trial_n":132,"span":7,"encoder":"4489721","distractor":"4989721","target":"present","response":"present","rt":"854.10000014305","correct":true,"confidence":1},{"trial_n":133,"span":7,"encoder":"6435584","distractor":"6535584","target":"absent","response":"absent","rt":"787.5","correct":true,"confidence":1},{"trial_n":134,"span":8,"encoder":"83343329","distractor":"83347329","target":"absent","response":"absent","rt":"1562.3999998569","correct":true,"confidence":4},{"trial_n":135,"span":8,"encoder":"46214216","distractor":"46014216","target":"present","response":"present","rt":"3353.7999999523","correct":true,"confidence":3},{"trial_n":136,"span":9,"encoder":"672999634","distractor":"672699634","target":"present","response":"absent","rt":"1333.5","correct":false,"confidence":1},{"trial_n":137,"span":8,"encoder":"51249915","distractor":"51243915","target":"absent","response":"absent","rt":"762.60000014305","correct":true,"confidence":1},{"trial_n":138,"span":8,"encoder":"19433697","distractor":"19433607","target":"absent","response":"absent","rt":"769.20000004768","correct":true,"confidence":1},{"trial_n":139,"span":9,"encoder":"210760890","distractor":"210730890","target":"present","response":"absent","rt":"913.09999990463","correct":false,"confidence":4},{"trial_n":140,"span":8,"encoder":"81686235","distractor":"81616235","target":"present","response":"present","rt":"767.29999995232","correct":true,"confidence":1}]