[{"trial_n":1,"span":8,"encoder":"81637780","distractor":"81677780","target":"present","response":"present","rt":"4549.3999999999","correct":true,"confidence":-1},{"trial_n":2,"span":8,"encoder":"68101831","distractor":"65101831","target":"present","response":"absent","rt":"3601.2000000002","correct":false,"confidence":-1},{"trial_n":3,"span":6,"encoder":"205599","distractor":"207599","target":"absent","response":"absent","rt":"2249.7999999998","correct":true,"confidence":-1},{"trial_n":4,"span":6,"encoder":"978651","distractor":"918651","target":"absent","response":"absent","rt":"4485.6000000001","correct":true,"confidence":-1},{"trial_n":5,"span":8,"encoder":"03163894","distractor":"03163804","target":"present","response":"absent","rt":"2021.2999999998","correct":false,"confidence":-1},{"trial_n":6,"span":6,"encoder":"811251","distractor":"811255","target":"present","response":"present","rt":"2231.9000000004","correct":true,"confidence":-1},{"trial_n":7,"span":6,"encoder":"075298","distractor":"075598","target":"present","response":"present","rt":"2389","correct":true,"confidence":-1},{"trial_n":8,"span":8,"encoder":"02867363","distractor":"02867361","target":"absent","response":"absent","rt":"1871.0999999996","correct":true,"confidence":-1},{"trial_n":9,"span":8,"encoder":"99812099","distractor":"99882099","target":"present","response":"present","rt":"2333.7000000002","correct":true,"confidence":-1},{"trial_n":10,"span":10,"encoder":"4310482988","distractor":"4310412988","target":"present","response":"present","rt":"2057.5","correct":true,"confidence":-1},{"trial_n":11,"span":10,"encoder":"2486287196","distractor":"2486287096","target":"present","response":"present","rt":"1861.1000000001","correct":true,"confidence":-1},{"trial_n":12,"span":11,"encoder":"89044255885","distractor":"89024255885","target":"absent","response":"present","rt":"1490.7000000002","correct":false,"confidence":-1},{"trial_n":13,"span":10,"encoder":"9187607457","distractor":"9137607457","target":"present","response":"present","rt":"1084.4000000004","correct":true,"confidence":-1},{"trial_n":14,"span":10,"encoder":"8009021583","distractor":"1009021583","target":"absent","response":"present","rt":"1607.3000000003","correct":false,"confidence":-1},{"trial_n":15,"span":9,"encoder":"987208086","distractor":"987208083","target":"absent","response":"absent","rt":"1509.6000000001","correct":true,"confidence":-1},{"trial_n":16,"span":9,"encoder":"133959366","distractor":"133459366","target":"present","response":"present","rt":"1635.8999999999","correct":true,"confidence":-1},{"trial_n":17,"span":10,"encoder":"0932959961","distractor":"4932959961","target":"present","response":"present","rt":"1327.8000000003","correct":true,"confidence":-1},{"trial_n":18,"span":10,"encoder":"7342230899","distractor":"7342237899","target":"absent","response":"present","rt":"1597.6000000001","correct":false,"confidence":-1},{"trial_n":19,"span":9,"encoder":"394001570","distractor":"364001570","target":"present","response":"absent","rt":"1483.2999999998","correct":false,"confidence":-1},{"trial_n":20,"span":8,"encoder":"47376279","distractor":"17376279","target":"absent","response":"present","rt":"2864.8000000003","correct":false,"confidence":-1},{"trial_n":21,"span":7,"encoder":"7862211","distractor":"7062211","target":"absent","response":"present","rt":"2127.1000000001","correct":false,"confidence":4},{"trial_n":22,"span":6,"encoder":"515399","distractor":"595399","target":"absent","response":"present","rt":"3620","correct":false,"confidence":4},{"trial_n":23,"span":5,"encoder":"31638","distractor":"31637","target":"present","response":"present","rt":"2240.6999999997","correct":true,"confidence":5},{"trial_n":24,"span":5,"encoder":"36878","distractor":"36848","target":"absent","response":"absent","rt":"1651","correct":true,"confidence":5},{"trial_n":25,"span":6,"encoder":"461667","distractor":"461607","target":"absent","response":"absent","rt":"1398.0999999996","correct":true,"confidence":5},{"trial_n":26,"span":6,"encoder":"204698","distractor":"204696","target":"present","response":"present","rt":"2006.7000000002","correct":true,"confidence":5},{"trial_n":27,"span":7,"encoder":"1880810","distractor":"1880610","target":"present","response":"present","rt":"1574.6999999997","correct":true,"confidence":4},{"trial_n":28,"span":7,"encoder":"7141477","distractor":"7141577","target":"present","response":"present","rt":"1956.6000000001","correct":true,"confidence":4},{"trial_n":29,"span":8,"encoder":"01650793","distractor":"41650793","target":"present","response":"absent","rt":"3016.7999999998","correct":false,"confidence":4},{"trial_n":30,"span":7,"encoder":"1827925","distractor":"1827924","target":"absent","response":"present","rt":"1934.8999999999","correct":false,"confidence":3},{"trial_n":31,"span":6,"encoder":"615735","distractor":"615435","target":"absent","response":"absent","rt":"2238.5","correct":true,"confidence":5},{"trial_n":32,"span":6,"encoder":"709529","distractor":"709509","target":"absent","response":"absent","rt":"3280.8999999994","correct":true,"confidence":4},{"trial_n":33,"span":7,"encoder":"3235133","distractor":"3230133","target":"absent","response":"absent","rt":"1898.4000000004","correct":true,"confidence":5},{"trial_n":34,"span":7,"encoder":"2309553","distractor":"2309557","target":"present","response":"present","rt":"1680.8000000007","correct":true,"confidence":4},{"trial_n":35,"span":8,"encoder":"14184044","distractor":"14684044","target":"present","response":"present","rt":"1939.2000000002","correct":true,"confidence":5},{"trial_n":36,"span":8,"encoder":"31193109","distractor":"36193109","target":"absent","response":"absent","rt":"1900.3000000007","correct":true,"confidence":5},{"trial_n":37,"span":9,"encoder":"571557038","distractor":"171557038","target":"present","response":"present","rt":"2852","correct":true,"confidence":5},{"trial_n":38,"span":9,"encoder":"961982217","distractor":"961952217","target":"present","response":"present","rt":"1918.5","correct":true,"confidence":3},{"trial_n":39,"span":10,"encoder":"4790387204","distractor":"8790387204","target":"present","response":"present","rt":"2530.6000000006","correct":true,"confidence":2},{"trial_n":40,"span":10,"encoder":"9708413369","distractor":"9748413369","target":"absent","response":"absent","rt":"3406.2999999998","correct":true,"confidence":5},{"trial_n":41,"span":11,"encoder":"26425815714","distractor":"26425815719","target":"absent","response":"absent","rt":"1762.3999999994","correct":true,"confidence":5},{"trial_n":42,"span":11,"encoder":"37157802468","distractor":"37657802468","target":"absent","response":"absent","rt":"1950.2000000002","correct":true,"confidence":5},{"trial_n":43,"span":12,"encoder":"772340190046","distractor":"772340180046","target":"absent","response":"absent","rt":"1538.3000000007","correct":true,"confidence":5},{"trial_n":44,"span":12,"encoder":"459824202886","distractor":"459824202586","target":"absent","response":"present","rt":"4318","correct":false,"confidence":3},{"trial_n":45,"span":11,"encoder":"84011528189","distractor":"84081528189","target":"absent","response":"present","rt":"1554.0999999996","correct":false,"confidence":2},{"trial_n":46,"span":10,"encoder":"2703096936","distractor":"2703096946","target":"absent","response":"present","rt":"3327.2000000002","correct":false,"confidence":4},{"trial_n":47,"span":9,"encoder":"904056208","distractor":"904036208","target":"present","response":"present","rt":"2052.7999999998","correct":true,"confidence":3},{"trial_n":48,"span":9,"encoder":"507281569","distractor":"507280569","target":"present","response":"present","rt":"2122.8999999994","correct":true,"confidence":2},{"trial_n":49,"span":10,"encoder":"6856166319","distractor":"6856266319","target":"present","response":"absent","rt":"4008.1000000006","correct":false,"confidence":2},{"trial_n":50,"span":9,"encoder":"639771754","distractor":"639071754","target":"present","response":"present","rt":"3307.2000000002","correct":true,"confidence":5},{"trial_n":51,"span":9,"encoder":"611954700","distractor":"611958700","target":"present","response":"present","rt":"6152.7000000002","correct":true,"confidence":4},{"trial_n":52,"span":10,"encoder":"7841823932","distractor":"9841823932","target":"absent","response":"present","rt":"5983.7000000002","correct":false,"confidence":4},{"trial_n":53,"span":9,"encoder":"560976663","distractor":"550976663","target":"absent","response":"present","rt":"2828.7000000002","correct":false,"confidence":4},{"trial_n":54,"span":8,"encoder":"13121767","distractor":"13121967","target":"present","response":"present","rt":"5738.1000000006","correct":true,"confidence":4},{"trial_n":55,"span":8,"encoder":"47698632","distractor":"47698633","target":"absent","response":"absent","rt":"1633.7999999998","correct":true,"confidence":5},{"trial_n":56,"span":9,"encoder":"723867209","distractor":"723863209","target":"present","response":"absent","rt":"5986.5","correct":false,"confidence":4},{"trial_n":57,"span":8,"encoder":"92442949","distractor":"91442949","target":"present","response":"present","rt":"2698.8000000007","correct":true,"confidence":4},{"trial_n":58,"span":8,"encoder":"25453544","distractor":"25423544","target":"absent","response":"absent","rt":"4910","correct":true,"confidence":2},{"trial_n":59,"span":9,"encoder":"377740683","distractor":"377700683","target":"absent","response":"present","rt":"8196.8999999994","correct":false,"confidence":3},{"trial_n":60,"span":8,"encoder":"84866045","distractor":"84869045","target":"present","response":"present","rt":"1758.1999999993","correct":true,"confidence":4},{"trial_n":61,"span":8,"encoder":"74790208","distractor":"34790208","target":"present","response":"present","rt":"4453.7999999998","correct":true,"confidence":3},{"trial_n":62,"span":9,"encoder":"076370472","distractor":"076375472","target":"absent","response":"present","rt":"7262.5999999996","correct":false,"confidence":3},{"trial_n":63,"span":8,"encoder":"59225486","distractor":"89225486","target":"absent","response":"present","rt":"2450.2999999998","correct":false,"confidence":5},{"trial_n":64,"span":7,"encoder":"6611980","distractor":"6611930","target":"present","response":"present","rt":"1893.8999999994","correct":true,"confidence":5},{"trial_n":65,"span":7,"encoder":"3109801","distractor":"3109811","target":"present","response":"present","rt":"3879","correct":true,"confidence":4},{"trial_n":66,"span":8,"encoder":"37878470","distractor":"37878450","target":"absent","response":"absent","rt":"1865.1000000006","correct":true,"confidence":5},{"trial_n":67,"span":8,"encoder":"60741998","distractor":"60742998","target":"present","response":"present","rt":"3151","correct":true,"confidence":4},{"trial_n":68,"span":9,"encoder":"735166001","distractor":"731166001","target":"present","response":"present","rt":"4409.6000000006","correct":true,"confidence":3},{"trial_n":69,"span":9,"encoder":"773635665","distractor":"773631665","target":"absent","response":"absent","rt":"3514.2000000002","correct":true,"confidence":5},{"trial_n":70,"span":10,"encoder":"4417305330","distractor":"4817305330","target":"absent","response":"absent","rt":"2708.0999999996","correct":true,"confidence":4},{"trial_n":71,"span":8,"encoder":"31420636","distractor":"11420636","target":"present","response":"present","rt":"4567.5999999996","correct":true,"confidence":-1},{"trial_n":72,"span":8,"encoder":"83152044","distractor":"83172044","target":"present","response":"present","rt":"3442.0999999996","correct":true,"confidence":-1},{"trial_n":73,"span":9,"encoder":"717046391","distractor":"713046391","target":"absent","response":"present","rt":"3809.7000000002","correct":false,"confidence":-1},{"trial_n":74,"span":8,"encoder":"23195602","distractor":"23195632","target":"absent","response":"absent","rt":"5669","correct":true,"confidence":-1},{"trial_n":75,"span":8,"encoder":"97941462","distractor":"92941462","target":"present","response":"present","rt":"6375.3000000007","correct":true,"confidence":-1},{"trial_n":76,"span":9,"encoder":"321773064","distractor":"321774064","target":"absent","response":"absent","rt":"6241.0999999996","correct":true,"confidence":-1},{"trial_n":77,"span":9,"encoder":"961943051","distractor":"261943051","target":"present","response":"present","rt":"3918","correct":true,"confidence":-1},{"trial_n":78,"span":10,"encoder":"0137750133","distractor":"0137750173","target":"absent","response":"absent","rt":"2359.2000000002","correct":true,"confidence":-1},{"trial_n":79,"span":10,"encoder":"3559099188","distractor":"3549099188","target":"absent","response":"present","rt":"3852.7999999998","correct":false,"confidence":-1},{"trial_n":80,"span":9,"encoder":"429685221","distractor":"429685281","target":"absent","response":"present","rt":"3619.7000000002","correct":false,"confidence":-1},{"trial_n":81,"span":8,"encoder":"58004507","distractor":"98004507","target":"present","response":"present","rt":"2825.3999999994","correct":true,"confidence":-1},{"trial_n":82,"span":8,"encoder":"22300165","distractor":"20300165","target":"absent","response":"absent","rt":"2810.8000000007","correct":true,"confidence":-1},{"trial_n":83,"span":9,"encoder":"765509318","distractor":"745509318","target":"present","response":"present","rt":"4725.0999999996","correct":true,"confidence":-1},{"trial_n":84,"span":9,"encoder":"119608155","distractor":"119609155","target":"absent","response":"absent","rt":"4925.9000000004","correct":true,"confidence":-1},{"trial_n":85,"span":10,"encoder":"3939905074","distractor":"3939905076","target":"absent","response":"absent","rt":"1650.8000000007","correct":true,"confidence":-1},{"trial_n":86,"span":10,"encoder":"9868289489","distractor":"9838289489","target":"present","response":"present","rt":"3810.7000000002","correct":true,"confidence":-1},{"trial_n":87,"span":11,"encoder":"27686827326","distractor":"27486827326","target":"present","response":"absent","rt":"5960","correct":false,"confidence":-1},{"trial_n":88,"span":10,"encoder":"6757726096","distractor":"6757729096","target":"absent","response":"present","rt":"5209.9000000004","correct":false,"confidence":-1},{"trial_n":89,"span":9,"encoder":"058098939","distractor":"558098939","target":"absent","response":"present","rt":"3608.7999999998","correct":false,"confidence":-1},{"trial_n":90,"span":8,"encoder":"80638658","distractor":"80639658","target":"absent","response":"present","rt":"5559.0999999996","correct":false,"confidence":-1},{"trial_n":91,"span":7,"encoder":"7721394","distractor":"0721394","target":"absent","response":"absent","rt":"2319.5","correct":true,"confidence":5},{"trial_n":92,"span":7,"encoder":"0031218","distractor":"0231218","target":"present","response":"present","rt":"4251.5999999996","correct":true,"confidence":5},{"trial_n":93,"span":8,"encoder":"98422012","distractor":"98422017","target":"present","response":"present","rt":"2982.3999999994","correct":true,"confidence":3},{"trial_n":94,"span":8,"encoder":"68420864","distractor":"68422864","target":"present","response":"present","rt":"4812.6999999993","correct":true,"confidence":4},{"trial_n":95,"span":9,"encoder":"843607353","distractor":"443607353","target":"absent","response":"absent","rt":"2454.9000000004","correct":true,"confidence":5},{"trial_n":96,"span":9,"encoder":"127509869","distractor":"127509861","target":"present","response":"present","rt":"9234.2000000002","correct":true,"confidence":5},{"trial_n":97,"span":10,"encoder":"6476290117","distractor":"6476290517","target":"absent","response":"absent","rt":"2444.4000000004","correct":true,"confidence":5},{"trial_n":98,"span":10,"encoder":"5354839344","distractor":"5354839345","target":"present","response":"present","rt":"2215.6000000006","correct":true,"confidence":5},{"trial_n":99,"span":11,"encoder":"63968233400","distractor":"83968233400","target":"absent","response":"present","rt":"3187.6000000006","correct":false,"confidence":3},{"trial_n":100,"span":10,"encoder":"2316700908","distractor":"2316740908","target":"absent","response":"absent","rt":"2309.7999999998","correct":true,"confidence":5},{"trial_n":101,"span":10,"encoder":"9460988888","distractor":"9460988838","target":"present","response":"present","rt":"2355.3999999994","correct":true,"confidence":5},{"trial_n":102,"span":11,"encoder":"50510420265","distractor":"50518420265","target":"present","response":"absent","rt":"25627.7","correct":false,"confidence":5},{"trial_n":103,"span":10,"encoder":"1520824930","distractor":"4520824930","target":"present","response":"present","rt":"5789.6999999993","correct":true,"confidence":4},{"trial_n":104,"span":10,"encoder":"5949160384","distractor":"5948160384","target":"present","response":"absent","rt":"11400.600000001","correct":false,"confidence":2},{"trial_n":105,"span":9,"encoder":"438265621","distractor":"438265651","target":"present","response":"present","rt":"2714.3999999994","correct":true,"confidence":3},{"trial_n":106,"span":9,"encoder":"642116818","distractor":"742116818","target":"absent","response":"absent","rt":"4014.5999999996","correct":true,"confidence":5},{"trial_n":107,"span":10,"encoder":"8549940244","distractor":"8449940244","target":"present","response":"present","rt":"3512.2999999998","correct":true,"confidence":5},{"trial_n":108,"span":10,"encoder":"1201769914","distractor":"1251769914","target":"absent","response":"absent","rt":"3515","correct":true,"confidence":5},{"trial_n":109,"span":11,"encoder":"02688027096","distractor":"02688023096","target":"absent","response":"absent","rt":"7817.5999999996","correct":true,"confidence":4},{"trial_n":110,"span":11,"encoder":"38531238857","distractor":"38531236857","target":"absent","response":"absent","rt":"4019.7999999998","correct":true,"confidence":5},{"trial_n":111,"span":12,"encoder":"241343460723","distractor":"241343460823","target":"present","response":"present","rt":"2687.6999999993","correct":true,"confidence":4},{"trial_n":112,"span":12,"encoder":"105964696740","distractor":"605964696740","target":"present","response":"present","rt":"3766.7999999998","correct":true,"confidence":5},{"trial_n":113,"span":13,"encoder":"9816459723686","distractor":"9819459723686","target":"present","response":"present","rt":"8636.4000000004","correct":true,"confidence":4},{"trial_n":114,"span":13,"encoder":"4803246704270","distractor":"4803246704276","target":"absent","response":"present","rt":"6959.2999999998","correct":false,"confidence":3},{"trial_n":115,"span":12,"encoder":"227750593264","distractor":"227770593264","target":"present","response":"present","rt":"4774.5","correct":true,"confidence":5},{"trial_n":116,"span":12,"encoder":"686563039858","distractor":"686513039858","target":"absent","response":"absent","rt":"7464.9000000004","correct":true,"confidence":3},{"trial_n":117,"span":13,"encoder":"3119068260215","distractor":"3119268260215","target":"present","response":"present","rt":"7425.7999999998","correct":true,"confidence":4},{"trial_n":118,"span":13,"encoder":"0776653935519","distractor":"0772653935519","target":"present","response":"present","rt":"3793.4000000004","correct":true,"confidence":5},{"trial_n":119,"span":14,"encoder":"95746177749360","distractor":"95746176749360","target":"present","response":"present","rt":"5889.2000000002","correct":true,"confidence":3},{"trial_n":120,"span":14,"encoder":"83055126376903","distractor":"83035126376903","target":"absent","response":"absent","rt":"4230.7999999998","correct":true,"confidence":3},{"trial_n":121,"span":15,"encoder":"799372259006369","distractor":"799372159006369","target":"absent","response":"absent","rt":"6041","correct":true,"confidence":5},{"trial_n":122,"span":15,"encoder":"343251973108001","distractor":"343251973178001","target":"present","response":"present","rt":"23505.8","correct":true,"confidence":2},{"trial_n":123,"span":16,"encoder":"5219750148522244","distractor":"5219750143522244","target":"present","response":"present","rt":"9364.0999999996","correct":true,"confidence":4},{"trial_n":124,"span":16,"encoder":"1688526631733149","distractor":"1688526671733149","target":"absent","response":"present","rt":"20706.100000001","correct":false,"confidence":3},{"trial_n":125,"span":15,"encoder":"957580208091177","distractor":"957580208091157","target":"present","response":"present","rt":"2589.3999999994","correct":true,"confidence":5},{"trial_n":126,"span":15,"encoder":"576583976646423","distractor":"576983976646423","target":"absent","response":"absent","rt":"11274.199999999","correct":true,"confidence":3},{"trial_n":127,"span":16,"encoder":"5570429137585248","distractor":"5570429137515248","target":"absent","response":"present","rt":"23075.6","correct":false,"confidence":3},{"trial_n":128,"span":15,"encoder":"679993875599512","distractor":"679996875599512","target":"present","response":"absent","rt":"11826","correct":false,"confidence":2},{"trial_n":129,"span":14,"encoder":"33315546389101","distractor":"32315546389101","target":"absent","response":"absent","rt":"2388.4000000004","correct":true,"confidence":5},{"trial_n":130,"span":14,"encoder":"54914629321608","distractor":"54114629321608","target":"present","response":"present","rt":"7286.8999999994","correct":true,"confidence":1},{"trial_n":131,"span":15,"encoder":"944786065095381","distractor":"944786065195381","target":"present","response":"present","rt":"10321.7","correct":true,"confidence":3},{"trial_n":132,"span":15,"encoder":"472420752627967","distractor":"472420752627957","target":"absent","response":"present","rt":"8873.6000000006","correct":false,"confidence":3},{"trial_n":133,"span":14,"encoder":"24284757729970","distractor":"24284757749970","target":"absent","response":"present","rt":"7456.7999999998","correct":false,"confidence":2},{"trial_n":134,"span":13,"encoder":"4190581715282","distractor":"4190571715282","target":"present","response":"present","rt":"5052.2999999998","correct":true,"confidence":4},{"trial_n":135,"span":13,"encoder":"3060155453485","distractor":"3060155453385","target":"absent","response":"absent","rt":"10687.5","correct":true,"confidence":5},{"trial_n":136,"span":14,"encoder":"81477652600309","distractor":"81477052600309","target":"absent","response":"absent","rt":"5078.7999999998","correct":true,"confidence":3},{"trial_n":137,"span":14,"encoder":"55929277034959","distractor":"55929227034959","target":"present","response":"present","rt":"14651","correct":true,"confidence":4},{"trial_n":138,"span":15,"encoder":"149919847982622","distractor":"149919847382622","target":"present","response":"absent","rt":"10894.2","correct":false,"confidence":1},{"trial_n":139,"span":14,"encoder":"01795535913479","distractor":"01195535913479","target":"present","response":"absent","rt":"5772.2000000002","correct":false,"confidence":3},{"trial_n":140,"span":13,"encoder":"3597177080300","distractor":"3597177080306","target":"absent","response":"absent","rt":"3129.9000000004","correct":true,"confidence":5}]