[{"trial_n":1,"n_dots":4.25,"target":"left","response":"left","rt":4229,"correct":true,"confidence":-1},{"trial_n":2,"n_dots":4.25,"target":"left","response":"left","rt":1063,"correct":true,"confidence":-1},{"trial_n":3,"n_dots":3.85,"target":"right","response":"left","rt":624,"correct":false,"confidence":-1},{"trial_n":4,"n_dots":4.25,"target":"right","response":"right","rt":882,"correct":true,"confidence":-1},{"trial_n":5,"n_dots":4.25,"target":"right","response":"left","rt":695,"correct":false,"confidence":-1},{"trial_n":6,"n_dots":4.65,"target":"right","response":"right","rt":818,"correct":true,"confidence":-1},{"trial_n":7,"n_dots":4.65,"target":"right","response":"right","rt":618,"correct":true,"confidence":-1},{"trial_n":8,"n_dots":4.45,"target":"right","response":"right","rt":486,"correct":true,"confidence":-1},{"trial_n":9,"n_dots":4.45,"target":"right","response":"right","rt":481,"correct":true,"confidence":-1},{"trial_n":10,"n_dots":4.25,"target":"left","response":"left","rt":332,"correct":true,"confidence":-1},{"trial_n":11,"n_dots":4.25,"target":"left","response":"left","rt":599.00000000001,"correct":true,"confidence":-1},{"trial_n":12,"n_dots":4.05,"target":"left","response":"left","rt":442,"correct":true,"confidence":-1},{"trial_n":13,"n_dots":4.05,"target":"left","response":"left","rt":266.00000000001,"correct":true,"confidence":-1},{"trial_n":14,"n_dots":3.95,"target":"right","response":"right","rt":511,"correct":true,"confidence":-1},{"trial_n":15,"n_dots":3.95,"target":"right","response":"right","rt":538.00000000001,"correct":true,"confidence":-1},{"trial_n":16,"n_dots":3.85,"target":"right","response":"right","rt":860,"correct":true,"confidence":-1},{"trial_n":17,"n_dots":3.85,"target":"right","response":"right","rt":111,"correct":true,"confidence":-1},{"trial_n":18,"n_dots":3.75,"target":"left","response":"left","rt":287,"correct":true,"confidence":-1},{"trial_n":19,"n_dots":3.75,"target":"right","response":"right","rt":275.00000000001,"correct":true,"confidence":-1},{"trial_n":20,"n_dots":3.65,"target":"left","response":"left","rt":148,"correct":true,"confidence":-1},{"trial_n":21,"n_dots":3.65,"target":"right","response":"right","rt":551,"correct":true,"confidence":2},{"trial_n":22,"n_dots":3.55,"target":"left","response":"left","rt":794,"correct":true,"confidence":3},{"trial_n":23,"n_dots":3.55,"target":"right","response":"right","rt":643,"correct":true,"confidence":3},{"trial_n":24,"n_dots":3.45,"target":"left","response":"left","rt":441,"correct":true,"confidence":4},{"trial_n":25,"n_dots":3.45,"target":"left","response":"left","rt":418,"correct":true,"confidence":4},{"trial_n":26,"n_dots":3.35,"target":"left","response":"left","rt":316,"correct":true,"confidence":3},{"trial_n":27,"n_dots":3.35,"target":"right","response":"right","rt":584.00000000001,"correct":true,"confidence":3},{"trial_n":28,"n_dots":3.25,"target":"left","response":"left","rt":318,"correct":true,"confidence":4},{"trial_n":29,"n_dots":3.25,"target":"left","response":"left","rt":480,"correct":true,"confidence":4},{"trial_n":30,"n_dots":3.15,"target":"right","response":"left","rt":419,"correct":false,"confidence":4},{"trial_n":31,"n_dots":3.25,"target":"left","response":"left","rt":527.00000000001,"correct":true,"confidence":4},{"trial_n":32,"n_dots":3.25,"target":"right","response":"left","rt":387,"correct":false,"confidence":3},{"trial_n":33,"n_dots":3.35,"target":"right","response":"left","rt":368,"correct":false,"confidence":4},{"trial_n":34,"n_dots":3.45,"target":"right","response":"left","rt":738,"correct":false,"confidence":1},{"trial_n":35,"n_dots":3.55,"target":"left","response":"left","rt":1233,"correct":true,"confidence":2},{"trial_n":36,"n_dots":3.55,"target":"left","response":"right","rt":1088,"correct":false,"confidence":1},{"trial_n":37,"n_dots":3.65,"target":"right","response":"right","rt":1136,"correct":true,"confidence":1},{"trial_n":38,"n_dots":3.65,"target":"left","response":"left","rt":741,"correct":true,"confidence":3},{"trial_n":39,"n_dots":3.55,"target":"right","response":"left","rt":2776,"correct":false,"confidence":1},{"trial_n":40,"n_dots":3.65,"target":"left","response":"left","rt":523,"correct":true,"confidence":2},{"trial_n":41,"n_dots":3.65,"target":"left","response":"left","rt":378,"correct":true,"confidence":3},{"trial_n":42,"n_dots":3.55,"target":"left","response":"left","rt":469,"correct":true,"confidence":3},{"trial_n":43,"n_dots":3.55,"target":"right","response":"left","rt":568,"correct":false,"confidence":4},{"trial_n":44,"n_dots":3.65,"target":"left","response":"left","rt":1014,"correct":true,"confidence":2},{"trial_n":45,"n_dots":3.65,"target":"right","response":"right","rt":1183,"correct":true,"confidence":3},{"trial_n":46,"n_dots":3.55,"target":"left","response":"left","rt":411,"correct":true,"confidence":3},{"trial_n":47,"n_dots":3.55,"target":"right","response":"right","rt":1101,"correct":true,"confidence":1},{"trial_n":48,"n_dots":3.45,"target":"right","response":"right","rt":1271,"correct":true,"confidence":2},{"trial_n":49,"n_dots":3.45,"target":"left","response":"left","rt":799,"correct":true,"confidence":2},{"trial_n":50,"n_dots":3.35,"target":"left","response":"right","rt":769,"correct":false,"confidence":1},{"trial_n":51,"n_dots":3.45,"target":"right","response":"left","rt":15986,"correct":false,"confidence":1},{"trial_n":52,"n_dots":3.55,"target":"right","response":"right","rt":1080,"correct":true,"confidence":3},{"trial_n":53,"n_dots":3.55,"target":"left","response":"left","rt":665,"correct":true,"confidence":2},{"trial_n":54,"n_dots":3.45,"target":"right","response":"right","rt":741,"correct":true,"confidence":1},{"trial_n":55,"n_dots":3.45,"target":"right","response":"right","rt":1045,"correct":true,"confidence":2},{"trial_n":56,"n_dots":3.35,"target":"left","response":"left","rt":773.00000000006,"correct":true,"confidence":2},{"trial_n":57,"n_dots":3.35,"target":"right","response":"right","rt":925,"correct":true,"confidence":2},{"trial_n":58,"n_dots":3.25,"target":"right","response":"left","rt":377,"correct":false,"confidence":1},{"trial_n":59,"n_dots":3.35,"target":"left","response":"left","rt":473,"correct":true,"confidence":3},{"trial_n":60,"n_dots":3.35,"target":"left","response":"left","rt":477,"correct":true,"confidence":3},{"trial_n":61,"n_dots":3.25,"target":"left","response":"left","rt":369.99999999994,"correct":true,"confidence":3},{"trial_n":62,"n_dots":3.25,"target":"left","response":"left","rt":473,"correct":true,"confidence":3},{"trial_n":63,"n_dots":3.15,"target":"left","response":"right","rt":1059,"correct":false,"confidence":1},{"trial_n":64,"n_dots":3.25,"target":"right","response":"right","rt":979,"correct":true,"confidence":1},{"trial_n":65,"n_dots":3.25,"target":"right","response":"right","rt":877,"correct":true,"confidence":3},{"trial_n":66,"n_dots":3.15,"target":"left","response":"left","rt":467,"correct":true,"confidence":3},{"trial_n":67,"n_dots":3.15,"target":"right","response":"right","rt":1209.9999999999,"correct":true,"confidence":3},{"trial_n":68,"n_dots":3.05,"target":"left","response":"left","rt":659,"correct":true,"confidence":2},{"trial_n":69,"n_dots":3.05,"target":"left","response":"left","rt":1072,"correct":true,"confidence":1},{"trial_n":70,"n_dots":2.95,"target":"right","response":"right","rt":719.99999999994,"correct":true,"confidence":1},{"trial_n":71,"n_dots":2.95,"target":"right","response":"right","rt":930,"correct":true,"confidence":3},{"trial_n":72,"n_dots":2.85,"target":"left","response":"right","rt":1131,"correct":false,"confidence":2},{"trial_n":73,"n_dots":2.95,"target":"right","response":"right","rt":707,"correct":true,"confidence":3},{"trial_n":74,"n_dots":2.95,"target":"left","response":"right","rt":629,"correct":false,"confidence":1},{"trial_n":75,"n_dots":3.05,"target":"right","response":"right","rt":858.99999999994,"correct":true,"confidence":3},{"trial_n":76,"n_dots":3.05,"target":"right","response":"right","rt":765,"correct":true,"confidence":2},{"trial_n":77,"n_dots":2.95,"target":"left","response":"right","rt":1015.9999999999,"correct":false,"confidence":2},{"trial_n":78,"n_dots":3.05,"target":"right","response":"right","rt":637,"correct":true,"confidence":3},{"trial_n":79,"n_dots":3.05,"target":"right","response":"left","rt":6050.0000000001,"correct":false,"confidence":1},{"trial_n":80,"n_dots":3.15,"target":"left","response":"left","rt":810,"correct":true,"confidence":2},{"trial_n":81,"n_dots":3.15,"target":"right","response":"left","rt":852,"correct":false,"confidence":2},{"trial_n":82,"n_dots":3.25,"target":"right","response":"right","rt":941,"correct":true,"confidence":3},{"trial_n":83,"n_dots":3.25,"target":"left","response":"left","rt":1227,"correct":true,"confidence":2},{"trial_n":84,"n_dots":3.15,"target":"left","response":"left","rt":1019,"correct":true,"confidence":3},{"trial_n":85,"n_dots":3.15,"target":"right","response":"right","rt":679,"correct":true,"confidence":2},{"trial_n":86,"n_dots":3.05,"target":"right","response":"right","rt":1057,"correct":true,"confidence":1},{"trial_n":87,"n_dots":3.05,"target":"left","response":"left","rt":1212,"correct":true,"confidence":2},{"trial_n":88,"n_dots":2.95,"target":"right","response":"left","rt":1562,"correct":false,"confidence":1},{"trial_n":89,"n_dots":3.05,"target":"left","response":"right","rt":631.00000000006,"correct":false,"confidence":4},{"trial_n":90,"n_dots":3.15,"target":"right","response":"right","rt":829,"correct":true,"confidence":3},{"trial_n":91,"n_dots":3.15,"target":"right","response":"right","rt":958,"correct":true,"confidence":3},{"trial_n":92,"n_dots":3.05,"target":"left","response":"left","rt":836.99999999994,"correct":true,"confidence":3},{"trial_n":93,"n_dots":3.05,"target":"left","response":"left","rt":868,"correct":true,"confidence":3},{"trial_n":94,"n_dots":2.95,"target":"right","response":"right","rt":1167,"correct":true,"confidence":3},{"trial_n":95,"n_dots":2.95,"target":"right","response":"right","rt":1486.0000000001,"correct":true,"confidence":2},{"trial_n":96,"n_dots":2.85,"target":"left","response":"left","rt":875,"correct":true,"confidence":2},{"trial_n":97,"n_dots":2.85,"target":"right","response":"right","rt":1819.9999999999,"correct":true,"confidence":3},{"trial_n":98,"n_dots":2.75,"target":"left","response":"left","rt":814,"correct":true,"confidence":1},{"trial_n":99,"n_dots":2.75,"target":"right","response":"right","rt":1027,"correct":true,"confidence":1},{"trial_n":100,"n_dots":2.65,"target":"right","response":"right","rt":717,"correct":true,"confidence":3},{"trial_n":101,"n_dots":2.65,"target":"left","response":"left","rt":911,"correct":true,"confidence":3},{"trial_n":102,"n_dots":2.55,"target":"right","response":"left","rt":928.99999999994,"correct":false,"confidence":2},{"trial_n":103,"n_dots":2.65,"target":"right","response":"right","rt":1346,"correct":true,"confidence":3},{"trial_n":104,"n_dots":2.65,"target":"left","response":"left","rt":897.00000000006,"correct":true,"confidence":1},{"trial_n":105,"n_dots":2.55,"target":"left","response":"right","rt":711.99999999994,"correct":false,"confidence":2},{"trial_n":106,"n_dots":2.65,"target":"right","response":"left","rt":846,"correct":false,"confidence":1},{"trial_n":107,"n_dots":2.75,"target":"left","response":"right","rt":797,"correct":false,"confidence":2},{"trial_n":108,"n_dots":2.85,"target":"left","response":"right","rt":797.00000000006,"correct":false,"confidence":1},{"trial_n":109,"n_dots":2.95,"target":"left","response":"left","rt":563,"correct":true,"confidence":1},{"trial_n":110,"n_dots":2.95,"target":"right","response":"right","rt":464.00000000006,"correct":true,"confidence":1},{"trial_n":111,"n_dots":2.85,"target":"right","response":"left","rt":1581.0000000001,"correct":false,"confidence":1},{"trial_n":112,"n_dots":2.95,"target":"left","response":"left","rt":948,"correct":true,"confidence":2},{"trial_n":113,"n_dots":2.95,"target":"left","response":"right","rt":899,"correct":false,"confidence":2},{"trial_n":114,"n_dots":3.05,"target":"left","response":"right","rt":681,"correct":false,"confidence":2},{"trial_n":115,"n_dots":3.15,"target":"right","response":"right","rt":680.99999999988,"correct":true,"confidence":2},{"trial_n":116,"n_dots":3.15,"target":"left","response":"left","rt":714,"correct":true,"confidence":1},{"trial_n":117,"n_dots":3.05,"target":"right","response":"right","rt":680,"correct":true,"confidence":3},{"trial_n":118,"n_dots":3.05,"target":"left","response":"left","rt":682,"correct":true,"confidence":3},{"trial_n":119,"n_dots":2.95,"target":"left","response":"left","rt":447,"correct":true,"confidence":2},{"trial_n":120,"n_dots":2.95,"target":"left","response":"left","rt":481,"correct":true,"confidence":3}]