[{"trial_n":1,"n_dots":4.25,"target":"right","response":"right","rt":6917.2999999998,"correct":true,"confidence":-1},{"trial_n":2,"n_dots":4.25,"target":"right","response":"right","rt":2143.7999999998,"correct":true,"confidence":-1},{"trial_n":3,"n_dots":3.85,"target":"right","response":"left","rt":2056.6999999993,"correct":false,"confidence":-1},{"trial_n":4,"n_dots":4.25,"target":"left","response":"left","rt":949.10000000056,"correct":true,"confidence":-1},{"trial_n":5,"n_dots":4.25,"target":"right","response":"right","rt":881.79999999981,"correct":true,"confidence":-1},{"trial_n":6,"n_dots":3.85,"target":"left","response":"left","rt":834.70000000019,"correct":true,"confidence":-1},{"trial_n":7,"n_dots":3.85,"target":"left","response":"left","rt":553.90000000037,"correct":true,"confidence":-1},{"trial_n":8,"n_dots":3.65,"target":"right","response":"right","rt":730.10000000056,"correct":true,"confidence":-1},{"trial_n":9,"n_dots":3.65,"target":"right","response":"left","rt":908.70000000019,"correct":false,"confidence":-1},{"trial_n":10,"n_dots":3.85,"target":"right","response":"right","rt":815.79999999981,"correct":true,"confidence":-1},{"trial_n":11,"n_dots":3.85,"target":"right","response":"right","rt":1087.9000000004,"correct":true,"confidence":-1},{"trial_n":12,"n_dots":3.65,"target":"left","response":"left","rt":295.70000000019,"correct":true,"confidence":-1},{"trial_n":13,"n_dots":3.65,"target":"right","response":"right","rt":1960.2999999998,"correct":true,"confidence":-1},{"trial_n":14,"n_dots":3.55,"target":"right","response":"left","rt":599.5,"correct":false,"confidence":-1},{"trial_n":15,"n_dots":3.65,"target":"right","response":"right","rt":1231.2000000002,"correct":true,"confidence":-1},{"trial_n":16,"n_dots":3.65,"target":"right","response":"left","rt":494.5,"correct":false,"confidence":-1},{"trial_n":17,"n_dots":3.75,"target":"left","response":"left","rt":452.70000000019,"correct":true,"confidence":-1},{"trial_n":18,"n_dots":3.75,"target":"right","response":"left","rt":857,"correct":false,"confidence":-1},{"trial_n":19,"n_dots":3.85,"target":"right","response":"right","rt":466,"correct":true,"confidence":-1},{"trial_n":20,"n_dots":3.85,"target":"right","response":"right","rt":505.20000000019,"correct":true,"confidence":-1},{"trial_n":21,"n_dots":3.75,"target":"right","response":"right","rt":248.59999999963,"correct":true,"confidence":3},{"trial_n":22,"n_dots":3.75,"target":"right","response":"left","rt":1195.2999999998,"correct":false,"confidence":5},{"trial_n":23,"n_dots":3.85,"target":"right","response":"left","rt":943.39999999944,"correct":false,"confidence":3},{"trial_n":24,"n_dots":3.95,"target":"right","response":"right","rt":656.79999999981,"correct":true,"confidence":4},{"trial_n":25,"n_dots":3.95,"target":"left","response":"left","rt":1208,"correct":true,"confidence":5},{"trial_n":26,"n_dots":3.85,"target":"left","response":"left","rt":683.40000000037,"correct":true,"confidence":5},{"trial_n":27,"n_dots":3.85,"target":"right","response":"left","rt":2254,"correct":false,"confidence":3},{"trial_n":28,"n_dots":3.95,"target":"left","response":"left","rt":1298.4000000004,"correct":true,"confidence":4},{"trial_n":29,"n_dots":3.95,"target":"left","response":"right","rt":2029.0999999996,"correct":false,"confidence":2},{"trial_n":30,"n_dots":4.05,"target":"left","response":"left","rt":881.09999999963,"correct":true,"confidence":5},{"trial_n":31,"n_dots":4.05,"target":"right","response":"right","rt":946.09999999963,"correct":true,"confidence":4},{"trial_n":32,"n_dots":3.95,"target":"right","response":"right","rt":790.79999999981,"correct":true,"confidence":4},{"trial_n":33,"n_dots":3.95,"target":"left","response":"left","rt":1002.8000000007,"correct":true,"confidence":5},{"trial_n":34,"n_dots":3.85,"target":"left","response":"left","rt":1044.2999999998,"correct":true,"confidence":5},{"trial_n":35,"n_dots":3.85,"target":"right","response":"right","rt":1032.5,"correct":true,"confidence":3},{"trial_n":36,"n_dots":3.75,"target":"left","response":"left","rt":832.70000000019,"correct":true,"confidence":5},{"trial_n":37,"n_dots":3.75,"target":"left","response":"left","rt":843.30000000075,"correct":true,"confidence":5},{"trial_n":38,"n_dots":3.65,"target":"right","response":"left","rt":923.90000000037,"correct":false,"confidence":4},{"trial_n":39,"n_dots":3.75,"target":"left","response":"left","rt":884.5,"correct":true,"confidence":5},{"trial_n":40,"n_dots":3.75,"target":"left","response":"left","rt":1296.9000000004,"correct":true,"confidence":5},{"trial_n":41,"n_dots":3.65,"target":"left","response":"left","rt":719.5,"correct":true,"confidence":5},{"trial_n":42,"n_dots":3.65,"target":"left","response":"left","rt":734.09999999963,"correct":true,"confidence":4},{"trial_n":43,"n_dots":3.55,"target":"left","response":"left","rt":689.5,"correct":true,"confidence":5},{"trial_n":44,"n_dots":3.55,"target":"left","response":"left","rt":781.90000000037,"correct":true,"confidence":4},{"trial_n":45,"n_dots":3.45,"target":"right","response":"right","rt":1492.6000000006,"correct":true,"confidence":3},{"trial_n":46,"n_dots":3.45,"target":"left","response":"left","rt":703.5,"correct":true,"confidence":5},{"trial_n":47,"n_dots":3.35,"target":"right","response":"left","rt":973.79999999981,"correct":false,"confidence":5},{"trial_n":48,"n_dots":3.45,"target":"left","response":"left","rt":856.59999999963,"correct":true,"confidence":4},{"trial_n":49,"n_dots":3.45,"target":"left","response":"left","rt":1044.7000000002,"correct":true,"confidence":3},{"trial_n":50,"n_dots":3.35,"target":"right","response":"left","rt":993.89999999944,"correct":false,"confidence":3},{"trial_n":51,"n_dots":3.45,"target":"left","response":"left","rt":1527,"correct":true,"confidence":3},{"trial_n":52,"n_dots":3.45,"target":"right","response":"right","rt":763.70000000019,"correct":true,"confidence":3},{"trial_n":53,"n_dots":3.35,"target":"left","response":"left","rt":800,"correct":true,"confidence":4},{"trial_n":54,"n_dots":3.35,"target":"right","response":"right","rt":703.70000000019,"correct":true,"confidence":5},{"trial_n":55,"n_dots":3.25,"target":"left","response":"left","rt":3334.5999999996,"correct":true,"confidence":3},{"trial_n":56,"n_dots":3.25,"target":"left","response":"left","rt":3677.9000000004,"correct":true,"confidence":2},{"trial_n":57,"n_dots":3.15,"target":"right","response":"right","rt":826.5,"correct":true,"confidence":3},{"trial_n":58,"n_dots":3.15,"target":"left","response":"left","rt":900.09999999963,"correct":true,"confidence":3},{"trial_n":59,"n_dots":3.05,"target":"left","response":"left","rt":1249.5,"correct":true,"confidence":3},{"trial_n":60,"n_dots":3.05,"target":"left","response":"left","rt":860.5,"correct":true,"confidence":2},{"trial_n":61,"n_dots":2.95,"target":"left","response":"left","rt":873.79999999981,"correct":true,"confidence":3},{"trial_n":62,"n_dots":2.95,"target":"left","response":"right","rt":1157.4000000004,"correct":false,"confidence":3},{"trial_n":63,"n_dots":3.05,"target":"right","response":"left","rt":910.39999999944,"correct":false,"confidence":4},{"trial_n":64,"n_dots":3.15,"target":"left","response":"left","rt":1269.7999999998,"correct":true,"confidence":3},{"trial_n":65,"n_dots":3.15,"target":"left","response":"left","rt":740.5,"correct":true,"confidence":3},{"trial_n":66,"n_dots":3.05,"target":"right","response":"right","rt":1020.7999999998,"correct":true,"confidence":3},{"trial_n":67,"n_dots":3.05,"target":"right","response":"left","rt":899.09999999963,"correct":false,"confidence":3},{"trial_n":68,"n_dots":3.15,"target":"left","response":"right","rt":845.30000000075,"correct":false,"confidence":3},{"trial_n":69,"n_dots":3.25,"target":"right","response":"right","rt":764.59999999963,"correct":true,"confidence":3},{"trial_n":70,"n_dots":3.25,"target":"left","response":"left","rt":867.29999999981,"correct":true,"confidence":4},{"trial_n":71,"n_dots":3.15,"target":"left","response":"left","rt":2773.1000000006,"correct":true,"confidence":2},{"trial_n":72,"n_dots":3.15,"target":"left","response":"left","rt":3237.1000000006,"correct":true,"confidence":3},{"trial_n":73,"n_dots":3.05,"target":"left","response":"left","rt":947.39999999944,"correct":true,"confidence":4},{"trial_n":74,"n_dots":3.05,"target":"left","response":"right","rt":2856.5999999996,"correct":false,"confidence":2},{"trial_n":75,"n_dots":3.15,"target":"right","response":"right","rt":1712.7999999998,"correct":true,"confidence":4},{"trial_n":76,"n_dots":3.15,"target":"right","response":"right","rt":1218.6999999993,"correct":true,"confidence":2},{"trial_n":77,"n_dots":3.05,"target":"right","response":"right","rt":2014.2000000002,"correct":true,"confidence":3},{"trial_n":78,"n_dots":3.05,"target":"right","response":"left","rt":1468.4000000004,"correct":false,"confidence":3},{"trial_n":79,"n_dots":3.15,"target":"left","response":"right","rt":867.89999999944,"correct":false,"confidence":2},{"trial_n":80,"n_dots":3.25,"target":"left","response":"left","rt":735.59999999963,"correct":true,"confidence":5},{"trial_n":81,"n_dots":3.25,"target":"left","response":"left","rt":924.59999999963,"correct":true,"confidence":3},{"trial_n":82,"n_dots":3.15,"target":"left","response":"right","rt":924.29999999981,"correct":false,"confidence":4},{"trial_n":83,"n_dots":3.25,"target":"right","response":"right","rt":962.5,"correct":true,"confidence":3},{"trial_n":84,"n_dots":3.25,"target":"left","response":"left","rt":799.10000000056,"correct":true,"confidence":5},{"trial_n":85,"n_dots":3.15,"target":"left","response":"left","rt":1680.0999999996,"correct":true,"confidence":3},{"trial_n":86,"n_dots":3.15,"target":"left","response":"left","rt":1919,"correct":true,"confidence":5},{"trial_n":87,"n_dots":3.05,"target":"right","response":"right","rt":563.40000000037,"correct":true,"confidence":4},{"trial_n":88,"n_dots":3.05,"target":"right","response":"left","rt":1712.3999999994,"correct":false,"confidence":3},{"trial_n":89,"n_dots":3.15,"target":"left","response":"left","rt":1557.1000000006,"correct":true,"confidence":3},{"trial_n":90,"n_dots":3.15,"target":"right","response":"right","rt":1606,"correct":true,"confidence":4},{"trial_n":91,"n_dots":3.05,"target":"left","response":"right","rt":2168.9000000004,"correct":false,"confidence":3},{"trial_n":92,"n_dots":3.15,"target":"right","response":"left","rt":983.5,"correct":false,"confidence":3},{"trial_n":93,"n_dots":3.25,"target":"left","response":"left","rt":1065.2999999998,"correct":true,"confidence":4},{"trial_n":94,"n_dots":3.25,"target":"right","response":"left","rt":922.30000000075,"correct":false,"confidence":3},{"trial_n":95,"n_dots":3.35,"target":"right","response":"left","rt":519.29999999981,"correct":false,"confidence":4},{"trial_n":96,"n_dots":3.45,"target":"right","response":"right","rt":608.89999999944,"correct":true,"confidence":3},{"trial_n":97,"n_dots":3.45,"target":"right","response":"right","rt":1692.4000000004,"correct":true,"confidence":4},{"trial_n":98,"n_dots":3.35,"target":"right","response":"left","rt":2522,"correct":false,"confidence":3},{"trial_n":99,"n_dots":3.45,"target":"right","response":"right","rt":759.29999999981,"correct":true,"confidence":4},{"trial_n":100,"n_dots":3.45,"target":"right","response":"right","rt":644.5,"correct":true,"confidence":4},{"trial_n":101,"n_dots":3.35,"target":"right","response":"right","rt":1814.4000000004,"correct":true,"confidence":4},{"trial_n":102,"n_dots":3.35,"target":"left","response":"left","rt":949.20000000019,"correct":true,"confidence":4},{"trial_n":103,"n_dots":3.25,"target":"right","response":"right","rt":803.5,"correct":true,"confidence":3},{"trial_n":104,"n_dots":3.25,"target":"right","response":"right","rt":711.19999999925,"correct":true,"confidence":3},{"trial_n":105,"n_dots":3.15,"target":"left","response":"left","rt":860.90000000037,"correct":true,"confidence":4},{"trial_n":106,"n_dots":3.15,"target":"left","response":"left","rt":1076.5,"correct":true,"confidence":4},{"trial_n":107,"n_dots":3.05,"target":"right","response":"right","rt":1067.5,"correct":true,"confidence":3},{"trial_n":108,"n_dots":3.05,"target":"left","response":"left","rt":1929.6999999993,"correct":true,"confidence":4},{"trial_n":109,"n_dots":2.95,"target":"left","response":"left","rt":1590.2999999998,"correct":true,"confidence":4},{"trial_n":110,"n_dots":2.95,"target":"right","response":"right","rt":799.20000000019,"correct":true,"confidence":3},{"trial_n":111,"n_dots":2.85,"target":"right","response":"right","rt":995.90000000037,"correct":true,"confidence":3},{"trial_n":112,"n_dots":2.85,"target":"left","response":"left","rt":753.20000000019,"correct":true,"confidence":4},{"trial_n":113,"n_dots":2.75,"target":"left","response":"left","rt":1123.7000000002,"correct":true,"confidence":3},{"trial_n":114,"n_dots":2.75,"target":"right","response":"left","rt":1324.1000000006,"correct":false,"confidence":3},{"trial_n":115,"n_dots":2.85,"target":"left","response":"right","rt":1939.8999999994,"correct":false,"confidence":3},{"trial_n":116,"n_dots":2.95,"target":"right","response":"left","rt":1067.5,"correct":false,"confidence":4},{"trial_n":117,"n_dots":3.05,"target":"left","response":"left","rt":1141,"correct":true,"confidence":4},{"trial_n":118,"n_dots":3.05,"target":"left","response":"right","rt":10229.100000001,"correct":false,"confidence":1},{"trial_n":119,"n_dots":3.15,"target":"right","response":"right","rt":844.60000000056,"correct":true,"confidence":3},{"trial_n":120,"n_dots":3.15,"target":"right","response":"left","rt":882.39999999944,"correct":false,"confidence":3}]