[{"trial_n":1,"span":8,"encoder":"24012545","distractor":"27012545","target":"present","response":"present","rt":"2419","correct":true,"confidence":-1},{"trial_n":2,"span":8,"encoder":"00972849","distractor":"00972839","target":"present","response":"present","rt":"1951","correct":true,"confidence":-1},{"trial_n":3,"span":10,"encoder":"8173355497","distractor":"0173355497","target":"absent","response":"present","rt":"1045","correct":false,"confidence":-1},{"trial_n":4,"span":8,"encoder":"15911324","distractor":"15911724","target":"absent","response":"present","rt":"1665","correct":false,"confidence":-1},{"trial_n":5,"span":6,"encoder":"201472","distractor":"291472","target":"present","response":"present","rt":"793","correct":true,"confidence":-1},{"trial_n":6,"span":6,"encoder":"018599","distractor":"018299","target":"present","response":"absent","rt":"1748","correct":false,"confidence":-1},{"trial_n":7,"span":4,"encoder":"3763","distractor":"3773","target":"absent","response":"present","rt":"1527","correct":false,"confidence":-1},{"trial_n":8,"span":2,"encoder":"22","distractor":"72","target":"absent","response":"present","rt":"4601","correct":false,"confidence":-1},{"trial_n":9,"span":2,"encoder":"45","distractor":"95","target":"absent","response":"absent","rt":"14149","correct":true,"confidence":-1},{"trial_n":10,"span":2,"encoder":"85","distractor":"84","target":"absent","response":"absent","rt":"1607","correct":true,"confidence":-1},{"trial_n":11,"span":4,"encoder":"5626","distractor":"0626","target":"present","response":"absent","rt":"1357","correct":false,"confidence":-1},{"trial_n":12,"span":3,"encoder":"094","distractor":"034","target":"present","response":"present","rt":"1000","correct":true,"confidence":-1},{"trial_n":13,"span":3,"encoder":"941","distractor":"921","target":"absent","response":"absent","rt":"1272","correct":true,"confidence":-1},{"trial_n":14,"span":4,"encoder":"8770","distractor":"5770","target":"absent","response":"absent","rt":"790.00000000001","correct":true,"confidence":-1},{"trial_n":15,"span":4,"encoder":"1976","distractor":"1176","target":"present","response":"present","rt":"1112","correct":true,"confidence":-1},{"trial_n":16,"span":5,"encoder":"82252","distractor":"82852","target":"present","response":"absent","rt":"1340","correct":false,"confidence":-1},{"trial_n":17,"span":4,"encoder":"5286","distractor":"4286","target":"absent","response":"present","rt":"54208605","correct":false,"confidence":-1},{"trial_n":18,"span":3,"encoder":"927","distractor":"917","target":"present","response":"absent","rt":"1574","correct":false,"confidence":-1},{"trial_n":19,"span":2,"encoder":"43","distractor":"41","target":"present","response":"absent","rt":"1369","correct":false,"confidence":-1},{"trial_n":20,"span":2,"encoder":"42","distractor":"48","target":"present","response":"present","rt":"852","correct":true,"confidence":-1},{"trial_n":21,"span":2,"encoder":"58","distractor":"50","target":"absent","response":"absent","rt":"1229","correct":true,"confidence":5},{"trial_n":22,"span":3,"encoder":"652","distractor":"642","target":"present","response":"present","rt":"1351","correct":true,"confidence":1},{"trial_n":23,"span":3,"encoder":"969","distractor":"967","target":"present","response":"present","rt":"1108","correct":true,"confidence":1},{"trial_n":24,"span":4,"encoder":"9010","distractor":"9090","target":"present","response":"present","rt":"1930","correct":true,"confidence":1},{"trial_n":25,"span":4,"encoder":"7662","distractor":"7622","target":"absent","response":"absent","rt":"1517.0000000075","correct":true,"confidence":1},{"trial_n":26,"span":5,"encoder":"18478","distractor":"11478","target":"present","response":"present","rt":"2041","correct":true,"confidence":1},{"trial_n":27,"span":5,"encoder":"63723","distractor":"63023","target":"absent","response":"absent","rt":"2189.9999999925","correct":true,"confidence":1},{"trial_n":28,"span":6,"encoder":"884438","distractor":"888438","target":"present","response":"absent","rt":"1441.0000000075","correct":false,"confidence":1},{"trial_n":29,"span":5,"encoder":"57766","distractor":"57706","target":"present","response":"present","rt":"1856","correct":true,"confidence":1},{"trial_n":30,"span":5,"encoder":"18727","distractor":"18527","target":"present","response":"absent","rt":"1654","correct":false,"confidence":1},{"trial_n":31,"span":4,"encoder":"1308","distractor":"1408","target":"present","response":"present","rt":"1628","correct":true,"confidence":1},{"trial_n":32,"span":4,"encoder":"0999","distractor":"0990","target":"absent","response":"absent","rt":"1667.9999999925","correct":true,"confidence":1},{"trial_n":33,"span":5,"encoder":"66980","distractor":"66990","target":"present","response":"present","rt":"1472","correct":true,"confidence":1},{"trial_n":34,"span":5,"encoder":"93581","distractor":"93588","target":"absent","response":"absent","rt":"1364","correct":true,"confidence":1},{"trial_n":35,"span":6,"encoder":"019213","distractor":"019211","target":"absent","response":"absent","rt":"1330","correct":true,"confidence":5},{"trial_n":36,"span":6,"encoder":"852537","distractor":"858537","target":"absent","response":"absent","rt":"4296","correct":true,"confidence":1},{"trial_n":37,"span":7,"encoder":"2903273","distractor":"2903223","target":"present","response":"absent","rt":"1480","correct":false,"confidence":1},{"trial_n":38,"span":6,"encoder":"057768","distractor":"017768","target":"absent","response":"absent","rt":"3127","correct":true,"confidence":1},{"trial_n":39,"span":6,"encoder":"720062","distractor":"710062","target":"present","response":"present","rt":"1413","correct":true,"confidence":1},{"trial_n":40,"span":7,"encoder":"7197047","distractor":"7197057","target":"absent","response":"absent","rt":"1245","correct":true,"confidence":1},{"trial_n":41,"span":7,"encoder":"8458732","distractor":"8358732","target":"absent","response":"absent","rt":"3590","correct":true,"confidence":1},{"trial_n":42,"span":8,"encoder":"31074229","distractor":"61074229","target":"present","response":"absent","rt":"2571","correct":false,"confidence":1},{"trial_n":43,"span":7,"encoder":"5247150","distractor":"5247140","target":"absent","response":"absent","rt":"1413","correct":true,"confidence":1},{"trial_n":44,"span":7,"encoder":"2266821","distractor":"2166821","target":"present","response":"absent","rt":"1151.0000000075","correct":false,"confidence":1},{"trial_n":45,"span":6,"encoder":"207736","distractor":"207746","target":"absent","response":"absent","rt":"19401","correct":true,"confidence":1},{"trial_n":46,"span":6,"encoder":"671942","distractor":"671142","target":"present","response":"absent","rt":"1206.0000000075","correct":false,"confidence":1},{"trial_n":47,"span":5,"encoder":"36693","distractor":"76693","target":"absent","response":"absent","rt":"1004","correct":true,"confidence":1},{"trial_n":48,"span":5,"encoder":"27030","distractor":"37030","target":"absent","response":"absent","rt":"1172","correct":true,"confidence":1},{"trial_n":49,"span":6,"encoder":"793110","distractor":"793116","target":"absent","response":"absent","rt":"1354","correct":true,"confidence":1},{"trial_n":50,"span":6,"encoder":"386265","distractor":"316265","target":"absent","response":"present","rt":"2056","correct":false,"confidence":1},{"trial_n":51,"span":5,"encoder":"91932","distractor":"95932","target":"absent","response":"absent","rt":"1690","correct":true,"confidence":1},{"trial_n":52,"span":5,"encoder":"97639","distractor":"97649","target":"present","response":"absent","rt":"3139","correct":false,"confidence":1},{"trial_n":53,"span":4,"encoder":"3464","distractor":"3864","target":"absent","response":"absent","rt":"1400","correct":true,"confidence":1},{"trial_n":54,"span":4,"encoder":"1400","distractor":"1460","target":"present","response":"present","rt":"1348","correct":true,"confidence":1},{"trial_n":55,"span":5,"encoder":"57598","distractor":"07598","target":"present","response":"absent","rt":"1832.9999999925","correct":false,"confidence":1},{"trial_n":56,"span":4,"encoder":"4009","distractor":"6009","target":"present","response":"present","rt":"1051","correct":true,"confidence":1},{"trial_n":57,"span":4,"encoder":"6647","distractor":"6644","target":"present","response":"present","rt":"20172","correct":true,"confidence":1},{"trial_n":58,"span":5,"encoder":"09183","distractor":"09181","target":"present","response":"absent","rt":"2626","correct":false,"confidence":1},{"trial_n":59,"span":4,"encoder":"5575","distractor":"5175","target":"present","response":"present","rt":"1244.9999999925","correct":true,"confidence":1},{"trial_n":60,"span":4,"encoder":"5599","distractor":"5099","target":"present","response":"present","rt":"1261","correct":true,"confidence":1},{"trial_n":61,"span":5,"encoder":"19419","distractor":"14419","target":"present","response":"absent","rt":"1593.9999999925","correct":false,"confidence":1},{"trial_n":62,"span":4,"encoder":"1416","distractor":"1116","target":"absent","response":"absent","rt":"1610.9999999925","correct":true,"confidence":1},{"trial_n":63,"span":4,"encoder":"6202","distractor":"6292","target":"present","response":"present","rt":"20968.000000007","correct":true,"confidence":1},{"trial_n":64,"span":5,"encoder":"19633","distractor":"19933","target":"absent","response":"absent","rt":"1591","correct":true,"confidence":1},{"trial_n":65,"span":5,"encoder":"54634","distractor":"84634","target":"present","response":"present","rt":"1216","correct":true,"confidence":1},{"trial_n":66,"span":6,"encoder":"333147","distractor":"333107","target":"absent","response":"absent","rt":"2755","correct":true,"confidence":1},{"trial_n":67,"span":6,"encoder":"186140","distractor":"176140","target":"absent","response":"present","rt":"33742","correct":false,"confidence":1},{"trial_n":68,"span":5,"encoder":"11705","distractor":"11785","target":"absent","response":"absent","rt":"1543","correct":true,"confidence":1},{"trial_n":69,"span":5,"encoder":"19101","distractor":"19106","target":"absent","response":"present","rt":"10981","correct":false,"confidence":1},{"trial_n":70,"span":4,"encoder":"1646","distractor":"6646","target":"absent","response":"present","rt":"1172","correct":false,"confidence":1},{"trial_n":71,"span":8,"encoder":"34549597","distractor":"34549517","target":"present","response":"absent","rt":"5829.9999999925","correct":false,"confidence":-1},{"trial_n":72,"span":7,"encoder":"3378858","distractor":"3378158","target":"present","response":"present","rt":"3171","correct":true,"confidence":-1},{"trial_n":73,"span":7,"encoder":"3224129","distractor":"3223129","target":"absent","response":"present","rt":"6902","correct":false,"confidence":-1},{"trial_n":74,"span":6,"encoder":"437351","distractor":"447351","target":"absent","response":"absent","rt":"1733","correct":true,"confidence":-1},{"trial_n":75,"span":6,"encoder":"665978","distractor":"665078","target":"present","response":"absent","rt":"1136","correct":false,"confidence":-1},{"trial_n":76,"span":5,"encoder":"17612","distractor":"17312","target":"present","response":"present","rt":"3235.0000000075","correct":true,"confidence":-1},{"trial_n":77,"span":5,"encoder":"00718","distractor":"00798","target":"present","response":"absent","rt":"6960","correct":false,"confidence":-1},{"trial_n":78,"span":4,"encoder":"0132","distractor":"0138","target":"absent","response":"present","rt":"1153","correct":false,"confidence":-1},{"trial_n":79,"span":3,"encoder":"861","distractor":"461","target":"present","response":"present","rt":"1656","correct":true,"confidence":-1},{"trial_n":80,"span":3,"encoder":"996","distractor":"926","target":"absent","response":"absent","rt":"860","correct":true,"confidence":-1},{"trial_n":81,"span":4,"encoder":"2560","distractor":"2540","target":"present","response":"absent","rt":"22039","correct":false,"confidence":-1},{"trial_n":82,"span":3,"encoder":"790","distractor":"793","target":"present","response":"present","rt":"1140","correct":true,"confidence":-1},{"trial_n":83,"span":3,"encoder":"525","distractor":"925","target":"present","response":"present","rt":"1391.0000000075","correct":true,"confidence":-1},{"trial_n":84,"span":4,"encoder":"0607","distractor":"0627","target":"present","response":"present","rt":"1416","correct":true,"confidence":-1},{"trial_n":85,"span":4,"encoder":"0739","distractor":"0719","target":"absent","response":"absent","rt":"1248","correct":true,"confidence":-1},{"trial_n":86,"span":5,"encoder":"42887","distractor":"62887","target":"present","response":"absent","rt":"1367","correct":false,"confidence":-1},{"trial_n":87,"span":4,"encoder":"6449","distractor":"6448","target":"present","response":"present","rt":"1369.9999999925","correct":true,"confidence":-1},{"trial_n":88,"span":4,"encoder":"8609","distractor":"9609","target":"absent","response":"absent","rt":"3054.0000000075","correct":true,"confidence":-1},{"trial_n":89,"span":5,"encoder":"77634","distractor":"71634","target":"absent","response":"absent","rt":"2286","correct":true,"confidence":-1},{"trial_n":90,"span":5,"encoder":"86322","distractor":"96322","target":"absent","response":"absent","rt":"2877","correct":true,"confidence":-1},{"trial_n":91,"span":6,"encoder":"590607","distractor":"590647","target":"present","response":"present","rt":"2763","correct":true,"confidence":1},{"trial_n":92,"span":6,"encoder":"723322","distractor":"323322","target":"absent","response":"absent","rt":"1812","correct":true,"confidence":1},{"trial_n":93,"span":7,"encoder":"4234150","distractor":"4204150","target":"present","response":"absent","rt":"1350","correct":false,"confidence":1},{"trial_n":94,"span":6,"encoder":"253105","distractor":"273105","target":"present","response":"absent","rt":"2365","correct":false,"confidence":1},{"trial_n":95,"span":5,"encoder":"83131","distractor":"83431","target":"present","response":"absent","rt":"1622","correct":false,"confidence":1},{"trial_n":96,"span":4,"encoder":"5905","distractor":"7905","target":"absent","response":"present","rt":"1943","correct":false,"confidence":1},{"trial_n":97,"span":3,"encoder":"235","distractor":"239","target":"absent","response":"absent","rt":"44277.999999993","correct":true,"confidence":1},{"trial_n":98,"span":3,"encoder":"808","distractor":"828","target":"absent","response":"absent","rt":"1177","correct":true,"confidence":1},{"trial_n":99,"span":4,"encoder":"2165","distractor":"2765","target":"absent","response":"absent","rt":"2061.9999999925","correct":true,"confidence":1},{"trial_n":100,"span":4,"encoder":"9766","distractor":"9765","target":"absent","response":"present","rt":"20016.000000007","correct":false,"confidence":1},{"trial_n":101,"span":3,"encoder":"457","distractor":"453","target":"absent","response":"absent","rt":"1291","correct":true,"confidence":1},{"trial_n":102,"span":3,"encoder":"913","distractor":"213","target":"present","response":"present","rt":"1361","correct":true,"confidence":1},{"trial_n":103,"span":4,"encoder":"5441","distractor":"5641","target":"present","response":"present","rt":"1338","correct":true,"confidence":1},{"trial_n":104,"span":4,"encoder":"5672","distractor":"8672","target":"present","response":"present","rt":"1008.0000000075","correct":true,"confidence":1},{"trial_n":105,"span":5,"encoder":"50380","distractor":"55380","target":"present","response":"absent","rt":"4992","correct":false,"confidence":1},{"trial_n":106,"span":4,"encoder":"2315","distractor":"2395","target":"absent","response":"absent","rt":"1146","correct":true,"confidence":1},{"trial_n":107,"span":4,"encoder":"7652","distractor":"7612","target":"absent","response":"present","rt":"1979.0000000075","correct":false,"confidence":1},{"trial_n":108,"span":3,"encoder":"905","distractor":"906","target":"present","response":"absent","rt":"1861","correct":false,"confidence":1},{"trial_n":109,"span":2,"encoder":"00","distractor":"90","target":"present","response":"present","rt":"1265","correct":true,"confidence":1},{"trial_n":110,"span":2,"encoder":"48","distractor":"41","target":"absent","response":"absent","rt":"1024","correct":true,"confidence":1},{"trial_n":111,"span":3,"encoder":"600","distractor":"700","target":"present","response":"present","rt":"969.99999999255","correct":true,"confidence":1},{"trial_n":112,"span":3,"encoder":"295","distractor":"298","target":"present","response":"present","rt":"1094.0000000075","correct":true,"confidence":1},{"trial_n":113,"span":4,"encoder":"3201","distractor":"7201","target":"absent","response":"absent","rt":"1411","correct":true,"confidence":1},{"trial_n":114,"span":4,"encoder":"9605","distractor":"4605","target":"absent","response":"absent","rt":"1313","correct":true,"confidence":1},{"trial_n":115,"span":5,"encoder":"60870","distractor":"60970","target":"present","response":"present","rt":"1289","correct":true,"confidence":1},{"trial_n":116,"span":5,"encoder":"79543","distractor":"89543","target":"present","response":"present","rt":"2020","correct":true,"confidence":1},{"trial_n":117,"span":6,"encoder":"552248","distractor":"552948","target":"absent","response":"absent","rt":"2248","correct":true,"confidence":1},{"trial_n":118,"span":6,"encoder":"390838","distractor":"390338","target":"absent","response":"absent","rt":"3296","correct":true,"confidence":1},{"trial_n":119,"span":7,"encoder":"6506647","distractor":"6506640","target":"absent","response":"absent","rt":"1789","correct":true,"confidence":1},{"trial_n":120,"span":7,"encoder":"3669260","distractor":"5669260","target":"absent","response":"absent","rt":"2705","correct":true,"confidence":5},{"trial_n":121,"span":8,"encoder":"00075974","distractor":"50075974","target":"present","response":"present","rt":"3555","correct":true,"confidence":4},{"trial_n":122,"span":8,"encoder":"24970630","distractor":"20970630","target":"absent","response":"absent","rt":"3042.0000000075","correct":true,"confidence":1},{"trial_n":123,"span":9,"encoder":"949270299","distractor":"949200299","target":"absent","response":"absent","rt":"2625.9999999925","correct":true,"confidence":1},{"trial_n":124,"span":9,"encoder":"855482482","distractor":"855402482","target":"absent","response":"absent","rt":"5882","correct":true,"confidence":1},{"trial_n":125,"span":10,"encoder":"8927031129","distractor":"8927031121","target":"absent","response":"absent","rt":"4152","correct":true,"confidence":1},{"trial_n":126,"span":10,"encoder":"4430949999","distractor":"4430949991","target":"present","response":"absent","rt":"1823.0000000075","correct":false,"confidence":1},{"trial_n":127,"span":9,"encoder":"164119893","distractor":"164119793","target":"present","response":"absent","rt":"1063","correct":false,"confidence":1},{"trial_n":128,"span":8,"encoder":"10491589","distractor":"10491529","target":"present","response":"absent","rt":"933","correct":false,"confidence":1},{"trial_n":129,"span":7,"encoder":"2504341","distractor":"2500341","target":"present","response":"absent","rt":"1184","correct":false,"confidence":1},{"trial_n":130,"span":6,"encoder":"163683","distractor":"163583","target":"absent","response":"present","rt":"948.99999999255","correct":false,"confidence":1},{"trial_n":131,"span":5,"encoder":"94772","distractor":"94712","target":"present","response":"absent","rt":"1060","correct":false,"confidence":1},{"trial_n":132,"span":4,"encoder":"6468","distractor":"6568","target":"absent","response":"present","rt":"1007","correct":false,"confidence":1},{"trial_n":133,"span":3,"encoder":"168","distractor":"968","target":"present","response":"present","rt":"12601","correct":true,"confidence":1},{"trial_n":134,"span":3,"encoder":"929","distractor":"919","target":"absent","response":"present","rt":"979","correct":false,"confidence":1},{"trial_n":135,"span":2,"encoder":"49","distractor":"46","target":"absent","response":"absent","rt":"1007","correct":true,"confidence":1},{"trial_n":136,"span":2,"encoder":"98","distractor":"38","target":"present","response":"present","rt":"1189","correct":true,"confidence":1},{"trial_n":137,"span":3,"encoder":"704","distractor":"744","target":"present","response":"present","rt":"908","correct":true,"confidence":1},{"trial_n":138,"span":3,"encoder":"341","distractor":"351","target":"absent","response":"absent","rt":"1086.9999999925","correct":true,"confidence":1},{"trial_n":139,"span":4,"encoder":"9125","distractor":"9175","target":"present","response":"present","rt":"1085","correct":true,"confidence":1},{"trial_n":140,"span":4,"encoder":"5190","distractor":"5197","target":"absent","response":"absent","rt":"1649","correct":true,"confidence":1}]