[{"trial_n":1,"span":8,"encoder":"48158197","distractor":"48058197","target":"present","response":"absent","rt":"6041.099999994","correct":false,"confidence":-1},{"trial_n":2,"span":6,"encoder":"210824","distractor":"410824","target":"present","response":"present","rt":"5817.1000000089","correct":true,"confidence":-1},{"trial_n":3,"span":6,"encoder":"589747","distractor":"389747","target":"absent","response":"absent","rt":"2798.3999999911","correct":true,"confidence":-1},{"trial_n":4,"span":8,"encoder":"71117555","distractor":"74117555","target":"absent","response":"absent","rt":"3159.5","correct":true,"confidence":-1},{"trial_n":5,"span":8,"encoder":"48960627","distractor":"48960927","target":"present","response":"present","rt":"5858.799999997","correct":true,"confidence":-1},{"trial_n":6,"span":10,"encoder":"2079070794","distractor":"2077070794","target":"absent","response":"absent","rt":"4139.3999999911","correct":true,"confidence":-1},{"trial_n":7,"span":10,"encoder":"0126209121","distractor":"0126299121","target":"present","response":"absent","rt":"2940.5","correct":false,"confidence":-1},{"trial_n":8,"span":8,"encoder":"08713352","distractor":"08113352","target":"present","response":"present","rt":"4260.900000006","correct":true,"confidence":-1},{"trial_n":9,"span":8,"encoder":"70487924","distractor":"78487924","target":"absent","response":"absent","rt":"2369.099999994","correct":true,"confidence":-1},{"trial_n":10,"span":10,"encoder":"9601546092","distractor":"9601546082","target":"absent","response":"absent","rt":"3519.3000000119","correct":true,"confidence":-1},{"trial_n":11,"span":10,"encoder":"8535931978","distractor":"8535981978","target":"absent","response":"absent","rt":"3492.3999999911","correct":true,"confidence":-1},{"trial_n":12,"span":11,"encoder":"19105413422","distractor":"19105410422","target":"absent","response":"present","rt":"1488.799999997","correct":false,"confidence":-1},{"trial_n":13,"span":10,"encoder":"2045002107","distractor":"2040002107","target":"absent","response":"absent","rt":"3076.799999997","correct":true,"confidence":-1},{"trial_n":14,"span":10,"encoder":"4539007100","distractor":"4039007100","target":"absent","response":"present","rt":"4824.700000003","correct":false,"confidence":-1},{"trial_n":15,"span":9,"encoder":"440506746","distractor":"440706746","target":"absent","response":"absent","rt":"2014.400000006","correct":true,"confidence":-1},{"trial_n":16,"span":9,"encoder":"093818149","distractor":"093816149","target":"absent","response":"absent","rt":"3557.299999997","correct":true,"confidence":-1},{"trial_n":17,"span":10,"encoder":"7674808416","distractor":"7694808416","target":"present","response":"present","rt":"4567.1000000089","correct":true,"confidence":-1},{"trial_n":18,"span":10,"encoder":"6986002197","distractor":"6986002199","target":"absent","response":"absent","rt":"3006","correct":true,"confidence":-1},{"trial_n":19,"span":11,"encoder":"21643783280","distractor":"21643383280","target":"absent","response":"present","rt":"4340","correct":false,"confidence":-1},{"trial_n":20,"span":10,"encoder":"3938810797","distractor":"3938810792","target":"present","response":"present","rt":"4398.3000000119","correct":true,"confidence":-1},{"trial_n":21,"span":10,"encoder":"0964347111","distractor":"0964348111","target":"present","response":"present","rt":"3111.200000003","correct":true,"confidence":4},{"trial_n":22,"span":11,"encoder":"41833570212","distractor":"41833570412","target":"present","response":"present","rt":"8571.1000000089","correct":true,"confidence":3},{"trial_n":23,"span":11,"encoder":"35226445233","distractor":"35226445230","target":"absent","response":"absent","rt":"5594.900000006","correct":true,"confidence":4},{"trial_n":24,"span":12,"encoder":"205194151660","distractor":"205194121660","target":"present","response":"present","rt":"5297.200000003","correct":true,"confidence":5},{"trial_n":25,"span":12,"encoder":"963911888696","distractor":"963916888696","target":"absent","response":"absent","rt":"7745.3999999911","correct":true,"confidence":4},{"trial_n":26,"span":13,"encoder":"8595038594327","distractor":"8595038504327","target":"absent","response":"present","rt":"8810.099999994","correct":false,"confidence":2},{"trial_n":27,"span":12,"encoder":"350133054673","distractor":"350133054677","target":"present","response":"absent","rt":"7292.799999997","correct":false,"confidence":3},{"trial_n":28,"span":11,"encoder":"70533558282","distractor":"74533558282","target":"absent","response":"present","rt":"2164.8999999911","correct":false,"confidence":1},{"trial_n":29,"span":10,"encoder":"5691403777","distractor":"5691493777","target":"absent","response":"absent","rt":"3321","correct":true,"confidence":5},{"trial_n":30,"span":10,"encoder":"2290379489","distractor":"2290374489","target":"present","response":"absent","rt":"5085.1999999881","correct":false,"confidence":5},{"trial_n":31,"span":9,"encoder":"326211134","distractor":"326201134","target":"absent","response":"absent","rt":"3569.299999997","correct":true,"confidence":4},{"trial_n":32,"span":9,"encoder":"065363973","distractor":"065363993","target":"present","response":"present","rt":"4224.599999994","correct":true,"confidence":5},{"trial_n":33,"span":10,"encoder":"7017446224","distractor":"7011446224","target":"present","response":"present","rt":"5100.599999994","correct":true,"confidence":5},{"trial_n":34,"span":10,"encoder":"8569079291","distractor":"8569379291","target":"absent","response":"absent","rt":"4478.3000000119","correct":true,"confidence":4},{"trial_n":35,"span":11,"encoder":"73092878823","distractor":"73022878823","target":"present","response":"present","rt":"11471.100000009","correct":true,"confidence":2},{"trial_n":36,"span":11,"encoder":"24027531428","distractor":"24026531428","target":"present","response":"absent","rt":"10208.199999988","correct":false,"confidence":4},{"trial_n":37,"span":10,"encoder":"2943556455","distractor":"2993556455","target":"present","response":"absent","rt":"11599.599999994","correct":false,"confidence":3},{"trial_n":38,"span":9,"encoder":"204780459","distractor":"204760459","target":"present","response":"present","rt":"4251.5","correct":true,"confidence":5},{"trial_n":39,"span":9,"encoder":"220323877","distractor":"220321877","target":"present","response":"present","rt":"3557.3999999911","correct":true,"confidence":5},{"trial_n":40,"span":10,"encoder":"4833912530","distractor":"4813912530","target":"present","response":"present","rt":"6998.700000003","correct":true,"confidence":4},{"trial_n":41,"span":10,"encoder":"5022147102","distractor":"5022127102","target":"absent","response":"absent","rt":"5555.5","correct":true,"confidence":2},{"trial_n":42,"span":11,"encoder":"99702226551","distractor":"92702226551","target":"absent","response":"absent","rt":"7770.599999994","correct":true,"confidence":4},{"trial_n":43,"span":11,"encoder":"54175593457","distractor":"54275593457","target":"absent","response":"absent","rt":"3287.3000000119","correct":true,"confidence":3},{"trial_n":44,"span":12,"encoder":"010432798819","distractor":"010432798839","target":"present","response":"present","rt":"6273.700000003","correct":true,"confidence":5},{"trial_n":45,"span":12,"encoder":"766377228906","distractor":"766377228976","target":"present","response":"absent","rt":"6656.400000006","correct":false,"confidence":3},{"trial_n":46,"span":11,"encoder":"52581367436","distractor":"52581357436","target":"present","response":"absent","rt":"9374.799999997","correct":false,"confidence":1},{"trial_n":47,"span":10,"encoder":"1415232981","distractor":"1415232941","target":"present","response":"present","rt":"10230.5","correct":true,"confidence":2},{"trial_n":48,"span":10,"encoder":"3631799101","distractor":"3331799101","target":"present","response":"absent","rt":"3632.700000003","correct":false,"confidence":4},{"trial_n":49,"span":9,"encoder":"204670056","distractor":"244670056","target":"absent","response":"absent","rt":"5472.700000003","correct":true,"confidence":5},{"trial_n":50,"span":9,"encoder":"700239918","distractor":"700239948","target":"absent","response":"absent","rt":"4191.299999997","correct":true,"confidence":5},{"trial_n":51,"span":10,"encoder":"5446129448","distractor":"5046129448","target":"absent","response":"absent","rt":"5907.900000006","correct":true,"confidence":4},{"trial_n":52,"span":10,"encoder":"1509604164","distractor":"3509604164","target":"absent","response":"absent","rt":"10880.5","correct":true,"confidence":4},{"trial_n":53,"span":11,"encoder":"66644701282","distractor":"66646701282","target":"present","response":"present","rt":"3676.400000006","correct":true,"confidence":5},{"trial_n":54,"span":11,"encoder":"76886381406","distractor":"76886381456","target":"present","response":"present","rt":"5904.299999997","correct":true,"confidence":3},{"trial_n":55,"span":12,"encoder":"304390196146","distractor":"304390192146","target":"absent","response":"absent","rt":"4311.3999999911","correct":true,"confidence":4},{"trial_n":56,"span":12,"encoder":"629767411853","distractor":"629767411843","target":"absent","response":"absent","rt":"9403.8999999911","correct":true,"confidence":4},{"trial_n":57,"span":13,"encoder":"5536020128320","distractor":"5536025128320","target":"present","response":"absent","rt":"5580.6999999881","correct":false,"confidence":3},{"trial_n":58,"span":12,"encoder":"724013535865","distractor":"720013535865","target":"present","response":"absent","rt":"6811.200000003","correct":false,"confidence":2},{"trial_n":59,"span":11,"encoder":"97747066667","distractor":"57747066667","target":"present","response":"present","rt":"6573.299999997","correct":true,"confidence":3},{"trial_n":60,"span":11,"encoder":"49264965062","distractor":"49264965862","target":"present","response":"present","rt":"7317.6999999881","correct":true,"confidence":2},{"trial_n":61,"span":12,"encoder":"657393988338","distractor":"657393988378","target":"present","response":"absent","rt":"5012.599999994","correct":false,"confidence":2},{"trial_n":62,"span":11,"encoder":"76494442918","distractor":"76494842918","target":"absent","response":"absent","rt":"6674.299999997","correct":true,"confidence":4},{"trial_n":63,"span":11,"encoder":"94935410004","distractor":"94937410004","target":"present","response":"absent","rt":"11085.599999994","correct":false,"confidence":2},{"trial_n":64,"span":10,"encoder":"4862335350","distractor":"3862335350","target":"absent","response":"absent","rt":"8575.1000000089","correct":true,"confidence":1},{"trial_n":65,"span":10,"encoder":"1073751779","distractor":"1773751779","target":"absent","response":"present","rt":"6107","correct":false,"confidence":2},{"trial_n":66,"span":9,"encoder":"874327609","distractor":"874322609","target":"present","response":"present","rt":"3466.200000003","correct":true,"confidence":4},{"trial_n":67,"span":9,"encoder":"884852322","distractor":"384852322","target":"present","response":"present","rt":"3216","correct":true,"confidence":4},{"trial_n":68,"span":10,"encoder":"5022842938","distractor":"5029842938","target":"absent","response":"absent","rt":"8730","correct":true,"confidence":3},{"trial_n":69,"span":10,"encoder":"4913537648","distractor":"4513537648","target":"absent","response":"absent","rt":"7353.700000003","correct":true,"confidence":2},{"trial_n":70,"span":11,"encoder":"42691286690","distractor":"48691286690","target":"present","response":"present","rt":"9334.3999999911","correct":true,"confidence":2},{"trial_n":71,"span":8,"encoder":"25655419","distractor":"65655419","target":"present","response":"present","rt":"5729.8000000119","correct":true,"confidence":-1},{"trial_n":72,"span":8,"encoder":"99794990","distractor":"99294990","target":"present","response":"present","rt":"4218","correct":true,"confidence":-1},{"trial_n":73,"span":9,"encoder":"520619927","distractor":"720619927","target":"absent","response":"absent","rt":"5300.400000006","correct":true,"confidence":-1},{"trial_n":74,"span":9,"encoder":"747427390","distractor":"747425390","target":"absent","response":"present","rt":"8783.6000000089","correct":false,"confidence":-1},{"trial_n":75,"span":8,"encoder":"42354237","distractor":"42254237","target":"present","response":"present","rt":"7105.799999997","correct":true,"confidence":-1},{"trial_n":76,"span":8,"encoder":"12749136","distractor":"12729136","target":"present","response":"present","rt":"5412.099999994","correct":true,"confidence":-1},{"trial_n":77,"span":9,"encoder":"509123246","distractor":"509123046","target":"absent","response":"present","rt":"5185.5","correct":false,"confidence":-1},{"trial_n":78,"span":8,"encoder":"55826279","distractor":"55826379","target":"present","response":"present","rt":"6041.700000003","correct":true,"confidence":-1},{"trial_n":79,"span":8,"encoder":"41106238","distractor":"41206238","target":"absent","response":"absent","rt":"4821.799999997","correct":true,"confidence":-1},{"trial_n":80,"span":9,"encoder":"095589625","distractor":"095489625","target":"present","response":"present","rt":"6531.599999994","correct":true,"confidence":-1},{"trial_n":81,"span":9,"encoder":"564776828","distractor":"564676828","target":"present","response":"present","rt":"7066.5","correct":true,"confidence":-1},{"trial_n":82,"span":10,"encoder":"3467893728","distractor":"3467593728","target":"absent","response":"absent","rt":"9695.3999999911","correct":true,"confidence":-1},{"trial_n":83,"span":10,"encoder":"0351125473","distractor":"0358125473","target":"absent","response":"absent","rt":"3770.6999999881","correct":true,"confidence":-1},{"trial_n":84,"span":11,"encoder":"44318220595","distractor":"44316220595","target":"present","response":"present","rt":"8789","correct":true,"confidence":-1},{"trial_n":85,"span":11,"encoder":"89233964216","distractor":"89283964216","target":"present","response":"absent","rt":"6108.400000006","correct":false,"confidence":-1},{"trial_n":86,"span":10,"encoder":"0409304616","distractor":"0409304618","target":"present","response":"present","rt":"4123.299999997","correct":true,"confidence":-1},{"trial_n":87,"span":10,"encoder":"0879870230","distractor":"3879870230","target":"absent","response":"absent","rt":"3636.700000003","correct":true,"confidence":-1},{"trial_n":88,"span":11,"encoder":"93206247593","distractor":"93276247593","target":"present","response":"present","rt":"10456.200000003","correct":true,"confidence":-1},{"trial_n":89,"span":11,"encoder":"20779376138","distractor":"26779376138","target":"absent","response":"present","rt":"7486.599999994","correct":false,"confidence":-1},{"trial_n":90,"span":10,"encoder":"9404929233","distractor":"9404929533","target":"absent","response":"absent","rt":"7181","correct":true,"confidence":-1},{"trial_n":91,"span":10,"encoder":"3170132707","distractor":"3670132707","target":"present","response":"present","rt":"6999.299999997","correct":true,"confidence":4},{"trial_n":92,"span":11,"encoder":"54173161082","distractor":"54173151082","target":"present","response":"present","rt":"6291.599999994","correct":true,"confidence":3},{"trial_n":93,"span":11,"encoder":"29006043487","distractor":"29006063487","target":"present","response":"present","rt":"5738.099999994","correct":true,"confidence":4},{"trial_n":94,"span":12,"encoder":"234366667571","distractor":"034366667571","target":"absent","response":"absent","rt":"6423.700000003","correct":true,"confidence":5},{"trial_n":95,"span":12,"encoder":"273817834094","distractor":"273817834064","target":"absent","response":"present","rt":"11603.5","correct":false,"confidence":2},{"trial_n":96,"span":11,"encoder":"45671637475","distractor":"45674637475","target":"present","response":"absent","rt":"8968.700000003","correct":false,"confidence":2},{"trial_n":97,"span":10,"encoder":"6837861996","distractor":"6838861996","target":"present","response":"present","rt":"6861.8000000119","correct":true,"confidence":4},{"trial_n":98,"span":10,"encoder":"5126131469","distractor":"5126132469","target":"absent","response":"present","rt":"6734.299999997","correct":false,"confidence":4},{"trial_n":99,"span":9,"encoder":"689043146","distractor":"189043146","target":"absent","response":"absent","rt":"8143","correct":true,"confidence":2},{"trial_n":100,"span":9,"encoder":"271626736","distractor":"275626736","target":"absent","response":"absent","rt":"2322","correct":true,"confidence":5},{"trial_n":101,"span":10,"encoder":"2821038535","distractor":"2821038035","target":"absent","response":"absent","rt":"4479.900000006","correct":true,"confidence":5},{"trial_n":102,"span":10,"encoder":"5652493427","distractor":"1652493427","target":"absent","response":"absent","rt":"5265.700000003","correct":true,"confidence":5},{"trial_n":103,"span":11,"encoder":"29648772901","distractor":"27648772901","target":"absent","response":"absent","rt":"10477.5","correct":true,"confidence":3},{"trial_n":104,"span":11,"encoder":"24793587612","distractor":"24793987612","target":"present","response":"present","rt":"6812.8999999911","correct":true,"confidence":3},{"trial_n":105,"span":12,"encoder":"624998619021","distractor":"624998616021","target":"present","response":"present","rt":"7463.799999997","correct":true,"confidence":4},{"trial_n":106,"span":12,"encoder":"558679215678","distractor":"558673215678","target":"present","response":"present","rt":"3241.400000006","correct":true,"confidence":4},{"trial_n":107,"span":13,"encoder":"0410679267985","distractor":"0410679267955","target":"present","response":"present","rt":"8231.599999994","correct":true,"confidence":3},{"trial_n":108,"span":13,"encoder":"6784453360454","distractor":"6784153360454","target":"absent","response":"absent","rt":"4761.599999994","correct":true,"confidence":5},{"trial_n":109,"span":14,"encoder":"39410844282357","distractor":"39410814282357","target":"present","response":"present","rt":"6589","correct":true,"confidence":4},{"trial_n":110,"span":14,"encoder":"18378289469844","distractor":"58378289469844","target":"present","response":"present","rt":"4457.799999997","correct":true,"confidence":2},{"trial_n":111,"span":15,"encoder":"006779629200066","distractor":"006789629200066","target":"present","response":"absent","rt":"10165.5","correct":false,"confidence":3},{"trial_n":112,"span":14,"encoder":"32065107587622","distractor":"37065107587622","target":"present","response":"present","rt":"7207.6999999881","correct":true,"confidence":2},{"trial_n":113,"span":14,"encoder":"62758639128218","distractor":"65758639128218","target":"absent","response":"present","rt":"7743.3000000119","correct":false,"confidence":2},{"trial_n":114,"span":13,"encoder":"5150255910522","distractor":"5150855910522","target":"absent","response":"absent","rt":"11987.600000009","correct":true,"confidence":2},{"trial_n":115,"span":13,"encoder":"6972342103632","distractor":"6972342163632","target":"present","response":"present","rt":"11572.700000003","correct":true,"confidence":3},{"trial_n":116,"span":14,"encoder":"38448484202677","distractor":"38448484203677","target":"absent","response":"present","rt":"14304.899999991","correct":false,"confidence":3},{"trial_n":117,"span":13,"encoder":"4314581396392","distractor":"4314581386392","target":"absent","response":"absent","rt":"6804.1999999881","correct":true,"confidence":4},{"trial_n":118,"span":13,"encoder":"7851408156335","distractor":"7851448156335","target":"absent","response":"present","rt":"8387.299999997","correct":false,"confidence":3},{"trial_n":119,"span":12,"encoder":"562588450229","distractor":"862588450229","target":"absent","response":"absent","rt":"9300.6999999881","correct":true,"confidence":4},{"trial_n":120,"span":12,"encoder":"659492674660","distractor":"959492674660","target":"present","response":"present","rt":"1765.299999997","correct":true,"confidence":4},{"trial_n":121,"span":13,"encoder":"0498647716798","distractor":"0494647716798","target":"absent","response":"absent","rt":"6955.799999997","correct":true,"confidence":4},{"trial_n":122,"span":13,"encoder":"1697059677682","distractor":"1697059677082","target":"absent","response":"absent","rt":"9055.900000006","correct":true,"confidence":2},{"trial_n":123,"span":14,"encoder":"37682920725502","distractor":"37682925725502","target":"present","response":"present","rt":"8545.5","correct":true,"confidence":2},{"trial_n":124,"span":14,"encoder":"13403591637687","distractor":"12403591637687","target":"present","response":"present","rt":"4575.5","correct":true,"confidence":3},{"trial_n":125,"span":15,"encoder":"929312364451500","distractor":"929312364454500","target":"absent","response":"absent","rt":"7383.6999999881","correct":true,"confidence":3},{"trial_n":126,"span":15,"encoder":"109785198087822","distractor":"109785198017822","target":"absent","response":"present","rt":"6503","correct":false,"confidence":3},{"trial_n":127,"span":14,"encoder":"42303711357525","distractor":"42303721357525","target":"present","response":"present","rt":"6484.299999997","correct":true,"confidence":3},{"trial_n":128,"span":14,"encoder":"15548853003110","distractor":"15548053003110","target":"present","response":"present","rt":"4075.799999997","correct":true,"confidence":5},{"trial_n":129,"span":15,"encoder":"346258079159386","distractor":"346158079159386","target":"absent","response":"present","rt":"4799.8999999911","correct":false,"confidence":4},{"trial_n":130,"span":14,"encoder":"42288386031378","distractor":"42288386031379","target":"absent","response":"absent","rt":"8362.799999997","correct":true,"confidence":4},{"trial_n":131,"span":14,"encoder":"77396872720569","distractor":"77396872320569","target":"present","response":"present","rt":"4368.8999999911","correct":true,"confidence":5},{"trial_n":132,"span":15,"encoder":"580288464511213","distractor":"580288464311213","target":"present","response":"present","rt":"709","correct":true,"confidence":1},{"trial_n":133,"span":15,"encoder":"024418160534014","distractor":"024498160534014","target":"absent","response":"absent","rt":"4022.5","correct":true,"confidence":4},{"trial_n":134,"span":16,"encoder":"4848719007662309","distractor":"4848719007662399","target":"present","response":"absent","rt":"1608.799999997","correct":false,"confidence":1},{"trial_n":135,"span":15,"encoder":"995234550067975","distractor":"995264550067975","target":"present","response":"present","rt":"6821.700000003","correct":true,"confidence":4},{"trial_n":136,"span":15,"encoder":"062170476819436","distractor":"062170479819436","target":"present","response":"absent","rt":"7780.099999994","correct":false,"confidence":2},{"trial_n":137,"span":14,"encoder":"22779795700367","distractor":"22779791700367","target":"absent","response":"absent","rt":"4091.5","correct":true,"confidence":5},{"trial_n":138,"span":14,"encoder":"63569767730871","distractor":"63269767730871","target":"absent","response":"absent","rt":"2735.099999994","correct":true,"confidence":5},{"trial_n":139,"span":15,"encoder":"871017509944133","distractor":"875017509944133","target":"absent","response":"absent","rt":"7707.3999999911","correct":true,"confidence":3},{"trial_n":140,"span":15,"encoder":"953684300306850","distractor":"953674300306850","target":"present","response":"present","rt":"4355","correct":true,"confidence":3}]