[{"trial_n":1,"n_dots":4.25,"target":"left","response":"right","rt":4519,"correct":false,"confidence":-1},{"trial_n":2,"n_dots":4.25,"target":"left","response":"left","rt":659,"correct":true,"confidence":-1},{"trial_n":3,"n_dots":4.25,"target":"left","response":"left","rt":546,"correct":true,"confidence":-1},{"trial_n":4,"n_dots":3.85,"target":"right","response":"right","rt":529,"correct":true,"confidence":-1},{"trial_n":5,"n_dots":3.85,"target":"left","response":"left","rt":629,"correct":true,"confidence":-1},{"trial_n":6,"n_dots":3.45,"target":"right","response":"right","rt":498,"correct":true,"confidence":-1},{"trial_n":7,"n_dots":3.45,"target":"left","response":"left","rt":652,"correct":true,"confidence":-1},{"trial_n":8,"n_dots":3.25,"target":"left","response":"left","rt":498,"correct":true,"confidence":-1},{"trial_n":9,"n_dots":3.25,"target":"left","response":"left","rt":449,"correct":true,"confidence":-1},{"trial_n":10,"n_dots":3.05,"target":"right","response":"left","rt":701,"correct":false,"confidence":-1},{"trial_n":11,"n_dots":3.25,"target":"right","response":"left","rt":753,"correct":false,"confidence":-1},{"trial_n":12,"n_dots":3.45,"target":"right","response":"right","rt":454,"correct":true,"confidence":-1},{"trial_n":13,"n_dots":3.45,"target":"right","response":"right","rt":382,"correct":true,"confidence":-1},{"trial_n":14,"n_dots":3.35,"target":"right","response":"right","rt":325,"correct":true,"confidence":-1},{"trial_n":15,"n_dots":3.35,"target":"left","response":"right","rt":595,"correct":false,"confidence":-1},{"trial_n":16,"n_dots":3.45,"target":"left","response":"left","rt":637,"correct":true,"confidence":-1},{"trial_n":17,"n_dots":3.45,"target":"left","response":"left","rt":556,"correct":true,"confidence":-1},{"trial_n":18,"n_dots":3.35,"target":"right","response":"right","rt":325,"correct":true,"confidence":-1},{"trial_n":19,"n_dots":3.35,"target":"right","response":"right","rt":334,"correct":true,"confidence":-1},{"trial_n":20,"n_dots":3.25,"target":"right","response":"right","rt":416,"correct":true,"confidence":-1},{"trial_n":21,"n_dots":3.25,"target":"left","response":"left","rt":454,"correct":true,"confidence":3},{"trial_n":22,"n_dots":3.15,"target":"right","response":"right","rt":266.99999999999,"correct":true,"confidence":3},{"trial_n":23,"n_dots":3.15,"target":"left","response":"right","rt":1075,"correct":false,"confidence":2},{"trial_n":24,"n_dots":3.25,"target":"right","response":"right","rt":674.99999999999,"correct":true,"confidence":3},{"trial_n":25,"n_dots":3.25,"target":"left","response":"left","rt":535.99999999999,"correct":true,"confidence":3},{"trial_n":26,"n_dots":3.15,"target":"right","response":"right","rt":766,"correct":true,"confidence":3},{"trial_n":27,"n_dots":3.15,"target":"left","response":"right","rt":601,"correct":false,"confidence":2},{"trial_n":28,"n_dots":3.25,"target":"left","response":"left","rt":584.99999999997,"correct":true,"confidence":2},{"trial_n":29,"n_dots":3.25,"target":"left","response":"right","rt":1272,"correct":false,"confidence":2},{"trial_n":30,"n_dots":3.35,"target":"right","response":"left","rt":827,"correct":false,"confidence":3},{"trial_n":31,"n_dots":3.45,"target":"right","response":"right","rt":846,"correct":true,"confidence":3},{"trial_n":32,"n_dots":3.45,"target":"left","response":"left","rt":529,"correct":true,"confidence":3},{"trial_n":33,"n_dots":3.35,"target":"left","response":"left","rt":797,"correct":true,"confidence":3},{"trial_n":34,"n_dots":3.35,"target":"right","response":"right","rt":323,"correct":true,"confidence":3},{"trial_n":35,"n_dots":3.25,"target":"left","response":"left","rt":1095,"correct":true,"confidence":3},{"trial_n":36,"n_dots":3.25,"target":"left","response":"left","rt":486,"correct":true,"confidence":4},{"trial_n":37,"n_dots":3.15,"target":"right","response":"right","rt":802,"correct":true,"confidence":3},{"trial_n":38,"n_dots":3.15,"target":"left","response":"left","rt":1560,"correct":true,"confidence":2},{"trial_n":39,"n_dots":3.05,"target":"left","response":"right","rt":786,"correct":false,"confidence":2},{"trial_n":40,"n_dots":3.15,"target":"left","response":"left","rt":397.00000000003,"correct":true,"confidence":4},{"trial_n":41,"n_dots":3.15,"target":"right","response":"left","rt":477.99999999994,"correct":false,"confidence":3},{"trial_n":42,"n_dots":3.25,"target":"right","response":"right","rt":76,"correct":true,"confidence":3},{"trial_n":43,"n_dots":3.25,"target":"right","response":"right","rt":491.00000000006,"correct":true,"confidence":3},{"trial_n":44,"n_dots":3.15,"target":"left","response":"left","rt":43,"correct":true,"confidence":3},{"trial_n":45,"n_dots":3.15,"target":"left","response":"left","rt":565,"correct":true,"confidence":3},{"trial_n":46,"n_dots":3.05,"target":"left","response":"right","rt":492,"correct":false,"confidence":3},{"trial_n":47,"n_dots":3.15,"target":"right","response":"left","rt":100,"correct":false,"confidence":3},{"trial_n":48,"n_dots":3.25,"target":"right","response":"right","rt":247,"correct":true,"confidence":3},{"trial_n":49,"n_dots":3.25,"target":"left","response":"left","rt":-14.999999999942,"correct":true,"confidence":3},{"trial_n":50,"n_dots":3.15,"target":"left","response":"left","rt":108,"correct":true,"confidence":3},{"trial_n":51,"n_dots":3.15,"target":"right","response":"right","rt":19,"correct":true,"confidence":3},{"trial_n":52,"n_dots":3.05,"target":"left","response":"left","rt":-46,"correct":true,"confidence":3},{"trial_n":53,"n_dots":3.05,"target":"right","response":"right","rt":-31,"correct":true,"confidence":3},{"trial_n":54,"n_dots":2.95,"target":"right","response":"right","rt":531,"correct":true,"confidence":3},{"trial_n":55,"n_dots":2.95,"target":"left","response":"left","rt":-31,"correct":true,"confidence":3},{"trial_n":56,"n_dots":2.85,"target":"right","response":"right","rt":272,"correct":true,"confidence":3},{"trial_n":57,"n_dots":2.85,"target":"left","response":"left","rt":623,"correct":true,"confidence":3},{"trial_n":58,"n_dots":2.75,"target":"left","response":"right","rt":156.00000000006,"correct":false,"confidence":3},{"trial_n":59,"n_dots":2.85,"target":"left","response":"left","rt":647,"correct":true,"confidence":3},{"trial_n":60,"n_dots":2.85,"target":"left","response":"right","rt":311.99999999994,"correct":false,"confidence":3},{"trial_n":61,"n_dots":2.95,"target":"right","response":"right","rt":147,"correct":true,"confidence":3},{"trial_n":62,"n_dots":2.95,"target":"right","response":"right","rt":550,"correct":true,"confidence":4},{"trial_n":63,"n_dots":2.85,"target":"left","response":"left","rt":466,"correct":true,"confidence":4},{"trial_n":64,"n_dots":2.85,"target":"right","response":"right","rt":287,"correct":true,"confidence":3},{"trial_n":65,"n_dots":2.75,"target":"left","response":"left","rt":393,"correct":true,"confidence":3},{"trial_n":66,"n_dots":2.75,"target":"left","response":"left","rt":220.99999999988,"correct":true,"confidence":4},{"trial_n":67,"n_dots":2.65,"target":"right","response":"right","rt":173,"correct":true,"confidence":4},{"trial_n":68,"n_dots":2.65,"target":"right","response":"left","rt":630,"correct":false,"confidence":3},{"trial_n":69,"n_dots":2.75,"target":"right","response":"right","rt":671,"correct":true,"confidence":3},{"trial_n":70,"n_dots":2.75,"target":"left","response":"left","rt":410.00000000012,"correct":true,"confidence":2},{"trial_n":71,"n_dots":2.65,"target":"left","response":"right","rt":557,"correct":false,"confidence":2},{"trial_n":72,"n_dots":2.75,"target":"right","response":"right","rt":523,"correct":true,"confidence":3},{"trial_n":73,"n_dots":2.75,"target":"left","response":"left","rt":729,"correct":true,"confidence":3},{"trial_n":74,"n_dots":2.65,"target":"left","response":"right","rt":409,"correct":false,"confidence":3},{"trial_n":75,"n_dots":2.75,"target":"left","response":"left","rt":678,"correct":true,"confidence":4},{"trial_n":76,"n_dots":2.75,"target":"right","response":"right","rt":540,"correct":true,"confidence":3},{"trial_n":77,"n_dots":2.65,"target":"right","response":"right","rt":417,"correct":true,"confidence":3},{"trial_n":78,"n_dots":2.65,"target":"right","response":"left","rt":548,"correct":false,"confidence":3},{"trial_n":79,"n_dots":2.75,"target":"right","response":"left","rt":377,"correct":false,"confidence":4},{"trial_n":80,"n_dots":2.85,"target":"right","response":"right","rt":383.00000000012,"correct":true,"confidence":5},{"trial_n":81,"n_dots":2.85,"target":"right","response":"right","rt":714,"correct":true,"confidence":2},{"trial_n":82,"n_dots":2.75,"target":"left","response":"left","rt":359.99999999988,"correct":true,"confidence":4},{"trial_n":83,"n_dots":2.75,"target":"right","response":"right","rt":303,"correct":true,"confidence":5},{"trial_n":84,"n_dots":2.65,"target":"left","response":"left","rt":498,"correct":true,"confidence":3},{"trial_n":85,"n_dots":2.65,"target":"right","response":"right","rt":563,"correct":true,"confidence":3},{"trial_n":86,"n_dots":2.55,"target":"right","response":"right","rt":825.00000000012,"correct":true,"confidence":3},{"trial_n":87,"n_dots":2.55,"target":"right","response":"left","rt":172,"correct":false,"confidence":4},{"trial_n":88,"n_dots":2.65,"target":"left","response":"left","rt":352,"correct":true,"confidence":4},{"trial_n":89,"n_dots":2.65,"target":"left","response":"left","rt":277,"correct":true,"confidence":3},{"trial_n":90,"n_dots":2.55,"target":"left","response":"right","rt":677,"correct":false,"confidence":4},{"trial_n":91,"n_dots":2.65,"target":"right","response":"left","rt":235.99999999988,"correct":false,"confidence":4},{"trial_n":92,"n_dots":2.75,"target":"left","response":"left","rt":171,"correct":true,"confidence":4},{"trial_n":93,"n_dots":2.75,"target":"left","response":"left","rt":694,"correct":true,"confidence":3},{"trial_n":94,"n_dots":2.65,"target":"right","response":"left","rt":375,"correct":false,"confidence":4},{"trial_n":95,"n_dots":2.75,"target":"right","response":"left","rt":701,"correct":false,"confidence":4},{"trial_n":96,"n_dots":2.85,"target":"right","response":"right","rt":619,"correct":true,"confidence":3},{"trial_n":97,"n_dots":2.85,"target":"right","response":"left","rt":514,"correct":false,"confidence":4},{"trial_n":98,"n_dots":2.95,"target":"left","response":"left","rt":457,"correct":true,"confidence":4},{"trial_n":99,"n_dots":2.95,"target":"left","response":"left","rt":391,"correct":true,"confidence":4},{"trial_n":100,"n_dots":2.85,"target":"left","response":"left","rt":465,"correct":true,"confidence":4},{"trial_n":101,"n_dots":2.85,"target":"right","response":"right","rt":481,"correct":true,"confidence":3},{"trial_n":102,"n_dots":2.75,"target":"right","response":"right","rt":537,"correct":true,"confidence":4},{"trial_n":103,"n_dots":2.75,"target":"left","response":"left","rt":503.99999999988,"correct":true,"confidence":4},{"trial_n":104,"n_dots":2.65,"target":"right","response":"right","rt":308,"correct":true,"confidence":4},{"trial_n":105,"n_dots":2.65,"target":"right","response":"right","rt":137.00000000012,"correct":true,"confidence":3},{"trial_n":106,"n_dots":2.55,"target":"left","response":"left","rt":727,"correct":true,"confidence":4},{"trial_n":107,"n_dots":2.55,"target":"left","response":"right","rt":308,"correct":false,"confidence":3},{"trial_n":108,"n_dots":2.65,"target":"right","response":"left","rt":366,"correct":false,"confidence":4},{"trial_n":109,"n_dots":2.75,"target":"right","response":"right","rt":333.00000000012,"correct":true,"confidence":4},{"trial_n":110,"n_dots":2.75,"target":"left","response":"right","rt":399,"correct":false,"confidence":4},{"trial_n":111,"n_dots":2.85,"target":"left","response":"right","rt":529,"correct":false,"confidence":4},{"trial_n":112,"n_dots":2.95,"target":"left","response":"right","rt":398,"correct":false,"confidence":2},{"trial_n":113,"n_dots":3.05,"target":"right","response":"right","rt":389,"correct":true,"confidence":3},{"trial_n":114,"n_dots":3.05,"target":"right","response":"right","rt":594,"correct":true,"confidence":3},{"trial_n":115,"n_dots":2.95,"target":"left","response":"right","rt":644,"correct":false,"confidence":3},{"trial_n":116,"n_dots":3.05,"target":"left","response":"left","rt":439,"correct":true,"confidence":4},{"trial_n":117,"n_dots":3.05,"target":"right","response":"right","rt":913,"correct":true,"confidence":3},{"trial_n":118,"n_dots":2.95,"target":"right","response":"right","rt":514,"correct":true,"confidence":3},{"trial_n":119,"n_dots":2.95,"target":"right","response":"right","rt":472,"correct":true,"confidence":3},{"trial_n":120,"n_dots":2.85,"target":"right","response":"left","rt":528.00000000012,"correct":false,"confidence":4}]