[{"trial_n":1,"n_dots":4.25,"target":"left","response":"left","rt":5851.8000001907,"correct":true,"confidence":-1},{"trial_n":2,"n_dots":4.25,"target":"left","response":"left","rt":2180.7000007629,"correct":true,"confidence":-1},{"trial_n":3,"n_dots":3.85,"target":"right","response":"left","rt":1584,"correct":false,"confidence":-1},{"trial_n":4,"n_dots":4.25,"target":"right","response":"left","rt":1430.5999994278,"correct":false,"confidence":-1},{"trial_n":5,"n_dots":4.65,"target":"right","response":"right","rt":952.80000019073,"correct":true,"confidence":-1},{"trial_n":6,"n_dots":4.65,"target":"left","response":"left","rt":1732.6999998093,"correct":true,"confidence":-1},{"trial_n":7,"n_dots":4.25,"target":"left","response":"left","rt":842.89999961853,"correct":true,"confidence":-1},{"trial_n":8,"n_dots":4.25,"target":"left","response":"left","rt":656.89999961853,"correct":true,"confidence":-1},{"trial_n":9,"n_dots":4.05,"target":"left","response":"left","rt":773.69999980927,"correct":true,"confidence":-1},{"trial_n":10,"n_dots":4.05,"target":"right","response":"right","rt":692.80000019073,"correct":true,"confidence":-1},{"trial_n":11,"n_dots":3.85,"target":"right","response":"right","rt":631.20000076294,"correct":true,"confidence":-1},{"trial_n":12,"n_dots":3.85,"target":"right","response":"right","rt":666,"correct":true,"confidence":-1},{"trial_n":13,"n_dots":3.75,"target":"left","response":"left","rt":972.10000038147,"correct":true,"confidence":-1},{"trial_n":14,"n_dots":3.75,"target":"right","response":"right","rt":776.4000005722,"correct":true,"confidence":-1},{"trial_n":15,"n_dots":3.65,"target":"right","response":"right","rt":623.89999961853,"correct":true,"confidence":-1},{"trial_n":16,"n_dots":3.65,"target":"right","response":"right","rt":540.10000038147,"correct":true,"confidence":-1},{"trial_n":17,"n_dots":3.55,"target":"left","response":"left","rt":639.29999923706,"correct":true,"confidence":-1},{"trial_n":18,"n_dots":3.55,"target":"right","response":"right","rt":268.80000019073,"correct":true,"confidence":-1},{"trial_n":19,"n_dots":3.45,"target":"left","response":"left","rt":371.39999961853,"correct":true,"confidence":-1},{"trial_n":20,"n_dots":3.45,"target":"right","response":"right","rt":431.70000076294,"correct":true,"confidence":-1},{"trial_n":21,"n_dots":3.35,"target":"right","response":"right","rt":322.39999961853,"correct":true,"confidence":3},{"trial_n":22,"n_dots":3.35,"target":"right","response":"left","rt":521.29999923706,"correct":false,"confidence":4},{"trial_n":23,"n_dots":3.45,"target":"left","response":"left","rt":301.5,"correct":true,"confidence":3},{"trial_n":24,"n_dots":3.45,"target":"left","response":"left","rt":305.60000038147,"correct":true,"confidence":4},{"trial_n":25,"n_dots":3.35,"target":"right","response":"right","rt":719,"correct":true,"confidence":3},{"trial_n":26,"n_dots":3.35,"target":"left","response":"left","rt":505.5,"correct":true,"confidence":3},{"trial_n":27,"n_dots":3.25,"target":"right","response":"right","rt":700.69999980927,"correct":true,"confidence":3},{"trial_n":28,"n_dots":3.25,"target":"left","response":"left","rt":412.79999923706,"correct":true,"confidence":3},{"trial_n":29,"n_dots":3.15,"target":"left","response":"right","rt":1106.3000001907,"correct":false,"confidence":2},{"trial_n":30,"n_dots":3.25,"target":"left","response":"left","rt":145.69999980927,"correct":true,"confidence":3},{"trial_n":31,"n_dots":3.25,"target":"right","response":"right","rt":320.5,"correct":true,"confidence":4},{"trial_n":32,"n_dots":3.15,"target":"left","response":"left","rt":574.80000019073,"correct":true,"confidence":3},{"trial_n":33,"n_dots":3.15,"target":"left","response":"left","rt":409.70000076294,"correct":true,"confidence":3},{"trial_n":34,"n_dots":3.05,"target":"right","response":"left","rt":803,"correct":false,"confidence":3},{"trial_n":35,"n_dots":3.15,"target":"right","response":"right","rt":452.29999923706,"correct":true,"confidence":3},{"trial_n":36,"n_dots":3.15,"target":"left","response":"left","rt":901.5999994278,"correct":true,"confidence":3},{"trial_n":37,"n_dots":3.05,"target":"right","response":"left","rt":361.29999923706,"correct":false,"confidence":3},{"trial_n":38,"n_dots":3.15,"target":"right","response":"left","rt":314.39999961853,"correct":false,"confidence":3},{"trial_n":39,"n_dots":3.25,"target":"left","response":"left","rt":471.69999980927,"correct":true,"confidence":3},{"trial_n":40,"n_dots":3.25,"target":"left","response":"left","rt":332.79999923706,"correct":true,"confidence":4},{"trial_n":41,"n_dots":3.15,"target":"right","response":"left","rt":191.69999980927,"correct":false,"confidence":3},{"trial_n":42,"n_dots":3.25,"target":"left","response":"left","rt":346.10000038147,"correct":true,"confidence":4},{"trial_n":43,"n_dots":3.25,"target":"left","response":"left","rt":293.30000019073,"correct":true,"confidence":3},{"trial_n":44,"n_dots":3.15,"target":"left","response":"left","rt":293,"correct":true,"confidence":3},{"trial_n":45,"n_dots":3.15,"target":"left","response":"left","rt":328,"correct":true,"confidence":3},{"trial_n":46,"n_dots":3.05,"target":"left","response":"left","rt":446.39999961853,"correct":true,"confidence":3},{"trial_n":47,"n_dots":3.05,"target":"left","response":"left","rt":830.80000019073,"correct":true,"confidence":2},{"trial_n":48,"n_dots":2.95,"target":"left","response":"left","rt":524.60000038147,"correct":true,"confidence":3},{"trial_n":49,"n_dots":2.95,"target":"left","response":"right","rt":654.39999961853,"correct":false,"confidence":2},{"trial_n":50,"n_dots":3.05,"target":"right","response":"left","rt":641.5999994278,"correct":false,"confidence":3},{"trial_n":51,"n_dots":3.15,"target":"left","response":"left","rt":987.80000019073,"correct":true,"confidence":2},{"trial_n":52,"n_dots":3.15,"target":"right","response":"right","rt":497.69999980927,"correct":true,"confidence":2},{"trial_n":53,"n_dots":3.05,"target":"right","response":"left","rt":4.9000005722046,"correct":false,"confidence":3},{"trial_n":54,"n_dots":3.15,"target":"left","response":"left","rt":614.5,"correct":true,"confidence":3},{"trial_n":55,"n_dots":3.15,"target":"left","response":"left","rt":486.9000005722,"correct":true,"confidence":2},{"trial_n":56,"n_dots":3.05,"target":"left","response":"right","rt":832.4000005722,"correct":false,"confidence":2},{"trial_n":57,"n_dots":3.15,"target":"right","response":"right","rt":971.19999980927,"correct":true,"confidence":2},{"trial_n":58,"n_dots":3.15,"target":"right","response":"right","rt":654,"correct":true,"confidence":2},{"trial_n":59,"n_dots":3.05,"target":"left","response":"left","rt":618.30000019073,"correct":true,"confidence":2},{"trial_n":60,"n_dots":3.05,"target":"left","response":"left","rt":757.89999961853,"correct":true,"confidence":3},{"trial_n":61,"n_dots":2.95,"target":"right","response":"right","rt":1154.6999998093,"correct":true,"confidence":3},{"trial_n":62,"n_dots":2.95,"target":"right","response":"right","rt":698.89999961853,"correct":true,"confidence":3},{"trial_n":63,"n_dots":2.85,"target":"left","response":"left","rt":193.89999961853,"correct":true,"confidence":5},{"trial_n":64,"n_dots":2.85,"target":"right","response":"left","rt":651.30000019073,"correct":false,"confidence":2},{"trial_n":65,"n_dots":2.95,"target":"left","response":"left","rt":307.39999961853,"correct":true,"confidence":3},{"trial_n":66,"n_dots":2.95,"target":"left","response":"right","rt":500.10000038147,"correct":false,"confidence":3},{"trial_n":67,"n_dots":3.05,"target":"left","response":"left","rt":135.69999980927,"correct":true,"confidence":3},{"trial_n":68,"n_dots":3.05,"target":"right","response":"right","rt":588.9000005722,"correct":true,"confidence":3},{"trial_n":69,"n_dots":2.95,"target":"left","response":"left","rt":1036.3999996185,"correct":true,"confidence":2},{"trial_n":70,"n_dots":2.95,"target":"left","response":"left","rt":315.70000076294,"correct":true,"confidence":2},{"trial_n":71,"n_dots":2.85,"target":"right","response":"right","rt":511.19999980927,"correct":true,"confidence":2},{"trial_n":72,"n_dots":2.85,"target":"left","response":"left","rt":546.69999980927,"correct":true,"confidence":2},{"trial_n":73,"n_dots":2.75,"target":"right","response":"right","rt":1875.3999996185,"correct":true,"confidence":2},{"trial_n":74,"n_dots":2.75,"target":"right","response":"right","rt":445.69999980927,"correct":true,"confidence":2},{"trial_n":75,"n_dots":2.65,"target":"right","response":"right","rt":238.69999980927,"correct":true,"confidence":3},{"trial_n":76,"n_dots":2.65,"target":"right","response":"right","rt":1819.1000003815,"correct":true,"confidence":2},{"trial_n":77,"n_dots":2.55,"target":"right","response":"right","rt":904.60000038147,"correct":true,"confidence":2},{"trial_n":78,"n_dots":2.55,"target":"right","response":"left","rt":557.5999994278,"correct":false,"confidence":2},{"trial_n":79,"n_dots":2.65,"target":"right","response":"left","rt":1885.2000007629,"correct":false,"confidence":2},{"trial_n":80,"n_dots":2.75,"target":"left","response":"left","rt":948.70000076294,"correct":true,"confidence":2},{"trial_n":81,"n_dots":2.75,"target":"right","response":"right","rt":551.80000019073,"correct":true,"confidence":3},{"trial_n":82,"n_dots":2.65,"target":"left","response":"left","rt":771.5999994278,"correct":true,"confidence":3},{"trial_n":83,"n_dots":2.65,"target":"right","response":"right","rt":438.39999961853,"correct":true,"confidence":2},{"trial_n":84,"n_dots":2.55,"target":"right","response":"right","rt":525.5,"correct":true,"confidence":2},{"trial_n":85,"n_dots":2.55,"target":"right","response":"right","rt":343.30000019073,"correct":true,"confidence":3},{"trial_n":86,"n_dots":2.45,"target":"right","response":"right","rt":293.80000019073,"correct":true,"confidence":3},{"trial_n":87,"n_dots":2.45,"target":"left","response":"left","rt":653.10000038147,"correct":true,"confidence":3},{"trial_n":88,"n_dots":2.35,"target":"left","response":"left","rt":296.60000038147,"correct":true,"confidence":4},{"trial_n":89,"n_dots":2.35,"target":"right","response":"left","rt":127.9000005722,"correct":false,"confidence":3},{"trial_n":90,"n_dots":2.45,"target":"left","response":"left","rt":1958.6000003815,"correct":true,"confidence":4},{"trial_n":91,"n_dots":2.45,"target":"right","response":"left","rt":2088,"correct":false,"confidence":4},{"trial_n":92,"n_dots":2.55,"target":"left","response":"left","rt":469.69999980927,"correct":true,"confidence":3},{"trial_n":93,"n_dots":2.55,"target":"left","response":"left","rt":304.89999961853,"correct":true,"confidence":4},{"trial_n":94,"n_dots":2.45,"target":"left","response":"left","rt":442.30000019073,"correct":true,"confidence":5},{"trial_n":95,"n_dots":2.45,"target":"right","response":"left","rt":419.5999994278,"correct":false,"confidence":4},{"trial_n":96,"n_dots":2.55,"target":"right","response":"left","rt":354.30000019073,"correct":false,"confidence":3},{"trial_n":97,"n_dots":2.65,"target":"right","response":"left","rt":487.10000038147,"correct":false,"confidence":4},{"trial_n":98,"n_dots":2.75,"target":"right","response":"right","rt":754.69999980927,"correct":true,"confidence":2},{"trial_n":99,"n_dots":2.75,"target":"left","response":"left","rt":476.29999923706,"correct":true,"confidence":4},{"trial_n":100,"n_dots":2.65,"target":"right","response":"left","rt":515.30000019073,"correct":false,"confidence":3},{"trial_n":101,"n_dots":2.75,"target":"right","response":"left","rt":337.30000019073,"correct":false,"confidence":3},{"trial_n":102,"n_dots":2.85,"target":"left","response":"left","rt":255.5,"correct":true,"confidence":3},{"trial_n":103,"n_dots":2.85,"target":"left","response":"left","rt":255,"correct":true,"confidence":4},{"trial_n":104,"n_dots":2.75,"target":"right","response":"left","rt":900.80000019073,"correct":false,"confidence":3},{"trial_n":105,"n_dots":2.85,"target":"right","response":"left","rt":441.30000019073,"correct":false,"confidence":3},{"trial_n":106,"n_dots":2.95,"target":"left","response":"left","rt":367.89999961853,"correct":true,"confidence":4},{"trial_n":107,"n_dots":2.95,"target":"left","response":"left","rt":777,"correct":true,"confidence":3},{"trial_n":108,"n_dots":2.85,"target":"right","response":"left","rt":839.29999923706,"correct":false,"confidence":3},{"trial_n":109,"n_dots":2.95,"target":"right","response":"left","rt":509.5999994278,"correct":false,"confidence":3},{"trial_n":110,"n_dots":3.05,"target":"left","response":"left","rt":326.19999980927,"correct":true,"confidence":4},{"trial_n":111,"n_dots":3.05,"target":"right","response":"left","rt":344.30000019073,"correct":false,"confidence":4},{"trial_n":112,"n_dots":3.15,"target":"left","response":"left","rt":368.80000019073,"correct":true,"confidence":3},{"trial_n":113,"n_dots":3.15,"target":"left","response":"left","rt":350.39999961853,"correct":true,"confidence":5},{"trial_n":114,"n_dots":3.05,"target":"right","response":"left","rt":425.39999961853,"correct":false,"confidence":2},{"trial_n":115,"n_dots":3.15,"target":"right","response":"left","rt":490,"correct":false,"confidence":3},{"trial_n":116,"n_dots":3.25,"target":"right","response":"left","rt":614.30000019073,"correct":false,"confidence":2},{"trial_n":117,"n_dots":3.35,"target":"right","response":"right","rt":741.69999980927,"correct":true,"confidence":2},{"trial_n":118,"n_dots":3.35,"target":"left","response":"left","rt":269.5999994278,"correct":true,"confidence":2},{"trial_n":119,"n_dots":3.25,"target":"left","response":"left","rt":741.69999980927,"correct":true,"confidence":3},{"trial_n":120,"n_dots":3.25,"target":"left","response":"left","rt":1191,"correct":true,"confidence":2}]