[{"trial_n":1,"n_dots":4.25,"target":"left","response":"left","rt":4404.299999997,"correct":true,"confidence":-1},{"trial_n":2,"n_dots":4.25,"target":"right","response":"right","rt":756.70000000298,"correct":true,"confidence":-1},{"trial_n":3,"n_dots":3.85,"target":"left","response":"right","rt":972.60000000894,"correct":false,"confidence":-1},{"trial_n":4,"n_dots":4.25,"target":"left","response":"left","rt":677.29999999702,"correct":true,"confidence":-1},{"trial_n":5,"n_dots":4.25,"target":"left","response":"left","rt":741.40000000596,"correct":true,"confidence":-1},{"trial_n":6,"n_dots":3.85,"target":"right","response":"right","rt":606,"correct":true,"confidence":-1},{"trial_n":7,"n_dots":3.85,"target":"right","response":"right","rt":803.19999998808,"correct":true,"confidence":-1},{"trial_n":8,"n_dots":3.65,"target":"right","response":"right","rt":914.5,"correct":true,"confidence":-1},{"trial_n":9,"n_dots":3.65,"target":"left","response":"left","rt":624.20000000298,"correct":true,"confidence":-1},{"trial_n":10,"n_dots":3.45,"target":"right","response":"left","rt":652,"correct":false,"confidence":-1},{"trial_n":11,"n_dots":3.65,"target":"left","response":"left","rt":642,"correct":true,"confidence":-1},{"trial_n":12,"n_dots":3.65,"target":"left","response":"right","rt":859.29999999702,"correct":false,"confidence":-1},{"trial_n":13,"n_dots":3.75,"target":"left","response":"left","rt":468.40000000596,"correct":true,"confidence":-1},{"trial_n":14,"n_dots":3.75,"target":"right","response":"right","rt":548.29999999702,"correct":true,"confidence":-1},{"trial_n":15,"n_dots":3.65,"target":"left","response":"left","rt":383.79999999702,"correct":true,"confidence":-1},{"trial_n":16,"n_dots":3.65,"target":"left","response":"left","rt":484.70000000298,"correct":true,"confidence":-1},{"trial_n":17,"n_dots":3.55,"target":"left","response":"left","rt":290.80000001192,"correct":true,"confidence":-1},{"trial_n":18,"n_dots":3.55,"target":"right","response":"right","rt":422.10000000894,"correct":true,"confidence":-1},{"trial_n":19,"n_dots":3.45,"target":"left","response":"left","rt":354.70000000298,"correct":true,"confidence":-1},{"trial_n":20,"n_dots":3.45,"target":"right","response":"right","rt":354.20000000298,"correct":true,"confidence":-1},{"trial_n":21,"n_dots":3.35,"target":"right","response":"right","rt":362.10000000894,"correct":true,"confidence":4},{"trial_n":22,"n_dots":3.35,"target":"left","response":"right","rt":615.60000000894,"correct":false,"confidence":4},{"trial_n":23,"n_dots":3.45,"target":"right","response":"right","rt":402.29999999702,"correct":true,"confidence":5},{"trial_n":24,"n_dots":3.45,"target":"right","response":"right","rt":374.29999999702,"correct":true,"confidence":3},{"trial_n":25,"n_dots":3.35,"target":"left","response":"left","rt":240.20000000298,"correct":true,"confidence":3},{"trial_n":26,"n_dots":3.35,"target":"right","response":"left","rt":390.30000001192,"correct":false,"confidence":4},{"trial_n":27,"n_dots":3.45,"target":"right","response":"right","rt":360.19999998808,"correct":true,"confidence":4},{"trial_n":28,"n_dots":3.45,"target":"left","response":"right","rt":896.29999999702,"correct":false,"confidence":4},{"trial_n":29,"n_dots":3.55,"target":"right","response":"left","rt":918.09999999404,"correct":false,"confidence":3},{"trial_n":30,"n_dots":3.65,"target":"right","response":"right","rt":419.10000000894,"correct":true,"confidence":5},{"trial_n":31,"n_dots":3.65,"target":"left","response":"right","rt":538.70000000298,"correct":false,"confidence":5},{"trial_n":32,"n_dots":3.75,"target":"right","response":"left","rt":1168.700000003,"correct":false,"confidence":3},{"trial_n":33,"n_dots":3.85,"target":"right","response":"right","rt":1758.099999994,"correct":true,"confidence":2},{"trial_n":34,"n_dots":3.85,"target":"left","response":"left","rt":470.19999998808,"correct":true,"confidence":4},{"trial_n":35,"n_dots":3.75,"target":"left","response":"left","rt":306.09999999404,"correct":true,"confidence":4},{"trial_n":36,"n_dots":3.75,"target":"left","response":"left","rt":414.10000000894,"correct":true,"confidence":5},{"trial_n":37,"n_dots":3.65,"target":"right","response":"right","rt":351.5,"correct":true,"confidence":5},{"trial_n":38,"n_dots":3.65,"target":"right","response":"left","rt":429.40000000596,"correct":false,"confidence":5},{"trial_n":39,"n_dots":3.75,"target":"left","response":"left","rt":344.19999998808,"correct":true,"confidence":5},{"trial_n":40,"n_dots":3.75,"target":"right","response":"right","rt":290.90000000596,"correct":true,"confidence":4},{"trial_n":41,"n_dots":3.65,"target":"left","response":"left","rt":260.29999999702,"correct":true,"confidence":5},{"trial_n":42,"n_dots":3.65,"target":"left","response":"left","rt":833.19999998808,"correct":true,"confidence":4},{"trial_n":43,"n_dots":3.55,"target":"left","response":"left","rt":482.90000000596,"correct":true,"confidence":5},{"trial_n":44,"n_dots":3.55,"target":"right","response":"right","rt":579.40000000596,"correct":true,"confidence":3},{"trial_n":45,"n_dots":3.45,"target":"left","response":"left","rt":660.90000000596,"correct":true,"confidence":3},{"trial_n":46,"n_dots":3.45,"target":"right","response":"right","rt":315.5,"correct":true,"confidence":1},{"trial_n":47,"n_dots":3.35,"target":"left","response":"left","rt":917,"correct":true,"confidence":4},{"trial_n":48,"n_dots":3.35,"target":"left","response":"left","rt":1353.3000000119,"correct":true,"confidence":4},{"trial_n":49,"n_dots":3.25,"target":"right","response":"right","rt":1314.900000006,"correct":true,"confidence":5},{"trial_n":50,"n_dots":3.25,"target":"left","response":"right","rt":1605,"correct":false,"confidence":3},{"trial_n":51,"n_dots":3.35,"target":"left","response":"left","rt":845.20000000298,"correct":true,"confidence":5},{"trial_n":52,"n_dots":3.35,"target":"right","response":"right","rt":1231.3999999911,"correct":true,"confidence":1},{"trial_n":53,"n_dots":3.25,"target":"left","response":"left","rt":1697.400000006,"correct":true,"confidence":1},{"trial_n":54,"n_dots":3.25,"target":"left","response":"right","rt":1111.599999994,"correct":false,"confidence":3},{"trial_n":55,"n_dots":3.35,"target":"right","response":"right","rt":1003.799999997,"correct":true,"confidence":2},{"trial_n":56,"n_dots":3.35,"target":"left","response":"left","rt":1030.400000006,"correct":true,"confidence":2},{"trial_n":57,"n_dots":3.25,"target":"left","response":"left","rt":922.79999999702,"correct":true,"confidence":3},{"trial_n":58,"n_dots":3.25,"target":"right","response":"right","rt":1237.6000000089,"correct":true,"confidence":4},{"trial_n":59,"n_dots":3.15,"target":"right","response":"right","rt":1351.299999997,"correct":true,"confidence":4},{"trial_n":60,"n_dots":3.15,"target":"right","response":"left","rt":1222.5,"correct":false,"confidence":1},{"trial_n":61,"n_dots":3.25,"target":"left","response":"right","rt":901.79999999702,"correct":false,"confidence":4},{"trial_n":62,"n_dots":3.35,"target":"left","response":"left","rt":824.39999999106,"correct":true,"confidence":3},{"trial_n":63,"n_dots":3.35,"target":"right","response":"left","rt":921.40000000596,"correct":false,"confidence":3},{"trial_n":64,"n_dots":3.45,"target":"right","response":"right","rt":784.39999999106,"correct":true,"confidence":4},{"trial_n":65,"n_dots":3.45,"target":"left","response":"left","rt":1211.400000006,"correct":true,"confidence":1},{"trial_n":66,"n_dots":3.35,"target":"right","response":"left","rt":839.70000000298,"correct":false,"confidence":1},{"trial_n":67,"n_dots":3.45,"target":"left","response":"left","rt":1002.099999994,"correct":true,"confidence":2},{"trial_n":68,"n_dots":3.45,"target":"right","response":"left","rt":872.70000000298,"correct":false,"confidence":4},{"trial_n":69,"n_dots":3.55,"target":"right","response":"right","rt":825.89999999106,"correct":true,"confidence":2},{"trial_n":70,"n_dots":3.55,"target":"right","response":"right","rt":3151.6000000089,"correct":true,"confidence":1},{"trial_n":71,"n_dots":3.45,"target":"right","response":"right","rt":1073.8999999911,"correct":true,"confidence":4},{"trial_n":72,"n_dots":3.45,"target":"left","response":"left","rt":1655.299999997,"correct":true,"confidence":4},{"trial_n":73,"n_dots":3.35,"target":"left","response":"left","rt":996.39999999106,"correct":true,"confidence":4},{"trial_n":74,"n_dots":3.35,"target":"left","response":"left","rt":1038.299999997,"correct":true,"confidence":1},{"trial_n":75,"n_dots":3.25,"target":"right","response":"right","rt":909.29999999702,"correct":true,"confidence":4},{"trial_n":76,"n_dots":3.25,"target":"right","response":"right","rt":1619.6999999881,"correct":true,"confidence":1},{"trial_n":77,"n_dots":3.15,"target":"right","response":"right","rt":1325.799999997,"correct":true,"confidence":3},{"trial_n":78,"n_dots":3.15,"target":"left","response":"left","rt":829.40000000596,"correct":true,"confidence":3},{"trial_n":79,"n_dots":3.05,"target":"right","response":"left","rt":860.80000001192,"correct":false,"confidence":3},{"trial_n":80,"n_dots":3.15,"target":"right","response":"right","rt":510.70000000298,"correct":true,"confidence":3},{"trial_n":81,"n_dots":3.15,"target":"left","response":"left","rt":1266.3999999911,"correct":true,"confidence":3},{"trial_n":82,"n_dots":3.05,"target":"left","response":"left","rt":903.79999999702,"correct":true,"confidence":5},{"trial_n":83,"n_dots":3.05,"target":"right","response":"right","rt":1416.799999997,"correct":true,"confidence":5},{"trial_n":84,"n_dots":2.95,"target":"right","response":"left","rt":1041.799999997,"correct":false,"confidence":3},{"trial_n":85,"n_dots":3.05,"target":"left","response":"left","rt":628.5,"correct":true,"confidence":5},{"trial_n":86,"n_dots":3.05,"target":"right","response":"right","rt":594.79999999702,"correct":true,"confidence":5},{"trial_n":87,"n_dots":2.95,"target":"left","response":"right","rt":710.09999999404,"correct":false,"confidence":4},{"trial_n":88,"n_dots":3.05,"target":"left","response":"left","rt":714.59999999404,"correct":true,"confidence":4},{"trial_n":89,"n_dots":3.05,"target":"left","response":"right","rt":725.5,"correct":false,"confidence":5},{"trial_n":90,"n_dots":3.15,"target":"right","response":"left","rt":1125.400000006,"correct":false,"confidence":4},{"trial_n":91,"n_dots":3.25,"target":"right","response":"right","rt":859,"correct":true,"confidence":5},{"trial_n":92,"n_dots":3.25,"target":"right","response":"right","rt":1548.400000006,"correct":true,"confidence":4},{"trial_n":93,"n_dots":3.15,"target":"left","response":"left","rt":815.5,"correct":true,"confidence":4},{"trial_n":94,"n_dots":3.15,"target":"left","response":"left","rt":930.70000000298,"correct":true,"confidence":4},{"trial_n":95,"n_dots":3.05,"target":"left","response":"left","rt":1204.900000006,"correct":true,"confidence":5},{"trial_n":96,"n_dots":3.05,"target":"left","response":"left","rt":1477,"correct":true,"confidence":5},{"trial_n":97,"n_dots":2.95,"target":"right","response":"right","rt":1606.299999997,"correct":true,"confidence":4},{"trial_n":98,"n_dots":2.95,"target":"left","response":"left","rt":817.39999999106,"correct":true,"confidence":5},{"trial_n":99,"n_dots":2.85,"target":"right","response":"right","rt":845.29999999702,"correct":true,"confidence":5},{"trial_n":100,"n_dots":2.85,"target":"left","response":"right","rt":1609,"correct":false,"confidence":5},{"trial_n":101,"n_dots":2.95,"target":"right","response":"right","rt":1215.5,"correct":true,"confidence":5},{"trial_n":102,"n_dots":2.95,"target":"right","response":"right","rt":794.5,"correct":true,"confidence":5},{"trial_n":103,"n_dots":2.85,"target":"left","response":"left","rt":1357.599999994,"correct":true,"confidence":3},{"trial_n":104,"n_dots":2.85,"target":"left","response":"right","rt":1747.299999997,"correct":false,"confidence":4},{"trial_n":105,"n_dots":2.95,"target":"right","response":"right","rt":746.79999999702,"correct":true,"confidence":5},{"trial_n":106,"n_dots":2.95,"target":"right","response":"right","rt":608.60000000894,"correct":true,"confidence":5},{"trial_n":107,"n_dots":2.85,"target":"left","response":"left","rt":992.20000000298,"correct":true,"confidence":4},{"trial_n":108,"n_dots":2.85,"target":"left","response":"right","rt":1008.700000003,"correct":false,"confidence":3},{"trial_n":109,"n_dots":2.95,"target":"right","response":"left","rt":358.09999999404,"correct":false,"confidence":4},{"trial_n":110,"n_dots":3.05,"target":"left","response":"left","rt":1558.900000006,"correct":true,"confidence":2},{"trial_n":111,"n_dots":3.05,"target":"left","response":"right","rt":944.39999999106,"correct":false,"confidence":2},{"trial_n":112,"n_dots":3.15,"target":"right","response":"right","rt":863.89999999106,"correct":true,"confidence":2},{"trial_n":113,"n_dots":3.15,"target":"right","response":"right","rt":661.40000000596,"correct":true,"confidence":2},{"trial_n":114,"n_dots":3.05,"target":"left","response":"left","rt":2975.200000003,"correct":true,"confidence":1},{"trial_n":115,"n_dots":3.05,"target":"right","response":"right","rt":1282.799999997,"correct":true,"confidence":2},{"trial_n":116,"n_dots":2.95,"target":"right","response":"right","rt":1853.3999999911,"correct":true,"confidence":3},{"trial_n":117,"n_dots":2.95,"target":"right","response":"right","rt":1501.8999999911,"correct":true,"confidence":3},{"trial_n":118,"n_dots":2.85,"target":"right","response":"right","rt":1998,"correct":true,"confidence":3},{"trial_n":119,"n_dots":2.85,"target":"right","response":"right","rt":1025.3999999911,"correct":true,"confidence":5},{"trial_n":120,"n_dots":2.75,"target":"left","response":"left","rt":695.79999999702,"correct":true,"confidence":3}]