[{"trial_n":1,"min":25,"max":230,"target":"present","response":"absent","rt":4362,"correct":false,"confidence":-1},{"trial_n":2,"min":25,"max":230,"target":"present","response":"present","rt":1531,"correct":true,"confidence":-1},{"trial_n":3,"min":25,"max":230,"target":"absent","response":"absent","rt":1499,"correct":true,"confidence":-1},{"trial_n":4,"min":41,"max":214,"target":"absent","response":"absent","rt":536.99999999999,"correct":true,"confidence":-1},{"trial_n":5,"min":41,"max":214,"target":"present","response":"present","rt":650,"correct":true,"confidence":-1},{"trial_n":6,"min":57,"max":198,"target":"absent","response":"absent","rt":429,"correct":true,"confidence":-1},{"trial_n":7,"min":57,"max":198,"target":"present","response":"present","rt":511.00000000001,"correct":true,"confidence":-1},{"trial_n":8,"min":73,"max":182,"target":"present","response":"absent","rt":788,"correct":false,"confidence":-1},{"trial_n":9,"min":57,"max":198,"target":"present","response":"present","rt":571,"correct":true,"confidence":-1},{"trial_n":10,"min":57,"max":198,"target":"absent","response":"absent","rt":470,"correct":true,"confidence":-1},{"trial_n":11,"min":65,"max":190,"target":"absent","response":"absent","rt":773,"correct":true,"confidence":-1},{"trial_n":12,"min":65,"max":190,"target":"present","response":"present","rt":632,"correct":true,"confidence":-1},{"trial_n":13,"min":73,"max":182,"target":"absent","response":"absent","rt":443,"correct":true,"confidence":-1},{"trial_n":14,"min":73,"max":182,"target":"absent","response":"absent","rt":391,"correct":true,"confidence":-1},{"trial_n":15,"min":81,"max":174,"target":"absent","response":"absent","rt":166,"correct":true,"confidence":-1},{"trial_n":16,"min":81,"max":174,"target":"present","response":"absent","rt":203,"correct":false,"confidence":-1},{"trial_n":17,"min":73,"max":182,"target":"absent","response":"absent","rt":588,"correct":true,"confidence":-1},{"trial_n":18,"min":73,"max":182,"target":"present","response":"absent","rt":585,"correct":false,"confidence":-1},{"trial_n":19,"min":65,"max":190,"target":"present","response":"present","rt":619,"correct":true,"confidence":-1},{"trial_n":20,"min":65,"max":190,"target":"present","response":"present","rt":594,"correct":true,"confidence":-1},{"trial_n":21,"min":69,"max":186,"target":"present","response":"present","rt":1116,"correct":true,"confidence":4},{"trial_n":22,"min":69,"max":186,"target":"absent","response":"absent","rt":820,"correct":true,"confidence":3},{"trial_n":23,"min":73,"max":182,"target":"absent","response":"absent","rt":723,"correct":true,"confidence":3},{"trial_n":24,"min":73,"max":182,"target":"absent","response":"absent","rt":1067,"correct":true,"confidence":3},{"trial_n":25,"min":77,"max":178,"target":"absent","response":"absent","rt":1053,"correct":true,"confidence":3},{"trial_n":26,"min":77,"max":178,"target":"absent","response":"absent","rt":690.99999999999,"correct":true,"confidence":3},{"trial_n":27,"min":81,"max":174,"target":"absent","response":"absent","rt":757,"correct":true,"confidence":3},{"trial_n":28,"min":81,"max":174,"target":"absent","response":"absent","rt":1509,"correct":true,"confidence":3},{"trial_n":29,"min":85,"max":170,"target":"present","response":"present","rt":802,"correct":true,"confidence":3},{"trial_n":30,"min":85,"max":170,"target":"absent","response":"absent","rt":672,"correct":true,"confidence":3},{"trial_n":31,"min":87,"max":168,"target":"present","response":"absent","rt":1386,"correct":false,"confidence":3},{"trial_n":32,"min":85,"max":170,"target":"present","response":"absent","rt":709,"correct":false,"confidence":3},{"trial_n":33,"min":83,"max":172,"target":"present","response":"absent","rt":876,"correct":false,"confidence":3},{"trial_n":34,"min":81,"max":174,"target":"present","response":"present","rt":786,"correct":true,"confidence":3},{"trial_n":35,"min":81,"max":174,"target":"present","response":"present","rt":1145,"correct":true,"confidence":4},{"trial_n":36,"min":83,"max":172,"target":"present","response":"present","rt":991,"correct":true,"confidence":4},{"trial_n":37,"min":83,"max":172,"target":"absent","response":"absent","rt":980.00000000003,"correct":true,"confidence":3},{"trial_n":38,"min":85,"max":170,"target":"present","response":"present","rt":1252,"correct":true,"confidence":3},{"trial_n":39,"min":85,"max":170,"target":"absent","response":"absent","rt":988,"correct":true,"confidence":3},{"trial_n":40,"min":87,"max":168,"target":"absent","response":"absent","rt":693,"correct":true,"confidence":3},{"trial_n":41,"min":87,"max":168,"target":"present","response":"absent","rt":1025,"correct":false,"confidence":3},{"trial_n":42,"min":86,"max":169,"target":"present","response":"absent","rt":1176,"correct":false,"confidence":3},{"trial_n":43,"min":85,"max":170,"target":"present","response":"absent","rt":621,"correct":false,"confidence":3},{"trial_n":44,"min":84,"max":171,"target":"present","response":"present","rt":950,"correct":true,"confidence":3},{"trial_n":45,"min":84,"max":171,"target":"absent","response":"absent","rt":1159,"correct":true,"confidence":3},{"trial_n":46,"min":85,"max":170,"target":"present","response":"present","rt":860,"correct":true,"confidence":4},{"trial_n":47,"min":85,"max":170,"target":"present","response":"present","rt":1250,"correct":true,"confidence":4},{"trial_n":48,"min":86,"max":169,"target":"present","response":"present","rt":1416,"correct":true,"confidence":4},{"trial_n":49,"min":86,"max":169,"target":"present","response":"absent","rt":1155,"correct":false,"confidence":3},{"trial_n":50,"min":85,"max":170,"target":"absent","response":"absent","rt":908,"correct":true,"confidence":3},{"trial_n":51,"min":85,"max":170,"target":"absent","response":"absent","rt":947.99999999997,"correct":true,"confidence":3},{"trial_n":52,"min":86,"max":169,"target":"absent","response":"absent","rt":1658,"correct":true,"confidence":3},{"trial_n":53,"min":86,"max":169,"target":"absent","response":"absent","rt":807,"correct":true,"confidence":3},{"trial_n":54,"min":87,"max":168,"target":"present","response":"absent","rt":663,"correct":false,"confidence":3},{"trial_n":55,"min":86,"max":169,"target":"present","response":"present","rt":748.99999999997,"correct":true,"confidence":3},{"trial_n":56,"min":86,"max":169,"target":"absent","response":"absent","rt":599,"correct":true,"confidence":3},{"trial_n":57,"min":87,"max":168,"target":"absent","response":"absent","rt":553.00000000003,"correct":true,"confidence":3},{"trial_n":58,"min":87,"max":168,"target":"present","response":"present","rt":914,"correct":true,"confidence":3},{"trial_n":59,"min":88,"max":167,"target":"present","response":"present","rt":1070,"correct":true,"confidence":4},{"trial_n":60,"min":88,"max":167,"target":"absent","response":"absent","rt":1003,"correct":true,"confidence":3},{"trial_n":61,"min":89,"max":166,"target":"present","response":"present","rt":802,"correct":true,"confidence":4},{"trial_n":62,"min":89,"max":166,"target":"present","response":"present","rt":1280,"correct":true,"confidence":4},{"trial_n":63,"min":90,"max":165,"target":"absent","response":"absent","rt":1112,"correct":true,"confidence":3},{"trial_n":64,"min":90,"max":165,"target":"absent","response":"absent","rt":1068,"correct":true,"confidence":1},{"trial_n":65,"min":91,"max":164,"target":"present","response":"present","rt":2096,"correct":true,"confidence":3},{"trial_n":66,"min":91,"max":164,"target":"present","response":"present","rt":1076,"correct":true,"confidence":3},{"trial_n":67,"min":92,"max":163,"target":"absent","response":"absent","rt":1037,"correct":true,"confidence":3},{"trial_n":68,"min":92,"max":163,"target":"absent","response":"absent","rt":650.00000000003,"correct":true,"confidence":3},{"trial_n":69,"min":93,"max":162,"target":"absent","response":"absent","rt":829,"correct":true,"confidence":3},{"trial_n":70,"min":93,"max":162,"target":"absent","response":"present","rt":1415,"correct":false,"confidence":3},{"trial_n":71,"min":41,"max":214,"target":"present","response":"present","rt":1501.9999999999,"correct":true,"confidence":-1},{"trial_n":72,"min":41,"max":214,"target":"present","response":"present","rt":263,"correct":true,"confidence":-1},{"trial_n":73,"min":57,"max":198,"target":"absent","response":"absent","rt":707,"correct":true,"confidence":-1},{"trial_n":74,"min":57,"max":198,"target":"absent","response":"absent","rt":1029,"correct":true,"confidence":-1},{"trial_n":75,"min":73,"max":182,"target":"present","response":"present","rt":375,"correct":true,"confidence":-1},{"trial_n":76,"min":73,"max":182,"target":"absent","response":"absent","rt":426,"correct":true,"confidence":-1},{"trial_n":77,"min":89,"max":166,"target":"present","response":"present","rt":840,"correct":true,"confidence":-1},{"trial_n":78,"min":89,"max":166,"target":"present","response":"present","rt":718,"correct":true,"confidence":-1},{"trial_n":79,"min":105,"max":150,"target":"present","response":"absent","rt":1468,"correct":false,"confidence":-1},{"trial_n":80,"min":89,"max":166,"target":"present","response":"present","rt":891,"correct":true,"confidence":-1},{"trial_n":81,"min":89,"max":166,"target":"absent","response":"absent","rt":581,"correct":true,"confidence":-1},{"trial_n":82,"min":97,"max":158,"target":"absent","response":"absent","rt":502,"correct":true,"confidence":-1},{"trial_n":83,"min":97,"max":158,"target":"present","response":"absent","rt":647,"correct":false,"confidence":-1},{"trial_n":84,"min":89,"max":166,"target":"absent","response":"present","rt":553,"correct":false,"confidence":-1},{"trial_n":85,"min":81,"max":174,"target":"absent","response":"present","rt":698,"correct":false,"confidence":-1},{"trial_n":86,"min":73,"max":182,"target":"absent","response":"absent","rt":767,"correct":true,"confidence":-1},{"trial_n":87,"min":73,"max":182,"target":"present","response":"present","rt":354,"correct":true,"confidence":-1},{"trial_n":88,"min":81,"max":174,"target":"present","response":"present","rt":391,"correct":true,"confidence":-1},{"trial_n":89,"min":81,"max":174,"target":"present","response":"absent","rt":815,"correct":false,"confidence":-1},{"trial_n":90,"min":73,"max":182,"target":"present","response":"present","rt":500,"correct":true,"confidence":-1},{"trial_n":91,"min":73,"max":182,"target":"absent","response":"absent","rt":1021.0000000001,"correct":true,"confidence":4},{"trial_n":92,"min":77,"max":178,"target":"present","response":"present","rt":423,"correct":true,"confidence":4},{"trial_n":93,"min":77,"max":178,"target":"present","response":"present","rt":435,"correct":true,"confidence":4},{"trial_n":94,"min":81,"max":174,"target":"absent","response":"absent","rt":777,"correct":true,"confidence":3},{"trial_n":95,"min":81,"max":174,"target":"absent","response":"absent","rt":531.00000000006,"correct":true,"confidence":4},{"trial_n":96,"min":85,"max":170,"target":"absent","response":"absent","rt":547,"correct":true,"confidence":3},{"trial_n":97,"min":85,"max":170,"target":"absent","response":"present","rt":1754,"correct":false,"confidence":2},{"trial_n":98,"min":81,"max":174,"target":"present","response":"present","rt":457,"correct":true,"confidence":3},{"trial_n":99,"min":81,"max":174,"target":"absent","response":"absent","rt":817,"correct":true,"confidence":3},{"trial_n":100,"min":85,"max":170,"target":"absent","response":"present","rt":1048,"correct":false,"confidence":2},{"trial_n":101,"min":83,"max":172,"target":"present","response":"present","rt":1722,"correct":true,"confidence":3},{"trial_n":102,"min":83,"max":172,"target":"absent","response":"absent","rt":813.99999999994,"correct":true,"confidence":3},{"trial_n":103,"min":85,"max":170,"target":"present","response":"present","rt":934,"correct":true,"confidence":3},{"trial_n":104,"min":85,"max":170,"target":"absent","response":"present","rt":725,"correct":false,"confidence":2},{"trial_n":105,"min":83,"max":172,"target":"present","response":"present","rt":647,"correct":true,"confidence":4},{"trial_n":106,"min":83,"max":172,"target":"absent","response":"absent","rt":1128,"correct":true,"confidence":4},{"trial_n":107,"min":85,"max":170,"target":"absent","response":"present","rt":1432,"correct":false,"confidence":2},{"trial_n":108,"min":83,"max":172,"target":"absent","response":"absent","rt":947,"correct":true,"confidence":3},{"trial_n":109,"min":83,"max":172,"target":"present","response":"present","rt":1006.9999999999,"correct":true,"confidence":3},{"trial_n":110,"min":85,"max":170,"target":"present","response":"present","rt":826.00000000006,"correct":true,"confidence":1},{"trial_n":111,"min":85,"max":170,"target":"present","response":"present","rt":323,"correct":true,"confidence":4},{"trial_n":112,"min":86,"max":169,"target":"absent","response":"absent","rt":739,"correct":true,"confidence":4},{"trial_n":113,"min":86,"max":169,"target":"absent","response":"present","rt":921,"correct":false,"confidence":2},{"trial_n":114,"min":85,"max":170,"target":"absent","response":"absent","rt":883,"correct":true,"confidence":1},{"trial_n":115,"min":85,"max":170,"target":"present","response":"present","rt":535,"correct":true,"confidence":3},{"trial_n":116,"min":86,"max":169,"target":"present","response":"present","rt":782.99999999994,"correct":true,"confidence":1},{"trial_n":117,"min":86,"max":169,"target":"absent","response":"present","rt":1789,"correct":false,"confidence":1},{"trial_n":118,"min":85,"max":170,"target":"present","response":"present","rt":826,"correct":true,"confidence":3},{"trial_n":119,"min":85,"max":170,"target":"absent","response":"present","rt":873,"correct":false,"confidence":1},{"trial_n":120,"min":84,"max":171,"target":"present","response":"present","rt":1585,"correct":true,"confidence":2},{"trial_n":121,"min":84,"max":171,"target":"absent","response":"absent","rt":749,"correct":true,"confidence":3},{"trial_n":122,"min":85,"max":170,"target":"present","response":"present","rt":336,"correct":true,"confidence":3},{"trial_n":123,"min":85,"max":170,"target":"present","response":"present","rt":440,"correct":true,"confidence":3},{"trial_n":124,"min":86,"max":169,"target":"absent","response":"present","rt":1359.0000000001,"correct":false,"confidence":2},{"trial_n":125,"min":85,"max":170,"target":"absent","response":"absent","rt":825,"correct":true,"confidence":2},{"trial_n":126,"min":85,"max":170,"target":"absent","response":"absent","rt":813,"correct":true,"confidence":4},{"trial_n":127,"min":86,"max":169,"target":"present","response":"present","rt":528,"correct":true,"confidence":4},{"trial_n":128,"min":86,"max":169,"target":"present","response":"present","rt":303,"correct":true,"confidence":4},{"trial_n":129,"min":87,"max":168,"target":"absent","response":"present","rt":796,"correct":false,"confidence":1},{"trial_n":130,"min":86,"max":169,"target":"present","response":"present","rt":621,"correct":true,"confidence":4},{"trial_n":131,"min":86,"max":169,"target":"absent","response":"absent","rt":1052,"correct":true,"confidence":3},{"trial_n":132,"min":87,"max":168,"target":"present","response":"present","rt":223,"correct":true,"confidence":4},{"trial_n":133,"min":87,"max":168,"target":"present","response":"absent","rt":1023,"correct":false,"confidence":1},{"trial_n":134,"min":86,"max":169,"target":"absent","response":"absent","rt":1299.9999999999,"correct":true,"confidence":3},{"trial_n":135,"min":86,"max":169,"target":"present","response":"present","rt":303,"correct":true,"confidence":4},{"trial_n":136,"min":87,"max":168,"target":"present","response":"present","rt":721,"correct":true,"confidence":4},{"trial_n":137,"min":87,"max":168,"target":"absent","response":"absent","rt":1821,"correct":true,"confidence":3},{"trial_n":138,"min":88,"max":167,"target":"present","response":"present","rt":338,"correct":true,"confidence":4},{"trial_n":139,"min":88,"max":167,"target":"absent","response":"present","rt":801.00000000006,"correct":false,"confidence":1},{"trial_n":140,"min":87,"max":168,"target":"present","response":"present","rt":656,"correct":true,"confidence":3}]