[{"trial_n":1,"min":25,"max":230,"target":"present","response":"present","rt":9061.1000000089,"correct":true,"confidence":-1},{"trial_n":2,"min":25,"max":230,"target":"present","response":"absent","rt":2181.700000003,"correct":false,"confidence":-1},{"trial_n":3,"min":9,"max":246,"target":"absent","response":"present","rt":391.5,"correct":false,"confidence":-1},{"trial_n":4,"min":0,"max":255,"target":"absent","response":"absent","rt":785.5,"correct":true,"confidence":-1},{"trial_n":5,"min":0,"max":255,"target":"present","response":"absent","rt":558.79999999702,"correct":false,"confidence":-1},{"trial_n":6,"min":0,"max":255,"target":"absent","response":"absent","rt":602.40000000596,"correct":true,"confidence":-1},{"trial_n":7,"min":0,"max":255,"target":"absent","response":"present","rt":803.79999999702,"correct":false,"confidence":-1},{"trial_n":8,"min":0,"max":255,"target":"absent","response":"absent","rt":312.60000000894,"correct":true,"confidence":-1},{"trial_n":9,"min":0,"max":255,"target":"present","response":"present","rt":371.90000000596,"correct":true,"confidence":-1},{"trial_n":10,"min":16,"max":239,"target":"absent","response":"absent","rt":296.59999999404,"correct":true,"confidence":-1},{"trial_n":11,"min":16,"max":239,"target":"absent","response":"absent","rt":275.89999999106,"correct":true,"confidence":-1},{"trial_n":12,"min":24,"max":231,"target":"absent","response":"absent","rt":206.79999999702,"correct":true,"confidence":-1},{"trial_n":13,"min":24,"max":231,"target":"absent","response":"absent","rt":112.79999999702,"correct":true,"confidence":-1},{"trial_n":14,"min":32,"max":223,"target":"absent","response":"absent","rt":82.20000000298,"correct":true,"confidence":-1},{"trial_n":15,"min":32,"max":223,"target":"absent","response":"absent","rt":116.60000000894,"correct":true,"confidence":-1},{"trial_n":16,"min":40,"max":215,"target":"present","response":"present","rt":188.70000000298,"correct":true,"confidence":-1},{"trial_n":17,"min":40,"max":215,"target":"absent","response":"absent","rt":92,"correct":true,"confidence":-1},{"trial_n":18,"min":48,"max":207,"target":"present","response":"absent","rt":20.5,"correct":false,"confidence":-1},{"trial_n":19,"min":40,"max":215,"target":"present","response":"present","rt":161.40000000596,"correct":true,"confidence":-1},{"trial_n":20,"min":40,"max":215,"target":"absent","response":"absent","rt":119.5,"correct":true,"confidence":-1},{"trial_n":21,"min":44,"max":211,"target":"present","response":"present","rt":504.80000001192,"correct":true,"confidence":5},{"trial_n":22,"min":44,"max":211,"target":"absent","response":"absent","rt":1940.6000000089,"correct":true,"confidence":1},{"trial_n":23,"min":48,"max":207,"target":"absent","response":"absent","rt":598.5,"correct":true,"confidence":5},{"trial_n":24,"min":48,"max":207,"target":"absent","response":"present","rt":1885,"correct":false,"confidence":4},{"trial_n":25,"min":44,"max":211,"target":"present","response":"present","rt":961.09999999404,"correct":true,"confidence":5},{"trial_n":26,"min":44,"max":211,"target":"present","response":"present","rt":631.89999999106,"correct":true,"confidence":5},{"trial_n":27,"min":48,"max":207,"target":"absent","response":"absent","rt":388.89999999106,"correct":true,"confidence":5},{"trial_n":28,"min":48,"max":207,"target":"absent","response":"present","rt":802.70000000298,"correct":false,"confidence":4},{"trial_n":29,"min":44,"max":211,"target":"present","response":"present","rt":775.39999999106,"correct":true,"confidence":5},{"trial_n":30,"min":44,"max":211,"target":"present","response":"present","rt":485.5,"correct":true,"confidence":5},{"trial_n":31,"min":46,"max":209,"target":"present","response":"present","rt":737.20000000298,"correct":true,"confidence":5},{"trial_n":32,"min":46,"max":209,"target":"absent","response":"absent","rt":1664.200000003,"correct":true,"confidence":5},{"trial_n":33,"min":48,"max":207,"target":"present","response":"present","rt":865.59999999404,"correct":true,"confidence":5},{"trial_n":34,"min":48,"max":207,"target":"present","response":"present","rt":423.29999999702,"correct":true,"confidence":4},{"trial_n":35,"min":50,"max":205,"target":"absent","response":"absent","rt":398.29999999702,"correct":true,"confidence":5},{"trial_n":36,"min":50,"max":205,"target":"absent","response":"absent","rt":417.5,"correct":true,"confidence":5},{"trial_n":37,"min":52,"max":203,"target":"present","response":"present","rt":803.20000000298,"correct":true,"confidence":5},{"trial_n":38,"min":52,"max":203,"target":"present","response":"present","rt":1156.799999997,"correct":true,"confidence":4},{"trial_n":39,"min":54,"max":201,"target":"present","response":"present","rt":370.10000000894,"correct":true,"confidence":5},{"trial_n":40,"min":54,"max":201,"target":"present","response":"present","rt":1007.299999997,"correct":true,"confidence":5},{"trial_n":41,"min":55,"max":200,"target":"absent","response":"absent","rt":1071.3999999911,"correct":true,"confidence":5},{"trial_n":42,"min":55,"max":200,"target":"present","response":"present","rt":1318.299999997,"correct":true,"confidence":4},{"trial_n":43,"min":56,"max":199,"target":"present","response":"present","rt":884.90000000596,"correct":true,"confidence":4},{"trial_n":44,"min":56,"max":199,"target":"absent","response":"absent","rt":484.09999999404,"correct":true,"confidence":5},{"trial_n":45,"min":57,"max":198,"target":"present","response":"absent","rt":1342,"correct":false,"confidence":3},{"trial_n":46,"min":56,"max":199,"target":"absent","response":"absent","rt":695.5,"correct":true,"confidence":5},{"trial_n":47,"min":56,"max":199,"target":"absent","response":"absent","rt":343.90000000596,"correct":true,"confidence":5},{"trial_n":48,"min":57,"max":198,"target":"absent","response":"absent","rt":616.70000000298,"correct":true,"confidence":5},{"trial_n":49,"min":57,"max":198,"target":"present","response":"present","rt":832.70000000298,"correct":true,"confidence":4},{"trial_n":50,"min":58,"max":197,"target":"present","response":"present","rt":1189.299999997,"correct":true,"confidence":5},{"trial_n":51,"min":58,"max":197,"target":"present","response":"present","rt":624.79999999702,"correct":true,"confidence":5},{"trial_n":52,"min":59,"max":196,"target":"present","response":"absent","rt":474.90000000596,"correct":false,"confidence":5},{"trial_n":53,"min":58,"max":197,"target":"present","response":"present","rt":693,"correct":true,"confidence":5},{"trial_n":54,"min":58,"max":197,"target":"absent","response":"absent","rt":743.40000000596,"correct":true,"confidence":5},{"trial_n":55,"min":59,"max":196,"target":"present","response":"present","rt":533.39999999106,"correct":true,"confidence":4},{"trial_n":56,"min":59,"max":196,"target":"present","response":"present","rt":611.19999998808,"correct":true,"confidence":3},{"trial_n":57,"min":60,"max":195,"target":"absent","response":"absent","rt":1123.400000006,"correct":true,"confidence":4},{"trial_n":58,"min":60,"max":195,"target":"present","response":"present","rt":632.90000000596,"correct":true,"confidence":3},{"trial_n":59,"min":61,"max":194,"target":"present","response":"present","rt":470,"correct":true,"confidence":2},{"trial_n":60,"min":61,"max":194,"target":"present","response":"present","rt":1157.599999994,"correct":true,"confidence":5},{"trial_n":61,"min":62,"max":193,"target":"present","response":"present","rt":1139.8999999911,"correct":true,"confidence":5},{"trial_n":62,"min":62,"max":193,"target":"present","response":"present","rt":1234.799999997,"correct":true,"confidence":5},{"trial_n":63,"min":63,"max":192,"target":"absent","response":"absent","rt":815,"correct":true,"confidence":3},{"trial_n":64,"min":63,"max":192,"target":"absent","response":"absent","rt":798.90000000596,"correct":true,"confidence":4},{"trial_n":65,"min":64,"max":191,"target":"present","response":"present","rt":802.40000000596,"correct":true,"confidence":4},{"trial_n":66,"min":64,"max":191,"target":"absent","response":"absent","rt":596.59999999404,"correct":true,"confidence":5},{"trial_n":67,"min":65,"max":190,"target":"present","response":"present","rt":685.30000001192,"correct":true,"confidence":4},{"trial_n":68,"min":65,"max":190,"target":"absent","response":"absent","rt":615,"correct":true,"confidence":5},{"trial_n":69,"min":66,"max":189,"target":"absent","response":"absent","rt":548.90000000596,"correct":true,"confidence":4},{"trial_n":70,"min":66,"max":189,"target":"absent","response":"absent","rt":1238.900000006,"correct":true,"confidence":4},{"trial_n":71,"min":41,"max":214,"target":"present","response":"present","rt":4394.200000003,"correct":true,"confidence":-1},{"trial_n":72,"min":41,"max":214,"target":"present","response":"present","rt":1098.3000000119,"correct":true,"confidence":-1},{"trial_n":73,"min":57,"max":198,"target":"absent","response":"absent","rt":392.29999999702,"correct":true,"confidence":-1},{"trial_n":74,"min":57,"max":198,"target":"absent","response":"absent","rt":216.29999999702,"correct":true,"confidence":-1},{"trial_n":75,"min":73,"max":182,"target":"present","response":"present","rt":570.69999998808,"correct":true,"confidence":-1},{"trial_n":76,"min":73,"max":182,"target":"absent","response":"absent","rt":1520.5,"correct":true,"confidence":-1},{"trial_n":77,"min":89,"max":166,"target":"present","response":"present","rt":673.5,"correct":true,"confidence":-1},{"trial_n":78,"min":89,"max":166,"target":"present","response":"absent","rt":393.29999999702,"correct":false,"confidence":-1},{"trial_n":79,"min":73,"max":182,"target":"present","response":"present","rt":272.59999999404,"correct":true,"confidence":-1},{"trial_n":80,"min":73,"max":182,"target":"absent","response":"present","rt":571.90000000596,"correct":false,"confidence":-1},{"trial_n":81,"min":65,"max":190,"target":"absent","response":"absent","rt":383.30000001192,"correct":true,"confidence":-1},{"trial_n":82,"min":65,"max":190,"target":"present","response":"present","rt":402.29999999702,"correct":true,"confidence":-1},{"trial_n":83,"min":73,"max":182,"target":"absent","response":"absent","rt":318.09999999404,"correct":true,"confidence":-1},{"trial_n":84,"min":73,"max":182,"target":"present","response":"present","rt":521.40000000596,"correct":true,"confidence":-1},{"trial_n":85,"min":81,"max":174,"target":"absent","response":"absent","rt":524.5,"correct":true,"confidence":-1},{"trial_n":86,"min":81,"max":174,"target":"absent","response":"absent","rt":689.29999999702,"correct":true,"confidence":-1},{"trial_n":87,"min":89,"max":166,"target":"present","response":"absent","rt":554.19999998808,"correct":false,"confidence":-1},{"trial_n":88,"min":81,"max":174,"target":"absent","response":"absent","rt":579.79999999702,"correct":true,"confidence":-1},{"trial_n":89,"min":81,"max":174,"target":"absent","response":"present","rt":342.30000001192,"correct":false,"confidence":-1},{"trial_n":90,"min":73,"max":182,"target":"absent","response":"absent","rt":1361.900000006,"correct":true,"confidence":-1},{"trial_n":91,"min":73,"max":182,"target":"present","response":"present","rt":472.69999998808,"correct":true,"confidence":5},{"trial_n":92,"min":77,"max":178,"target":"present","response":"present","rt":470.5,"correct":true,"confidence":3},{"trial_n":93,"min":77,"max":178,"target":"present","response":"present","rt":407.59999999404,"correct":true,"confidence":5},{"trial_n":94,"min":81,"max":174,"target":"absent","response":"absent","rt":1108,"correct":true,"confidence":3},{"trial_n":95,"min":81,"max":174,"target":"present","response":"present","rt":446.5,"correct":true,"confidence":4},{"trial_n":96,"min":85,"max":170,"target":"absent","response":"absent","rt":1134.200000003,"correct":true,"confidence":3},{"trial_n":97,"min":85,"max":170,"target":"present","response":"present","rt":822.39999999106,"correct":true,"confidence":4},{"trial_n":98,"min":89,"max":166,"target":"absent","response":"absent","rt":1100.5,"correct":true,"confidence":2},{"trial_n":99,"min":89,"max":166,"target":"absent","response":"absent","rt":455.60000000894,"correct":true,"confidence":2},{"trial_n":100,"min":93,"max":162,"target":"absent","response":"absent","rt":817.5,"correct":true,"confidence":3},{"trial_n":101,"min":93,"max":162,"target":"present","response":"present","rt":2919.299999997,"correct":true,"confidence":1},{"trial_n":102,"min":95,"max":160,"target":"present","response":"present","rt":987,"correct":true,"confidence":3},{"trial_n":103,"min":95,"max":160,"target":"present","response":"absent","rt":1761.299999997,"correct":false,"confidence":2},{"trial_n":104,"min":93,"max":162,"target":"present","response":"absent","rt":689.10000000894,"correct":false,"confidence":2},{"trial_n":105,"min":91,"max":164,"target":"present","response":"present","rt":871.60000000894,"correct":true,"confidence":3},{"trial_n":106,"min":91,"max":164,"target":"absent","response":"absent","rt":882.80000001192,"correct":true,"confidence":3},{"trial_n":107,"min":93,"max":162,"target":"present","response":"present","rt":456.60000000894,"correct":true,"confidence":4},{"trial_n":108,"min":93,"max":162,"target":"absent","response":"absent","rt":1140.1999999881,"correct":true,"confidence":4},{"trial_n":109,"min":95,"max":160,"target":"absent","response":"present","rt":822.70000000298,"correct":false,"confidence":2},{"trial_n":110,"min":93,"max":162,"target":"absent","response":"absent","rt":852.09999999404,"correct":true,"confidence":4},{"trial_n":111,"min":93,"max":162,"target":"present","response":"absent","rt":1814.6999999881,"correct":false,"confidence":3},{"trial_n":112,"min":92,"max":163,"target":"absent","response":"present","rt":1044.8999999911,"correct":false,"confidence":3},{"trial_n":113,"min":91,"max":164,"target":"absent","response":"absent","rt":1179.299999997,"correct":true,"confidence":3},{"trial_n":114,"min":91,"max":164,"target":"present","response":"present","rt":734.20000000298,"correct":true,"confidence":2},{"trial_n":115,"min":92,"max":163,"target":"absent","response":"absent","rt":1326.799999997,"correct":true,"confidence":3},{"trial_n":116,"min":92,"max":163,"target":"present","response":"absent","rt":610.10000000894,"correct":false,"confidence":4},{"trial_n":117,"min":91,"max":164,"target":"present","response":"present","rt":1188.200000003,"correct":true,"confidence":3},{"trial_n":118,"min":91,"max":164,"target":"absent","response":"absent","rt":969.20000000298,"correct":true,"confidence":2},{"trial_n":119,"min":92,"max":163,"target":"absent","response":"absent","rt":933.20000000298,"correct":true,"confidence":3},{"trial_n":120,"min":92,"max":163,"target":"absent","response":"absent","rt":811.39999999106,"correct":true,"confidence":3},{"trial_n":121,"min":93,"max":162,"target":"absent","response":"absent","rt":827,"correct":true,"confidence":1},{"trial_n":122,"min":93,"max":162,"target":"present","response":"present","rt":2134.200000003,"correct":true,"confidence":1},{"trial_n":123,"min":94,"max":161,"target":"present","response":"absent","rt":928.09999999404,"correct":false,"confidence":3},{"trial_n":124,"min":93,"max":162,"target":"present","response":"absent","rt":2348.099999994,"correct":false,"confidence":2},{"trial_n":125,"min":92,"max":163,"target":"absent","response":"absent","rt":887.59999999404,"correct":true,"confidence":4},{"trial_n":126,"min":92,"max":163,"target":"absent","response":"present","rt":2433,"correct":false,"confidence":1},{"trial_n":127,"min":91,"max":164,"target":"absent","response":"present","rt":470.29999999702,"correct":false,"confidence":4},{"trial_n":128,"min":90,"max":165,"target":"absent","response":"absent","rt":831.70000000298,"correct":true,"confidence":3},{"trial_n":129,"min":90,"max":165,"target":"present","response":"absent","rt":1957.099999994,"correct":false,"confidence":2},{"trial_n":130,"min":89,"max":166,"target":"present","response":"present","rt":722.90000000596,"correct":true,"confidence":2},{"trial_n":131,"min":89,"max":166,"target":"absent","response":"absent","rt":2074.099999994,"correct":true,"confidence":3},{"trial_n":132,"min":90,"max":165,"target":"present","response":"absent","rt":4633.599999994,"correct":false,"confidence":1},{"trial_n":133,"min":89,"max":166,"target":"present","response":"present","rt":669.59999999404,"correct":true,"confidence":2},{"trial_n":134,"min":89,"max":166,"target":"absent","response":"absent","rt":830.5,"correct":true,"confidence":2},{"trial_n":135,"min":90,"max":165,"target":"present","response":"present","rt":375.10000000894,"correct":true,"confidence":3},{"trial_n":136,"min":90,"max":165,"target":"present","response":"absent","rt":1432.400000006,"correct":false,"confidence":1},{"trial_n":137,"min":89,"max":166,"target":"present","response":"present","rt":1269.5,"correct":true,"confidence":2},{"trial_n":138,"min":89,"max":166,"target":"absent","response":"absent","rt":1401.900000006,"correct":true,"confidence":2},{"trial_n":139,"min":90,"max":165,"target":"present","response":"absent","rt":884.90000000596,"correct":false,"confidence":2},{"trial_n":140,"min":89,"max":166,"target":"present","response":"absent","rt":1657.799999997,"correct":false,"confidence":1}]