[{"trial_n":1,"span":8,"encoder":"11349449","distractor":"11349049","target":"present","response":"present","rt":"5156.7999992371","correct":true,"confidence":-1},{"trial_n":2,"span":8,"encoder":"51736093","distractor":"56736093","target":"present","response":"present","rt":"4292.3000001907","correct":true,"confidence":-1},{"trial_n":3,"span":10,"encoder":"1013001098","distractor":"1713001098","target":"absent","response":"absent","rt":"3162.1000003815","correct":true,"confidence":-1},{"trial_n":4,"span":10,"encoder":"1962919620","distractor":"1962919623","target":"absent","response":"absent","rt":"1818.5","correct":true,"confidence":-1},{"trial_n":5,"span":12,"encoder":"490670977697","distractor":"491670977697","target":"present","response":"present","rt":"3155.1000003815","correct":true,"confidence":-1},{"trial_n":6,"span":12,"encoder":"969308146502","distractor":"969308146572","target":"present","response":"absent","rt":"3083.6999998093","correct":false,"confidence":-1},{"trial_n":7,"span":10,"encoder":"1437613696","distractor":"1433613696","target":"present","response":"absent","rt":"3055","correct":false,"confidence":-1},{"trial_n":8,"span":8,"encoder":"70676490","distractor":"77676490","target":"present","response":"absent","rt":"2360.0999994278","correct":false,"confidence":-1},{"trial_n":9,"span":6,"encoder":"661981","distractor":"661481","target":"present","response":"present","rt":"1814.8000001907","correct":true,"confidence":-1},{"trial_n":10,"span":6,"encoder":"879342","distractor":"874342","target":"absent","response":"absent","rt":"2324.3000001907","correct":true,"confidence":-1},{"trial_n":11,"span":8,"encoder":"28200919","distractor":"28200911","target":"absent","response":"absent","rt":"3042.5","correct":true,"confidence":-1},{"trial_n":12,"span":8,"encoder":"03355314","distractor":"06355314","target":"present","response":"present","rt":"1754.3000001907","correct":true,"confidence":-1},{"trial_n":13,"span":9,"encoder":"449049369","distractor":"449049361","target":"present","response":"present","rt":"3575.3000001907","correct":true,"confidence":-1},{"trial_n":14,"span":9,"encoder":"920478749","distractor":"920478849","target":"present","response":"present","rt":"3312.1999998093","correct":true,"confidence":-1},{"trial_n":15,"span":10,"encoder":"0048542184","distractor":"0048562184","target":"absent","response":"present","rt":"1639.1999998093","correct":false,"confidence":-1},{"trial_n":16,"span":9,"encoder":"254829834","distractor":"254826834","target":"absent","response":"present","rt":"2480.8999996185","correct":false,"confidence":-1},{"trial_n":17,"span":8,"encoder":"09268403","distractor":"09298403","target":"absent","response":"absent","rt":"2244","correct":true,"confidence":-1},{"trial_n":18,"span":8,"encoder":"23408713","distractor":"23408743","target":"absent","response":"absent","rt":"1786.1999998093","correct":true,"confidence":-1},{"trial_n":19,"span":9,"encoder":"954409252","distractor":"954509252","target":"present","response":"present","rt":"1961.8000001907","correct":true,"confidence":-1},{"trial_n":20,"span":9,"encoder":"152523145","distractor":"172523145","target":"present","response":"absent","rt":"3173.8000001907","correct":false,"confidence":-1},{"trial_n":21,"span":8,"encoder":"78038477","distractor":"78038077","target":"absent","response":"present","rt":"2915.7000007629","correct":false,"confidence":3},{"trial_n":22,"span":7,"encoder":"8732407","distractor":"8132407","target":"absent","response":"absent","rt":"2840.1999998093","correct":true,"confidence":2},{"trial_n":23,"span":7,"encoder":"8755676","distractor":"8155676","target":"present","response":"present","rt":"3187.1000003815","correct":true,"confidence":4},{"trial_n":24,"span":8,"encoder":"97700436","distractor":"95700436","target":"absent","response":"present","rt":"2823.9000005722","correct":false,"confidence":4},{"trial_n":25,"span":7,"encoder":"4326528","distractor":"4325528","target":"absent","response":"present","rt":"2899.6999998093","correct":false,"confidence":3},{"trial_n":26,"span":6,"encoder":"363011","distractor":"363031","target":"present","response":"present","rt":"2233","correct":true,"confidence":3},{"trial_n":27,"span":6,"encoder":"793927","distractor":"793427","target":"present","response":"absent","rt":"2887.2999992371","correct":false,"confidence":4},{"trial_n":28,"span":5,"encoder":"83924","distractor":"93924","target":"present","response":"present","rt":"1998.5","correct":true,"confidence":5},{"trial_n":29,"span":5,"encoder":"49313","distractor":"49323","target":"present","response":"present","rt":"3116.7000007629","correct":true,"confidence":4},{"trial_n":30,"span":6,"encoder":"039979","distractor":"099979","target":"present","response":"absent","rt":"10066.299999237","correct":false,"confidence":1},{"trial_n":31,"span":5,"encoder":"43532","distractor":"43522","target":"present","response":"present","rt":"3050.4000005722","correct":true,"confidence":3},{"trial_n":32,"span":5,"encoder":"81831","distractor":"81811","target":"present","response":"present","rt":"1634.8999996185","correct":true,"confidence":5},{"trial_n":33,"span":6,"encoder":"365835","distractor":"365135","target":"absent","response":"absent","rt":"2264.8000001907","correct":true,"confidence":5},{"trial_n":34,"span":6,"encoder":"632790","distractor":"632794","target":"present","response":"present","rt":"2101.8999996185","correct":true,"confidence":4},{"trial_n":35,"span":7,"encoder":"0973219","distractor":"0973279","target":"absent","response":"absent","rt":"5913.5","correct":true,"confidence":3},{"trial_n":36,"span":7,"encoder":"3492120","distractor":"3432120","target":"present","response":"present","rt":"3526.3000001907","correct":true,"confidence":2},{"trial_n":37,"span":8,"encoder":"54257844","distractor":"54257814","target":"absent","response":"absent","rt":"2539.6999998093","correct":true,"confidence":5},{"trial_n":38,"span":8,"encoder":"15265323","distractor":"15263323","target":"absent","response":"absent","rt":"3766.3000001907","correct":true,"confidence":3},{"trial_n":39,"span":9,"encoder":"707223936","distractor":"707253936","target":"absent","response":"absent","rt":"2102.1999998093","correct":true,"confidence":5},{"trial_n":40,"span":9,"encoder":"557544018","distractor":"557547018","target":"absent","response":"absent","rt":"2415.4000005722","correct":true,"confidence":4},{"trial_n":41,"span":10,"encoder":"1059846324","distractor":"1009846324","target":"present","response":"present","rt":"4438.6000003815","correct":true,"confidence":2},{"trial_n":42,"span":10,"encoder":"9891732585","distractor":"9891732985","target":"absent","response":"present","rt":"3355.1000003815","correct":false,"confidence":2},{"trial_n":43,"span":9,"encoder":"502788847","distractor":"702788847","target":"absent","response":"present","rt":"3726.3999996185","correct":false,"confidence":3},{"trial_n":44,"span":8,"encoder":"73814295","distractor":"73812295","target":"absent","response":"absent","rt":"2949.5","correct":true,"confidence":3},{"trial_n":45,"span":8,"encoder":"68500051","distractor":"68500251","target":"present","response":"present","rt":"2482.9000005722","correct":true,"confidence":4},{"trial_n":46,"span":9,"encoder":"555171965","distractor":"555171985","target":"absent","response":"absent","rt":"3447.1999998093","correct":true,"confidence":3},{"trial_n":47,"span":9,"encoder":"247960933","distractor":"227960933","target":"absent","response":"absent","rt":"2166.1000003815","correct":true,"confidence":2},{"trial_n":48,"span":10,"encoder":"5714776293","distractor":"5718776293","target":"absent","response":"present","rt":"2707","correct":false,"confidence":3},{"trial_n":49,"span":9,"encoder":"150084514","distractor":"150084554","target":"present","response":"present","rt":"4002.7000007629","correct":true,"confidence":2},{"trial_n":50,"span":9,"encoder":"404484456","distractor":"404404456","target":"present","response":"present","rt":"2504.3000001907","correct":true,"confidence":4},{"trial_n":51,"span":10,"encoder":"5694543880","distractor":"5794543880","target":"present","response":"present","rt":"2917.9000005722","correct":true,"confidence":2},{"trial_n":52,"span":10,"encoder":"3204359655","distractor":"6204359655","target":"absent","response":"absent","rt":"3323.8999996185","correct":true,"confidence":1},{"trial_n":53,"span":11,"encoder":"71856308884","distractor":"71356308884","target":"present","response":"present","rt":"2621.2999992371","correct":true,"confidence":2},{"trial_n":54,"span":11,"encoder":"79798254973","distractor":"59798254973","target":"present","response":"absent","rt":"3624.3000001907","correct":false,"confidence":3},{"trial_n":55,"span":10,"encoder":"2532890358","distractor":"2532890356","target":"absent","response":"absent","rt":"1542.5999994278","correct":true,"confidence":5},{"trial_n":56,"span":10,"encoder":"6679474503","distractor":"6679474593","target":"present","response":"present","rt":"6027.6999998093","correct":true,"confidence":3},{"trial_n":57,"span":11,"encoder":"15668372239","distractor":"15668352239","target":"present","response":"absent","rt":"1534.6000003815","correct":false,"confidence":3},{"trial_n":58,"span":10,"encoder":"4463082135","distractor":"4463085135","target":"present","response":"present","rt":"2606.3999996185","correct":true,"confidence":3},{"trial_n":59,"span":10,"encoder":"2230835791","distractor":"2234835791","target":"present","response":"present","rt":"3471.1000003815","correct":true,"confidence":2},{"trial_n":60,"span":11,"encoder":"40369035684","distractor":"40369035681","target":"absent","response":"absent","rt":"1389.6000003815","correct":true,"confidence":5},{"trial_n":61,"span":11,"encoder":"53457931416","distractor":"53457931486","target":"absent","response":"absent","rt":"1743.8000001907","correct":true,"confidence":5},{"trial_n":62,"span":12,"encoder":"907389368793","distractor":"907389368763","target":"absent","response":"present","rt":"4802.7999992371","correct":false,"confidence":1},{"trial_n":63,"span":11,"encoder":"87039415970","distractor":"87032415970","target":"present","response":"present","rt":"2420.4000005722","correct":true,"confidence":2},{"trial_n":64,"span":11,"encoder":"16071928276","distractor":"66071928276","target":"absent","response":"present","rt":"3661.4000005722","correct":false,"confidence":3},{"trial_n":65,"span":10,"encoder":"7019445289","distractor":"7619445289","target":"absent","response":"absent","rt":"1418.6999998093","correct":true,"confidence":5},{"trial_n":66,"span":10,"encoder":"9826249401","distractor":"9826259401","target":"absent","response":"present","rt":"2461.9000005722","correct":false,"confidence":3},{"trial_n":67,"span":9,"encoder":"389032506","distractor":"489032506","target":"present","response":"present","rt":"2844.5","correct":true,"confidence":3},{"trial_n":68,"span":9,"encoder":"163025633","distractor":"166025633","target":"absent","response":"present","rt":"4931.8000001907","correct":false,"confidence":1},{"trial_n":69,"span":8,"encoder":"96515599","distractor":"96511599","target":"absent","response":"present","rt":"2828.1999998093","correct":false,"confidence":2},{"trial_n":70,"span":7,"encoder":"1467490","distractor":"1467790","target":"present","response":"present","rt":"2461.1000003815","correct":true,"confidence":3},{"trial_n":71,"span":8,"encoder":"38350485","distractor":"32350485","target":"present","response":"present","rt":"6326.5999994278","correct":true,"confidence":-1},{"trial_n":72,"span":8,"encoder":"01517989","distractor":"01512989","target":"present","response":"present","rt":"4690.5","correct":true,"confidence":-1},{"trial_n":73,"span":9,"encoder":"249214229","distractor":"249214259","target":"absent","response":"absent","rt":"2842.4000005722","correct":true,"confidence":-1},{"trial_n":74,"span":9,"encoder":"963615535","distractor":"963615575","target":"absent","response":"absent","rt":"1818.0999994278","correct":true,"confidence":-1},{"trial_n":75,"span":10,"encoder":"1802852557","distractor":"1802852757","target":"present","response":"present","rt":"6123.5","correct":true,"confidence":-1},{"trial_n":76,"span":10,"encoder":"6967127840","distractor":"6967123840","target":"absent","response":"absent","rt":"3675.1999998093","correct":true,"confidence":-1},{"trial_n":77,"span":11,"encoder":"13460578936","distractor":"13460578986","target":"present","response":"present","rt":"2173.6000003815","correct":true,"confidence":-1},{"trial_n":78,"span":11,"encoder":"52381152504","distractor":"52381152501","target":"present","response":"absent","rt":"5989.2000007629","correct":false,"confidence":-1},{"trial_n":79,"span":10,"encoder":"1337507042","distractor":"1937507042","target":"absent","response":"absent","rt":"2904","correct":true,"confidence":-1},{"trial_n":80,"span":10,"encoder":"1046256278","distractor":"1046253278","target":"absent","response":"present","rt":"2347.6000003815","correct":false,"confidence":-1},{"trial_n":81,"span":9,"encoder":"494322129","distractor":"499322129","target":"absent","response":"absent","rt":"5111.6000003815","correct":true,"confidence":-1},{"trial_n":82,"span":9,"encoder":"714318987","distractor":"714318980","target":"absent","response":"absent","rt":"5961","correct":true,"confidence":-1},{"trial_n":83,"span":10,"encoder":"8714926145","distractor":"8714926045","target":"present","response":"present","rt":"5026.8000001907","correct":true,"confidence":-1},{"trial_n":84,"span":10,"encoder":"8757919039","distractor":"8777919039","target":"present","response":"present","rt":"3471.5","correct":true,"confidence":-1},{"trial_n":85,"span":11,"encoder":"35833039593","distractor":"35833031593","target":"present","response":"present","rt":"7813.8999996185","correct":true,"confidence":-1},{"trial_n":86,"span":11,"encoder":"22472658443","distractor":"02472658443","target":"present","response":"present","rt":"3704.6000003815","correct":true,"confidence":-1},{"trial_n":87,"span":12,"encoder":"885674085682","distractor":"885674285682","target":"present","response":"absent","rt":"4120","correct":false,"confidence":-1},{"trial_n":88,"span":11,"encoder":"98282072063","distractor":"98202072063","target":"absent","response":"absent","rt":"10844.900000572","correct":true,"confidence":-1},{"trial_n":89,"span":11,"encoder":"67428711708","distractor":"67428711718","target":"present","response":"present","rt":"1996.5","correct":true,"confidence":-1},{"trial_n":90,"span":12,"encoder":"542910901401","distractor":"542910901408","target":"present","response":"present","rt":"2267.8000001907","correct":true,"confidence":-1},{"trial_n":91,"span":12,"encoder":"600297756962","distractor":"600697756962","target":"absent","response":"absent","rt":"8135.3999996185","correct":true,"confidence":3},{"trial_n":92,"span":13,"encoder":"7242017803503","distractor":"7242017803506","target":"absent","response":"absent","rt":"2990.4000005722","correct":true,"confidence":5},{"trial_n":93,"span":13,"encoder":"0220819791545","distractor":"0920819791545","target":"present","response":"absent","rt":"5928.3000001907","correct":false,"confidence":2},{"trial_n":94,"span":12,"encoder":"968981897224","distractor":"468981897224","target":"present","response":"present","rt":"5420.6000003815","correct":true,"confidence":1},{"trial_n":95,"span":12,"encoder":"086053117400","distractor":"286053117400","target":"present","response":"present","rt":"4637.1999998093","correct":true,"confidence":1},{"trial_n":96,"span":13,"encoder":"6089747300674","distractor":"6089647300674","target":"absent","response":"absent","rt":"6689.1999998093","correct":true,"confidence":3},{"trial_n":97,"span":13,"encoder":"3948461671446","distractor":"3948761671446","target":"present","response":"absent","rt":"7868.5999994278","correct":false,"confidence":3},{"trial_n":98,"span":12,"encoder":"199799648192","distractor":"199799648892","target":"absent","response":"present","rt":"4563.8999996185","correct":false,"confidence":4},{"trial_n":99,"span":11,"encoder":"58963729465","distractor":"58963729455","target":"absent","response":"absent","rt":"3778.8999996185","correct":true,"confidence":3},{"trial_n":100,"span":11,"encoder":"27379569455","distractor":"27379562455","target":"absent","response":"absent","rt":"3454","correct":true,"confidence":4},{"trial_n":101,"span":12,"encoder":"938434234191","distractor":"938434234161","target":"present","response":"present","rt":"1882.5","correct":true,"confidence":5},{"trial_n":102,"span":12,"encoder":"202610960941","distractor":"202610860941","target":"absent","response":"absent","rt":"7548.8999996185","correct":true,"confidence":4},{"trial_n":103,"span":13,"encoder":"3169367326783","distractor":"3169367326784","target":"absent","response":"absent","rt":"3615.7000007629","correct":true,"confidence":5},{"trial_n":104,"span":13,"encoder":"4121333655638","distractor":"4161333655638","target":"absent","response":"present","rt":"6304.9000005722","correct":false,"confidence":3},{"trial_n":105,"span":12,"encoder":"005711127277","distractor":"505711127277","target":"present","response":"present","rt":"5762.6999998093","correct":true,"confidence":5},{"trial_n":106,"span":12,"encoder":"797788007514","distractor":"797728007514","target":"present","response":"present","rt":"6357.8999996185","correct":true,"confidence":2},{"trial_n":107,"span":13,"encoder":"6565114588804","distractor":"6565114558804","target":"absent","response":"absent","rt":"2424.1999998093","correct":true,"confidence":4},{"trial_n":108,"span":13,"encoder":"3963332724030","distractor":"3953332724030","target":"present","response":"present","rt":"11084.800000191","correct":true,"confidence":2},{"trial_n":109,"span":14,"encoder":"90110201147968","distractor":"90110401147968","target":"absent","response":"present","rt":"5031.3999996185","correct":false,"confidence":3},{"trial_n":110,"span":13,"encoder":"6687428887579","distractor":"6687425887579","target":"absent","response":"present","rt":"8283.1999998093","correct":false,"confidence":2},{"trial_n":111,"span":12,"encoder":"107570211860","distractor":"107574211860","target":"absent","response":"absent","rt":"4923.5","correct":true,"confidence":3},{"trial_n":112,"span":12,"encoder":"041480904486","distractor":"041680904486","target":"absent","response":"present","rt":"6993.1000003815","correct":false,"confidence":3},{"trial_n":113,"span":11,"encoder":"13277012710","distractor":"83277012710","target":"absent","response":"absent","rt":"7562.0999994278","correct":true,"confidence":4},{"trial_n":114,"span":11,"encoder":"61055144055","distractor":"61455144055","target":"present","response":"present","rt":"7816.1999998093","correct":true,"confidence":2},{"trial_n":115,"span":12,"encoder":"147196941051","distractor":"187196941051","target":"absent","response":"absent","rt":"4640.7000007629","correct":true,"confidence":3},{"trial_n":116,"span":12,"encoder":"493903720769","distractor":"493903720729","target":"absent","response":"absent","rt":"9762","correct":true,"confidence":3},{"trial_n":117,"span":13,"encoder":"1763930237602","distractor":"1763939237602","target":"present","response":"present","rt":"6228.2999992371","correct":true,"confidence":2},{"trial_n":118,"span":13,"encoder":"3415806865078","distractor":"3415806865074","target":"present","response":"present","rt":"2809.4000005722","correct":true,"confidence":4},{"trial_n":119,"span":14,"encoder":"30877542682396","distractor":"30877342682396","target":"present","response":"absent","rt":"7828.1000003815","correct":false,"confidence":3},{"trial_n":120,"span":13,"encoder":"9634207147684","distractor":"9624207147684","target":"present","response":"present","rt":"8124.5","correct":true,"confidence":3},{"trial_n":121,"span":13,"encoder":"6085050555625","distractor":"6085050595625","target":"present","response":"present","rt":"6942.3000001907","correct":true,"confidence":3},{"trial_n":122,"span":14,"encoder":"28224946626271","distractor":"28227946626271","target":"present","response":"absent","rt":"7727.6000003815","correct":false,"confidence":2},{"trial_n":123,"span":13,"encoder":"9714531017918","distractor":"9714531617918","target":"present","response":"present","rt":"6882.3000001907","correct":true,"confidence":3},{"trial_n":124,"span":13,"encoder":"3756727800320","distractor":"3757727800320","target":"present","response":"absent","rt":"7097.3000001907","correct":false,"confidence":2},{"trial_n":125,"span":12,"encoder":"719653896693","distractor":"719653896695","target":"absent","response":"absent","rt":"3474.8000001907","correct":true,"confidence":5},{"trial_n":126,"span":12,"encoder":"753057882645","distractor":"753057882648","target":"absent","response":"absent","rt":"5149.6999998093","correct":true,"confidence":3},{"trial_n":127,"span":13,"encoder":"1060262476441","distractor":"1060262476461","target":"present","response":"present","rt":"1910","correct":true,"confidence":5},{"trial_n":128,"span":13,"encoder":"0033834344688","distractor":"0933834344688","target":"present","response":"present","rt":"3702.3999996185","correct":true,"confidence":5},{"trial_n":129,"span":14,"encoder":"88645613271702","distractor":"88645613971702","target":"absent","response":"absent","rt":"6375.6000003815","correct":true,"confidence":1},{"trial_n":130,"span":14,"encoder":"05758690241328","distractor":"05758691241328","target":"absent","response":"absent","rt":"7460.9000005722","correct":true,"confidence":1},{"trial_n":131,"span":15,"encoder":"723096311594774","distractor":"723096311594764","target":"absent","response":"absent","rt":"1720.6999998093","correct":true,"confidence":5},{"trial_n":132,"span":15,"encoder":"664378178435074","distractor":"664328178435074","target":"absent","response":"absent","rt":"5345.5999994278","correct":true,"confidence":3},{"trial_n":133,"span":16,"encoder":"3060488333605043","distractor":"3060488333645043","target":"present","response":"absent","rt":"6621.2000007629","correct":false,"confidence":3},{"trial_n":134,"span":15,"encoder":"931798888721975","distractor":"931798888721945","target":"present","response":"present","rt":"6733.3000001907","correct":true,"confidence":5},{"trial_n":135,"span":15,"encoder":"912160613737842","distractor":"912160623737842","target":"present","response":"present","rt":"9820.6000003815","correct":true,"confidence":3},{"trial_n":136,"span":16,"encoder":"1003823545593026","distractor":"1003824545593026","target":"present","response":"present","rt":"5910.5999994278","correct":true,"confidence":3},{"trial_n":137,"span":16,"encoder":"5738313639760484","distractor":"5738313609760484","target":"absent","response":"absent","rt":"4513.5","correct":true,"confidence":1},{"trial_n":138,"span":17,"encoder":"50229742051467646","distractor":"50229742051467346","target":"present","response":"present","rt":"2912","correct":true,"confidence":3},{"trial_n":139,"span":17,"encoder":"87813470617116631","distractor":"87813170617116631","target":"absent","response":"absent","rt":"5953.1999998093","correct":true,"confidence":3},{"trial_n":140,"span":18,"encoder":"234353404784548405","distractor":"234353404784543405","target":"absent","response":"present","rt":"11357.800000191","correct":false,"confidence":3}]