[{"trial_n":1,"min":25,"max":230,"target":"present","response":"absent","rt":5078,"correct":false,"confidence":-1},{"trial_n":2,"min":25,"max":230,"target":"present","response":"present","rt":1118,"correct":true,"confidence":-1},{"trial_n":3,"min":25,"max":230,"target":"absent","response":"absent","rt":691,"correct":true,"confidence":-1},{"trial_n":4,"min":41,"max":214,"target":"absent","response":"absent","rt":660,"correct":true,"confidence":-1},{"trial_n":5,"min":41,"max":214,"target":"present","response":"present","rt":767,"correct":true,"confidence":-1},{"trial_n":6,"min":57,"max":198,"target":"absent","response":"absent","rt":700,"correct":true,"confidence":-1},{"trial_n":7,"min":57,"max":198,"target":"absent","response":"absent","rt":627,"correct":true,"confidence":-1},{"trial_n":8,"min":73,"max":182,"target":"absent","response":"absent","rt":610,"correct":true,"confidence":-1},{"trial_n":9,"min":73,"max":182,"target":"present","response":"absent","rt":654,"correct":false,"confidence":-1},{"trial_n":10,"min":57,"max":198,"target":"present","response":"present","rt":695,"correct":true,"confidence":-1},{"trial_n":11,"min":57,"max":198,"target":"present","response":"present","rt":710,"correct":true,"confidence":-1},{"trial_n":12,"min":65,"max":190,"target":"absent","response":"absent","rt":686,"correct":true,"confidence":-1},{"trial_n":13,"min":65,"max":190,"target":"absent","response":"absent","rt":603,"correct":true,"confidence":-1},{"trial_n":14,"min":73,"max":182,"target":"absent","response":"absent","rt":593,"correct":true,"confidence":-1},{"trial_n":15,"min":73,"max":182,"target":"present","response":"present","rt":744,"correct":true,"confidence":-1},{"trial_n":16,"min":81,"max":174,"target":"present","response":"present","rt":571,"correct":true,"confidence":-1},{"trial_n":17,"min":81,"max":174,"target":"present","response":"present","rt":679,"correct":true,"confidence":-1},{"trial_n":18,"min":89,"max":166,"target":"absent","response":"absent","rt":569,"correct":true,"confidence":-1},{"trial_n":19,"min":89,"max":166,"target":"absent","response":"absent","rt":669,"correct":true,"confidence":-1},{"trial_n":20,"min":97,"max":158,"target":"absent","response":"absent","rt":585,"correct":true,"confidence":-1},{"trial_n":21,"min":97,"max":158,"target":"present","response":"present","rt":1357,"correct":true,"confidence":3},{"trial_n":22,"min":101,"max":154,"target":"present","response":"present","rt":797,"correct":true,"confidence":3},{"trial_n":23,"min":101,"max":154,"target":"present","response":"present","rt":668.00000000003,"correct":true,"confidence":4},{"trial_n":24,"min":105,"max":150,"target":"absent","response":"present","rt":690,"correct":false,"confidence":4},{"trial_n":25,"min":101,"max":154,"target":"absent","response":"absent","rt":820,"correct":true,"confidence":2},{"trial_n":26,"min":101,"max":154,"target":"present","response":"absent","rt":822,"correct":false,"confidence":2},{"trial_n":27,"min":97,"max":158,"target":"absent","response":"present","rt":976,"correct":false,"confidence":3},{"trial_n":28,"min":93,"max":162,"target":"absent","response":"present","rt":706,"correct":false,"confidence":3},{"trial_n":29,"min":89,"max":166,"target":"present","response":"present","rt":838.00000000003,"correct":true,"confidence":3},{"trial_n":30,"min":89,"max":166,"target":"absent","response":"present","rt":722,"correct":false,"confidence":3},{"trial_n":31,"min":87,"max":168,"target":"present","response":"present","rt":935.99999999994,"correct":true,"confidence":2},{"trial_n":32,"min":87,"max":168,"target":"present","response":"absent","rt":1040,"correct":false,"confidence":2},{"trial_n":33,"min":85,"max":170,"target":"absent","response":"absent","rt":867.00000000006,"correct":true,"confidence":2},{"trial_n":34,"min":85,"max":170,"target":"present","response":"present","rt":649,"correct":true,"confidence":4},{"trial_n":35,"min":87,"max":168,"target":"present","response":"present","rt":682.00000000006,"correct":true,"confidence":4},{"trial_n":36,"min":87,"max":168,"target":"absent","response":"absent","rt":1520,"correct":true,"confidence":3},{"trial_n":37,"min":89,"max":166,"target":"present","response":"present","rt":641.00000000006,"correct":true,"confidence":4},{"trial_n":38,"min":89,"max":166,"target":"absent","response":"present","rt":1105,"correct":false,"confidence":2},{"trial_n":39,"min":87,"max":168,"target":"present","response":"absent","rt":1245,"correct":false,"confidence":3},{"trial_n":40,"min":85,"max":170,"target":"absent","response":"absent","rt":703.99999999994,"correct":true,"confidence":3},{"trial_n":41,"min":85,"max":170,"target":"present","response":"present","rt":986,"correct":true,"confidence":3},{"trial_n":42,"min":86,"max":169,"target":"present","response":"absent","rt":856.99999999994,"correct":false,"confidence":3},{"trial_n":43,"min":85,"max":170,"target":"absent","response":"absent","rt":1217.9999999999,"correct":true,"confidence":4},{"trial_n":44,"min":85,"max":170,"target":"absent","response":"present","rt":661,"correct":false,"confidence":3},{"trial_n":45,"min":84,"max":171,"target":"present","response":"present","rt":1801,"correct":true,"confidence":5},{"trial_n":46,"min":84,"max":171,"target":"absent","response":"absent","rt":1292,"correct":true,"confidence":4},{"trial_n":47,"min":85,"max":170,"target":"present","response":"present","rt":801.99999999994,"correct":true,"confidence":3},{"trial_n":48,"min":85,"max":170,"target":"absent","response":"absent","rt":1079,"correct":true,"confidence":3},{"trial_n":49,"min":86,"max":169,"target":"absent","response":"absent","rt":1568,"correct":true,"confidence":4},{"trial_n":50,"min":86,"max":169,"target":"absent","response":"absent","rt":702,"correct":true,"confidence":4},{"trial_n":51,"min":87,"max":168,"target":"present","response":"present","rt":966,"correct":true,"confidence":4},{"trial_n":52,"min":87,"max":168,"target":"present","response":"present","rt":593,"correct":true,"confidence":4},{"trial_n":53,"min":88,"max":167,"target":"absent","response":"present","rt":653,"correct":false,"confidence":2},{"trial_n":54,"min":87,"max":168,"target":"present","response":"absent","rt":1155,"correct":false,"confidence":3},{"trial_n":55,"min":86,"max":169,"target":"absent","response":"present","rt":694.00000000012,"correct":false,"confidence":4},{"trial_n":56,"min":85,"max":170,"target":"absent","response":"absent","rt":1233,"correct":true,"confidence":1},{"trial_n":57,"min":85,"max":170,"target":"present","response":"present","rt":892,"correct":true,"confidence":4},{"trial_n":58,"min":86,"max":169,"target":"present","response":"absent","rt":697,"correct":false,"confidence":3},{"trial_n":59,"min":85,"max":170,"target":"present","response":"absent","rt":843,"correct":false,"confidence":3},{"trial_n":60,"min":84,"max":171,"target":"present","response":"present","rt":818,"correct":true,"confidence":4},{"trial_n":61,"min":84,"max":171,"target":"present","response":"present","rt":884,"correct":true,"confidence":5},{"trial_n":62,"min":85,"max":170,"target":"absent","response":"present","rt":1541,"correct":false,"confidence":2},{"trial_n":63,"min":84,"max":171,"target":"present","response":"present","rt":776,"correct":true,"confidence":4},{"trial_n":64,"min":84,"max":171,"target":"present","response":"present","rt":754,"correct":true,"confidence":4},{"trial_n":65,"min":85,"max":170,"target":"absent","response":"absent","rt":621.99999999988,"correct":true,"confidence":3},{"trial_n":66,"min":85,"max":170,"target":"present","response":"present","rt":832,"correct":true,"confidence":5},{"trial_n":67,"min":86,"max":169,"target":"present","response":"present","rt":677.00000000012,"correct":true,"confidence":5},{"trial_n":68,"min":86,"max":169,"target":"absent","response":"absent","rt":1174,"correct":true,"confidence":3},{"trial_n":69,"min":87,"max":168,"target":"absent","response":"absent","rt":1805.0000000001,"correct":true,"confidence":4},{"trial_n":70,"min":87,"max":168,"target":"absent","response":"absent","rt":1273.0000000001,"correct":true,"confidence":2},{"trial_n":71,"min":41,"max":214,"target":"present","response":"present","rt":1004,"correct":true,"confidence":-1},{"trial_n":72,"min":41,"max":214,"target":"present","response":"present","rt":943,"correct":true,"confidence":-1},{"trial_n":73,"min":57,"max":198,"target":"absent","response":"absent","rt":639.99999999988,"correct":true,"confidence":-1},{"trial_n":74,"min":57,"max":198,"target":"absent","response":"absent","rt":616,"correct":true,"confidence":-1},{"trial_n":75,"min":73,"max":182,"target":"present","response":"absent","rt":1067,"correct":false,"confidence":-1},{"trial_n":76,"min":57,"max":198,"target":"present","response":"present","rt":518,"correct":true,"confidence":-1},{"trial_n":77,"min":57,"max":198,"target":"absent","response":"absent","rt":690,"correct":true,"confidence":-1},{"trial_n":78,"min":73,"max":182,"target":"absent","response":"present","rt":788,"correct":false,"confidence":-1},{"trial_n":79,"min":57,"max":198,"target":"absent","response":"absent","rt":558,"correct":true,"confidence":-1},{"trial_n":80,"min":57,"max":198,"target":"absent","response":"absent","rt":706,"correct":true,"confidence":-1},{"trial_n":81,"min":65,"max":190,"target":"present","response":"present","rt":560.99999999988,"correct":true,"confidence":-1},{"trial_n":82,"min":65,"max":190,"target":"absent","response":"absent","rt":641.00000000012,"correct":true,"confidence":-1},{"trial_n":83,"min":73,"max":182,"target":"absent","response":"absent","rt":1263,"correct":true,"confidence":-1},{"trial_n":84,"min":73,"max":182,"target":"absent","response":"absent","rt":969,"correct":true,"confidence":-1},{"trial_n":85,"min":81,"max":174,"target":"absent","response":"present","rt":771,"correct":false,"confidence":-1},{"trial_n":86,"min":73,"max":182,"target":"absent","response":"absent","rt":707,"correct":true,"confidence":-1},{"trial_n":87,"min":73,"max":182,"target":"present","response":"present","rt":678,"correct":true,"confidence":-1},{"trial_n":88,"min":81,"max":174,"target":"present","response":"present","rt":591,"correct":true,"confidence":-1},{"trial_n":89,"min":81,"max":174,"target":"absent","response":"absent","rt":648,"correct":true,"confidence":-1},{"trial_n":90,"min":89,"max":166,"target":"absent","response":"absent","rt":740,"correct":true,"confidence":-1},{"trial_n":91,"min":89,"max":166,"target":"present","response":"present","rt":689,"correct":true,"confidence":4},{"trial_n":92,"min":93,"max":162,"target":"present","response":"present","rt":754,"correct":true,"confidence":4},{"trial_n":93,"min":93,"max":162,"target":"present","response":"present","rt":1180,"correct":true,"confidence":3},{"trial_n":94,"min":97,"max":158,"target":"present","response":"present","rt":632,"correct":true,"confidence":3},{"trial_n":95,"min":97,"max":158,"target":"present","response":"present","rt":828,"correct":true,"confidence":3},{"trial_n":96,"min":101,"max":154,"target":"present","response":"present","rt":642.00000000012,"correct":true,"confidence":3},{"trial_n":97,"min":101,"max":154,"target":"present","response":"present","rt":1859,"correct":true,"confidence":1},{"trial_n":98,"min":105,"max":150,"target":"absent","response":"present","rt":1072,"correct":false,"confidence":5},{"trial_n":99,"min":101,"max":154,"target":"present","response":"present","rt":869,"correct":true,"confidence":4},{"trial_n":100,"min":101,"max":154,"target":"present","response":"present","rt":1654,"correct":true,"confidence":1},{"trial_n":101,"min":103,"max":152,"target":"absent","response":"present","rt":631,"correct":false,"confidence":4},{"trial_n":102,"min":101,"max":154,"target":"absent","response":"present","rt":844,"correct":false,"confidence":5},{"trial_n":103,"min":99,"max":156,"target":"absent","response":"present","rt":1416,"correct":false,"confidence":1},{"trial_n":104,"min":97,"max":158,"target":"absent","response":"present","rt":1089.0000000001,"correct":false,"confidence":1},{"trial_n":105,"min":95,"max":160,"target":"absent","response":"present","rt":918,"correct":false,"confidence":4},{"trial_n":106,"min":93,"max":162,"target":"present","response":"present","rt":746.00000000012,"correct":true,"confidence":3},{"trial_n":107,"min":93,"max":162,"target":"present","response":"present","rt":714,"correct":true,"confidence":3},{"trial_n":108,"min":95,"max":160,"target":"present","response":"present","rt":1122,"correct":true,"confidence":4},{"trial_n":109,"min":95,"max":160,"target":"present","response":"present","rt":730,"correct":true,"confidence":4},{"trial_n":110,"min":97,"max":158,"target":"absent","response":"present","rt":1383,"correct":false,"confidence":2},{"trial_n":111,"min":96,"max":159,"target":"absent","response":"present","rt":801,"correct":false,"confidence":4},{"trial_n":112,"min":95,"max":160,"target":"absent","response":"present","rt":672,"correct":false,"confidence":4},{"trial_n":113,"min":94,"max":161,"target":"present","response":"absent","rt":1113,"correct":false,"confidence":2},{"trial_n":114,"min":93,"max":162,"target":"present","response":"present","rt":893,"correct":true,"confidence":4},{"trial_n":115,"min":93,"max":162,"target":"absent","response":"present","rt":779,"correct":false,"confidence":3},{"trial_n":116,"min":92,"max":163,"target":"present","response":"present","rt":821,"correct":true,"confidence":4},{"trial_n":117,"min":92,"max":163,"target":"present","response":"present","rt":976.99999999988,"correct":true,"confidence":2},{"trial_n":118,"min":93,"max":162,"target":"absent","response":"present","rt":785,"correct":false,"confidence":2},{"trial_n":119,"min":92,"max":163,"target":"present","response":"present","rt":812,"correct":true,"confidence":5},{"trial_n":120,"min":92,"max":163,"target":"absent","response":"absent","rt":1588,"correct":true,"confidence":4},{"trial_n":121,"min":93,"max":162,"target":"present","response":"present","rt":630.99999999977,"correct":true,"confidence":4},{"trial_n":122,"min":93,"max":162,"target":"present","response":"present","rt":771,"correct":true,"confidence":4},{"trial_n":123,"min":94,"max":161,"target":"absent","response":"present","rt":704.99999999988,"correct":false,"confidence":4},{"trial_n":124,"min":93,"max":162,"target":"absent","response":"present","rt":1243.9999999999,"correct":false,"confidence":2},{"trial_n":125,"min":92,"max":163,"target":"absent","response":"absent","rt":921,"correct":true,"confidence":4},{"trial_n":126,"min":92,"max":163,"target":"absent","response":"present","rt":860,"correct":false,"confidence":2},{"trial_n":127,"min":91,"max":164,"target":"absent","response":"absent","rt":883,"correct":true,"confidence":3},{"trial_n":128,"min":91,"max":164,"target":"present","response":"present","rt":829,"correct":true,"confidence":3},{"trial_n":129,"min":92,"max":163,"target":"absent","response":"absent","rt":869,"correct":true,"confidence":4},{"trial_n":130,"min":92,"max":163,"target":"present","response":"present","rt":1032,"correct":true,"confidence":3},{"trial_n":131,"min":93,"max":162,"target":"present","response":"present","rt":654.99999999977,"correct":true,"confidence":4},{"trial_n":132,"min":93,"max":162,"target":"present","response":"present","rt":633,"correct":true,"confidence":4},{"trial_n":133,"min":94,"max":161,"target":"present","response":"present","rt":770,"correct":true,"confidence":4},{"trial_n":134,"min":94,"max":161,"target":"present","response":"present","rt":713,"correct":true,"confidence":4},{"trial_n":135,"min":95,"max":160,"target":"present","response":"absent","rt":1048,"correct":false,"confidence":3},{"trial_n":136,"min":94,"max":161,"target":"absent","response":"present","rt":778,"correct":false,"confidence":3},{"trial_n":137,"min":93,"max":162,"target":"absent","response":"present","rt":1072.9999999998,"correct":false,"confidence":4},{"trial_n":138,"min":92,"max":163,"target":"present","response":"absent","rt":1193.9999999998,"correct":false,"confidence":2},{"trial_n":139,"min":91,"max":164,"target":"present","response":"present","rt":999,"correct":true,"confidence":5},{"trial_n":140,"min":91,"max":164,"target":"absent","response":"present","rt":851,"correct":false,"confidence":4}]