[{"trial_n":1,"span":8,"encoder":"20458132","distractor":"20458122","target":"present","response":"present","rt":"5057","correct":true,"confidence":-1},{"trial_n":2,"span":8,"encoder":"32772566","distractor":"32372566","target":"present","response":"absent","rt":"1345","correct":false,"confidence":-1},{"trial_n":3,"span":6,"encoder":"413744","distractor":"413742","target":"absent","response":"absent","rt":"2426","correct":true,"confidence":-1},{"trial_n":4,"span":6,"encoder":"692438","distractor":"692434","target":"absent","response":"absent","rt":"2886","correct":true,"confidence":-1},{"trial_n":5,"span":8,"encoder":"73315511","distractor":"33315511","target":"present","response":"absent","rt":"2743","correct":false,"confidence":-1},{"trial_n":6,"span":6,"encoder":"606870","distractor":"636870","target":"absent","response":"present","rt":"3096","correct":false,"confidence":-1},{"trial_n":7,"span":4,"encoder":"1764","distractor":"1754","target":"absent","response":"absent","rt":"2350","correct":true,"confidence":-1},{"trial_n":8,"span":4,"encoder":"1447","distractor":"1457","target":"absent","response":"absent","rt":"2022","correct":true,"confidence":-1},{"trial_n":9,"span":6,"encoder":"845102","distractor":"805102","target":"present","response":"present","rt":"2309","correct":true,"confidence":-1},{"trial_n":10,"span":6,"encoder":"922560","distractor":"922860","target":"present","response":"present","rt":"3839","correct":true,"confidence":-1},{"trial_n":11,"span":8,"encoder":"67527455","distractor":"69527455","target":"absent","response":"absent","rt":"2069","correct":true,"confidence":-1},{"trial_n":12,"span":8,"encoder":"05715447","distractor":"45715447","target":"present","response":"absent","rt":"2452","correct":false,"confidence":-1},{"trial_n":13,"span":7,"encoder":"7986187","distractor":"7956187","target":"present","response":"present","rt":"3057","correct":true,"confidence":-1},{"trial_n":14,"span":7,"encoder":"8002174","distractor":"7002174","target":"absent","response":"absent","rt":"2773","correct":true,"confidence":-1},{"trial_n":15,"span":8,"encoder":"36762607","distractor":"96762607","target":"present","response":"absent","rt":"1632","correct":false,"confidence":-1},{"trial_n":16,"span":7,"encoder":"8553913","distractor":"8453913","target":"present","response":"present","rt":"2586","correct":true,"confidence":-1},{"trial_n":17,"span":7,"encoder":"5124430","distractor":"4124430","target":"absent","response":"absent","rt":"2216","correct":true,"confidence":-1},{"trial_n":18,"span":8,"encoder":"28605420","distractor":"28905420","target":"absent","response":"absent","rt":"1541","correct":true,"confidence":-1},{"trial_n":19,"span":8,"encoder":"46919343","distractor":"46917343","target":"present","response":"present","rt":"4928","correct":true,"confidence":-1},{"trial_n":20,"span":9,"encoder":"328224003","distractor":"388224003","target":"present","response":"present","rt":"4219","correct":true,"confidence":-1},{"trial_n":21,"span":9,"encoder":"214955630","distractor":"214955530","target":"absent","response":"absent","rt":"4823","correct":true,"confidence":3},{"trial_n":22,"span":10,"encoder":"8762632261","distractor":"8762632291","target":"absent","response":"present","rt":"4883","correct":false,"confidence":3},{"trial_n":23,"span":9,"encoder":"296729045","distractor":"294729045","target":"absent","response":"absent","rt":"2325","correct":true,"confidence":4},{"trial_n":24,"span":9,"encoder":"470900082","distractor":"490900082","target":"present","response":"present","rt":"4828","correct":true,"confidence":3},{"trial_n":25,"span":10,"encoder":"3132397607","distractor":"3132397609","target":"absent","response":"present","rt":"3930","correct":false,"confidence":3},{"trial_n":26,"span":9,"encoder":"275046364","distractor":"275046361","target":"present","response":"present","rt":"5372","correct":true,"confidence":3},{"trial_n":27,"span":9,"encoder":"642342967","distractor":"642342367","target":"present","response":"absent","rt":"3753","correct":false,"confidence":3},{"trial_n":28,"span":8,"encoder":"03470093","distractor":"03470593","target":"absent","response":"absent","rt":"4450","correct":true,"confidence":4},{"trial_n":29,"span":8,"encoder":"82813208","distractor":"82812208","target":"absent","response":"absent","rt":"4637.0000000001","correct":true,"confidence":3},{"trial_n":30,"span":9,"encoder":"737240955","distractor":"727240955","target":"absent","response":"present","rt":"5095","correct":false,"confidence":4},{"trial_n":31,"span":8,"encoder":"12460128","distractor":"12430128","target":"present","response":"present","rt":"2430","correct":true,"confidence":5},{"trial_n":32,"span":8,"encoder":"32933653","distractor":"32933658","target":"present","response":"absent","rt":"3955","correct":false,"confidence":4},{"trial_n":33,"span":7,"encoder":"0343174","distractor":"0323174","target":"absent","response":"absent","rt":"2333","correct":true,"confidence":4},{"trial_n":34,"span":7,"encoder":"2742514","distractor":"4742514","target":"absent","response":"absent","rt":"2264","correct":true,"confidence":4},{"trial_n":35,"span":8,"encoder":"75073366","distractor":"25073366","target":"present","response":"absent","rt":"6998","correct":false,"confidence":3},{"trial_n":36,"span":7,"encoder":"5442262","distractor":"5442662","target":"absent","response":"present","rt":"4103","correct":false,"confidence":4},{"trial_n":37,"span":6,"encoder":"204036","distractor":"204736","target":"absent","response":"absent","rt":"4608.9999999999","correct":true,"confidence":3},{"trial_n":38,"span":6,"encoder":"900546","distractor":"900446","target":"present","response":"present","rt":"2094.9999999999","correct":true,"confidence":5},{"trial_n":39,"span":7,"encoder":"2957802","distractor":"2357802","target":"present","response":"present","rt":"3371","correct":true,"confidence":4},{"trial_n":40,"span":7,"encoder":"5958375","distractor":"5958385","target":"absent","response":"absent","rt":"3584","correct":true,"confidence":4},{"trial_n":41,"span":8,"encoder":"03714487","distractor":"03784487","target":"absent","response":"absent","rt":"3537","correct":true,"confidence":3},{"trial_n":42,"span":8,"encoder":"74105786","distractor":"84105786","target":"present","response":"absent","rt":"2416","correct":false,"confidence":3},{"trial_n":43,"span":7,"encoder":"6763279","distractor":"6763879","target":"absent","response":"absent","rt":"3509.9999999999","correct":true,"confidence":3},{"trial_n":44,"span":7,"encoder":"1855489","distractor":"1855889","target":"absent","response":"absent","rt":"2548.9999999999","correct":true,"confidence":5},{"trial_n":45,"span":8,"encoder":"69108716","distractor":"69108736","target":"absent","response":"absent","rt":"2806","correct":true,"confidence":3},{"trial_n":46,"span":8,"encoder":"12712789","distractor":"12912789","target":"absent","response":"absent","rt":"2091.9999999999","correct":true,"confidence":4},{"trial_n":47,"span":9,"encoder":"023546485","distractor":"023549485","target":"present","response":"present","rt":"5344","correct":true,"confidence":3},{"trial_n":48,"span":9,"encoder":"348899278","distractor":"340899278","target":"present","response":"present","rt":"5709.0000000001","correct":true,"confidence":3},{"trial_n":49,"span":10,"encoder":"4746284833","distractor":"4646284833","target":"present","response":"absent","rt":"3290","correct":false,"confidence":3},{"trial_n":50,"span":9,"encoder":"576229139","distractor":"576229179","target":"present","response":"present","rt":"5240","correct":true,"confidence":3},{"trial_n":51,"span":9,"encoder":"498129011","distractor":"498829011","target":"present","response":"present","rt":"4535","correct":true,"confidence":3},{"trial_n":52,"span":10,"encoder":"9744994075","distractor":"9744994005","target":"absent","response":"absent","rt":"3598","correct":true,"confidence":3},{"trial_n":53,"span":10,"encoder":"6100973576","distractor":"6101973576","target":"present","response":"absent","rt":"3142","correct":false,"confidence":3},{"trial_n":54,"span":9,"encoder":"359308588","distractor":"359708588","target":"absent","response":"absent","rt":"3966","correct":true,"confidence":3},{"trial_n":55,"span":9,"encoder":"300103612","distractor":"300173612","target":"absent","response":"absent","rt":"4260","correct":true,"confidence":4},{"trial_n":56,"span":10,"encoder":"7997528537","distractor":"7997528536","target":"present","response":"present","rt":"3395.0000000001","correct":true,"confidence":3},{"trial_n":57,"span":10,"encoder":"8367829207","distractor":"8361829207","target":"present","response":"present","rt":"4931","correct":true,"confidence":3},{"trial_n":58,"span":11,"encoder":"23588236754","distractor":"23586236754","target":"present","response":"present","rt":"4338","correct":true,"confidence":3},{"trial_n":59,"span":11,"encoder":"28050177683","distractor":"28090177683","target":"present","response":"present","rt":"4451","correct":true,"confidence":3},{"trial_n":60,"span":12,"encoder":"250113977085","distractor":"250113977985","target":"present","response":"absent","rt":"4929","correct":false,"confidence":3},{"trial_n":61,"span":11,"encoder":"02408127716","distractor":"02708127716","target":"present","response":"absent","rt":"4233","correct":false,"confidence":3},{"trial_n":62,"span":10,"encoder":"7309740931","distractor":"7302740931","target":"absent","response":"absent","rt":"3200","correct":true,"confidence":3},{"trial_n":63,"span":10,"encoder":"8695041471","distractor":"8995041471","target":"absent","response":"absent","rt":"5180","correct":true,"confidence":2},{"trial_n":64,"span":11,"encoder":"93754923777","distractor":"93754923707","target":"present","response":"absent","rt":"2534","correct":false,"confidence":3},{"trial_n":65,"span":10,"encoder":"6440033899","distractor":"6440031899","target":"present","response":"present","rt":"3175","correct":true,"confidence":3},{"trial_n":66,"span":10,"encoder":"2956295817","distractor":"2056295817","target":"present","response":"present","rt":"5080","correct":true,"confidence":4},{"trial_n":67,"span":11,"encoder":"92701100485","distractor":"92701300485","target":"absent","response":"absent","rt":"3045.9999999999","correct":true,"confidence":3},{"trial_n":68,"span":11,"encoder":"40052289868","distractor":"49052289868","target":"present","response":"present","rt":"3927","correct":true,"confidence":3},{"trial_n":69,"span":12,"encoder":"451619397218","distractor":"151619397218","target":"absent","response":"absent","rt":"1577","correct":true,"confidence":3},{"trial_n":70,"span":12,"encoder":"007144360442","distractor":"007144362442","target":"absent","response":"absent","rt":"2867.0000000001","correct":true,"confidence":3},{"trial_n":71,"span":8,"encoder":"62955304","distractor":"42955304","target":"present","response":"present","rt":"4637","correct":true,"confidence":-1},{"trial_n":72,"span":8,"encoder":"38181830","distractor":"68181830","target":"present","response":"present","rt":"3032","correct":true,"confidence":-1},{"trial_n":73,"span":9,"encoder":"706880433","distractor":"706820433","target":"absent","response":"absent","rt":"5562.9999999999","correct":true,"confidence":-1},{"trial_n":74,"span":9,"encoder":"178856176","distractor":"178456176","target":"absent","response":"absent","rt":"4115","correct":true,"confidence":-1},{"trial_n":75,"span":10,"encoder":"8213505318","distractor":"8213515318","target":"present","response":"present","rt":"12710","correct":true,"confidence":-1},{"trial_n":76,"span":10,"encoder":"5495618163","distractor":"9495618163","target":"present","response":"present","rt":"3976","correct":true,"confidence":-1},{"trial_n":77,"span":11,"encoder":"18023116841","distractor":"18023216841","target":"present","response":"absent","rt":"6617","correct":false,"confidence":-1},{"trial_n":78,"span":10,"encoder":"8916363272","distractor":"6916363272","target":"present","response":"present","rt":"2288.9999999999","correct":true,"confidence":-1},{"trial_n":79,"span":10,"encoder":"6803534899","distractor":"6823534899","target":"present","response":"absent","rt":"4803.9999999999","correct":false,"confidence":-1},{"trial_n":80,"span":9,"encoder":"134701991","distractor":"134701191","target":"present","response":"absent","rt":"2014","correct":false,"confidence":-1},{"trial_n":81,"span":8,"encoder":"58747524","distractor":"58347524","target":"absent","response":"present","rt":"814","correct":false,"confidence":-1},{"trial_n":82,"span":7,"encoder":"8738938","distractor":"8738958","target":"absent","response":"absent","rt":"2298","correct":true,"confidence":-1},{"trial_n":83,"span":7,"encoder":"3730229","distractor":"3730729","target":"present","response":"present","rt":"1699","correct":true,"confidence":-1},{"trial_n":84,"span":8,"encoder":"95075469","distractor":"25075469","target":"present","response":"present","rt":"8596.0000000002","correct":true,"confidence":-1},{"trial_n":85,"span":8,"encoder":"23766879","distractor":"93766879","target":"absent","response":"absent","rt":"1202","correct":true,"confidence":-1},{"trial_n":86,"span":9,"encoder":"821622994","distractor":"821622944","target":"absent","response":"absent","rt":"5157","correct":true,"confidence":-1},{"trial_n":87,"span":9,"encoder":"494762050","distractor":"794762050","target":"present","response":"present","rt":"2201","correct":true,"confidence":-1},{"trial_n":88,"span":10,"encoder":"8588999144","distractor":"8588999145","target":"present","response":"present","rt":"5463","correct":true,"confidence":-1},{"trial_n":89,"span":10,"encoder":"1175672599","distractor":"1175672199","target":"present","response":"present","rt":"6331","correct":true,"confidence":-1},{"trial_n":90,"span":11,"encoder":"76624732630","distractor":"76624732637","target":"present","response":"present","rt":"520","correct":true,"confidence":-1},{"trial_n":91,"span":11,"encoder":"04085611131","distractor":"04005611131","target":"absent","response":"present","rt":"12562","correct":false,"confidence":2},{"trial_n":92,"span":10,"encoder":"3292771954","distractor":"3292771974","target":"present","response":"present","rt":"5700","correct":true,"confidence":3},{"trial_n":93,"span":10,"encoder":"4122651199","distractor":"4112651199","target":"present","response":"present","rt":"8814.9999999998","correct":true,"confidence":3},{"trial_n":94,"span":11,"encoder":"68291221838","distractor":"68291221848","target":"absent","response":"absent","rt":"2611","correct":true,"confidence":5},{"trial_n":95,"span":11,"encoder":"85984288128","distractor":"85994288128","target":"absent","response":"absent","rt":"3876","correct":true,"confidence":3},{"trial_n":96,"span":12,"encoder":"773855428952","distractor":"773855408952","target":"present","response":"absent","rt":"8859","correct":false,"confidence":2},{"trial_n":97,"span":11,"encoder":"53072969090","distractor":"53062969090","target":"present","response":"absent","rt":"7304","correct":false,"confidence":1},{"trial_n":98,"span":10,"encoder":"5757742887","distractor":"6757742887","target":"absent","response":"absent","rt":"2090","correct":true,"confidence":5},{"trial_n":99,"span":10,"encoder":"0961587682","distractor":"0965587682","target":"absent","response":"present","rt":"6347","correct":false,"confidence":2},{"trial_n":100,"span":9,"encoder":"561823385","distractor":"561123385","target":"present","response":"present","rt":"7785","correct":true,"confidence":3},{"trial_n":101,"span":9,"encoder":"719510734","distractor":"719510134","target":"absent","response":"present","rt":"8158","correct":false,"confidence":3},{"trial_n":102,"span":8,"encoder":"69232138","distractor":"63232138","target":"present","response":"present","rt":"4287","correct":true,"confidence":4},{"trial_n":103,"span":8,"encoder":"63042907","distractor":"63042707","target":"present","response":"present","rt":"2448","correct":true,"confidence":4},{"trial_n":104,"span":9,"encoder":"960646651","distractor":"960644651","target":"present","response":"present","rt":"4848.9999999998","correct":true,"confidence":3},{"trial_n":105,"span":9,"encoder":"139461334","distractor":"131461334","target":"absent","response":"absent","rt":"2216","correct":true,"confidence":5},{"trial_n":106,"span":10,"encoder":"8729672080","distractor":"8729772080","target":"absent","response":"absent","rt":"11467","correct":true,"confidence":2},{"trial_n":107,"span":10,"encoder":"9209135055","distractor":"9209138055","target":"absent","response":"absent","rt":"7865","correct":true,"confidence":3},{"trial_n":108,"span":11,"encoder":"51343668873","distractor":"51343268873","target":"present","response":"present","rt":"7290.9999999998","correct":true,"confidence":2},{"trial_n":109,"span":11,"encoder":"78090131772","distractor":"28090131772","target":"absent","response":"absent","rt":"2120","correct":true,"confidence":5},{"trial_n":110,"span":12,"encoder":"590128686024","distractor":"590125686024","target":"absent","response":"absent","rt":"7314","correct":true,"confidence":3},{"trial_n":111,"span":12,"encoder":"673515265259","distractor":"673515265059","target":"present","response":"present","rt":"6696","correct":true,"confidence":1},{"trial_n":112,"span":13,"encoder":"4610045262615","distractor":"4610445262615","target":"absent","response":"absent","rt":"2717.9999999998","correct":true,"confidence":5},{"trial_n":113,"span":13,"encoder":"8916828644186","distractor":"8916828643186","target":"absent","response":"absent","rt":"9128.9999999998","correct":true,"confidence":2},{"trial_n":114,"span":14,"encoder":"99319115996779","distractor":"99319115996777","target":"absent","response":"present","rt":"8362.0000000002","correct":false,"confidence":2},{"trial_n":115,"span":13,"encoder":"2880002703315","distractor":"3880002703315","target":"present","response":"present","rt":"5646.0000000005","correct":true,"confidence":3},{"trial_n":116,"span":13,"encoder":"8432992476744","distractor":"8432972476744","target":"present","response":"present","rt":"8736","correct":true,"confidence":3},{"trial_n":117,"span":14,"encoder":"78264056098845","distractor":"78260056098845","target":"absent","response":"present","rt":"3542","correct":false,"confidence":1},{"trial_n":118,"span":13,"encoder":"9350030809806","distractor":"9350030809826","target":"absent","response":"present","rt":"11670","correct":false,"confidence":2},{"trial_n":119,"span":12,"encoder":"624402694516","distractor":"624602694516","target":"absent","response":"absent","rt":"3285.9999999995","correct":true,"confidence":4},{"trial_n":120,"span":12,"encoder":"631297795627","distractor":"631297395627","target":"present","response":"absent","rt":"11466","correct":false,"confidence":3},{"trial_n":121,"span":11,"encoder":"40914663688","distractor":"40914665688","target":"absent","response":"present","rt":"9867","correct":false,"confidence":2},{"trial_n":122,"span":10,"encoder":"5886834030","distractor":"5886884030","target":"present","response":"present","rt":"12732","correct":true,"confidence":1},{"trial_n":123,"span":10,"encoder":"4665819926","distractor":"4665809926","target":"absent","response":"absent","rt":"6571","correct":true,"confidence":2},{"trial_n":124,"span":11,"encoder":"85274200447","distractor":"86274200447","target":"present","response":"absent","rt":"6301.0000000005","correct":false,"confidence":3},{"trial_n":125,"span":10,"encoder":"1417498618","distractor":"1417298618","target":"present","response":"present","rt":"5134","correct":true,"confidence":2},{"trial_n":126,"span":10,"encoder":"2256967383","distractor":"2256667383","target":"present","response":"present","rt":"7836","correct":true,"confidence":4},{"trial_n":127,"span":11,"encoder":"93306991269","distractor":"93305991269","target":"absent","response":"absent","rt":"8191","correct":true,"confidence":2},{"trial_n":128,"span":11,"encoder":"75443434463","distractor":"75493434463","target":"present","response":"absent","rt":"16888","correct":false,"confidence":3},{"trial_n":129,"span":10,"encoder":"8778778715","distractor":"0778778715","target":"absent","response":"absent","rt":"10122","correct":true,"confidence":4},{"trial_n":130,"span":10,"encoder":"6399409295","distractor":"6390409295","target":"absent","response":"present","rt":"8817","correct":false,"confidence":2},{"trial_n":131,"span":9,"encoder":"272903963","distractor":"272003963","target":"present","response":"present","rt":"3599","correct":true,"confidence":3},{"trial_n":132,"span":9,"encoder":"727843659","distractor":"627843659","target":"present","response":"present","rt":"2773","correct":true,"confidence":3},{"trial_n":133,"span":10,"encoder":"9401839334","distractor":"9401809334","target":"present","response":"absent","rt":"9627.9999999995","correct":false,"confidence":2},{"trial_n":134,"span":9,"encoder":"536892025","distractor":"536892095","target":"absent","response":"present","rt":"5282","correct":false,"confidence":2},{"trial_n":135,"span":8,"encoder":"41025959","distractor":"61025959","target":"absent","response":"absent","rt":"2416","correct":true,"confidence":5},{"trial_n":136,"span":8,"encoder":"50478692","distractor":"50478602","target":"absent","response":"absent","rt":"4917.9999999995","correct":true,"confidence":4},{"trial_n":137,"span":9,"encoder":"496051598","distractor":"996051598","target":"absent","response":"absent","rt":"3200","correct":true,"confidence":4},{"trial_n":138,"span":9,"encoder":"123776525","distractor":"113776525","target":"absent","response":"absent","rt":"2206","correct":true,"confidence":5},{"trial_n":139,"span":10,"encoder":"6824371808","distractor":"6864371808","target":"absent","response":"absent","rt":"2784.9999999995","correct":true,"confidence":4},{"trial_n":140,"span":10,"encoder":"8361505739","distractor":"8331505739","target":"present","response":"present","rt":"4303","correct":true,"confidence":4}]