[{"trial_n":1,"n_dots":4.25,"target":"left","response":"left","rt":3668,"correct":true,"confidence":-1},{"trial_n":2,"n_dots":4.25,"target":"left","response":"right","rt":1792,"correct":false,"confidence":-1},{"trial_n":3,"n_dots":4.65,"target":"right","response":"right","rt":1047,"correct":true,"confidence":-1},{"trial_n":4,"n_dots":4.65,"target":"left","response":"left","rt":765,"correct":true,"confidence":-1},{"trial_n":5,"n_dots":4.25,"target":"left","response":"left","rt":383,"correct":true,"confidence":-1},{"trial_n":6,"n_dots":4.25,"target":"left","response":"left","rt":262,"correct":true,"confidence":-1},{"trial_n":7,"n_dots":3.85,"target":"left","response":"left","rt":433,"correct":true,"confidence":-1},{"trial_n":8,"n_dots":3.85,"target":"left","response":"left","rt":584,"correct":true,"confidence":-1},{"trial_n":9,"n_dots":3.65,"target":"right","response":"right","rt":282,"correct":true,"confidence":-1},{"trial_n":10,"n_dots":3.65,"target":"right","response":"left","rt":798,"correct":false,"confidence":-1},{"trial_n":11,"n_dots":3.85,"target":"left","response":"left","rt":277,"correct":true,"confidence":-1},{"trial_n":12,"n_dots":3.85,"target":"right","response":"right","rt":317,"correct":true,"confidence":-1},{"trial_n":13,"n_dots":3.75,"target":"right","response":"right","rt":327,"correct":true,"confidence":-1},{"trial_n":14,"n_dots":3.75,"target":"right","response":"right","rt":446,"correct":true,"confidence":-1},{"trial_n":15,"n_dots":3.65,"target":"left","response":"right","rt":502,"correct":false,"confidence":-1},{"trial_n":16,"n_dots":3.75,"target":"right","response":"right","rt":292,"correct":true,"confidence":-1},{"trial_n":17,"n_dots":3.75,"target":"right","response":"right","rt":310,"correct":true,"confidence":-1},{"trial_n":18,"n_dots":3.65,"target":"left","response":"left","rt":970.99999999999,"correct":true,"confidence":-1},{"trial_n":19,"n_dots":3.65,"target":"left","response":"right","rt":370.00000000001,"correct":false,"confidence":-1},{"trial_n":20,"n_dots":3.75,"target":"left","response":"left","rt":71,"correct":true,"confidence":-1},{"trial_n":21,"n_dots":3.75,"target":"left","response":"left","rt":846,"correct":true,"confidence":3},{"trial_n":22,"n_dots":3.65,"target":"right","response":"right","rt":404.99999999999,"correct":true,"confidence":3},{"trial_n":23,"n_dots":3.65,"target":"left","response":"right","rt":1216,"correct":false,"confidence":3},{"trial_n":24,"n_dots":3.75,"target":"left","response":"left","rt":439,"correct":true,"confidence":1},{"trial_n":25,"n_dots":3.75,"target":"right","response":"left","rt":17,"correct":false,"confidence":1},{"trial_n":26,"n_dots":3.85,"target":"left","response":"left","rt":490,"correct":true,"confidence":1},{"trial_n":27,"n_dots":3.85,"target":"left","response":"left","rt":607.99999999999,"correct":true,"confidence":1},{"trial_n":28,"n_dots":3.75,"target":"right","response":"left","rt":239,"correct":false,"confidence":1},{"trial_n":29,"n_dots":3.85,"target":"left","response":"left","rt":435,"correct":true,"confidence":1},{"trial_n":30,"n_dots":3.85,"target":"left","response":"right","rt":1438,"correct":false,"confidence":1},{"trial_n":31,"n_dots":3.95,"target":"right","response":"left","rt":226,"correct":false,"confidence":1},{"trial_n":32,"n_dots":4.05,"target":"left","response":"left","rt":332,"correct":true,"confidence":1},{"trial_n":33,"n_dots":4.05,"target":"left","response":"left","rt":30,"correct":true,"confidence":1},{"trial_n":34,"n_dots":3.95,"target":"right","response":"left","rt":338,"correct":false,"confidence":1},{"trial_n":35,"n_dots":4.05,"target":"right","response":"right","rt":466.99999999999,"correct":true,"confidence":1},{"trial_n":36,"n_dots":4.05,"target":"right","response":"right","rt":740.00000000001,"correct":true,"confidence":1},{"trial_n":37,"n_dots":3.95,"target":"left","response":"left","rt":523,"correct":true,"confidence":1},{"trial_n":38,"n_dots":3.95,"target":"right","response":"left","rt":291,"correct":false,"confidence":1},{"trial_n":39,"n_dots":4.05,"target":"left","response":"left","rt":115,"correct":true,"confidence":1},{"trial_n":40,"n_dots":4.05,"target":"right","response":"left","rt":-26,"correct":false,"confidence":1},{"trial_n":41,"n_dots":4.15,"target":"right","response":"right","rt":492,"correct":true,"confidence":1},{"trial_n":42,"n_dots":4.15,"target":"right","response":"left","rt":74,"correct":false,"confidence":1},{"trial_n":43,"n_dots":4.25,"target":"right","response":"left","rt":411,"correct":false,"confidence":1},{"trial_n":44,"n_dots":4.35,"target":"right","response":"right","rt":168,"correct":true,"confidence":1},{"trial_n":45,"n_dots":4.35,"target":"right","response":"right","rt":12,"correct":true,"confidence":1},{"trial_n":46,"n_dots":4.25,"target":"left","response":"right","rt":106,"correct":false,"confidence":1},{"trial_n":47,"n_dots":4.35,"target":"right","response":"left","rt":18,"correct":false,"confidence":1},{"trial_n":48,"n_dots":4.45,"target":"right","response":"right","rt":338,"correct":true,"confidence":1},{"trial_n":49,"n_dots":4.45,"target":"left","response":"left","rt":1.9999999999709,"correct":true,"confidence":1},{"trial_n":50,"n_dots":4.35,"target":"left","response":"left","rt":80,"correct":true,"confidence":1},{"trial_n":51,"n_dots":4.35,"target":"right","response":"left","rt":522,"correct":false,"confidence":1},{"trial_n":52,"n_dots":4.45,"target":"right","response":"left","rt":335,"correct":false,"confidence":1},{"trial_n":53,"n_dots":4.55,"target":"left","response":"right","rt":758,"correct":false,"confidence":1},{"trial_n":54,"n_dots":4.65,"target":"left","response":"left","rt":791,"correct":true,"confidence":1},{"trial_n":55,"n_dots":4.65,"target":"right","response":"left","rt":383,"correct":false,"confidence":3},{"trial_n":56,"n_dots":4.75,"target":"right","response":"right","rt":549.00000000003,"correct":true,"confidence":1},{"trial_n":57,"n_dots":4.75,"target":"right","response":"right","rt":298,"correct":true,"confidence":1},{"trial_n":58,"n_dots":4.65,"target":"right","response":"right","rt":508,"correct":true,"confidence":5},{"trial_n":59,"n_dots":4.65,"target":"left","response":"left","rt":421.00000000003,"correct":true,"confidence":5},{"trial_n":60,"n_dots":4.55,"target":"left","response":"left","rt":425,"correct":true,"confidence":3},{"trial_n":61,"n_dots":4.55,"target":"left","response":"left","rt":330,"correct":true,"confidence":3},{"trial_n":62,"n_dots":4.45,"target":"right","response":"right","rt":336.99999999997,"correct":true,"confidence":1},{"trial_n":63,"n_dots":4.45,"target":"right","response":"right","rt":299.99999999997,"correct":true,"confidence":1},{"trial_n":64,"n_dots":4.35,"target":"left","response":"left","rt":394,"correct":true,"confidence":1},{"trial_n":65,"n_dots":4.35,"target":"right","response":"right","rt":265,"correct":true,"confidence":1},{"trial_n":66,"n_dots":4.25,"target":"right","response":"right","rt":328.99999999997,"correct":true,"confidence":1},{"trial_n":67,"n_dots":4.25,"target":"right","response":"right","rt":398,"correct":true,"confidence":4},{"trial_n":68,"n_dots":4.15,"target":"right","response":"right","rt":557,"correct":true,"confidence":3},{"trial_n":69,"n_dots":4.15,"target":"right","response":"right","rt":525.99999999997,"correct":true,"confidence":2},{"trial_n":70,"n_dots":4.05,"target":"right","response":"right","rt":408.00000000003,"correct":true,"confidence":4},{"trial_n":71,"n_dots":4.05,"target":"left","response":"left","rt":389,"correct":true,"confidence":1},{"trial_n":72,"n_dots":3.95,"target":"left","response":"left","rt":363,"correct":true,"confidence":1},{"trial_n":73,"n_dots":3.95,"target":"right","response":"right","rt":406,"correct":true,"confidence":1},{"trial_n":74,"n_dots":3.85,"target":"right","response":"right","rt":574.00000000003,"correct":true,"confidence":4},{"trial_n":75,"n_dots":3.85,"target":"left","response":"left","rt":340,"correct":true,"confidence":3},{"trial_n":76,"n_dots":3.75,"target":"left","response":"left","rt":263,"correct":true,"confidence":1},{"trial_n":77,"n_dots":3.75,"target":"right","response":"left","rt":281,"correct":false,"confidence":1},{"trial_n":78,"n_dots":3.85,"target":"left","response":"left","rt":340.00000000003,"correct":true,"confidence":1},{"trial_n":79,"n_dots":3.85,"target":"left","response":"left","rt":295,"correct":true,"confidence":1},{"trial_n":80,"n_dots":3.75,"target":"left","response":"left","rt":26,"correct":true,"confidence":1},{"trial_n":81,"n_dots":3.75,"target":"right","response":"left","rt":-31,"correct":false,"confidence":1},{"trial_n":82,"n_dots":3.85,"target":"left","response":"left","rt":129.99999999994,"correct":true,"confidence":1},{"trial_n":83,"n_dots":3.85,"target":"right","response":"left","rt":69,"correct":false,"confidence":1},{"trial_n":84,"n_dots":3.95,"target":"left","response":"left","rt":247,"correct":true,"confidence":1},{"trial_n":85,"n_dots":3.95,"target":"left","response":"right","rt":704,"correct":false,"confidence":1},{"trial_n":86,"n_dots":4.05,"target":"left","response":"left","rt":539,"correct":true,"confidence":1},{"trial_n":87,"n_dots":4.05,"target":"right","response":"right","rt":317,"correct":true,"confidence":1},{"trial_n":88,"n_dots":3.95,"target":"left","response":"left","rt":606,"correct":true,"confidence":1},{"trial_n":89,"n_dots":3.95,"target":"right","response":"right","rt":320,"correct":true,"confidence":1},{"trial_n":90,"n_dots":3.85,"target":"right","response":"right","rt":438.00000000006,"correct":true,"confidence":1},{"trial_n":91,"n_dots":3.85,"target":"right","response":"right","rt":376,"correct":true,"confidence":1},{"trial_n":92,"n_dots":3.75,"target":"right","response":"right","rt":271,"correct":true,"confidence":1},{"trial_n":93,"n_dots":3.75,"target":"right","response":"right","rt":340.00000000006,"correct":true,"confidence":1},{"trial_n":94,"n_dots":3.65,"target":"left","response":"left","rt":263.00000000006,"correct":true,"confidence":1},{"trial_n":95,"n_dots":3.65,"target":"right","response":"left","rt":228,"correct":false,"confidence":1},{"trial_n":96,"n_dots":3.75,"target":"right","response":"right","rt":265,"correct":true,"confidence":1},{"trial_n":97,"n_dots":3.75,"target":"left","response":"left","rt":583,"correct":true,"confidence":1},{"trial_n":98,"n_dots":3.65,"target":"left","response":"left","rt":399,"correct":true,"confidence":1},{"trial_n":99,"n_dots":3.65,"target":"left","response":"left","rt":207,"correct":true,"confidence":1},{"trial_n":100,"n_dots":3.55,"target":"left","response":"left","rt":237,"correct":true,"confidence":1},{"trial_n":101,"n_dots":3.55,"target":"left","response":"right","rt":248,"correct":false,"confidence":1},{"trial_n":102,"n_dots":3.65,"target":"left","response":"left","rt":169,"correct":true,"confidence":1},{"trial_n":103,"n_dots":3.65,"target":"right","response":"left","rt":223,"correct":false,"confidence":1},{"trial_n":104,"n_dots":3.75,"target":"left","response":"left","rt":191,"correct":true,"confidence":1},{"trial_n":105,"n_dots":3.75,"target":"right","response":"left","rt":244,"correct":false,"confidence":1},{"trial_n":106,"n_dots":3.85,"target":"right","response":"left","rt":279.00000000006,"correct":false,"confidence":1},{"trial_n":107,"n_dots":3.95,"target":"left","response":"left","rt":287,"correct":true,"confidence":1},{"trial_n":108,"n_dots":3.95,"target":"right","response":"left","rt":329,"correct":false,"confidence":1},{"trial_n":109,"n_dots":4.05,"target":"right","response":"left","rt":175,"correct":false,"confidence":1},{"trial_n":110,"n_dots":4.15,"target":"left","response":"left","rt":176,"correct":true,"confidence":1},{"trial_n":111,"n_dots":4.15,"target":"right","response":"left","rt":7,"correct":false,"confidence":1},{"trial_n":112,"n_dots":4.25,"target":"left","response":"left","rt":161,"correct":true,"confidence":1},{"trial_n":113,"n_dots":4.25,"target":"right","response":"right","rt":368,"correct":true,"confidence":1},{"trial_n":114,"n_dots":4.15,"target":"right","response":"right","rt":720.00000000006,"correct":true,"confidence":1},{"trial_n":115,"n_dots":4.15,"target":"left","response":"left","rt":351,"correct":true,"confidence":1},{"trial_n":116,"n_dots":4.05,"target":"left","response":"left","rt":269,"correct":true,"confidence":1},{"trial_n":117,"n_dots":4.05,"target":"left","response":"left","rt":232477,"correct":true,"confidence":1},{"trial_n":118,"n_dots":3.95,"target":"right","response":"right","rt":532,"correct":true,"confidence":1},{"trial_n":119,"n_dots":3.95,"target":"left","response":"left","rt":9,"correct":true,"confidence":1},{"trial_n":120,"n_dots":3.85,"target":"left","response":"right","rt":272,"correct":false,"confidence":1}]