[{"trial_n":1,"n_dots":4.25,"target":"right","response":"right","rt":2950,"correct":true,"confidence":-1},{"trial_n":2,"n_dots":4.25,"target":"right","response":"right","rt":525,"correct":true,"confidence":-1},{"trial_n":3,"n_dots":3.85,"target":"right","response":"right","rt":523,"correct":true,"confidence":-1},{"trial_n":4,"n_dots":3.85,"target":"right","response":"left","rt":521,"correct":false,"confidence":-1},{"trial_n":5,"n_dots":4.25,"target":"right","response":"left","rt":501.9999999851,"correct":false,"confidence":-1},{"trial_n":6,"n_dots":4.65,"target":"left","response":"left","rt":454,"correct":true,"confidence":-1},{"trial_n":7,"n_dots":4.65,"target":"right","response":"right","rt":81,"correct":true,"confidence":-1},{"trial_n":8,"n_dots":4.45,"target":"left","response":"left","rt":257.0000000149,"correct":true,"confidence":-1},{"trial_n":9,"n_dots":4.45,"target":"left","response":"left","rt":279,"correct":true,"confidence":-1},{"trial_n":10,"n_dots":4.25,"target":"left","response":"left","rt":219,"correct":true,"confidence":-1},{"trial_n":11,"n_dots":4.25,"target":"right","response":"right","rt":293,"correct":true,"confidence":-1},{"trial_n":12,"n_dots":4.05,"target":"right","response":"right","rt":130.0000000149,"correct":true,"confidence":-1},{"trial_n":13,"n_dots":4.05,"target":"right","response":"right","rt":588,"correct":true,"confidence":-1},{"trial_n":14,"n_dots":3.95,"target":"right","response":"left","rt":444.0000000149,"correct":false,"confidence":-1},{"trial_n":15,"n_dots":4.05,"target":"left","response":"left","rt":275.0000000149,"correct":true,"confidence":-1},{"trial_n":16,"n_dots":4.05,"target":"left","response":"right","rt":37,"correct":false,"confidence":-1},{"trial_n":17,"n_dots":4.15,"target":"left","response":"left","rt":275,"correct":true,"confidence":-1},{"trial_n":18,"n_dots":4.15,"target":"right","response":"right","rt":329.9999999851,"correct":true,"confidence":-1},{"trial_n":19,"n_dots":4.05,"target":"left","response":"left","rt":232,"correct":true,"confidence":-1},{"trial_n":20,"n_dots":4.05,"target":"right","response":"right","rt":18.000000014901,"correct":true,"confidence":-1},{"trial_n":21,"n_dots":3.95,"target":"right","response":"right","rt":287,"correct":true,"confidence":2},{"trial_n":22,"n_dots":3.95,"target":"left","response":"left","rt":136,"correct":true,"confidence":3},{"trial_n":23,"n_dots":3.85,"target":"right","response":"right","rt":97.000000014901,"correct":true,"confidence":2},{"trial_n":24,"n_dots":3.85,"target":"right","response":"right","rt":270.0000000149,"correct":true,"confidence":2},{"trial_n":25,"n_dots":3.75,"target":"left","response":"left","rt":340,"correct":true,"confidence":2},{"trial_n":26,"n_dots":3.75,"target":"right","response":"right","rt":328,"correct":true,"confidence":3},{"trial_n":27,"n_dots":3.65,"target":"left","response":"right","rt":370,"correct":false,"confidence":2},{"trial_n":28,"n_dots":3.75,"target":"right","response":"right","rt":334,"correct":true,"confidence":2},{"trial_n":29,"n_dots":3.75,"target":"left","response":"left","rt":328,"correct":true,"confidence":2},{"trial_n":30,"n_dots":3.65,"target":"left","response":"left","rt":318,"correct":true,"confidence":2},{"trial_n":31,"n_dots":3.65,"target":"right","response":"right","rt":231,"correct":true,"confidence":2},{"trial_n":32,"n_dots":3.55,"target":"left","response":"left","rt":355,"correct":true,"confidence":2},{"trial_n":33,"n_dots":3.55,"target":"left","response":"left","rt":288,"correct":true,"confidence":2},{"trial_n":34,"n_dots":3.45,"target":"left","response":"left","rt":293,"correct":true,"confidence":2},{"trial_n":35,"n_dots":3.45,"target":"left","response":"left","rt":146,"correct":true,"confidence":2},{"trial_n":36,"n_dots":3.35,"target":"right","response":"right","rt":212,"correct":true,"confidence":2},{"trial_n":37,"n_dots":3.35,"target":"right","response":"right","rt":53,"correct":true,"confidence":2},{"trial_n":38,"n_dots":3.25,"target":"left","response":"right","rt":335,"correct":false,"confidence":2},{"trial_n":39,"n_dots":3.35,"target":"right","response":"right","rt":189,"correct":true,"confidence":2},{"trial_n":40,"n_dots":3.35,"target":"left","response":"right","rt":65.999999985099,"correct":false,"confidence":2},{"trial_n":41,"n_dots":3.45,"target":"right","response":"right","rt":246.9999999851,"correct":true,"confidence":2},{"trial_n":42,"n_dots":3.45,"target":"left","response":"right","rt":252,"correct":false,"confidence":2},{"trial_n":43,"n_dots":3.55,"target":"right","response":"right","rt":337,"correct":true,"confidence":2},{"trial_n":44,"n_dots":3.55,"target":"left","response":"left","rt":401,"correct":true,"confidence":2},{"trial_n":45,"n_dots":3.45,"target":"right","response":"right","rt":258,"correct":true,"confidence":3},{"trial_n":46,"n_dots":3.45,"target":"left","response":"left","rt":395,"correct":true,"confidence":2},{"trial_n":47,"n_dots":3.35,"target":"right","response":"right","rt":272,"correct":true,"confidence":2},{"trial_n":48,"n_dots":3.35,"target":"right","response":"right","rt":514,"correct":true,"confidence":2},{"trial_n":49,"n_dots":3.25,"target":"right","response":"right","rt":418.0000000149,"correct":true,"confidence":2},{"trial_n":50,"n_dots":3.25,"target":"right","response":"right","rt":264.0000000149,"correct":true,"confidence":2},{"trial_n":51,"n_dots":3.15,"target":"right","response":"right","rt":308,"correct":true,"confidence":2},{"trial_n":52,"n_dots":3.15,"target":"left","response":"right","rt":633,"correct":false,"confidence":2},{"trial_n":53,"n_dots":3.25,"target":"left","response":"left","rt":2065,"correct":true,"confidence":2},{"trial_n":54,"n_dots":3.25,"target":"left","response":"right","rt":1361,"correct":false,"confidence":2},{"trial_n":55,"n_dots":3.35,"target":"left","response":"left","rt":368.0000000149,"correct":true,"confidence":2},{"trial_n":56,"n_dots":3.35,"target":"left","response":"left","rt":492,"correct":true,"confidence":2},{"trial_n":57,"n_dots":3.25,"target":"left","response":"right","rt":575,"correct":false,"confidence":2},{"trial_n":58,"n_dots":3.35,"target":"left","response":"left","rt":661,"correct":true,"confidence":2},{"trial_n":59,"n_dots":3.35,"target":"right","response":"right","rt":322,"correct":true,"confidence":2},{"trial_n":60,"n_dots":3.25,"target":"right","response":"right","rt":503,"correct":true,"confidence":3},{"trial_n":61,"n_dots":3.25,"target":"right","response":"right","rt":552,"correct":true,"confidence":2},{"trial_n":62,"n_dots":3.15,"target":"left","response":"right","rt":412,"correct":false,"confidence":2},{"trial_n":63,"n_dots":3.25,"target":"left","response":"right","rt":700.9999999851,"correct":false,"confidence":2},{"trial_n":64,"n_dots":3.35,"target":"right","response":"right","rt":357,"correct":true,"confidence":3},{"trial_n":65,"n_dots":3.35,"target":"right","response":"right","rt":525,"correct":true,"confidence":3},{"trial_n":66,"n_dots":3.25,"target":"right","response":"right","rt":822,"correct":true,"confidence":3},{"trial_n":67,"n_dots":3.25,"target":"left","response":"left","rt":494,"correct":true,"confidence":3},{"trial_n":68,"n_dots":3.15,"target":"right","response":"right","rt":703,"correct":true,"confidence":3},{"trial_n":69,"n_dots":3.15,"target":"right","response":"left","rt":337,"correct":false,"confidence":3},{"trial_n":70,"n_dots":3.25,"target":"left","response":"left","rt":1047,"correct":true,"confidence":2},{"trial_n":71,"n_dots":3.25,"target":"right","response":"right","rt":621,"correct":true,"confidence":2},{"trial_n":72,"n_dots":3.15,"target":"right","response":"right","rt":532.0000000149,"correct":true,"confidence":3},{"trial_n":73,"n_dots":3.15,"target":"left","response":"right","rt":642,"correct":false,"confidence":2},{"trial_n":74,"n_dots":3.25,"target":"right","response":"right","rt":239,"correct":true,"confidence":3},{"trial_n":75,"n_dots":3.25,"target":"left","response":"left","rt":332,"correct":true,"confidence":2},{"trial_n":76,"n_dots":3.15,"target":"right","response":"right","rt":228,"correct":true,"confidence":3},{"trial_n":77,"n_dots":3.15,"target":"right","response":"right","rt":534.9999999851,"correct":true,"confidence":3},{"trial_n":78,"n_dots":3.05,"target":"left","response":"left","rt":472.9999999851,"correct":true,"confidence":1},{"trial_n":79,"n_dots":3.05,"target":"left","response":"left","rt":512,"correct":true,"confidence":3},{"trial_n":80,"n_dots":2.95,"target":"left","response":"right","rt":245,"correct":false,"confidence":3},{"trial_n":81,"n_dots":3.05,"target":"left","response":"right","rt":474,"correct":false,"confidence":3},{"trial_n":82,"n_dots":3.15,"target":"left","response":"left","rt":556,"correct":true,"confidence":2},{"trial_n":83,"n_dots":3.15,"target":"right","response":"right","rt":370,"correct":true,"confidence":2},{"trial_n":84,"n_dots":3.05,"target":"right","response":"right","rt":451.9999999851,"correct":true,"confidence":3},{"trial_n":85,"n_dots":3.05,"target":"right","response":"right","rt":346,"correct":true,"confidence":3},{"trial_n":86,"n_dots":2.95,"target":"left","response":"left","rt":350,"correct":true,"confidence":2},{"trial_n":87,"n_dots":2.95,"target":"right","response":"right","rt":351,"correct":true,"confidence":2},{"trial_n":88,"n_dots":2.85,"target":"left","response":"right","rt":524,"correct":false,"confidence":2},{"trial_n":89,"n_dots":2.95,"target":"right","response":"right","rt":425,"correct":true,"confidence":3},{"trial_n":90,"n_dots":2.95,"target":"left","response":"left","rt":324,"correct":true,"confidence":3},{"trial_n":91,"n_dots":2.85,"target":"left","response":"right","rt":245.0000000149,"correct":false,"confidence":2},{"trial_n":92,"n_dots":2.95,"target":"right","response":"left","rt":468,"correct":false,"confidence":1},{"trial_n":93,"n_dots":3.05,"target":"right","response":"right","rt":51,"correct":true,"confidence":2},{"trial_n":94,"n_dots":3.05,"target":"left","response":"right","rt":267,"correct":false,"confidence":2},{"trial_n":95,"n_dots":3.15,"target":"left","response":"left","rt":249,"correct":true,"confidence":2},{"trial_n":96,"n_dots":3.15,"target":"left","response":"left","rt":400,"correct":true,"confidence":2},{"trial_n":97,"n_dots":3.05,"target":"right","response":"right","rt":257.9999999851,"correct":true,"confidence":2},{"trial_n":98,"n_dots":3.05,"target":"left","response":"right","rt":521,"correct":false,"confidence":2},{"trial_n":99,"n_dots":3.15,"target":"right","response":"right","rt":384,"correct":true,"confidence":2},{"trial_n":100,"n_dots":3.15,"target":"left","response":"left","rt":453,"correct":true,"confidence":2},{"trial_n":101,"n_dots":3.05,"target":"right","response":"right","rt":228,"correct":true,"confidence":3},{"trial_n":102,"n_dots":3.05,"target":"left","response":"right","rt":464.0000000149,"correct":false,"confidence":2},{"trial_n":103,"n_dots":3.15,"target":"right","response":"right","rt":102,"correct":true,"confidence":2},{"trial_n":104,"n_dots":3.15,"target":"right","response":"right","rt":551.9999999851,"correct":true,"confidence":2},{"trial_n":105,"n_dots":3.05,"target":"right","response":"right","rt":268,"correct":true,"confidence":2},{"trial_n":106,"n_dots":3.05,"target":"left","response":"right","rt":529,"correct":false,"confidence":2},{"trial_n":107,"n_dots":3.15,"target":"right","response":"right","rt":379,"correct":true,"confidence":2},{"trial_n":108,"n_dots":3.15,"target":"left","response":"left","rt":323,"correct":true,"confidence":2},{"trial_n":109,"n_dots":3.05,"target":"right","response":"right","rt":231,"correct":true,"confidence":2},{"trial_n":110,"n_dots":3.05,"target":"left","response":"right","rt":322,"correct":false,"confidence":2},{"trial_n":111,"n_dots":3.15,"target":"right","response":"right","rt":689,"correct":true,"confidence":2},{"trial_n":112,"n_dots":3.15,"target":"left","response":"right","rt":233.0000000149,"correct":false,"confidence":2},{"trial_n":113,"n_dots":3.25,"target":"left","response":"left","rt":554,"correct":true,"confidence":1},{"trial_n":114,"n_dots":3.25,"target":"left","response":"right","rt":274,"correct":false,"confidence":2},{"trial_n":115,"n_dots":3.35,"target":"left","response":"right","rt":1101,"correct":false,"confidence":1},{"trial_n":116,"n_dots":3.45,"target":"left","response":"left","rt":343,"correct":true,"confidence":1},{"trial_n":117,"n_dots":3.45,"target":"left","response":"right","rt":419,"correct":false,"confidence":1},{"trial_n":118,"n_dots":3.55,"target":"left","response":"right","rt":343,"correct":false,"confidence":2},{"trial_n":119,"n_dots":3.65,"target":"right","response":"right","rt":463,"correct":true,"confidence":1},{"trial_n":120,"n_dots":3.65,"target":"right","response":"right","rt":382,"correct":true,"confidence":2}]