[{"trial_n":1,"n_dots":4.25,"target":"right","response":"right","rt":2810,"correct":true,"confidence":-1},{"trial_n":2,"n_dots":4.25,"target":"left","response":"left","rt":888,"correct":true,"confidence":-1},{"trial_n":3,"n_dots":3.85,"target":"right","response":"left","rt":458,"correct":false,"confidence":-1},{"trial_n":4,"n_dots":4.25,"target":"left","response":"left","rt":135,"correct":true,"confidence":-1},{"trial_n":5,"n_dots":4.25,"target":"right","response":"right","rt":219,"correct":true,"confidence":-1},{"trial_n":6,"n_dots":3.85,"target":"right","response":"left","rt":959,"correct":false,"confidence":-1},{"trial_n":7,"n_dots":4.25,"target":"right","response":"right","rt":98,"correct":true,"confidence":-1},{"trial_n":8,"n_dots":4.25,"target":"right","response":"right","rt":347,"correct":true,"confidence":-1},{"trial_n":9,"n_dots":4.05,"target":"left","response":"left","rt":99,"correct":true,"confidence":-1},{"trial_n":10,"n_dots":4.05,"target":"right","response":"right","rt":570.99999999999,"correct":true,"confidence":-1},{"trial_n":11,"n_dots":3.85,"target":"left","response":"left","rt":193.00000000001,"correct":true,"confidence":-1},{"trial_n":12,"n_dots":3.85,"target":"left","response":"left","rt":34,"correct":true,"confidence":-1},{"trial_n":13,"n_dots":3.75,"target":"right","response":"right","rt":113,"correct":true,"confidence":-1},{"trial_n":14,"n_dots":3.75,"target":"right","response":"right","rt":20,"correct":true,"confidence":-1},{"trial_n":15,"n_dots":3.65,"target":"left","response":"left","rt":837,"correct":true,"confidence":-1},{"trial_n":16,"n_dots":3.65,"target":"left","response":"left","rt":90.000000000007,"correct":true,"confidence":-1},{"trial_n":17,"n_dots":3.55,"target":"left","response":"left","rt":172,"correct":true,"confidence":-1},{"trial_n":18,"n_dots":3.55,"target":"left","response":"left","rt":676.00000000001,"correct":true,"confidence":-1},{"trial_n":19,"n_dots":3.45,"target":"left","response":"left","rt":620.00000000001,"correct":true,"confidence":-1},{"trial_n":20,"n_dots":3.45,"target":"right","response":"right","rt":212.00000000001,"correct":true,"confidence":-1},{"trial_n":21,"n_dots":3.35,"target":"left","response":"left","rt":282,"correct":true,"confidence":3},{"trial_n":22,"n_dots":3.35,"target":"right","response":"left","rt":330,"correct":false,"confidence":3},{"trial_n":23,"n_dots":3.45,"target":"right","response":"right","rt":297,"correct":true,"confidence":3},{"trial_n":24,"n_dots":3.45,"target":"right","response":"left","rt":802.99999999999,"correct":false,"confidence":3},{"trial_n":25,"n_dots":3.55,"target":"left","response":"left","rt":519,"correct":true,"confidence":3},{"trial_n":26,"n_dots":3.55,"target":"left","response":"left","rt":272,"correct":true,"confidence":3},{"trial_n":27,"n_dots":3.45,"target":"left","response":"left","rt":238,"correct":true,"confidence":3},{"trial_n":28,"n_dots":3.45,"target":"left","response":"left","rt":127,"correct":true,"confidence":3},{"trial_n":29,"n_dots":3.35,"target":"left","response":"left","rt":200.00000000001,"correct":true,"confidence":3},{"trial_n":30,"n_dots":3.35,"target":"left","response":"left","rt":534.99999999999,"correct":true,"confidence":3},{"trial_n":31,"n_dots":3.25,"target":"right","response":"right","rt":506,"correct":true,"confidence":3},{"trial_n":32,"n_dots":3.25,"target":"right","response":"left","rt":689.00000000001,"correct":false,"confidence":3},{"trial_n":33,"n_dots":3.35,"target":"right","response":"right","rt":458,"correct":true,"confidence":3},{"trial_n":34,"n_dots":3.35,"target":"right","response":"left","rt":689.00000000001,"correct":false,"confidence":3},{"trial_n":35,"n_dots":3.45,"target":"left","response":"left","rt":558,"correct":true,"confidence":3},{"trial_n":36,"n_dots":3.45,"target":"right","response":"right","rt":648.00000000003,"correct":true,"confidence":3},{"trial_n":37,"n_dots":3.35,"target":"left","response":"left","rt":334.00000000003,"correct":true,"confidence":3},{"trial_n":38,"n_dots":3.35,"target":"right","response":"left","rt":215,"correct":false,"confidence":3},{"trial_n":39,"n_dots":3.45,"target":"left","response":"left","rt":247,"correct":true,"confidence":3},{"trial_n":40,"n_dots":3.45,"target":"left","response":"left","rt":232.00000000003,"correct":true,"confidence":3},{"trial_n":41,"n_dots":3.35,"target":"right","response":"left","rt":453,"correct":false,"confidence":3},{"trial_n":42,"n_dots":3.45,"target":"right","response":"right","rt":190,"correct":true,"confidence":3},{"trial_n":43,"n_dots":3.45,"target":"left","response":"left","rt":88,"correct":true,"confidence":3},{"trial_n":44,"n_dots":3.35,"target":"right","response":"right","rt":223,"correct":true,"confidence":3},{"trial_n":45,"n_dots":3.35,"target":"left","response":"left","rt":78,"correct":true,"confidence":3},{"trial_n":46,"n_dots":3.25,"target":"left","response":"left","rt":296,"correct":true,"confidence":3},{"trial_n":47,"n_dots":3.25,"target":"left","response":"left","rt":359.00000000003,"correct":true,"confidence":3},{"trial_n":48,"n_dots":3.15,"target":"right","response":"left","rt":320,"correct":false,"confidence":3},{"trial_n":49,"n_dots":3.25,"target":"left","response":"left","rt":335,"correct":true,"confidence":3},{"trial_n":50,"n_dots":3.25,"target":"left","response":"left","rt":522.00000000003,"correct":true,"confidence":3},{"trial_n":51,"n_dots":3.15,"target":"right","response":"right","rt":215,"correct":true,"confidence":3},{"trial_n":52,"n_dots":3.15,"target":"left","response":"left","rt":480,"correct":true,"confidence":3},{"trial_n":53,"n_dots":3.05,"target":"left","response":"left","rt":657,"correct":true,"confidence":3},{"trial_n":54,"n_dots":3.05,"target":"left","response":"left","rt":609,"correct":true,"confidence":3},{"trial_n":55,"n_dots":2.95,"target":"right","response":"right","rt":715,"correct":true,"confidence":3},{"trial_n":56,"n_dots":2.95,"target":"right","response":"right","rt":631,"correct":true,"confidence":3},{"trial_n":57,"n_dots":2.85,"target":"right","response":"right","rt":297,"correct":true,"confidence":3},{"trial_n":58,"n_dots":2.85,"target":"left","response":"left","rt":455,"correct":true,"confidence":3},{"trial_n":59,"n_dots":2.75,"target":"left","response":"right","rt":427,"correct":false,"confidence":3},{"trial_n":60,"n_dots":2.85,"target":"left","response":"left","rt":279,"correct":true,"confidence":3},{"trial_n":61,"n_dots":2.85,"target":"left","response":"left","rt":673,"correct":true,"confidence":3},{"trial_n":62,"n_dots":2.75,"target":"left","response":"right","rt":568,"correct":false,"confidence":3},{"trial_n":63,"n_dots":2.85,"target":"left","response":"left","rt":311,"correct":true,"confidence":3},{"trial_n":64,"n_dots":2.85,"target":"right","response":"right","rt":755,"correct":true,"confidence":3},{"trial_n":65,"n_dots":2.75,"target":"left","response":"left","rt":456,"correct":true,"confidence":3},{"trial_n":66,"n_dots":2.75,"target":"left","response":"right","rt":472,"correct":false,"confidence":3},{"trial_n":67,"n_dots":2.85,"target":"left","response":"left","rt":406.99999999997,"correct":true,"confidence":3},{"trial_n":68,"n_dots":2.85,"target":"right","response":"right","rt":2376,"correct":true,"confidence":3},{"trial_n":69,"n_dots":2.75,"target":"right","response":"left","rt":503.99999999994,"correct":false,"confidence":3},{"trial_n":70,"n_dots":2.85,"target":"right","response":"right","rt":325.99999999997,"correct":true,"confidence":3},{"trial_n":71,"n_dots":2.85,"target":"right","response":"right","rt":199,"correct":true,"confidence":3},{"trial_n":72,"n_dots":2.75,"target":"left","response":"right","rt":390,"correct":false,"confidence":3},{"trial_n":73,"n_dots":2.85,"target":"left","response":"right","rt":1010,"correct":false,"confidence":3},{"trial_n":74,"n_dots":2.95,"target":"right","response":"right","rt":303,"correct":true,"confidence":3},{"trial_n":75,"n_dots":2.95,"target":"left","response":"left","rt":759,"correct":true,"confidence":3},{"trial_n":76,"n_dots":2.85,"target":"left","response":"left","rt":457,"correct":true,"confidence":3},{"trial_n":77,"n_dots":2.85,"target":"right","response":"right","rt":782.99999999994,"correct":true,"confidence":3},{"trial_n":78,"n_dots":2.75,"target":"left","response":"right","rt":522,"correct":false,"confidence":3},{"trial_n":79,"n_dots":2.85,"target":"right","response":"right","rt":791,"correct":true,"confidence":3},{"trial_n":80,"n_dots":2.85,"target":"right","response":"right","rt":689.00000000006,"correct":true,"confidence":3},{"trial_n":81,"n_dots":2.75,"target":"left","response":"right","rt":688,"correct":false,"confidence":3},{"trial_n":82,"n_dots":2.85,"target":"left","response":"left","rt":609,"correct":true,"confidence":3},{"trial_n":83,"n_dots":2.85,"target":"left","response":"right","rt":739,"correct":false,"confidence":3},{"trial_n":84,"n_dots":2.95,"target":"right","response":"right","rt":745,"correct":true,"confidence":3},{"trial_n":85,"n_dots":2.95,"target":"right","response":"left","rt":864,"correct":false,"confidence":3},{"trial_n":86,"n_dots":3.05,"target":"right","response":"left","rt":672,"correct":false,"confidence":3},{"trial_n":87,"n_dots":3.15,"target":"left","response":"right","rt":752,"correct":false,"confidence":3},{"trial_n":88,"n_dots":3.25,"target":"right","response":"left","rt":594,"correct":false,"confidence":3},{"trial_n":89,"n_dots":3.35,"target":"left","response":"right","rt":1104,"correct":false,"confidence":1},{"trial_n":90,"n_dots":3.45,"target":"right","response":"right","rt":620,"correct":true,"confidence":1},{"trial_n":91,"n_dots":3.45,"target":"right","response":"right","rt":658.00000000006,"correct":true,"confidence":1},{"trial_n":92,"n_dots":3.35,"target":"right","response":"right","rt":618,"correct":true,"confidence":1},{"trial_n":93,"n_dots":3.35,"target":"left","response":"left","rt":729,"correct":true,"confidence":1},{"trial_n":94,"n_dots":3.25,"target":"left","response":"left","rt":667,"correct":true,"confidence":1},{"trial_n":95,"n_dots":3.25,"target":"right","response":"right","rt":488,"correct":true,"confidence":1},{"trial_n":96,"n_dots":3.15,"target":"right","response":"right","rt":594,"correct":true,"confidence":1},{"trial_n":97,"n_dots":3.15,"target":"left","response":"right","rt":609,"correct":false,"confidence":1},{"trial_n":98,"n_dots":3.25,"target":"right","response":"right","rt":569.99999999994,"correct":true,"confidence":1},{"trial_n":99,"n_dots":3.25,"target":"right","response":"right","rt":497,"correct":true,"confidence":1},{"trial_n":100,"n_dots":3.15,"target":"left","response":"left","rt":553,"correct":true,"confidence":1},{"trial_n":101,"n_dots":3.15,"target":"right","response":"right","rt":617,"correct":true,"confidence":1},{"trial_n":102,"n_dots":3.05,"target":"left","response":"left","rt":611,"correct":true,"confidence":1},{"trial_n":103,"n_dots":3.05,"target":"right","response":"right","rt":177.00000000006,"correct":true,"confidence":1},{"trial_n":104,"n_dots":2.95,"target":"right","response":"right","rt":676.99999999994,"correct":true,"confidence":1},{"trial_n":105,"n_dots":2.95,"target":"right","response":"left","rt":303.99999999994,"correct":false,"confidence":1},{"trial_n":106,"n_dots":3.05,"target":"left","response":"right","rt":395,"correct":false,"confidence":1},{"trial_n":107,"n_dots":3.15,"target":"left","response":"right","rt":740,"correct":false,"confidence":1},{"trial_n":108,"n_dots":3.25,"target":"right","response":"right","rt":576,"correct":true,"confidence":1},{"trial_n":109,"n_dots":3.25,"target":"right","response":"left","rt":360,"correct":false,"confidence":1},{"trial_n":110,"n_dots":3.35,"target":"right","response":"right","rt":521,"correct":true,"confidence":1},{"trial_n":111,"n_dots":3.35,"target":"right","response":"right","rt":651,"correct":true,"confidence":1},{"trial_n":112,"n_dots":3.25,"target":"right","response":"right","rt":535,"correct":true,"confidence":1},{"trial_n":113,"n_dots":3.25,"target":"left","response":"left","rt":549.00000000006,"correct":true,"confidence":1},{"trial_n":114,"n_dots":3.15,"target":"left","response":"right","rt":559.99999999994,"correct":false,"confidence":1},{"trial_n":115,"n_dots":3.25,"target":"right","response":"right","rt":609,"correct":true,"confidence":1},{"trial_n":116,"n_dots":3.25,"target":"left","response":"left","rt":385,"correct":true,"confidence":1},{"trial_n":117,"n_dots":3.15,"target":"right","response":"left","rt":1260,"correct":false,"confidence":1},{"trial_n":118,"n_dots":3.25,"target":"right","response":"right","rt":300.00000000006,"correct":true,"confidence":1},{"trial_n":119,"n_dots":3.25,"target":"left","response":"left","rt":344,"correct":true,"confidence":1},{"trial_n":120,"n_dots":3.15,"target":"right","response":"left","rt":817.00000000006,"correct":false,"confidence":1}]