[{"trial_n":1,"min":25,"max":230,"target":"present","response":"present","rt":3807,"correct":true,"confidence":-1},{"trial_n":2,"min":25,"max":230,"target":"present","response":"present","rt":547.00000000003,"correct":true,"confidence":-1},{"trial_n":3,"min":41,"max":214,"target":"absent","response":"absent","rt":903.00000000003,"correct":true,"confidence":-1},{"trial_n":4,"min":41,"max":214,"target":"absent","response":"absent","rt":607,"correct":true,"confidence":-1},{"trial_n":5,"min":57,"max":198,"target":"present","response":"present","rt":794,"correct":true,"confidence":-1},{"trial_n":6,"min":57,"max":198,"target":"absent","response":"absent","rt":1041,"correct":true,"confidence":-1},{"trial_n":7,"min":73,"max":182,"target":"present","response":"present","rt":753,"correct":true,"confidence":-1},{"trial_n":8,"min":73,"max":182,"target":"present","response":"present","rt":891,"correct":true,"confidence":-1},{"trial_n":9,"min":89,"max":166,"target":"present","response":"present","rt":834,"correct":true,"confidence":-1},{"trial_n":10,"min":89,"max":166,"target":"present","response":"absent","rt":816,"correct":false,"confidence":-1},{"trial_n":11,"min":81,"max":174,"target":"present","response":"present","rt":665,"correct":true,"confidence":-1},{"trial_n":12,"min":81,"max":174,"target":"present","response":"present","rt":745,"correct":true,"confidence":-1},{"trial_n":13,"min":89,"max":166,"target":"present","response":"present","rt":440,"correct":true,"confidence":-1},{"trial_n":14,"min":89,"max":166,"target":"present","response":"present","rt":528.00000000003,"correct":true,"confidence":-1},{"trial_n":15,"min":97,"max":158,"target":"absent","response":"absent","rt":945,"correct":true,"confidence":-1},{"trial_n":16,"min":97,"max":158,"target":"present","response":"present","rt":528.99999999997,"correct":true,"confidence":-1},{"trial_n":17,"min":105,"max":150,"target":"present","response":"absent","rt":547,"correct":false,"confidence":-1},{"trial_n":18,"min":97,"max":158,"target":"present","response":"absent","rt":761,"correct":false,"confidence":-1},{"trial_n":19,"min":89,"max":166,"target":"present","response":"present","rt":802,"correct":true,"confidence":-1},{"trial_n":20,"min":89,"max":166,"target":"absent","response":"present","rt":639,"correct":false,"confidence":-1},{"trial_n":21,"min":85,"max":170,"target":"present","response":"present","rt":1115,"correct":true,"confidence":4},{"trial_n":22,"min":85,"max":170,"target":"present","response":"present","rt":684.99999999997,"correct":true,"confidence":5},{"trial_n":23,"min":89,"max":166,"target":"absent","response":"absent","rt":3638,"correct":true,"confidence":2},{"trial_n":24,"min":89,"max":166,"target":"absent","response":"absent","rt":2120,"correct":true,"confidence":3},{"trial_n":25,"min":93,"max":162,"target":"absent","response":"present","rt":1454,"correct":false,"confidence":3},{"trial_n":26,"min":89,"max":166,"target":"absent","response":"absent","rt":1181,"correct":true,"confidence":3},{"trial_n":27,"min":89,"max":166,"target":"absent","response":"present","rt":1302,"correct":false,"confidence":3},{"trial_n":28,"min":85,"max":170,"target":"present","response":"present","rt":934,"correct":true,"confidence":3},{"trial_n":29,"min":85,"max":170,"target":"absent","response":"present","rt":924,"correct":false,"confidence":3},{"trial_n":30,"min":81,"max":174,"target":"present","response":"present","rt":885.99999999997,"correct":true,"confidence":3},{"trial_n":31,"min":81,"max":174,"target":"absent","response":"absent","rt":2260,"correct":true,"confidence":2},{"trial_n":32,"min":83,"max":172,"target":"present","response":"present","rt":764.00000000006,"correct":true,"confidence":2},{"trial_n":33,"min":83,"max":172,"target":"absent","response":"absent","rt":1156,"correct":true,"confidence":2},{"trial_n":34,"min":85,"max":170,"target":"absent","response":"present","rt":772,"correct":false,"confidence":2},{"trial_n":35,"min":83,"max":172,"target":"present","response":"present","rt":935,"correct":true,"confidence":2},{"trial_n":36,"min":83,"max":172,"target":"absent","response":"present","rt":755,"correct":false,"confidence":2},{"trial_n":37,"min":81,"max":174,"target":"absent","response":"present","rt":868.99999999994,"correct":false,"confidence":2},{"trial_n":38,"min":79,"max":176,"target":"absent","response":"present","rt":1004,"correct":false,"confidence":2},{"trial_n":39,"min":77,"max":178,"target":"present","response":"present","rt":1424,"correct":true,"confidence":5},{"trial_n":40,"min":77,"max":178,"target":"absent","response":"present","rt":1719,"correct":false,"confidence":2},{"trial_n":41,"min":76,"max":179,"target":"absent","response":"absent","rt":1293,"correct":true,"confidence":2},{"trial_n":42,"min":76,"max":179,"target":"present","response":"present","rt":845,"correct":true,"confidence":5},{"trial_n":43,"min":77,"max":178,"target":"present","response":"present","rt":1184,"correct":true,"confidence":4},{"trial_n":44,"min":77,"max":178,"target":"absent","response":"absent","rt":1662,"correct":true,"confidence":2},{"trial_n":45,"min":78,"max":177,"target":"present","response":"present","rt":757,"correct":true,"confidence":5},{"trial_n":46,"min":78,"max":177,"target":"present","response":"present","rt":693,"correct":true,"confidence":5},{"trial_n":47,"min":79,"max":176,"target":"present","response":"present","rt":894,"correct":true,"confidence":5},{"trial_n":48,"min":79,"max":176,"target":"absent","response":"absent","rt":1301,"correct":true,"confidence":2},{"trial_n":49,"min":80,"max":175,"target":"absent","response":"absent","rt":1679,"correct":true,"confidence":2},{"trial_n":50,"min":80,"max":175,"target":"absent","response":"absent","rt":1775,"correct":true,"confidence":2},{"trial_n":51,"min":81,"max":174,"target":"absent","response":"absent","rt":1294,"correct":true,"confidence":2},{"trial_n":52,"min":81,"max":174,"target":"present","response":"present","rt":814,"correct":true,"confidence":3},{"trial_n":53,"min":82,"max":173,"target":"absent","response":"present","rt":1727,"correct":false,"confidence":3},{"trial_n":54,"min":81,"max":174,"target":"present","response":"present","rt":960,"correct":true,"confidence":4},{"trial_n":55,"min":81,"max":174,"target":"present","response":"present","rt":934,"correct":true,"confidence":4},{"trial_n":56,"min":82,"max":173,"target":"absent","response":"present","rt":1149,"correct":false,"confidence":2},{"trial_n":57,"min":81,"max":174,"target":"absent","response":"present","rt":1062.0000000001,"correct":false,"confidence":3},{"trial_n":58,"min":80,"max":175,"target":"absent","response":"absent","rt":892.00000000006,"correct":true,"confidence":3},{"trial_n":59,"min":80,"max":175,"target":"present","response":"present","rt":1045.0000000001,"correct":true,"confidence":3},{"trial_n":60,"min":81,"max":174,"target":"present","response":"absent","rt":1209,"correct":false,"confidence":3},{"trial_n":61,"min":80,"max":175,"target":"present","response":"present","rt":814,"correct":true,"confidence":5},{"trial_n":62,"min":80,"max":175,"target":"present","response":"present","rt":734,"correct":true,"confidence":5},{"trial_n":63,"min":81,"max":174,"target":"absent","response":"absent","rt":1945,"correct":true,"confidence":4},{"trial_n":64,"min":81,"max":174,"target":"present","response":"present","rt":814,"correct":true,"confidence":4},{"trial_n":65,"min":82,"max":173,"target":"absent","response":"absent","rt":1045,"correct":true,"confidence":4},{"trial_n":66,"min":82,"max":173,"target":"absent","response":"absent","rt":732,"correct":true,"confidence":4},{"trial_n":67,"min":83,"max":172,"target":"present","response":"present","rt":1360.0000000001,"correct":true,"confidence":5},{"trial_n":68,"min":83,"max":172,"target":"absent","response":"absent","rt":2016.9999999999,"correct":true,"confidence":5},{"trial_n":69,"min":84,"max":171,"target":"absent","response":"absent","rt":780.00000000006,"correct":true,"confidence":5},{"trial_n":70,"min":84,"max":171,"target":"absent","response":"absent","rt":924,"correct":true,"confidence":4},{"trial_n":71,"min":41,"max":214,"target":"present","response":"present","rt":1853,"correct":true,"confidence":-1},{"trial_n":72,"min":41,"max":214,"target":"present","response":"present","rt":514,"correct":true,"confidence":-1},{"trial_n":73,"min":57,"max":198,"target":"absent","response":"absent","rt":725,"correct":true,"confidence":-1},{"trial_n":74,"min":57,"max":198,"target":"absent","response":"absent","rt":458,"correct":true,"confidence":-1},{"trial_n":75,"min":73,"max":182,"target":"present","response":"present","rt":612,"correct":true,"confidence":-1},{"trial_n":76,"min":73,"max":182,"target":"absent","response":"absent","rt":651,"correct":true,"confidence":-1},{"trial_n":77,"min":89,"max":166,"target":"present","response":"present","rt":852,"correct":true,"confidence":-1},{"trial_n":78,"min":89,"max":166,"target":"absent","response":"present","rt":1252,"correct":false,"confidence":-1},{"trial_n":79,"min":73,"max":182,"target":"present","response":"absent","rt":971,"correct":false,"confidence":-1},{"trial_n":80,"min":57,"max":198,"target":"absent","response":"absent","rt":648,"correct":true,"confidence":-1},{"trial_n":81,"min":57,"max":198,"target":"absent","response":"absent","rt":515.00000000006,"correct":true,"confidence":-1},{"trial_n":82,"min":65,"max":190,"target":"present","response":"present","rt":749.00000000006,"correct":true,"confidence":-1},{"trial_n":83,"min":65,"max":190,"target":"present","response":"present","rt":1079,"correct":true,"confidence":-1},{"trial_n":84,"min":73,"max":182,"target":"absent","response":"absent","rt":811,"correct":true,"confidence":-1},{"trial_n":85,"min":73,"max":182,"target":"absent","response":"absent","rt":594,"correct":true,"confidence":-1},{"trial_n":86,"min":81,"max":174,"target":"absent","response":"absent","rt":441,"correct":true,"confidence":-1},{"trial_n":87,"min":81,"max":174,"target":"present","response":"present","rt":796,"correct":true,"confidence":-1},{"trial_n":88,"min":89,"max":166,"target":"present","response":"present","rt":1536,"correct":true,"confidence":-1},{"trial_n":89,"min":89,"max":166,"target":"present","response":"present","rt":714,"correct":true,"confidence":-1},{"trial_n":90,"min":97,"max":158,"target":"absent","response":"absent","rt":1101,"correct":true,"confidence":-1},{"trial_n":91,"min":97,"max":158,"target":"present","response":"present","rt":848,"correct":true,"confidence":4},{"trial_n":92,"min":101,"max":154,"target":"absent","response":"present","rt":1065,"correct":false,"confidence":2},{"trial_n":93,"min":97,"max":158,"target":"present","response":"present","rt":953,"correct":true,"confidence":2},{"trial_n":94,"min":97,"max":158,"target":"absent","response":"present","rt":1089,"correct":false,"confidence":2},{"trial_n":95,"min":93,"max":162,"target":"absent","response":"present","rt":954,"correct":false,"confidence":2},{"trial_n":96,"min":89,"max":166,"target":"present","response":"present","rt":1475,"correct":true,"confidence":2},{"trial_n":97,"min":89,"max":166,"target":"absent","response":"present","rt":839,"correct":false,"confidence":2},{"trial_n":98,"min":85,"max":170,"target":"absent","response":"present","rt":1169,"correct":false,"confidence":2},{"trial_n":99,"min":81,"max":174,"target":"present","response":"present","rt":1242,"correct":true,"confidence":1},{"trial_n":100,"min":81,"max":174,"target":"present","response":"present","rt":743,"correct":true,"confidence":1},{"trial_n":101,"min":83,"max":172,"target":"present","response":"present","rt":1040,"correct":true,"confidence":1},{"trial_n":102,"min":83,"max":172,"target":"present","response":"present","rt":1426,"correct":true,"confidence":3},{"trial_n":103,"min":85,"max":170,"target":"present","response":"present","rt":896.00000000006,"correct":true,"confidence":1},{"trial_n":104,"min":85,"max":170,"target":"present","response":"present","rt":856,"correct":true,"confidence":1},{"trial_n":105,"min":87,"max":168,"target":"absent","response":"present","rt":1489,"correct":false,"confidence":1},{"trial_n":106,"min":85,"max":170,"target":"present","response":"present","rt":1093,"correct":true,"confidence":3},{"trial_n":107,"min":85,"max":170,"target":"absent","response":"present","rt":764,"correct":false,"confidence":1},{"trial_n":108,"min":83,"max":172,"target":"absent","response":"present","rt":743,"correct":false,"confidence":1},{"trial_n":109,"min":81,"max":174,"target":"absent","response":"absent","rt":1371,"correct":true,"confidence":1},{"trial_n":110,"min":81,"max":174,"target":"present","response":"present","rt":1144,"correct":true,"confidence":4},{"trial_n":111,"min":82,"max":173,"target":"present","response":"present","rt":1075,"correct":true,"confidence":4},{"trial_n":112,"min":82,"max":173,"target":"absent","response":"absent","rt":792,"correct":true,"confidence":4},{"trial_n":113,"min":83,"max":172,"target":"absent","response":"present","rt":1069.0000000001,"correct":false,"confidence":1},{"trial_n":114,"min":82,"max":173,"target":"present","response":"present","rt":869.00000000006,"correct":true,"confidence":4},{"trial_n":115,"min":82,"max":173,"target":"absent","response":"absent","rt":784,"correct":true,"confidence":4},{"trial_n":116,"min":83,"max":172,"target":"present","response":"present","rt":903,"correct":true,"confidence":4},{"trial_n":117,"min":83,"max":172,"target":"present","response":"present","rt":847,"correct":true,"confidence":4},{"trial_n":118,"min":84,"max":171,"target":"absent","response":"absent","rt":848,"correct":true,"confidence":4},{"trial_n":119,"min":84,"max":171,"target":"absent","response":"present","rt":997,"correct":false,"confidence":1},{"trial_n":120,"min":83,"max":172,"target":"present","response":"present","rt":926,"correct":true,"confidence":4},{"trial_n":121,"min":83,"max":172,"target":"present","response":"present","rt":1161,"correct":true,"confidence":4},{"trial_n":122,"min":84,"max":171,"target":"absent","response":"absent","rt":740.00000000012,"correct":true,"confidence":4},{"trial_n":123,"min":84,"max":171,"target":"absent","response":"absent","rt":1144,"correct":true,"confidence":4},{"trial_n":124,"min":85,"max":170,"target":"absent","response":"absent","rt":1892,"correct":true,"confidence":1},{"trial_n":125,"min":85,"max":170,"target":"present","response":"present","rt":793,"correct":true,"confidence":4},{"trial_n":126,"min":86,"max":169,"target":"absent","response":"present","rt":1081,"correct":false,"confidence":1},{"trial_n":127,"min":85,"max":170,"target":"present","response":"present","rt":961.00000000012,"correct":true,"confidence":3},{"trial_n":128,"min":85,"max":170,"target":"absent","response":"absent","rt":1264,"correct":true,"confidence":3},{"trial_n":129,"min":86,"max":169,"target":"absent","response":"present","rt":815,"correct":false,"confidence":1},{"trial_n":130,"min":85,"max":170,"target":"absent","response":"present","rt":904,"correct":false,"confidence":1},{"trial_n":131,"min":84,"max":171,"target":"present","response":"present","rt":798,"correct":true,"confidence":4},{"trial_n":132,"min":84,"max":171,"target":"absent","response":"present","rt":1375,"correct":false,"confidence":1},{"trial_n":133,"min":83,"max":172,"target":"present","response":"present","rt":821,"correct":true,"confidence":4},{"trial_n":134,"min":83,"max":172,"target":"present","response":"present","rt":847,"correct":true,"confidence":4},{"trial_n":135,"min":84,"max":171,"target":"absent","response":"absent","rt":1218.0000000001,"correct":true,"confidence":4},{"trial_n":136,"min":84,"max":171,"target":"present","response":"present","rt":735,"correct":true,"confidence":4},{"trial_n":137,"min":85,"max":170,"target":"present","response":"present","rt":909,"correct":true,"confidence":4},{"trial_n":138,"min":85,"max":170,"target":"present","response":"present","rt":1856,"correct":true,"confidence":4},{"trial_n":139,"min":86,"max":169,"target":"present","response":"present","rt":1040.0000000001,"correct":true,"confidence":4},{"trial_n":140,"min":86,"max":169,"target":"absent","response":"absent","rt":825,"correct":true,"confidence":4}]