[{"trial_n":1,"n_dots":4.25,"target":"right","response":"left","rt":4925.2000000477,"correct":false,"confidence":-1},{"trial_n":2,"n_dots":4.25,"target":"left","response":"left","rt":944.89999985695,"correct":true,"confidence":-1},{"trial_n":3,"n_dots":4.25,"target":"right","response":"right","rt":868.20000004768,"correct":true,"confidence":-1},{"trial_n":4,"n_dots":3.85,"target":"left","response":"left","rt":775.60000014305,"correct":true,"confidence":-1},{"trial_n":5,"n_dots":3.85,"target":"left","response":"left","rt":794.60000014305,"correct":true,"confidence":-1},{"trial_n":6,"n_dots":3.45,"target":"left","response":"left","rt":589.10000014305,"correct":true,"confidence":-1},{"trial_n":7,"n_dots":3.45,"target":"left","response":"left","rt":508.79999995232,"correct":true,"confidence":-1},{"trial_n":8,"n_dots":3.25,"target":"right","response":"left","rt":524.20000004768,"correct":false,"confidence":-1},{"trial_n":9,"n_dots":3.45,"target":"left","response":"left","rt":452.40000009537,"correct":true,"confidence":-1},{"trial_n":10,"n_dots":3.45,"target":"left","response":"left","rt":594.5,"correct":true,"confidence":-1},{"trial_n":11,"n_dots":3.25,"target":"right","response":"left","rt":339.60000014305,"correct":false,"confidence":-1},{"trial_n":12,"n_dots":3.45,"target":"right","response":"left","rt":162.60000014305,"correct":false,"confidence":-1},{"trial_n":13,"n_dots":3.55,"target":"right","response":"left","rt":186.90000009537,"correct":false,"confidence":-1},{"trial_n":14,"n_dots":3.65,"target":"left","response":"left","rt":1119.5999999046,"correct":true,"confidence":-1},{"trial_n":15,"n_dots":3.65,"target":"right","response":"right","rt":30.799999952316,"correct":true,"confidence":-1},{"trial_n":16,"n_dots":3.55,"target":"left","response":"left","rt":124.40000009537,"correct":true,"confidence":-1},{"trial_n":17,"n_dots":3.55,"target":"left","response":"left","rt":835.39999985695,"correct":true,"confidence":-1},{"trial_n":18,"n_dots":3.45,"target":"right","response":"right","rt":552.69999980927,"correct":true,"confidence":-1},{"trial_n":19,"n_dots":3.45,"target":"left","response":"left","rt":581.5,"correct":true,"confidence":-1},{"trial_n":20,"n_dots":3.35,"target":"left","response":"right","rt":532.89999985695,"correct":false,"confidence":-1},{"trial_n":21,"n_dots":3.45,"target":"right","response":"left","rt":1216.4000000954,"correct":false,"confidence":3},{"trial_n":22,"n_dots":3.55,"target":"left","response":"right","rt":889.19999980927,"correct":false,"confidence":2},{"trial_n":23,"n_dots":3.65,"target":"left","response":"left","rt":360.30000019073,"correct":true,"confidence":4},{"trial_n":24,"n_dots":3.65,"target":"left","response":"left","rt":722.90000009537,"correct":true,"confidence":5},{"trial_n":25,"n_dots":3.55,"target":"right","response":"right","rt":1482.2000000477,"correct":true,"confidence":2},{"trial_n":26,"n_dots":3.55,"target":"right","response":"right","rt":2084.5999999046,"correct":true,"confidence":1},{"trial_n":27,"n_dots":3.45,"target":"left","response":"left","rt":472.90000009537,"correct":true,"confidence":3},{"trial_n":28,"n_dots":3.45,"target":"left","response":"right","rt":921.70000004768,"correct":false,"confidence":2},{"trial_n":29,"n_dots":3.55,"target":"right","response":"left","rt":856.90000009537,"correct":false,"confidence":2},{"trial_n":30,"n_dots":3.65,"target":"left","response":"left","rt":386.29999995232,"correct":true,"confidence":3},{"trial_n":31,"n_dots":3.65,"target":"right","response":"right","rt":619,"correct":true,"confidence":3},{"trial_n":32,"n_dots":3.55,"target":"right","response":"right","rt":809.79999995232,"correct":true,"confidence":2},{"trial_n":33,"n_dots":3.55,"target":"left","response":"left","rt":563.29999995232,"correct":true,"confidence":1},{"trial_n":34,"n_dots":3.45,"target":"left","response":"left","rt":86,"correct":true,"confidence":4},{"trial_n":35,"n_dots":3.45,"target":"right","response":"right","rt":705.5,"correct":true,"confidence":3},{"trial_n":36,"n_dots":3.35,"target":"right","response":"right","rt":572.60000014305,"correct":true,"confidence":3},{"trial_n":37,"n_dots":3.35,"target":"left","response":"left","rt":681.5,"correct":true,"confidence":3},{"trial_n":38,"n_dots":3.25,"target":"right","response":"right","rt":1668.3000001907,"correct":true,"confidence":1},{"trial_n":39,"n_dots":3.25,"target":"right","response":"right","rt":577,"correct":true,"confidence":1},{"trial_n":40,"n_dots":3.15,"target":"left","response":"left","rt":428.79999995232,"correct":true,"confidence":3},{"trial_n":41,"n_dots":3.15,"target":"right","response":"left","rt":239.79999995232,"correct":false,"confidence":1},{"trial_n":42,"n_dots":3.25,"target":"left","response":"left","rt":816.40000009537,"correct":true,"confidence":3},{"trial_n":43,"n_dots":3.25,"target":"right","response":"right","rt":858.69999980927,"correct":true,"confidence":3},{"trial_n":44,"n_dots":3.15,"target":"left","response":"left","rt":1037.2000000477,"correct":true,"confidence":2},{"trial_n":45,"n_dots":3.15,"target":"left","response":"left","rt":592.29999995232,"correct":true,"confidence":2},{"trial_n":46,"n_dots":3.05,"target":"right","response":"right","rt":754.39999985695,"correct":true,"confidence":2},{"trial_n":47,"n_dots":3.05,"target":"right","response":"left","rt":442.5,"correct":false,"confidence":2},{"trial_n":48,"n_dots":3.15,"target":"right","response":"right","rt":705.70000004768,"correct":true,"confidence":2},{"trial_n":49,"n_dots":3.15,"target":"right","response":"right","rt":1303.6000001431,"correct":true,"confidence":4},{"trial_n":50,"n_dots":3.05,"target":"left","response":"left","rt":814.70000004768,"correct":true,"confidence":1},{"trial_n":51,"n_dots":3.05,"target":"right","response":"left","rt":665.90000009537,"correct":false,"confidence":1},{"trial_n":52,"n_dots":3.15,"target":"right","response":"right","rt":117.39999985695,"correct":true,"confidence":1},{"trial_n":53,"n_dots":3.15,"target":"left","response":"left","rt":609.20000004768,"correct":true,"confidence":1},{"trial_n":54,"n_dots":3.05,"target":"right","response":"left","rt":641.90000009537,"correct":false,"confidence":1},{"trial_n":55,"n_dots":3.15,"target":"left","response":"left","rt":657.10000014305,"correct":true,"confidence":1},{"trial_n":56,"n_dots":3.15,"target":"left","response":"right","rt":558.09999990463,"correct":false,"confidence":2},{"trial_n":57,"n_dots":3.25,"target":"right","response":"right","rt":588,"correct":true,"confidence":2},{"trial_n":58,"n_dots":3.25,"target":"left","response":"left","rt":545.20000004768,"correct":true,"confidence":1},{"trial_n":59,"n_dots":3.15,"target":"left","response":"right","rt":957.70000004768,"correct":false,"confidence":2},{"trial_n":60,"n_dots":3.25,"target":"right","response":"right","rt":809.90000009537,"correct":true,"confidence":3},{"trial_n":61,"n_dots":3.25,"target":"left","response":"right","rt":1015.9000000954,"correct":false,"confidence":3},{"trial_n":62,"n_dots":3.35,"target":"right","response":"left","rt":1286.7000000477,"correct":false,"confidence":1},{"trial_n":63,"n_dots":3.45,"target":"right","response":"left","rt":952.90000009537,"correct":false,"confidence":1},{"trial_n":64,"n_dots":3.55,"target":"right","response":"right","rt":586.90000009537,"correct":true,"confidence":2},{"trial_n":65,"n_dots":3.55,"target":"right","response":"left","rt":528.90000009537,"correct":false,"confidence":1},{"trial_n":66,"n_dots":3.65,"target":"left","response":"left","rt":1497.1000001431,"correct":true,"confidence":5},{"trial_n":67,"n_dots":3.65,"target":"right","response":"right","rt":819.90000009537,"correct":true,"confidence":4},{"trial_n":68,"n_dots":3.55,"target":"right","response":"right","rt":559.10000014305,"correct":true,"confidence":5},{"trial_n":69,"n_dots":3.55,"target":"right","response":"right","rt":497.39999985695,"correct":true,"confidence":5},{"trial_n":70,"n_dots":3.45,"target":"right","response":"right","rt":625.40000009537,"correct":true,"confidence":4},{"trial_n":71,"n_dots":3.45,"target":"left","response":"left","rt":454.5,"correct":true,"confidence":5},{"trial_n":72,"n_dots":3.35,"target":"right","response":"right","rt":469.70000004768,"correct":true,"confidence":4},{"trial_n":73,"n_dots":3.35,"target":"right","response":"right","rt":1221.7999999523,"correct":true,"confidence":1},{"trial_n":74,"n_dots":3.25,"target":"left","response":"left","rt":483.79999995232,"correct":true,"confidence":5},{"trial_n":75,"n_dots":3.25,"target":"right","response":"right","rt":584.90000009537,"correct":true,"confidence":3},{"trial_n":76,"n_dots":3.15,"target":"right","response":"right","rt":533.09999990463,"correct":true,"confidence":2},{"trial_n":77,"n_dots":3.15,"target":"right","response":"left","rt":766,"correct":false,"confidence":1},{"trial_n":78,"n_dots":3.25,"target":"left","response":"left","rt":1175.1000001431,"correct":true,"confidence":1},{"trial_n":79,"n_dots":3.25,"target":"right","response":"left","rt":1017.2999999523,"correct":false,"confidence":1},{"trial_n":80,"n_dots":3.35,"target":"left","response":"left","rt":725.39999985695,"correct":true,"confidence":4},{"trial_n":81,"n_dots":3.35,"target":"right","response":"left","rt":1104.2999999523,"correct":false,"confidence":1},{"trial_n":82,"n_dots":3.45,"target":"right","response":"right","rt":672,"correct":true,"confidence":3},{"trial_n":83,"n_dots":3.45,"target":"right","response":"right","rt":811.70000004768,"correct":true,"confidence":3},{"trial_n":84,"n_dots":3.35,"target":"right","response":"right","rt":684.59999990463,"correct":true,"confidence":3},{"trial_n":85,"n_dots":3.35,"target":"left","response":"left","rt":1911.7000000477,"correct":true,"confidence":3},{"trial_n":86,"n_dots":3.25,"target":"left","response":"left","rt":914.29999995232,"correct":true,"confidence":3},{"trial_n":87,"n_dots":3.25,"target":"left","response":"left","rt":952,"correct":true,"confidence":3},{"trial_n":88,"n_dots":3.15,"target":"left","response":"right","rt":1990.5,"correct":false,"confidence":1},{"trial_n":89,"n_dots":3.25,"target":"right","response":"left","rt":2625.2999999523,"correct":false,"confidence":1},{"trial_n":90,"n_dots":3.35,"target":"left","response":"left","rt":888.5,"correct":true,"confidence":1},{"trial_n":91,"n_dots":3.35,"target":"left","response":"left","rt":901.60000014305,"correct":true,"confidence":2},{"trial_n":92,"n_dots":3.25,"target":"left","response":"left","rt":1333.5,"correct":true,"confidence":1},{"trial_n":93,"n_dots":3.25,"target":"right","response":"left","rt":697.10000014305,"correct":false,"confidence":1},{"trial_n":94,"n_dots":3.35,"target":"left","response":"left","rt":651.70000004768,"correct":true,"confidence":1},{"trial_n":95,"n_dots":3.35,"target":"left","response":"right","rt":516.70000004768,"correct":false,"confidence":1},{"trial_n":96,"n_dots":3.45,"target":"left","response":"left","rt":667.5,"correct":true,"confidence":5},{"trial_n":97,"n_dots":3.45,"target":"left","response":"left","rt":712.89999985695,"correct":true,"confidence":5},{"trial_n":98,"n_dots":3.35,"target":"left","response":"right","rt":1316,"correct":false,"confidence":1},{"trial_n":99,"n_dots":3.45,"target":"left","response":"left","rt":525.20000004768,"correct":true,"confidence":4},{"trial_n":100,"n_dots":3.45,"target":"left","response":"left","rt":735.10000014305,"correct":true,"confidence":4},{"trial_n":101,"n_dots":3.35,"target":"left","response":"left","rt":1162.7000000477,"correct":true,"confidence":3},{"trial_n":102,"n_dots":3.35,"target":"right","response":"right","rt":771.29999995232,"correct":true,"confidence":1},{"trial_n":103,"n_dots":3.25,"target":"left","response":"left","rt":680.70000004768,"correct":true,"confidence":1},{"trial_n":104,"n_dots":3.25,"target":"right","response":"right","rt":511.5,"correct":true,"confidence":1},{"trial_n":105,"n_dots":3.15,"target":"left","response":"left","rt":518.40000009537,"correct":true,"confidence":1},{"trial_n":106,"n_dots":3.15,"target":"left","response":"right","rt":696.59999990463,"correct":false,"confidence":1},{"trial_n":107,"n_dots":3.25,"target":"right","response":"left","rt":499.70000004768,"correct":false,"confidence":1},{"trial_n":108,"n_dots":3.35,"target":"right","response":"right","rt":592.59999990463,"correct":true,"confidence":1},{"trial_n":109,"n_dots":3.35,"target":"right","response":"right","rt":654.70000004768,"correct":true,"confidence":1},{"trial_n":110,"n_dots":3.25,"target":"left","response":"left","rt":636.79999995232,"correct":true,"confidence":1},{"trial_n":111,"n_dots":3.25,"target":"right","response":"right","rt":472.90000009537,"correct":true,"confidence":1},{"trial_n":112,"n_dots":3.15,"target":"right","response":"right","rt":462.90000009537,"correct":true,"confidence":1},{"trial_n":113,"n_dots":3.15,"target":"left","response":"right","rt":436.29999995232,"correct":false,"confidence":1},{"trial_n":114,"n_dots":3.25,"target":"left","response":"left","rt":419.79999995232,"correct":true,"confidence":1},{"trial_n":115,"n_dots":3.25,"target":"right","response":"right","rt":484.20000004768,"correct":true,"confidence":1},{"trial_n":116,"n_dots":3.15,"target":"right","response":"right","rt":547.79999995232,"correct":true,"confidence":1},{"trial_n":117,"n_dots":3.15,"target":"right","response":"right","rt":378.20000004768,"correct":true,"confidence":1},{"trial_n":118,"n_dots":3.05,"target":"left","response":"left","rt":463.09999990463,"correct":true,"confidence":3},{"trial_n":119,"n_dots":3.05,"target":"right","response":"left","rt":386.79999995232,"correct":false,"confidence":1},{"trial_n":120,"n_dots":3.15,"target":"left","response":"left","rt":392.20000004768,"correct":true,"confidence":1}]