[{"trial_n":1,"min":25,"max":230,"target":"present","response":"present","rt":11169,"correct":true,"confidence":-1},{"trial_n":2,"min":25,"max":230,"target":"present","response":"present","rt":1642.5,"correct":true,"confidence":-1},{"trial_n":3,"min":41,"max":214,"target":"absent","response":"present","rt":504.09999999404,"correct":false,"confidence":-1},{"trial_n":4,"min":25,"max":230,"target":"absent","response":"absent","rt":985.20000001788,"correct":true,"confidence":-1},{"trial_n":5,"min":25,"max":230,"target":"present","response":"absent","rt":425.70000001788,"correct":false,"confidence":-1},{"trial_n":6,"min":9,"max":246,"target":"absent","response":"present","rt":668.69999998808,"correct":false,"confidence":-1},{"trial_n":7,"min":0,"max":255,"target":"present","response":"present","rt":815.80000001192,"correct":true,"confidence":-1},{"trial_n":8,"min":0,"max":255,"target":"absent","response":"absent","rt":433.60000002384,"correct":true,"confidence":-1},{"trial_n":9,"min":16,"max":239,"target":"present","response":"present","rt":323.19999998808,"correct":true,"confidence":-1},{"trial_n":10,"min":16,"max":239,"target":"present","response":"present","rt":447.29999998212,"correct":true,"confidence":-1},{"trial_n":11,"min":24,"max":231,"target":"absent","response":"absent","rt":431.59999999404,"correct":true,"confidence":-1},{"trial_n":12,"min":24,"max":231,"target":"absent","response":"absent","rt":357.30000001192,"correct":true,"confidence":-1},{"trial_n":13,"min":32,"max":223,"target":"present","response":"present","rt":430.59999999404,"correct":true,"confidence":-1},{"trial_n":14,"min":32,"max":223,"target":"absent","response":"absent","rt":366.80000001192,"correct":true,"confidence":-1},{"trial_n":15,"min":40,"max":215,"target":"present","response":"present","rt":392.5,"correct":true,"confidence":-1},{"trial_n":16,"min":40,"max":215,"target":"present","response":"present","rt":487,"correct":true,"confidence":-1},{"trial_n":17,"min":48,"max":207,"target":"present","response":"present","rt":726,"correct":true,"confidence":-1},{"trial_n":18,"min":48,"max":207,"target":"present","response":"present","rt":432.19999998808,"correct":true,"confidence":-1},{"trial_n":19,"min":56,"max":199,"target":"present","response":"present","rt":391.30000001192,"correct":true,"confidence":-1},{"trial_n":20,"min":56,"max":199,"target":"absent","response":"absent","rt":307.5,"correct":true,"confidence":-1},{"trial_n":21,"min":60,"max":195,"target":"absent","response":"absent","rt":3827.900000006,"correct":true,"confidence":4},{"trial_n":22,"min":60,"max":195,"target":"absent","response":"absent","rt":2298.599999994,"correct":true,"confidence":3},{"trial_n":23,"min":64,"max":191,"target":"absent","response":"absent","rt":457.40000000596,"correct":true,"confidence":5},{"trial_n":24,"min":64,"max":191,"target":"present","response":"present","rt":456.70000001788,"correct":true,"confidence":4},{"trial_n":25,"min":68,"max":187,"target":"present","response":"present","rt":445.80000001192,"correct":true,"confidence":5},{"trial_n":26,"min":68,"max":187,"target":"present","response":"present","rt":1217.6999999881,"correct":true,"confidence":3},{"trial_n":27,"min":72,"max":183,"target":"absent","response":"absent","rt":339.5,"correct":true,"confidence":4},{"trial_n":28,"min":72,"max":183,"target":"absent","response":"absent","rt":985.69999998808,"correct":true,"confidence":4},{"trial_n":29,"min":76,"max":179,"target":"present","response":"absent","rt":405,"correct":false,"confidence":4},{"trial_n":30,"min":72,"max":183,"target":"absent","response":"absent","rt":364.40000000596,"correct":true,"confidence":3},{"trial_n":31,"min":72,"max":183,"target":"absent","response":"absent","rt":876.30000001192,"correct":true,"confidence":5},{"trial_n":32,"min":74,"max":181,"target":"present","response":"present","rt":503.19999998808,"correct":true,"confidence":3},{"trial_n":33,"min":74,"max":181,"target":"absent","response":"absent","rt":587.79999998212,"correct":true,"confidence":5},{"trial_n":34,"min":76,"max":179,"target":"present","response":"absent","rt":825.5,"correct":false,"confidence":4},{"trial_n":35,"min":74,"max":181,"target":"absent","response":"absent","rt":1360.099999994,"correct":true,"confidence":5},{"trial_n":36,"min":74,"max":181,"target":"absent","response":"absent","rt":687.30000001192,"correct":true,"confidence":5},{"trial_n":37,"min":76,"max":179,"target":"present","response":"present","rt":766.20000001788,"correct":true,"confidence":3},{"trial_n":38,"min":76,"max":179,"target":"present","response":"present","rt":1680.400000006,"correct":true,"confidence":3},{"trial_n":39,"min":78,"max":177,"target":"absent","response":"absent","rt":1207.599999994,"correct":true,"confidence":3},{"trial_n":40,"min":78,"max":177,"target":"absent","response":"absent","rt":948.40000000596,"correct":true,"confidence":3},{"trial_n":41,"min":79,"max":176,"target":"present","response":"absent","rt":787.80000001192,"correct":false,"confidence":3},{"trial_n":42,"min":78,"max":177,"target":"present","response":"absent","rt":1151.1999999881,"correct":false,"confidence":2},{"trial_n":43,"min":77,"max":178,"target":"absent","response":"absent","rt":772.70000001788,"correct":true,"confidence":4},{"trial_n":44,"min":77,"max":178,"target":"absent","response":"absent","rt":744.09999999404,"correct":true,"confidence":4},{"trial_n":45,"min":78,"max":177,"target":"absent","response":"absent","rt":921.60000002384,"correct":true,"confidence":3},{"trial_n":46,"min":78,"max":177,"target":"present","response":"absent","rt":673.30000001192,"correct":false,"confidence":4},{"trial_n":47,"min":77,"max":178,"target":"absent","response":"absent","rt":667.5,"correct":true,"confidence":4},{"trial_n":48,"min":77,"max":178,"target":"present","response":"present","rt":1191,"correct":true,"confidence":3},{"trial_n":49,"min":78,"max":177,"target":"present","response":"absent","rt":625.60000002384,"correct":false,"confidence":3},{"trial_n":50,"min":77,"max":178,"target":"present","response":"present","rt":891.5,"correct":true,"confidence":4},{"trial_n":51,"min":77,"max":178,"target":"absent","response":"absent","rt":624.5,"correct":true,"confidence":3},{"trial_n":52,"min":78,"max":177,"target":"present","response":"absent","rt":1112.1999999881,"correct":false,"confidence":3},{"trial_n":53,"min":77,"max":178,"target":"present","response":"absent","rt":728.90000000596,"correct":false,"confidence":3},{"trial_n":54,"min":76,"max":179,"target":"present","response":"absent","rt":1796.900000006,"correct":false,"confidence":2},{"trial_n":55,"min":75,"max":180,"target":"absent","response":"absent","rt":2151.7000000179,"correct":true,"confidence":2},{"trial_n":56,"min":75,"max":180,"target":"present","response":"present","rt":844.5,"correct":true,"confidence":4},{"trial_n":57,"min":76,"max":179,"target":"absent","response":"absent","rt":1254.400000006,"correct":true,"confidence":3},{"trial_n":58,"min":76,"max":179,"target":"present","response":"present","rt":728.19999998808,"correct":true,"confidence":3},{"trial_n":59,"min":77,"max":178,"target":"absent","response":"absent","rt":734.40000000596,"correct":true,"confidence":2},{"trial_n":60,"min":77,"max":178,"target":"absent","response":"absent","rt":2544,"correct":true,"confidence":3},{"trial_n":61,"min":78,"max":177,"target":"present","response":"present","rt":980.5,"correct":true,"confidence":5},{"trial_n":62,"min":78,"max":177,"target":"present","response":"absent","rt":616.69999998808,"correct":false,"confidence":3},{"trial_n":63,"min":77,"max":178,"target":"absent","response":"present","rt":1555,"correct":false,"confidence":2},{"trial_n":64,"min":76,"max":179,"target":"absent","response":"absent","rt":720.40000000596,"correct":true,"confidence":4},{"trial_n":65,"min":76,"max":179,"target":"present","response":"present","rt":729.90000000596,"correct":true,"confidence":5},{"trial_n":66,"min":77,"max":178,"target":"absent","response":"absent","rt":581,"correct":true,"confidence":4},{"trial_n":67,"min":77,"max":178,"target":"absent","response":"absent","rt":651.09999999404,"correct":true,"confidence":4},{"trial_n":68,"min":78,"max":177,"target":"absent","response":"absent","rt":549.30000001192,"correct":true,"confidence":5},{"trial_n":69,"min":78,"max":177,"target":"present","response":"present","rt":622.40000000596,"correct":true,"confidence":5},{"trial_n":70,"min":79,"max":176,"target":"present","response":"present","rt":1401.400000006,"correct":true,"confidence":4},{"trial_n":71,"min":41,"max":214,"target":"present","response":"present","rt":1585.900000006,"correct":true,"confidence":-1},{"trial_n":72,"min":41,"max":214,"target":"present","response":"present","rt":452.69999998808,"correct":true,"confidence":-1},{"trial_n":73,"min":57,"max":198,"target":"absent","response":"absent","rt":213.10000002384,"correct":true,"confidence":-1},{"trial_n":74,"min":57,"max":198,"target":"absent","response":"absent","rt":333.59999999404,"correct":true,"confidence":-1},{"trial_n":75,"min":73,"max":182,"target":"present","response":"present","rt":191.40000000596,"correct":true,"confidence":-1},{"trial_n":76,"min":73,"max":182,"target":"present","response":"present","rt":250.30000001192,"correct":true,"confidence":-1},{"trial_n":77,"min":89,"max":166,"target":"present","response":"present","rt":717.5,"correct":true,"confidence":-1},{"trial_n":78,"min":89,"max":166,"target":"present","response":"present","rt":403.29999998212,"correct":true,"confidence":-1},{"trial_n":79,"min":105,"max":150,"target":"present","response":"absent","rt":902.5,"correct":false,"confidence":-1},{"trial_n":80,"min":89,"max":166,"target":"absent","response":"absent","rt":535.80000001192,"correct":true,"confidence":-1},{"trial_n":81,"min":89,"max":166,"target":"absent","response":"present","rt":534.90000000596,"correct":false,"confidence":-1},{"trial_n":82,"min":81,"max":174,"target":"absent","response":"absent","rt":434.69999998808,"correct":true,"confidence":-1},{"trial_n":83,"min":81,"max":174,"target":"present","response":"present","rt":379.80000001192,"correct":true,"confidence":-1},{"trial_n":84,"min":89,"max":166,"target":"present","response":"present","rt":225.90000000596,"correct":true,"confidence":-1},{"trial_n":85,"min":89,"max":166,"target":"present","response":"present","rt":456.90000000596,"correct":true,"confidence":-1},{"trial_n":86,"min":97,"max":158,"target":"present","response":"present","rt":201.79999998212,"correct":true,"confidence":-1},{"trial_n":87,"min":97,"max":158,"target":"absent","response":"present","rt":449.69999998808,"correct":false,"confidence":-1},{"trial_n":88,"min":89,"max":166,"target":"present","response":"absent","rt":487.79999998212,"correct":false,"confidence":-1},{"trial_n":89,"min":81,"max":174,"target":"absent","response":"present","rt":403.59999999404,"correct":false,"confidence":-1},{"trial_n":90,"min":73,"max":182,"target":"present","response":"absent","rt":469,"correct":false,"confidence":-1},{"trial_n":91,"min":69,"max":186,"target":"absent","response":"absent","rt":587.30000001192,"correct":true,"confidence":5},{"trial_n":92,"min":69,"max":186,"target":"present","response":"present","rt":245.90000000596,"correct":true,"confidence":5},{"trial_n":93,"min":73,"max":182,"target":"absent","response":"absent","rt":428.69999998808,"correct":true,"confidence":5},{"trial_n":94,"min":73,"max":182,"target":"absent","response":"absent","rt":331.80000001192,"correct":true,"confidence":5},{"trial_n":95,"min":77,"max":178,"target":"present","response":"present","rt":330.69999998808,"correct":true,"confidence":4},{"trial_n":96,"min":77,"max":178,"target":"absent","response":"absent","rt":513.09999999404,"correct":true,"confidence":3},{"trial_n":97,"min":81,"max":174,"target":"absent","response":"present","rt":871.5,"correct":false,"confidence":3},{"trial_n":98,"min":77,"max":178,"target":"absent","response":"present","rt":900.09999999404,"correct":false,"confidence":2},{"trial_n":99,"min":73,"max":182,"target":"present","response":"present","rt":259.09999999404,"correct":true,"confidence":4},{"trial_n":100,"min":73,"max":182,"target":"absent","response":"absent","rt":419.30000001192,"correct":true,"confidence":3},{"trial_n":101,"min":75,"max":180,"target":"absent","response":"present","rt":1123.900000006,"correct":false,"confidence":2},{"trial_n":102,"min":73,"max":182,"target":"absent","response":"absent","rt":630.70000001788,"correct":true,"confidence":5},{"trial_n":103,"min":73,"max":182,"target":"present","response":"present","rt":198.90000000596,"correct":true,"confidence":4},{"trial_n":104,"min":75,"max":180,"target":"absent","response":"absent","rt":1056.099999994,"correct":true,"confidence":4},{"trial_n":105,"min":75,"max":180,"target":"absent","response":"absent","rt":968,"correct":true,"confidence":4},{"trial_n":106,"min":77,"max":178,"target":"absent","response":"absent","rt":743.30000001192,"correct":true,"confidence":4},{"trial_n":107,"min":77,"max":178,"target":"present","response":"present","rt":448.40000000596,"correct":true,"confidence":4},{"trial_n":108,"min":79,"max":176,"target":"present","response":"present","rt":159,"correct":true,"confidence":5},{"trial_n":109,"min":79,"max":176,"target":"absent","response":"absent","rt":502,"correct":true,"confidence":4},{"trial_n":110,"min":81,"max":174,"target":"absent","response":"present","rt":556.59999999404,"correct":false,"confidence":4},{"trial_n":111,"min":80,"max":175,"target":"present","response":"present","rt":500.5,"correct":true,"confidence":5},{"trial_n":112,"min":80,"max":175,"target":"absent","response":"present","rt":726.5,"correct":false,"confidence":2},{"trial_n":113,"min":79,"max":176,"target":"present","response":"present","rt":469.30000001192,"correct":true,"confidence":4},{"trial_n":114,"min":79,"max":176,"target":"absent","response":"absent","rt":664.69999998808,"correct":true,"confidence":3},{"trial_n":115,"min":80,"max":175,"target":"absent","response":"present","rt":754.20000001788,"correct":false,"confidence":2},{"trial_n":116,"min":79,"max":176,"target":"present","response":"present","rt":316,"correct":true,"confidence":4},{"trial_n":117,"min":79,"max":176,"target":"absent","response":"present","rt":696.19999998808,"correct":false,"confidence":2},{"trial_n":118,"min":78,"max":177,"target":"present","response":"present","rt":313.80000001192,"correct":true,"confidence":4},{"trial_n":119,"min":78,"max":177,"target":"absent","response":"absent","rt":542.90000000596,"correct":true,"confidence":4},{"trial_n":120,"min":79,"max":176,"target":"present","response":"present","rt":329.40000000596,"correct":true,"confidence":4},{"trial_n":121,"min":79,"max":176,"target":"present","response":"present","rt":284.19999998808,"correct":true,"confidence":5},{"trial_n":122,"min":80,"max":175,"target":"present","response":"present","rt":392.09999999404,"correct":true,"confidence":5},{"trial_n":123,"min":80,"max":175,"target":"present","response":"present","rt":752.30000001192,"correct":true,"confidence":3},{"trial_n":124,"min":81,"max":174,"target":"absent","response":"absent","rt":621.09999999404,"correct":true,"confidence":3},{"trial_n":125,"min":81,"max":174,"target":"present","response":"present","rt":482.69999998808,"correct":true,"confidence":3},{"trial_n":126,"min":82,"max":173,"target":"present","response":"present","rt":748.90000000596,"correct":true,"confidence":4},{"trial_n":127,"min":82,"max":173,"target":"absent","response":"absent","rt":854.80000001192,"correct":true,"confidence":3},{"trial_n":128,"min":83,"max":172,"target":"absent","response":"present","rt":839.40000000596,"correct":false,"confidence":2},{"trial_n":129,"min":82,"max":173,"target":"present","response":"present","rt":469,"correct":true,"confidence":2},{"trial_n":130,"min":82,"max":173,"target":"present","response":"present","rt":485.5,"correct":true,"confidence":2},{"trial_n":131,"min":83,"max":172,"target":"present","response":"present","rt":372,"correct":true,"confidence":4},{"trial_n":132,"min":83,"max":172,"target":"absent","response":"absent","rt":503.80000001192,"correct":true,"confidence":3},{"trial_n":133,"min":84,"max":171,"target":"absent","response":"present","rt":452.40000000596,"correct":false,"confidence":2},{"trial_n":134,"min":83,"max":172,"target":"present","response":"present","rt":270.5,"correct":true,"confidence":3},{"trial_n":135,"min":83,"max":172,"target":"absent","response":"absent","rt":1057.2000000179,"correct":true,"confidence":4},{"trial_n":136,"min":84,"max":171,"target":"present","response":"present","rt":266.40000000596,"correct":true,"confidence":5},{"trial_n":137,"min":84,"max":171,"target":"present","response":"present","rt":554.40000000596,"correct":true,"confidence":2},{"trial_n":138,"min":85,"max":170,"target":"present","response":"present","rt":481.5,"correct":true,"confidence":4},{"trial_n":139,"min":85,"max":170,"target":"absent","response":"present","rt":908.29999998212,"correct":false,"confidence":2},{"trial_n":140,"min":84,"max":171,"target":"absent","response":"absent","rt":693.69999998808,"correct":true,"confidence":3}]