[{"trial_n":1,"min":25,"max":230,"target":"present","response":"absent","rt":10742.700000048,"correct":false,"confidence":-1},{"trial_n":2,"min":25,"max":230,"target":"present","response":"present","rt":3065.3000001907,"correct":true,"confidence":-1},{"trial_n":3,"min":25,"max":230,"target":"absent","response":"absent","rt":1833.7999999523,"correct":true,"confidence":-1},{"trial_n":4,"min":41,"max":214,"target":"absent","response":"absent","rt":2343.1999998093,"correct":true,"confidence":-1},{"trial_n":5,"min":41,"max":214,"target":"present","response":"present","rt":1291.2000000477,"correct":true,"confidence":-1},{"trial_n":6,"min":57,"max":198,"target":"present","response":"present","rt":923.70000004768,"correct":true,"confidence":-1},{"trial_n":7,"min":57,"max":198,"target":"present","response":"present","rt":1609,"correct":true,"confidence":-1},{"trial_n":8,"min":73,"max":182,"target":"absent","response":"absent","rt":895.89999985695,"correct":true,"confidence":-1},{"trial_n":9,"min":73,"max":182,"target":"present","response":"absent","rt":1001.5999999046,"correct":false,"confidence":-1},{"trial_n":10,"min":57,"max":198,"target":"absent","response":"absent","rt":841.20000004768,"correct":true,"confidence":-1},{"trial_n":11,"min":57,"max":198,"target":"present","response":"present","rt":1069.7999999523,"correct":true,"confidence":-1},{"trial_n":12,"min":65,"max":190,"target":"present","response":"present","rt":822.79999995232,"correct":true,"confidence":-1},{"trial_n":13,"min":65,"max":190,"target":"present","response":"present","rt":761.20000004768,"correct":true,"confidence":-1},{"trial_n":14,"min":73,"max":182,"target":"present","response":"present","rt":700.60000014305,"correct":true,"confidence":-1},{"trial_n":15,"min":73,"max":182,"target":"present","response":"absent","rt":925.90000009537,"correct":false,"confidence":-1},{"trial_n":16,"min":65,"max":190,"target":"absent","response":"absent","rt":697.40000009537,"correct":true,"confidence":-1},{"trial_n":17,"min":65,"max":190,"target":"absent","response":"absent","rt":573.29999995232,"correct":true,"confidence":-1},{"trial_n":18,"min":73,"max":182,"target":"present","response":"present","rt":710.90000009537,"correct":true,"confidence":-1},{"trial_n":19,"min":73,"max":182,"target":"absent","response":"absent","rt":641.79999995232,"correct":true,"confidence":-1},{"trial_n":20,"min":81,"max":174,"target":"absent","response":"absent","rt":844.90000009537,"correct":true,"confidence":-1},{"trial_n":21,"min":81,"max":174,"target":"present","response":"present","rt":1208.7000000477,"correct":true,"confidence":4},{"trial_n":22,"min":85,"max":170,"target":"present","response":"absent","rt":1165.7999999523,"correct":false,"confidence":4},{"trial_n":23,"min":81,"max":174,"target":"present","response":"present","rt":3236,"correct":true,"confidence":2},{"trial_n":24,"min":81,"max":174,"target":"present","response":"absent","rt":1287.2000000477,"correct":false,"confidence":2},{"trial_n":25,"min":77,"max":178,"target":"present","response":"present","rt":1203.1000001431,"correct":true,"confidence":3},{"trial_n":26,"min":77,"max":178,"target":"absent","response":"absent","rt":1676,"correct":true,"confidence":3},{"trial_n":27,"min":81,"max":174,"target":"present","response":"absent","rt":1160.4000000954,"correct":false,"confidence":2},{"trial_n":28,"min":77,"max":178,"target":"absent","response":"present","rt":1501,"correct":false,"confidence":3},{"trial_n":29,"min":73,"max":182,"target":"absent","response":"absent","rt":1232.3999998569,"correct":true,"confidence":3},{"trial_n":30,"min":73,"max":182,"target":"absent","response":"absent","rt":1016.3999998569,"correct":true,"confidence":3},{"trial_n":31,"min":75,"max":180,"target":"absent","response":"absent","rt":958.19999980927,"correct":true,"confidence":3},{"trial_n":32,"min":75,"max":180,"target":"absent","response":"absent","rt":1182.8999998569,"correct":true,"confidence":3},{"trial_n":33,"min":77,"max":178,"target":"present","response":"present","rt":1384.9000000954,"correct":true,"confidence":5},{"trial_n":34,"min":77,"max":178,"target":"absent","response":"absent","rt":1213.6000001431,"correct":true,"confidence":3},{"trial_n":35,"min":79,"max":176,"target":"present","response":"present","rt":1114.1000001431,"correct":true,"confidence":4},{"trial_n":36,"min":79,"max":176,"target":"present","response":"absent","rt":979.69999980927,"correct":false,"confidence":4},{"trial_n":37,"min":77,"max":178,"target":"present","response":"present","rt":1306.6000001431,"correct":true,"confidence":5},{"trial_n":38,"min":77,"max":178,"target":"present","response":"present","rt":1073.5,"correct":true,"confidence":4},{"trial_n":39,"min":79,"max":176,"target":"absent","response":"absent","rt":1197.2000000477,"correct":true,"confidence":3},{"trial_n":40,"min":79,"max":176,"target":"present","response":"present","rt":1130.3999998569,"correct":true,"confidence":4},{"trial_n":41,"min":80,"max":175,"target":"present","response":"present","rt":1151.9000000954,"correct":true,"confidence":4},{"trial_n":42,"min":80,"max":175,"target":"present","response":"present","rt":1748.1000001431,"correct":true,"confidence":3},{"trial_n":43,"min":81,"max":174,"target":"absent","response":"absent","rt":1122.5,"correct":true,"confidence":3},{"trial_n":44,"min":81,"max":174,"target":"absent","response":"absent","rt":1064.5,"correct":true,"confidence":3},{"trial_n":45,"min":82,"max":173,"target":"present","response":"present","rt":1111.1000001431,"correct":true,"confidence":4},{"trial_n":46,"min":82,"max":173,"target":"absent","response":"absent","rt":1092.2000000477,"correct":true,"confidence":3},{"trial_n":47,"min":83,"max":172,"target":"absent","response":"absent","rt":1691.7000000477,"correct":true,"confidence":3},{"trial_n":48,"min":83,"max":172,"target":"absent","response":"absent","rt":1120.5999999046,"correct":true,"confidence":4},{"trial_n":49,"min":84,"max":171,"target":"absent","response":"absent","rt":1198.3000001907,"correct":true,"confidence":3},{"trial_n":50,"min":84,"max":171,"target":"present","response":"absent","rt":3699.2999999523,"correct":false,"confidence":2},{"trial_n":51,"min":83,"max":172,"target":"present","response":"present","rt":2225.7999999523,"correct":true,"confidence":2},{"trial_n":52,"min":83,"max":172,"target":"absent","response":"present","rt":3813.7999999523,"correct":false,"confidence":2},{"trial_n":53,"min":82,"max":173,"target":"absent","response":"absent","rt":1487.2999999523,"correct":true,"confidence":3},{"trial_n":54,"min":82,"max":173,"target":"absent","response":"present","rt":1248.8000001907,"correct":false,"confidence":3},{"trial_n":55,"min":81,"max":174,"target":"present","response":"present","rt":1106.7999999523,"correct":true,"confidence":5},{"trial_n":56,"min":81,"max":174,"target":"present","response":"present","rt":1555.0999999046,"correct":true,"confidence":3},{"trial_n":57,"min":82,"max":173,"target":"absent","response":"absent","rt":1514.5,"correct":true,"confidence":3},{"trial_n":58,"min":82,"max":173,"target":"absent","response":"absent","rt":1227.5,"correct":true,"confidence":4},{"trial_n":59,"min":83,"max":172,"target":"present","response":"present","rt":1272.1000001431,"correct":true,"confidence":3},{"trial_n":60,"min":83,"max":172,"target":"present","response":"present","rt":1515.1000001431,"correct":true,"confidence":3},{"trial_n":61,"min":84,"max":171,"target":"present","response":"present","rt":1164.4000000954,"correct":true,"confidence":4},{"trial_n":62,"min":84,"max":171,"target":"absent","response":"absent","rt":1238.4000000954,"correct":true,"confidence":4},{"trial_n":63,"min":85,"max":170,"target":"absent","response":"absent","rt":1290,"correct":true,"confidence":4},{"trial_n":64,"min":85,"max":170,"target":"absent","response":"absent","rt":1155.2999999523,"correct":true,"confidence":4},{"trial_n":65,"min":86,"max":169,"target":"present","response":"absent","rt":1213.6000001431,"correct":false,"confidence":3},{"trial_n":66,"min":85,"max":170,"target":"absent","response":"absent","rt":1168.4000000954,"correct":true,"confidence":3},{"trial_n":67,"min":85,"max":170,"target":"absent","response":"absent","rt":1173.2000000477,"correct":true,"confidence":3},{"trial_n":68,"min":86,"max":169,"target":"present","response":"present","rt":1007.2999999523,"correct":true,"confidence":4},{"trial_n":69,"min":86,"max":169,"target":"absent","response":"present","rt":1490.0999999046,"correct":false,"confidence":3},{"trial_n":70,"min":85,"max":170,"target":"absent","response":"absent","rt":1025.5,"correct":true,"confidence":3},{"trial_n":71,"min":41,"max":214,"target":"present","response":"present","rt":1578.7999999523,"correct":true,"confidence":-1},{"trial_n":72,"min":41,"max":214,"target":"present","response":"present","rt":838.29999995232,"correct":true,"confidence":-1},{"trial_n":73,"min":57,"max":198,"target":"absent","response":"absent","rt":1209.1000001431,"correct":true,"confidence":-1},{"trial_n":74,"min":57,"max":198,"target":"absent","response":"absent","rt":1035,"correct":true,"confidence":-1},{"trial_n":75,"min":73,"max":182,"target":"present","response":"present","rt":881,"correct":true,"confidence":-1},{"trial_n":76,"min":73,"max":182,"target":"present","response":"present","rt":846.29999995232,"correct":true,"confidence":-1},{"trial_n":77,"min":89,"max":166,"target":"present","response":"absent","rt":2542,"correct":false,"confidence":-1},{"trial_n":78,"min":73,"max":182,"target":"present","response":"present","rt":1222.1999998093,"correct":true,"confidence":-1},{"trial_n":79,"min":73,"max":182,"target":"absent","response":"absent","rt":1091.5999999046,"correct":true,"confidence":-1},{"trial_n":80,"min":89,"max":166,"target":"present","response":"present","rt":1353.5999999046,"correct":true,"confidence":-1},{"trial_n":81,"min":89,"max":166,"target":"absent","response":"absent","rt":1246.2999999523,"correct":true,"confidence":-1},{"trial_n":82,"min":97,"max":158,"target":"present","response":"absent","rt":1241.7999999523,"correct":false,"confidence":-1},{"trial_n":83,"min":89,"max":166,"target":"absent","response":"absent","rt":1581.9000000954,"correct":true,"confidence":-1},{"trial_n":84,"min":89,"max":166,"target":"absent","response":"absent","rt":1002.7999999523,"correct":true,"confidence":-1},{"trial_n":85,"min":97,"max":158,"target":"absent","response":"absent","rt":864.39999985695,"correct":true,"confidence":-1},{"trial_n":86,"min":97,"max":158,"target":"absent","response":"absent","rt":942.5,"correct":true,"confidence":-1},{"trial_n":87,"min":105,"max":150,"target":"absent","response":"absent","rt":652.39999985695,"correct":true,"confidence":-1},{"trial_n":88,"min":105,"max":150,"target":"present","response":"absent","rt":645.60000014305,"correct":false,"confidence":-1},{"trial_n":89,"min":97,"max":158,"target":"present","response":"absent","rt":653.59999990463,"correct":false,"confidence":-1},{"trial_n":90,"min":89,"max":166,"target":"present","response":"absent","rt":937.19999980927,"correct":false,"confidence":-1},{"trial_n":91,"min":85,"max":170,"target":"absent","response":"absent","rt":2545.5,"correct":true,"confidence":1},{"trial_n":92,"min":85,"max":170,"target":"present","response":"present","rt":1356.2000000477,"correct":true,"confidence":3},{"trial_n":93,"min":89,"max":166,"target":"present","response":"present","rt":1126.8999998569,"correct":true,"confidence":4},{"trial_n":94,"min":89,"max":166,"target":"absent","response":"absent","rt":1271.2000000477,"correct":true,"confidence":3},{"trial_n":95,"min":93,"max":162,"target":"absent","response":"present","rt":2707.5999999046,"correct":false,"confidence":1},{"trial_n":96,"min":89,"max":166,"target":"present","response":"present","rt":1800.2000000477,"correct":true,"confidence":1},{"trial_n":97,"min":89,"max":166,"target":"absent","response":"absent","rt":1589.6000001431,"correct":true,"confidence":1},{"trial_n":98,"min":93,"max":162,"target":"absent","response":"absent","rt":1761.0999999046,"correct":true,"confidence":1},{"trial_n":99,"min":93,"max":162,"target":"absent","response":"absent","rt":1578.5,"correct":true,"confidence":3},{"trial_n":100,"min":97,"max":158,"target":"absent","response":"absent","rt":1376.2999999523,"correct":true,"confidence":1},{"trial_n":101,"min":97,"max":158,"target":"absent","response":"present","rt":2629.1000001431,"correct":false,"confidence":1},{"trial_n":102,"min":95,"max":160,"target":"absent","response":"present","rt":1293.8999998569,"correct":false,"confidence":1},{"trial_n":103,"min":93,"max":162,"target":"present","response":"absent","rt":1653.2999999523,"correct":false,"confidence":2},{"trial_n":104,"min":91,"max":164,"target":"absent","response":"absent","rt":1699.4000000954,"correct":true,"confidence":1},{"trial_n":105,"min":91,"max":164,"target":"present","response":"absent","rt":1100.7999999523,"correct":false,"confidence":1},{"trial_n":106,"min":89,"max":166,"target":"absent","response":"present","rt":1127.6000001431,"correct":false,"confidence":1},{"trial_n":107,"min":87,"max":168,"target":"absent","response":"absent","rt":1177.5999999046,"correct":true,"confidence":3},{"trial_n":108,"min":87,"max":168,"target":"present","response":"present","rt":1378.4000000954,"correct":true,"confidence":2},{"trial_n":109,"min":89,"max":166,"target":"absent","response":"present","rt":1151.5,"correct":false,"confidence":3},{"trial_n":110,"min":87,"max":168,"target":"present","response":"present","rt":1709.5999999046,"correct":true,"confidence":1},{"trial_n":111,"min":87,"max":168,"target":"absent","response":"present","rt":1107.7000000477,"correct":false,"confidence":2},{"trial_n":112,"min":86,"max":169,"target":"absent","response":"present","rt":1386,"correct":false,"confidence":3},{"trial_n":113,"min":85,"max":170,"target":"present","response":"present","rt":1020.7999999523,"correct":true,"confidence":4},{"trial_n":114,"min":85,"max":170,"target":"absent","response":"absent","rt":1553.5999999046,"correct":true,"confidence":1},{"trial_n":115,"min":86,"max":169,"target":"present","response":"present","rt":1329.3999998569,"correct":true,"confidence":3},{"trial_n":116,"min":86,"max":169,"target":"present","response":"present","rt":1442.7000000477,"correct":true,"confidence":1},{"trial_n":117,"min":87,"max":168,"target":"present","response":"absent","rt":1156.5,"correct":false,"confidence":1},{"trial_n":118,"min":86,"max":169,"target":"absent","response":"absent","rt":1069.1000001431,"correct":true,"confidence":1},{"trial_n":119,"min":86,"max":169,"target":"absent","response":"absent","rt":1185.9000000954,"correct":true,"confidence":2},{"trial_n":120,"min":87,"max":168,"target":"present","response":"absent","rt":1126.4000000954,"correct":false,"confidence":1},{"trial_n":121,"min":86,"max":169,"target":"present","response":"present","rt":889.79999995232,"correct":true,"confidence":4},{"trial_n":122,"min":86,"max":169,"target":"absent","response":"present","rt":1878.7000000477,"correct":false,"confidence":1},{"trial_n":123,"min":85,"max":170,"target":"present","response":"present","rt":1231,"correct":true,"confidence":1},{"trial_n":124,"min":85,"max":170,"target":"absent","response":"present","rt":1370.9000000954,"correct":false,"confidence":1},{"trial_n":125,"min":84,"max":171,"target":"absent","response":"absent","rt":1191.7000000477,"correct":true,"confidence":1},{"trial_n":126,"min":84,"max":171,"target":"present","response":"absent","rt":1064.5999999046,"correct":false,"confidence":1},{"trial_n":127,"min":83,"max":172,"target":"absent","response":"absent","rt":993.29999995232,"correct":true,"confidence":2},{"trial_n":128,"min":83,"max":172,"target":"present","response":"present","rt":1078.1000001431,"correct":true,"confidence":3},{"trial_n":129,"min":84,"max":171,"target":"present","response":"present","rt":1187.4000000954,"correct":true,"confidence":3},{"trial_n":130,"min":84,"max":171,"target":"present","response":"present","rt":1142.7999999523,"correct":true,"confidence":1},{"trial_n":131,"min":85,"max":170,"target":"present","response":"present","rt":946.5,"correct":true,"confidence":3},{"trial_n":132,"min":85,"max":170,"target":"present","response":"present","rt":929.20000004768,"correct":true,"confidence":4},{"trial_n":133,"min":86,"max":169,"target":"present","response":"absent","rt":1272.5,"correct":false,"confidence":1},{"trial_n":134,"min":85,"max":170,"target":"absent","response":"absent","rt":1282.2000000477,"correct":true,"confidence":1},{"trial_n":135,"min":85,"max":170,"target":"present","response":"absent","rt":828.29999995232,"correct":false,"confidence":1},{"trial_n":136,"min":84,"max":171,"target":"absent","response":"absent","rt":740.60000014305,"correct":true,"confidence":1},{"trial_n":137,"min":84,"max":171,"target":"absent","response":"present","rt":964.60000014305,"correct":false,"confidence":1},{"trial_n":138,"min":83,"max":172,"target":"present","response":"present","rt":938.5,"correct":true,"confidence":2},{"trial_n":139,"min":83,"max":172,"target":"present","response":"present","rt":1095.1000001431,"correct":true,"confidence":4},{"trial_n":140,"min":84,"max":171,"target":"present","response":"present","rt":1164.6999998093,"correct":true,"confidence":1}]