[{"trial_n":1,"span":8,"encoder":"64213166","distractor":"64283166","target":"present","response":"absent","rt":"5310.400000006","correct":false,"confidence":-1},{"trial_n":2,"span":6,"encoder":"617824","distractor":"017824","target":"present","response":"present","rt":"3503","correct":true,"confidence":-1},{"trial_n":3,"span":6,"encoder":"160992","distractor":"060992","target":"absent","response":"absent","rt":"1571","correct":true,"confidence":-1},{"trial_n":4,"span":8,"encoder":"54604973","distractor":"54404973","target":"absent","response":"absent","rt":"1912.7999999821","correct":true,"confidence":-1},{"trial_n":5,"span":8,"encoder":"03508052","distractor":"93508052","target":"present","response":"present","rt":"2265.1000000238","correct":true,"confidence":-1},{"trial_n":6,"span":10,"encoder":"6188105871","distractor":"6188105471","target":"absent","response":"present","rt":"1322.7999999821","correct":false,"confidence":-1},{"trial_n":7,"span":8,"encoder":"78275451","distractor":"78277451","target":"present","response":"absent","rt":"1424.3999999762","correct":false,"confidence":-1},{"trial_n":8,"span":6,"encoder":"587481","distractor":"587471","target":"absent","response":"absent","rt":"1929.5","correct":true,"confidence":-1},{"trial_n":9,"span":6,"encoder":"244894","distractor":"244893","target":"present","response":"absent","rt":"1441.5","correct":false,"confidence":-1},{"trial_n":10,"span":4,"encoder":"1698","distractor":"1678","target":"absent","response":"absent","rt":"1195.8999999762","correct":true,"confidence":-1},{"trial_n":11,"span":4,"encoder":"6088","distractor":"6080","target":"present","response":"present","rt":"990.40000000596","correct":true,"confidence":-1},{"trial_n":12,"span":5,"encoder":"97904","distractor":"97902","target":"present","response":"absent","rt":"1107","correct":false,"confidence":-1},{"trial_n":13,"span":4,"encoder":"3865","distractor":"3065","target":"present","response":"present","rt":"770.29999998212","correct":true,"confidence":-1},{"trial_n":14,"span":4,"encoder":"7591","distractor":"4591","target":"absent","response":"absent","rt":"1064.3000000119","correct":true,"confidence":-1},{"trial_n":15,"span":5,"encoder":"21810","distractor":"21818","target":"present","response":"present","rt":"919.5","correct":true,"confidence":-1},{"trial_n":16,"span":5,"encoder":"19299","distractor":"99299","target":"absent","response":"absent","rt":"1039.3000000119","correct":true,"confidence":-1},{"trial_n":17,"span":6,"encoder":"397724","distractor":"397124","target":"absent","response":"absent","rt":"1157","correct":true,"confidence":-1},{"trial_n":18,"span":6,"encoder":"635083","distractor":"635086","target":"absent","response":"present","rt":"1801.6999999881","correct":false,"confidence":-1},{"trial_n":19,"span":5,"encoder":"10356","distractor":"10358","target":"absent","response":"absent","rt":"1670.7999999821","correct":true,"confidence":-1},{"trial_n":20,"span":5,"encoder":"19346","distractor":"19386","target":"absent","response":"absent","rt":"2160.5","correct":true,"confidence":-1},{"trial_n":21,"span":6,"encoder":"971006","distractor":"971005","target":"present","response":"present","rt":"1733.3000000119","correct":true,"confidence":3},{"trial_n":22,"span":6,"encoder":"326554","distractor":"326504","target":"present","response":"absent","rt":"6185.5","correct":false,"confidence":2},{"trial_n":23,"span":5,"encoder":"08468","distractor":"08460","target":"absent","response":"absent","rt":"1769","correct":true,"confidence":3},{"trial_n":24,"span":5,"encoder":"69696","distractor":"69896","target":"present","response":"present","rt":"1169.900000006","correct":true,"confidence":3},{"trial_n":25,"span":6,"encoder":"044215","distractor":"844215","target":"absent","response":"absent","rt":"1153.5","correct":true,"confidence":4},{"trial_n":26,"span":6,"encoder":"191081","distractor":"191011","target":"present","response":"present","rt":"3837.599999994","correct":true,"confidence":3},{"trial_n":27,"span":7,"encoder":"7712969","distractor":"7712169","target":"present","response":"present","rt":"2528.5","correct":true,"confidence":4},{"trial_n":28,"span":7,"encoder":"8834744","distractor":"0834744","target":"present","response":"absent","rt":"5777.1999999881","correct":false,"confidence":2},{"trial_n":29,"span":6,"encoder":"989837","distractor":"989337","target":"absent","response":"absent","rt":"2798","correct":true,"confidence":4},{"trial_n":30,"span":6,"encoder":"053077","distractor":"053007","target":"present","response":"absent","rt":"2341.1999999881","correct":false,"confidence":3},{"trial_n":31,"span":5,"encoder":"42655","distractor":"42615","target":"absent","response":"absent","rt":"1706.1999999881","correct":true,"confidence":5},{"trial_n":32,"span":5,"encoder":"64444","distractor":"64443","target":"present","response":"present","rt":"3363.2999999821","correct":true,"confidence":4},{"trial_n":33,"span":6,"encoder":"603672","distractor":"603072","target":"absent","response":"absent","rt":"2898","correct":true,"confidence":3},{"trial_n":34,"span":6,"encoder":"456073","distractor":"456074","target":"present","response":"present","rt":"2793.599999994","correct":true,"confidence":3},{"trial_n":35,"span":7,"encoder":"5955997","distractor":"5954997","target":"present","response":"present","rt":"2760.7000000179","correct":true,"confidence":3},{"trial_n":36,"span":7,"encoder":"1108807","distractor":"1103807","target":"absent","response":"absent","rt":"2506","correct":true,"confidence":4},{"trial_n":37,"span":8,"encoder":"52379976","distractor":"52379926","target":"present","response":"absent","rt":"4951.8999999762","correct":false,"confidence":2},{"trial_n":38,"span":7,"encoder":"8391301","distractor":"8391307","target":"absent","response":"present","rt":"4223.900000006","correct":false,"confidence":2},{"trial_n":39,"span":6,"encoder":"970802","distractor":"670802","target":"absent","response":"absent","rt":"1462.5","correct":true,"confidence":5},{"trial_n":40,"span":6,"encoder":"255913","distractor":"255917","target":"present","response":"present","rt":"2122.900000006","correct":true,"confidence":4},{"trial_n":41,"span":7,"encoder":"7401831","distractor":"7401031","target":"absent","response":"absent","rt":"1682.400000006","correct":true,"confidence":4},{"trial_n":42,"span":7,"encoder":"1409986","distractor":"1609986","target":"present","response":"present","rt":"3041","correct":true,"confidence":3},{"trial_n":43,"span":8,"encoder":"28372518","distractor":"28172518","target":"present","response":"absent","rt":"4003.3000000119","correct":false,"confidence":2},{"trial_n":44,"span":7,"encoder":"4637214","distractor":"4637210","target":"absent","response":"absent","rt":"2438.400000006","correct":true,"confidence":3},{"trial_n":45,"span":7,"encoder":"1041772","distractor":"1041972","target":"absent","response":"absent","rt":"1987.099999994","correct":true,"confidence":3},{"trial_n":46,"span":8,"encoder":"60868632","distractor":"60868832","target":"absent","response":"present","rt":"2856.2999999821","correct":false,"confidence":4},{"trial_n":47,"span":7,"encoder":"8772889","distractor":"8778889","target":"present","response":"present","rt":"2068.3000000119","correct":true,"confidence":4},{"trial_n":48,"span":7,"encoder":"6947656","distractor":"6947654","target":"present","response":"present","rt":"3611.1000000238","correct":true,"confidence":3},{"trial_n":49,"span":8,"encoder":"02558556","distractor":"01558556","target":"present","response":"present","rt":"4222.2000000179","correct":true,"confidence":3},{"trial_n":50,"span":8,"encoder":"28708960","distractor":"48708960","target":"absent","response":"absent","rt":"8556.3000000119","correct":true,"confidence":3},{"trial_n":51,"span":9,"encoder":"994912257","distractor":"294912257","target":"present","response":"present","rt":"3643.7000000179","correct":true,"confidence":3},{"trial_n":52,"span":9,"encoder":"649570902","distractor":"629570902","target":"absent","response":"present","rt":"3213.3000000119","correct":false,"confidence":3},{"trial_n":53,"span":8,"encoder":"71006921","distractor":"71006951","target":"absent","response":"absent","rt":"2412.8000000119","correct":true,"confidence":3},{"trial_n":54,"span":8,"encoder":"51235220","distractor":"51234220","target":"absent","response":"absent","rt":"1761.099999994","correct":true,"confidence":4},{"trial_n":55,"span":9,"encoder":"879459646","distractor":"879459246","target":"present","response":"present","rt":"3140.7000000179","correct":true,"confidence":2},{"trial_n":56,"span":9,"encoder":"815106731","distractor":"815106031","target":"absent","response":"present","rt":"5313.900000006","correct":false,"confidence":2},{"trial_n":57,"span":8,"encoder":"87046942","distractor":"87026942","target":"present","response":"present","rt":"4897.3000000119","correct":true,"confidence":3},{"trial_n":58,"span":8,"encoder":"36608747","distractor":"56608747","target":"absent","response":"present","rt":"4167.1000000238","correct":false,"confidence":3},{"trial_n":59,"span":7,"encoder":"1793158","distractor":"5793158","target":"absent","response":"present","rt":"5157.3999999762","correct":false,"confidence":2},{"trial_n":60,"span":6,"encoder":"242815","distractor":"242816","target":"absent","response":"absent","rt":"2113.3000000119","correct":true,"confidence":5},{"trial_n":61,"span":6,"encoder":"519259","distractor":"619259","target":"present","response":"present","rt":"3243.8000000119","correct":true,"confidence":4},{"trial_n":62,"span":7,"encoder":"5273050","distractor":"5293050","target":"present","response":"present","rt":"2925.7000000179","correct":true,"confidence":4},{"trial_n":63,"span":7,"encoder":"3744814","distractor":"3704814","target":"absent","response":"absent","rt":"2018.3999999762","correct":true,"confidence":5},{"trial_n":64,"span":8,"encoder":"71370405","distractor":"71379405","target":"present","response":"present","rt":"3346.5","correct":true,"confidence":3},{"trial_n":65,"span":8,"encoder":"59476994","distractor":"59476904","target":"present","response":"present","rt":"3002.099999994","correct":true,"confidence":3},{"trial_n":66,"span":9,"encoder":"601664136","distractor":"601664636","target":"present","response":"present","rt":"4257.5","correct":true,"confidence":4},{"trial_n":67,"span":9,"encoder":"976146617","distractor":"976146677","target":"present","response":"present","rt":"3900.7999999821","correct":true,"confidence":3},{"trial_n":68,"span":10,"encoder":"3149332827","distractor":"3145332827","target":"absent","response":"absent","rt":"4487.1000000238","correct":true,"confidence":3},{"trial_n":69,"span":10,"encoder":"7096839886","distractor":"7056839886","target":"absent","response":"absent","rt":"3166.3000000119","correct":true,"confidence":2},{"trial_n":70,"span":11,"encoder":"12276062088","distractor":"12876062088","target":"present","response":"present","rt":"5606.099999994","correct":true,"confidence":3},{"trial_n":71,"span":8,"encoder":"75321287","distractor":"75321284","target":"present","response":"present","rt":"3315.5","correct":true,"confidence":-1},{"trial_n":72,"span":8,"encoder":"09760752","distractor":"09760152","target":"present","response":"present","rt":"2267.6999999881","correct":true,"confidence":-1},{"trial_n":73,"span":9,"encoder":"483952774","distractor":"483552774","target":"absent","response":"absent","rt":"3975.2999999821","correct":true,"confidence":-1},{"trial_n":74,"span":9,"encoder":"164734542","distractor":"168734542","target":"absent","response":"absent","rt":"2496.6999999881","correct":true,"confidence":-1},{"trial_n":75,"span":10,"encoder":"5776972789","distractor":"8776972789","target":"present","response":"present","rt":"1318.7999999821","correct":true,"confidence":-1},{"trial_n":76,"span":10,"encoder":"0812035073","distractor":"0812035673","target":"absent","response":"absent","rt":"14034.899999976","correct":true,"confidence":-1},{"trial_n":77,"span":11,"encoder":"32390490413","distractor":"32390490433","target":"present","response":"present","rt":"1591.8000000119","correct":true,"confidence":-1},{"trial_n":78,"span":11,"encoder":"19466061990","distractor":"19466068990","target":"absent","response":"absent","rt":"4324.1999999881","correct":true,"confidence":-1},{"trial_n":79,"span":12,"encoder":"757573089864","distractor":"757573089364","target":"absent","response":"absent","rt":"2169","correct":true,"confidence":-1},{"trial_n":80,"span":12,"encoder":"212752626002","distractor":"212752626009","target":"present","response":"absent","rt":"7824","correct":false,"confidence":-1},{"trial_n":81,"span":11,"encoder":"33832517122","distractor":"39832517122","target":"present","response":"absent","rt":"5746.1000000238","correct":false,"confidence":-1},{"trial_n":82,"span":10,"encoder":"6004125278","distractor":"6004125478","target":"absent","response":"present","rt":"5768.2999999821","correct":false,"confidence":-1},{"trial_n":83,"span":9,"encoder":"199174320","distractor":"199171320","target":"absent","response":"absent","rt":"1954.7000000179","correct":true,"confidence":-1},{"trial_n":84,"span":9,"encoder":"611577168","distractor":"611577568","target":"present","response":"present","rt":"5559.5","correct":true,"confidence":-1},{"trial_n":85,"span":10,"encoder":"4847118382","distractor":"0847118382","target":"present","response":"present","rt":"2666.7999999821","correct":true,"confidence":-1},{"trial_n":86,"span":10,"encoder":"2851541435","distractor":"2851441435","target":"present","response":"present","rt":"3155.900000006","correct":true,"confidence":-1},{"trial_n":87,"span":11,"encoder":"48673380887","distractor":"48673380187","target":"present","response":"present","rt":"6803.5","correct":true,"confidence":-1},{"trial_n":88,"span":11,"encoder":"43811802092","distractor":"43811802097","target":"present","response":"present","rt":"1701.099999994","correct":true,"confidence":-1},{"trial_n":89,"span":12,"encoder":"528432833784","distractor":"828432833784","target":"present","response":"absent","rt":"6308.900000006","correct":false,"confidence":-1},{"trial_n":90,"span":11,"encoder":"99969526207","distractor":"99969526307","target":"absent","response":"present","rt":"3979.7000000179","correct":false,"confidence":-1},{"trial_n":91,"span":10,"encoder":"9193145380","distractor":"9163145380","target":"present","response":"present","rt":"2239.6999999881","correct":true,"confidence":4},{"trial_n":92,"span":10,"encoder":"8806758632","distractor":"8806755632","target":"absent","response":"absent","rt":"4547.8000000119","correct":true,"confidence":3},{"trial_n":93,"span":11,"encoder":"31144822788","distractor":"31144829788","target":"absent","response":"absent","rt":"11057.900000006","correct":true,"confidence":3},{"trial_n":94,"span":11,"encoder":"55865797419","distractor":"55765797419","target":"present","response":"present","rt":"6822.6999999881","correct":true,"confidence":3},{"trial_n":95,"span":12,"encoder":"567268907841","distractor":"567268917841","target":"absent","response":"absent","rt":"12379.300000012","correct":true,"confidence":3},{"trial_n":96,"span":12,"encoder":"036966320233","distractor":"036466320233","target":"present","response":"present","rt":"8420.3000000119","correct":true,"confidence":3},{"trial_n":97,"span":13,"encoder":"9795300890935","distractor":"9795300890735","target":"absent","response":"absent","rt":"2114","correct":true,"confidence":5},{"trial_n":98,"span":13,"encoder":"5583846620349","distractor":"5583646620349","target":"absent","response":"present","rt":"12586.299999982","correct":false,"confidence":4},{"trial_n":99,"span":12,"encoder":"330781786135","distractor":"330781716135","target":"absent","response":"absent","rt":"7498.7999999821","correct":true,"confidence":4},{"trial_n":100,"span":12,"encoder":"141927593312","distractor":"145927593312","target":"absent","response":"absent","rt":"1993.2999999821","correct":true,"confidence":5},{"trial_n":101,"span":13,"encoder":"1095839867718","distractor":"1095839867712","target":"present","response":"present","rt":"1749","correct":true,"confidence":5},{"trial_n":102,"span":13,"encoder":"4234099297815","distractor":"4234099287815","target":"absent","response":"present","rt":"10434","correct":false,"confidence":2},{"trial_n":103,"span":12,"encoder":"556264880929","distractor":"556264880129","target":"absent","response":"absent","rt":"11853.800000012","correct":true,"confidence":3},{"trial_n":104,"span":12,"encoder":"164183795221","distractor":"164183795226","target":"present","response":"present","rt":"5317.8999999762","correct":true,"confidence":5},{"trial_n":105,"span":13,"encoder":"3444833227293","distractor":"3444733227293","target":"absent","response":"absent","rt":"11450.700000018","correct":true,"confidence":2},{"trial_n":106,"span":13,"encoder":"6044603055516","distractor":"6044703055516","target":"present","response":"present","rt":"12495.299999982","correct":true,"confidence":2},{"trial_n":107,"span":14,"encoder":"66309903258823","distractor":"66309903258825","target":"absent","response":"absent","rt":"6121.6999999881","correct":true,"confidence":4},{"trial_n":108,"span":14,"encoder":"27868998688671","distractor":"27868998688641","target":"present","response":"present","rt":"2018.7999999821","correct":true,"confidence":5},{"trial_n":109,"span":15,"encoder":"759219512742424","distractor":"759219512742427","target":"present","response":"present","rt":"3542.3999999762","correct":true,"confidence":4},{"trial_n":110,"span":15,"encoder":"948301600665823","distractor":"946301600665823","target":"present","response":"absent","rt":"7853.1999999881","correct":false,"confidence":3},{"trial_n":111,"span":14,"encoder":"18146959939731","distractor":"14146959939731","target":"absent","response":"absent","rt":"6578.1000000238","correct":true,"confidence":3},{"trial_n":112,"span":14,"encoder":"24831124249717","distractor":"84831124249717","target":"present","response":"present","rt":"7452.400000006","correct":true,"confidence":3},{"trial_n":113,"span":15,"encoder":"078951712275974","distractor":"078951712275774","target":"present","response":"present","rt":"2951.3000000119","correct":true,"confidence":5},{"trial_n":114,"span":15,"encoder":"984648032995927","distractor":"984648032999927","target":"present","response":"absent","rt":"5047.5","correct":false,"confidence":3},{"trial_n":115,"span":14,"encoder":"50535911839882","distractor":"50735911839882","target":"absent","response":"present","rt":"9894.099999994","correct":false,"confidence":3},{"trial_n":116,"span":13,"encoder":"1455394488040","distractor":"1455399488040","target":"present","response":"present","rt":"4067.599999994","correct":true,"confidence":4},{"trial_n":117,"span":13,"encoder":"9407955666715","distractor":"9407955661715","target":"present","response":"absent","rt":"2793.8000000119","correct":false,"confidence":4},{"trial_n":118,"span":12,"encoder":"012636816559","distractor":"212636816559","target":"present","response":"absent","rt":"11479.099999994","correct":false,"confidence":3},{"trial_n":119,"span":11,"encoder":"05201926966","distractor":"05501926966","target":"present","response":"present","rt":"5137.099999994","correct":true,"confidence":3},{"trial_n":120,"span":11,"encoder":"03228680728","distractor":"03228280728","target":"absent","response":"absent","rt":"14928.5","correct":true,"confidence":2},{"trial_n":121,"span":12,"encoder":"883247892562","distractor":"883241892562","target":"absent","response":"present","rt":"12209.900000006","correct":false,"confidence":3},{"trial_n":122,"span":11,"encoder":"35007769677","distractor":"35003769677","target":"absent","response":"present","rt":"14080.699999988","correct":false,"confidence":3},{"trial_n":123,"span":10,"encoder":"6271156004","distractor":"6971156004","target":"absent","response":"present","rt":"7022.5","correct":false,"confidence":3},{"trial_n":124,"span":9,"encoder":"759695156","distractor":"759691156","target":"present","response":"present","rt":"2124","correct":true,"confidence":4},{"trial_n":125,"span":9,"encoder":"950152792","distractor":"950155792","target":"absent","response":"present","rt":"4053.6999999881","correct":false,"confidence":4},{"trial_n":126,"span":8,"encoder":"41914634","distractor":"41934634","target":"absent","response":"absent","rt":"5148","correct":true,"confidence":4},{"trial_n":127,"span":8,"encoder":"21558188","distractor":"41558188","target":"present","response":"present","rt":"4718","correct":true,"confidence":4},{"trial_n":128,"span":9,"encoder":"658545703","distractor":"658545903","target":"present","response":"present","rt":"6043.400000006","correct":true,"confidence":3},{"trial_n":129,"span":9,"encoder":"328088137","distractor":"328888137","target":"absent","response":"absent","rt":"3581.5","correct":true,"confidence":5},{"trial_n":130,"span":10,"encoder":"9382236073","distractor":"9382236773","target":"present","response":"present","rt":"2277","correct":true,"confidence":4},{"trial_n":131,"span":10,"encoder":"2082017422","distractor":"2082016422","target":"present","response":"present","rt":"4418.5","correct":true,"confidence":4},{"trial_n":132,"span":11,"encoder":"65410208472","distractor":"65410202472","target":"absent","response":"absent","rt":"5202.5","correct":true,"confidence":4},{"trial_n":133,"span":11,"encoder":"08153295920","distractor":"08153298920","target":"absent","response":"absent","rt":"4551","correct":true,"confidence":3},{"trial_n":134,"span":12,"encoder":"415307484975","distractor":"415301484975","target":"absent","response":"present","rt":"7374.1000000238","correct":false,"confidence":3},{"trial_n":135,"span":11,"encoder":"97598554319","distractor":"97598554313","target":"present","response":"present","rt":"3034.7999999821","correct":true,"confidence":5},{"trial_n":136,"span":11,"encoder":"71624742423","distractor":"71624742453","target":"absent","response":"absent","rt":"8613.3000000119","correct":true,"confidence":3},{"trial_n":137,"span":12,"encoder":"174442202275","distractor":"174447202275","target":"absent","response":"absent","rt":"9648.5","correct":true,"confidence":3},{"trial_n":138,"span":12,"encoder":"507405220776","distractor":"507405270776","target":"present","response":"present","rt":"4348.5","correct":true,"confidence":4},{"trial_n":139,"span":13,"encoder":"1541316418955","distractor":"1541316418954","target":"present","response":"present","rt":"1846","correct":true,"confidence":5},{"trial_n":140,"span":13,"encoder":"1982044671291","distractor":"1982040671291","target":"absent","response":"present","rt":"10953.400000006","correct":false,"confidence":2}]