[{"trial_n":1,"n_dots":4.25,"target":"left","response":"left","rt":4956.400000006,"correct":true,"confidence":-1},{"trial_n":2,"n_dots":4.25,"target":"left","response":"left","rt":496.10000002384,"correct":true,"confidence":-1},{"trial_n":3,"n_dots":3.85,"target":"right","response":"right","rt":359.80000001192,"correct":true,"confidence":-1},{"trial_n":4,"n_dots":3.85,"target":"right","response":"right","rt":432.19999998808,"correct":true,"confidence":-1},{"trial_n":5,"n_dots":3.45,"target":"right","response":"right","rt":291.20000001788,"correct":true,"confidence":-1},{"trial_n":6,"n_dots":3.45,"target":"right","response":"right","rt":308.69999998808,"correct":true,"confidence":-1},{"trial_n":7,"n_dots":3.05,"target":"left","response":"left","rt":569,"correct":true,"confidence":-1},{"trial_n":8,"n_dots":3.05,"target":"left","response":"left","rt":259.70000001788,"correct":true,"confidence":-1},{"trial_n":9,"n_dots":2.85,"target":"left","response":"left","rt":322.40000000596,"correct":true,"confidence":-1},{"trial_n":10,"n_dots":2.85,"target":"left","response":"left","rt":301.10000002384,"correct":true,"confidence":-1},{"trial_n":11,"n_dots":2.65,"target":"left","response":"left","rt":473.80000001192,"correct":true,"confidence":-1},{"trial_n":12,"n_dots":2.65,"target":"left","response":"left","rt":457.40000000596,"correct":true,"confidence":-1},{"trial_n":13,"n_dots":2.55,"target":"left","response":"left","rt":412.80000001192,"correct":true,"confidence":-1},{"trial_n":14,"n_dots":2.55,"target":"left","response":"left","rt":268,"correct":true,"confidence":-1},{"trial_n":15,"n_dots":2.45,"target":"right","response":"right","rt":588.5,"correct":true,"confidence":-1},{"trial_n":16,"n_dots":2.45,"target":"left","response":"right","rt":325.5,"correct":false,"confidence":-1},{"trial_n":17,"n_dots":2.55,"target":"left","response":"right","rt":342.90000000596,"correct":false,"confidence":-1},{"trial_n":18,"n_dots":2.65,"target":"left","response":"right","rt":380.20000001788,"correct":false,"confidence":-1},{"trial_n":19,"n_dots":2.75,"target":"right","response":"left","rt":246.40000000596,"correct":false,"confidence":-1},{"trial_n":20,"n_dots":2.85,"target":"left","response":"right","rt":197.70000001788,"correct":false,"confidence":-1},{"trial_n":21,"n_dots":2.95,"target":"right","response":"left","rt":367,"correct":false,"confidence":2},{"trial_n":22,"n_dots":3.05,"target":"left","response":"left","rt":652.69999998808,"correct":true,"confidence":3},{"trial_n":23,"n_dots":3.05,"target":"left","response":"left","rt":477.70000001788,"correct":true,"confidence":2},{"trial_n":24,"n_dots":2.95,"target":"right","response":"right","rt":456.40000000596,"correct":true,"confidence":3},{"trial_n":25,"n_dots":2.95,"target":"right","response":"left","rt":676.09999999404,"correct":false,"confidence":3},{"trial_n":26,"n_dots":3.05,"target":"right","response":"left","rt":492.90000000596,"correct":false,"confidence":4},{"trial_n":27,"n_dots":3.15,"target":"left","response":"left","rt":499.90000000596,"correct":true,"confidence":3},{"trial_n":28,"n_dots":3.15,"target":"right","response":"left","rt":933,"correct":false,"confidence":3},{"trial_n":29,"n_dots":3.25,"target":"left","response":"left","rt":830.19999998808,"correct":true,"confidence":3},{"trial_n":30,"n_dots":3.25,"target":"left","response":"left","rt":767.30000001192,"correct":true,"confidence":2},{"trial_n":31,"n_dots":3.15,"target":"right","response":"right","rt":547.19999998808,"correct":true,"confidence":2},{"trial_n":32,"n_dots":3.15,"target":"right","response":"left","rt":308.40000000596,"correct":false,"confidence":2},{"trial_n":33,"n_dots":3.25,"target":"right","response":"right","rt":277.59999999404,"correct":true,"confidence":4},{"trial_n":34,"n_dots":3.25,"target":"left","response":"left","rt":455.09999999404,"correct":true,"confidence":4},{"trial_n":35,"n_dots":3.15,"target":"left","response":"right","rt":582.59999999404,"correct":false,"confidence":3},{"trial_n":36,"n_dots":3.25,"target":"right","response":"right","rt":611.59999999404,"correct":true,"confidence":4},{"trial_n":37,"n_dots":3.25,"target":"left","response":"right","rt":437.59999999404,"correct":false,"confidence":3},{"trial_n":38,"n_dots":3.35,"target":"left","response":"left","rt":376.19999998808,"correct":true,"confidence":3},{"trial_n":39,"n_dots":3.35,"target":"right","response":"right","rt":479.90000000596,"correct":true,"confidence":4},{"trial_n":40,"n_dots":3.25,"target":"left","response":"left","rt":293,"correct":true,"confidence":3},{"trial_n":41,"n_dots":3.25,"target":"left","response":"left","rt":330.40000000596,"correct":true,"confidence":3},{"trial_n":42,"n_dots":3.15,"target":"right","response":"right","rt":481.80000001192,"correct":true,"confidence":2},{"trial_n":43,"n_dots":3.15,"target":"right","response":"right","rt":250.80000001192,"correct":true,"confidence":4},{"trial_n":44,"n_dots":3.05,"target":"left","response":"left","rt":342.5,"correct":true,"confidence":2},{"trial_n":45,"n_dots":3.05,"target":"left","response":"left","rt":590.30000001192,"correct":true,"confidence":3},{"trial_n":46,"n_dots":2.95,"target":"right","response":"right","rt":534,"correct":true,"confidence":3},{"trial_n":47,"n_dots":2.95,"target":"right","response":"right","rt":333.5,"correct":true,"confidence":3},{"trial_n":48,"n_dots":2.85,"target":"left","response":"right","rt":526.5,"correct":false,"confidence":3},{"trial_n":49,"n_dots":2.95,"target":"left","response":"left","rt":258.59999999404,"correct":true,"confidence":2},{"trial_n":50,"n_dots":2.95,"target":"right","response":"left","rt":497.29999998212,"correct":false,"confidence":3},{"trial_n":51,"n_dots":3.05,"target":"left","response":"left","rt":269.90000000596,"correct":true,"confidence":3},{"trial_n":52,"n_dots":3.05,"target":"left","response":"right","rt":467.90000000596,"correct":false,"confidence":3},{"trial_n":53,"n_dots":3.15,"target":"right","response":"right","rt":282.19999998808,"correct":true,"confidence":3},{"trial_n":54,"n_dots":3.15,"target":"right","response":"right","rt":307,"correct":true,"confidence":4},{"trial_n":55,"n_dots":3.05,"target":"right","response":"right","rt":322.59999999404,"correct":true,"confidence":4},{"trial_n":56,"n_dots":3.05,"target":"right","response":"left","rt":378,"correct":false,"confidence":3},{"trial_n":57,"n_dots":3.15,"target":"left","response":"left","rt":270,"correct":true,"confidence":5},{"trial_n":58,"n_dots":3.15,"target":"left","response":"left","rt":282.5,"correct":true,"confidence":5},{"trial_n":59,"n_dots":3.05,"target":"left","response":"left","rt":415.5,"correct":true,"confidence":3},{"trial_n":60,"n_dots":3.05,"target":"right","response":"left","rt":547.5,"correct":false,"confidence":2},{"trial_n":61,"n_dots":3.15,"target":"right","response":"left","rt":116.19999998808,"correct":false,"confidence":3},{"trial_n":62,"n_dots":3.25,"target":"right","response":"right","rt":218,"correct":true,"confidence":4},{"trial_n":63,"n_dots":3.25,"target":"left","response":"left","rt":283.20000001788,"correct":true,"confidence":4},{"trial_n":64,"n_dots":3.15,"target":"left","response":"left","rt":329.69999998808,"correct":true,"confidence":3},{"trial_n":65,"n_dots":3.15,"target":"left","response":"left","rt":580.5,"correct":true,"confidence":2},{"trial_n":66,"n_dots":3.05,"target":"right","response":"right","rt":288.59999999404,"correct":true,"confidence":4},{"trial_n":67,"n_dots":3.05,"target":"right","response":"right","rt":388.30000001192,"correct":true,"confidence":4},{"trial_n":68,"n_dots":2.95,"target":"right","response":"right","rt":1216.2000000179,"correct":true,"confidence":3},{"trial_n":69,"n_dots":2.95,"target":"left","response":"left","rt":206.30000001192,"correct":true,"confidence":4},{"trial_n":70,"n_dots":2.85,"target":"right","response":"right","rt":300.90000000596,"correct":true,"confidence":3},{"trial_n":71,"n_dots":2.85,"target":"right","response":"right","rt":360.30000001192,"correct":true,"confidence":5},{"trial_n":72,"n_dots":2.75,"target":"right","response":"right","rt":586.09999999404,"correct":true,"confidence":4},{"trial_n":73,"n_dots":2.75,"target":"right","response":"right","rt":287.90000000596,"correct":true,"confidence":5},{"trial_n":74,"n_dots":2.65,"target":"right","response":"right","rt":327.59999999404,"correct":true,"confidence":4},{"trial_n":75,"n_dots":2.65,"target":"right","response":"right","rt":268,"correct":true,"confidence":4},{"trial_n":76,"n_dots":2.55,"target":"right","response":"right","rt":312.09999999404,"correct":true,"confidence":3},{"trial_n":77,"n_dots":2.55,"target":"right","response":"right","rt":342.40000000596,"correct":true,"confidence":4},{"trial_n":78,"n_dots":2.45,"target":"left","response":"left","rt":254.09999999404,"correct":true,"confidence":4},{"trial_n":79,"n_dots":2.45,"target":"right","response":"right","rt":507.30000001192,"correct":true,"confidence":4},{"trial_n":80,"n_dots":2.35,"target":"left","response":"left","rt":607.30000001192,"correct":true,"confidence":2},{"trial_n":81,"n_dots":2.35,"target":"right","response":"right","rt":455.10000002384,"correct":true,"confidence":2},{"trial_n":82,"n_dots":2.25,"target":"left","response":"left","rt":261.40000000596,"correct":true,"confidence":3},{"trial_n":83,"n_dots":2.25,"target":"right","response":"right","rt":653,"correct":true,"confidence":2},{"trial_n":84,"n_dots":2.15,"target":"right","response":"right","rt":457.20000001788,"correct":true,"confidence":4},{"trial_n":85,"n_dots":2.15,"target":"right","response":"right","rt":288.5,"correct":true,"confidence":4},{"trial_n":86,"n_dots":2.05,"target":"right","response":"right","rt":267.80000001192,"correct":true,"confidence":4},{"trial_n":87,"n_dots":2.05,"target":"left","response":"right","rt":722.80000001192,"correct":false,"confidence":2},{"trial_n":88,"n_dots":2.15,"target":"right","response":"right","rt":686.59999999404,"correct":true,"confidence":2},{"trial_n":89,"n_dots":2.15,"target":"left","response":"left","rt":312.69999998808,"correct":true,"confidence":3},{"trial_n":90,"n_dots":2.05,"target":"right","response":"right","rt":501.19999998808,"correct":true,"confidence":2},{"trial_n":91,"n_dots":2.05,"target":"left","response":"left","rt":216.90000000596,"correct":true,"confidence":3},{"trial_n":92,"n_dots":1.95,"target":"left","response":"left","rt":363.70000001788,"correct":true,"confidence":3},{"trial_n":93,"n_dots":1.95,"target":"left","response":"left","rt":238.30000001192,"correct":true,"confidence":4},{"trial_n":94,"n_dots":1.85,"target":"left","response":"left","rt":508.70000001788,"correct":true,"confidence":2},{"trial_n":95,"n_dots":1.85,"target":"right","response":"right","rt":569.80000001192,"correct":true,"confidence":2},{"trial_n":96,"n_dots":1.75,"target":"right","response":"right","rt":259.20000001788,"correct":true,"confidence":2},{"trial_n":97,"n_dots":1.75,"target":"left","response":"left","rt":488,"correct":true,"confidence":3},{"trial_n":98,"n_dots":1.65,"target":"left","response":"right","rt":519.09999999404,"correct":false,"confidence":2},{"trial_n":99,"n_dots":1.75,"target":"left","response":"right","rt":404.40000000596,"correct":false,"confidence":3},{"trial_n":100,"n_dots":1.85,"target":"right","response":"left","rt":593.80000001192,"correct":false,"confidence":4},{"trial_n":101,"n_dots":1.95,"target":"right","response":"right","rt":423.30000001192,"correct":true,"confidence":3},{"trial_n":102,"n_dots":1.95,"target":"right","response":"left","rt":323.40000000596,"correct":false,"confidence":4},{"trial_n":103,"n_dots":2.05,"target":"left","response":"left","rt":527.30000001192,"correct":true,"confidence":3},{"trial_n":104,"n_dots":2.05,"target":"right","response":"right","rt":607.09999999404,"correct":true,"confidence":3},{"trial_n":105,"n_dots":1.95,"target":"left","response":"right","rt":420.5,"correct":false,"confidence":4},{"trial_n":106,"n_dots":2.05,"target":"left","response":"right","rt":346.70000001788,"correct":false,"confidence":4},{"trial_n":107,"n_dots":2.15,"target":"left","response":"right","rt":367.20000001788,"correct":false,"confidence":4},{"trial_n":108,"n_dots":2.25,"target":"right","response":"right","rt":600.80000001192,"correct":true,"confidence":3},{"trial_n":109,"n_dots":2.25,"target":"right","response":"left","rt":471.19999998808,"correct":false,"confidence":3},{"trial_n":110,"n_dots":2.35,"target":"right","response":"left","rt":1242.1999999881,"correct":false,"confidence":3},{"trial_n":111,"n_dots":2.45,"target":"left","response":"left","rt":342.79999998212,"correct":true,"confidence":3},{"trial_n":112,"n_dots":2.45,"target":"left","response":"right","rt":260.29999998212,"correct":false,"confidence":3},{"trial_n":113,"n_dots":2.55,"target":"right","response":"left","rt":326.5,"correct":false,"confidence":3},{"trial_n":114,"n_dots":2.65,"target":"left","response":"right","rt":312.40000000596,"correct":false,"confidence":2},{"trial_n":115,"n_dots":2.75,"target":"right","response":"right","rt":351.90000000596,"correct":true,"confidence":2},{"trial_n":116,"n_dots":2.75,"target":"left","response":"left","rt":351,"correct":true,"confidence":3},{"trial_n":117,"n_dots":2.65,"target":"right","response":"right","rt":389.30000001192,"correct":true,"confidence":4},{"trial_n":118,"n_dots":2.65,"target":"left","response":"left","rt":609.40000000596,"correct":true,"confidence":3},{"trial_n":119,"n_dots":2.55,"target":"left","response":"left","rt":724.69999998808,"correct":true,"confidence":3},{"trial_n":120,"n_dots":2.55,"target":"right","response":"right","rt":299.70000001788,"correct":true,"confidence":3}]