[{"trial_n":1,"span":8,"encoder":"90269912","distractor":"90269919","target":"present","response":"present","rt":"3424.6000001431","correct":true,"confidence":-1},{"trial_n":2,"span":8,"encoder":"40702723","distractor":"40502723","target":"present","response":"absent","rt":"2202.7000000477","correct":false,"confidence":-1},{"trial_n":3,"span":6,"encoder":"985324","distractor":"985424","target":"absent","response":"absent","rt":"3159.5","correct":true,"confidence":-1},{"trial_n":4,"span":6,"encoder":"280028","distractor":"280628","target":"absent","response":"absent","rt":"1691.2000000477","correct":true,"confidence":-1},{"trial_n":5,"span":8,"encoder":"86162086","distractor":"86162082","target":"present","response":"present","rt":"2309.1999998093","correct":true,"confidence":-1},{"trial_n":6,"span":8,"encoder":"48059313","distractor":"38059313","target":"absent","response":"present","rt":"2592.0999999046","correct":false,"confidence":-1},{"trial_n":7,"span":6,"encoder":"418308","distractor":"458308","target":"present","response":"present","rt":"7085.5","correct":true,"confidence":-1},{"trial_n":8,"span":6,"encoder":"972459","distractor":"932459","target":"present","response":"present","rt":"2368.3999998569","correct":true,"confidence":-1},{"trial_n":9,"span":8,"encoder":"92978393","distractor":"96978393","target":"present","response":"present","rt":"1561.5999999046","correct":true,"confidence":-1},{"trial_n":10,"span":8,"encoder":"97927239","distractor":"97922239","target":"absent","response":"absent","rt":"2256.6000001431","correct":true,"confidence":-1},{"trial_n":11,"span":10,"encoder":"5614706448","distractor":"5614776448","target":"present","response":"present","rt":"1536.4000000954","correct":true,"confidence":-1},{"trial_n":12,"span":10,"encoder":"4195137400","distractor":"4195137410","target":"present","response":"present","rt":"1835.3000001907","correct":true,"confidence":-1},{"trial_n":13,"span":11,"encoder":"00276946061","distractor":"00279946061","target":"present","response":"present","rt":"1995.9000000954","correct":true,"confidence":-1},{"trial_n":14,"span":11,"encoder":"85287188701","distractor":"85287188401","target":"present","response":"present","rt":"1239.5","correct":true,"confidence":-1},{"trial_n":15,"span":12,"encoder":"192302098026","distractor":"192502098026","target":"absent","response":"absent","rt":"3156.2999999523","correct":true,"confidence":-1},{"trial_n":16,"span":12,"encoder":"160516818186","distractor":"160526818186","target":"present","response":"present","rt":"1612.9000000954","correct":true,"confidence":-1},{"trial_n":17,"span":13,"encoder":"7455313688512","distractor":"7456313688512","target":"absent","response":"absent","rt":"7569.5","correct":true,"confidence":-1},{"trial_n":18,"span":13,"encoder":"9251525700913","distractor":"9251525770913","target":"absent","response":"absent","rt":"37870.299999952","correct":true,"confidence":-1},{"trial_n":19,"span":14,"encoder":"15863518693682","distractor":"15863518493682","target":"present","response":"present","rt":"1163.9000000954","correct":true,"confidence":-1},{"trial_n":20,"span":14,"encoder":"39811366625050","distractor":"39819366625050","target":"absent","response":"present","rt":"1414.2999999523","correct":false,"confidence":-1},{"trial_n":21,"span":13,"encoder":"9566115218423","distractor":"8566115218423","target":"present","response":"present","rt":"3974","correct":true,"confidence":3},{"trial_n":22,"span":13,"encoder":"9576036526473","distractor":"9556036526473","target":"present","response":"present","rt":"2220.9000000954","correct":true,"confidence":3},{"trial_n":23,"span":14,"encoder":"89001220145002","distractor":"89001220146002","target":"absent","response":"present","rt":"5456.5","correct":false,"confidence":3},{"trial_n":24,"span":13,"encoder":"8776027855087","distractor":"8736027855087","target":"absent","response":"absent","rt":"4539.5","correct":true,"confidence":4},{"trial_n":25,"span":13,"encoder":"1189076365454","distractor":"1189076365654","target":"absent","response":"present","rt":"4268.4000000954","correct":false,"confidence":3},{"trial_n":26,"span":12,"encoder":"295742664771","distractor":"295742624771","target":"absent","response":"absent","rt":"4275.5999999046","correct":true,"confidence":5},{"trial_n":27,"span":12,"encoder":"645983273907","distractor":"645983273507","target":"absent","response":"present","rt":"2373.9000000954","correct":false,"confidence":2},{"trial_n":28,"span":11,"encoder":"24056663090","distractor":"24156663090","target":"absent","response":"present","rt":"2698.0999999046","correct":false,"confidence":3},{"trial_n":29,"span":10,"encoder":"3854608789","distractor":"3854618789","target":"absent","response":"present","rt":"2100.4000000954","correct":false,"confidence":3},{"trial_n":30,"span":9,"encoder":"650464880","distractor":"650764880","target":"present","response":"absent","rt":"56046","correct":false,"confidence":1},{"trial_n":31,"span":8,"encoder":"31424089","distractor":"31464089","target":"present","response":"present","rt":"2214.9000000954","correct":true,"confidence":5},{"trial_n":32,"span":8,"encoder":"35418779","distractor":"30418779","target":"absent","response":"present","rt":"2338.7999999523","correct":false,"confidence":5},{"trial_n":33,"span":7,"encoder":"1633475","distractor":"1633477","target":"present","response":"present","rt":"4328","correct":true,"confidence":4},{"trial_n":34,"span":7,"encoder":"0661824","distractor":"0761824","target":"absent","response":"absent","rt":"2475.4000000954","correct":true,"confidence":5},{"trial_n":35,"span":8,"encoder":"96167813","distractor":"76167813","target":"present","response":"present","rt":"17085.299999952","correct":true,"confidence":2},{"trial_n":36,"span":8,"encoder":"83073037","distractor":"83073077","target":"present","response":"present","rt":"2442.5","correct":true,"confidence":3},{"trial_n":37,"span":9,"encoder":"032143278","distractor":"082143278","target":"present","response":"present","rt":"5454.7000000477","correct":true,"confidence":3},{"trial_n":38,"span":9,"encoder":"928275379","distractor":"958275379","target":"present","response":"present","rt":"3665","correct":true,"confidence":3},{"trial_n":39,"span":10,"encoder":"5297917581","distractor":"5299917581","target":"present","response":"present","rt":"2259.0999999046","correct":true,"confidence":3},{"trial_n":40,"span":10,"encoder":"3461634420","distractor":"3461684420","target":"absent","response":"present","rt":"2029.6999998093","correct":false,"confidence":3},{"trial_n":41,"span":9,"encoder":"060569048","distractor":"060569044","target":"absent","response":"absent","rt":"2235.2999999523","correct":true,"confidence":2},{"trial_n":42,"span":9,"encoder":"463891787","distractor":"463891780","target":"absent","response":"absent","rt":"2091.2999999523","correct":true,"confidence":2},{"trial_n":43,"span":10,"encoder":"6743633425","distractor":"6753633425","target":"absent","response":"present","rt":"3336.2000000477","correct":false,"confidence":2},{"trial_n":44,"span":9,"encoder":"932656323","distractor":"932656363","target":"present","response":"present","rt":"3198.5999999046","correct":true,"confidence":2},{"trial_n":45,"span":9,"encoder":"660292154","distractor":"860292154","target":"absent","response":"absent","rt":"2587.7000000477","correct":true,"confidence":5},{"trial_n":46,"span":10,"encoder":"7725481390","distractor":"7720481390","target":"absent","response":"present","rt":"3693.4000000954","correct":false,"confidence":3},{"trial_n":47,"span":9,"encoder":"643564176","distractor":"643564170","target":"absent","response":"absent","rt":"2285.5","correct":true,"confidence":5},{"trial_n":48,"span":9,"encoder":"499393956","distractor":"499399956","target":"present","response":"absent","rt":"4198.4000000954","correct":false,"confidence":1},{"trial_n":49,"span":8,"encoder":"22412213","distractor":"22412113","target":"present","response":"present","rt":"2322.1000001431","correct":true,"confidence":3},{"trial_n":50,"span":8,"encoder":"52424758","distractor":"52424358","target":"present","response":"present","rt":"2507.3999998569","correct":true,"confidence":3},{"trial_n":51,"span":9,"encoder":"008674884","distractor":"088674884","target":"absent","response":"present","rt":"2435.2000000477","correct":false,"confidence":3},{"trial_n":52,"span":8,"encoder":"73707822","distractor":"73787822","target":"present","response":"present","rt":"2846.0999999046","correct":true,"confidence":3},{"trial_n":53,"span":8,"encoder":"95460137","distractor":"75460137","target":"present","response":"present","rt":"2500.2999999523","correct":true,"confidence":3},{"trial_n":54,"span":9,"encoder":"328048659","distractor":"328048359","target":"present","response":"present","rt":"1841.2999999523","correct":true,"confidence":3},{"trial_n":55,"span":9,"encoder":"998291182","distractor":"998291132","target":"absent","response":"absent","rt":"3018.2999999523","correct":true,"confidence":2},{"trial_n":56,"span":10,"encoder":"1411379295","distractor":"1411979295","target":"absent","response":"present","rt":"2065.4000000954","correct":false,"confidence":3},{"trial_n":57,"span":9,"encoder":"306900215","distractor":"305900215","target":"present","response":"present","rt":"1742.5","correct":true,"confidence":3},{"trial_n":58,"span":9,"encoder":"503425746","distractor":"503425743","target":"present","response":"present","rt":"3329","correct":true,"confidence":3},{"trial_n":59,"span":10,"encoder":"3301986487","distractor":"3302986487","target":"absent","response":"absent","rt":"3525.7999999523","correct":true,"confidence":1},{"trial_n":60,"span":10,"encoder":"6733425336","distractor":"6733625336","target":"absent","response":"present","rt":"2363.5","correct":false,"confidence":3},{"trial_n":61,"span":9,"encoder":"789852234","distractor":"787852234","target":"absent","response":"present","rt":"1687","correct":false,"confidence":3},{"trial_n":62,"span":8,"encoder":"91201190","distractor":"91201194","target":"present","response":"absent","rt":"5595","correct":false,"confidence":3},{"trial_n":63,"span":7,"encoder":"9155634","distractor":"9155234","target":"present","response":"present","rt":"1922.9000000954","correct":true,"confidence":4},{"trial_n":64,"span":7,"encoder":"7437855","distractor":"7427855","target":"absent","response":"absent","rt":"2375.6000001431","correct":true,"confidence":2},{"trial_n":65,"span":8,"encoder":"93363397","distractor":"93763397","target":"present","response":"present","rt":"6674.1999998093","correct":true,"confidence":3},{"trial_n":66,"span":8,"encoder":"95129332","distractor":"95329332","target":"absent","response":"present","rt":"2781.2000000477","correct":false,"confidence":1},{"trial_n":67,"span":7,"encoder":"8523587","distractor":"4523587","target":"absent","response":"present","rt":"1685.5999999046","correct":false,"confidence":3},{"trial_n":68,"span":6,"encoder":"299618","distractor":"499618","target":"absent","response":"absent","rt":"3234.3000001907","correct":true,"confidence":5},{"trial_n":69,"span":6,"encoder":"674502","distractor":"674402","target":"present","response":"present","rt":"1998","correct":true,"confidence":3},{"trial_n":70,"span":7,"encoder":"7700380","distractor":"7790380","target":"present","response":"present","rt":"4584.7999999523","correct":true,"confidence":3},{"trial_n":71,"span":8,"encoder":"65714416","distractor":"65784416","target":"present","response":"present","rt":"4791.5","correct":true,"confidence":-1},{"trial_n":72,"span":8,"encoder":"29256564","distractor":"23256564","target":"present","response":"present","rt":"2498.9000000954","correct":true,"confidence":-1},{"trial_n":73,"span":9,"encoder":"007818170","distractor":"007818180","target":"absent","response":"absent","rt":"1444","correct":true,"confidence":-1},{"trial_n":74,"span":9,"encoder":"348351387","distractor":"345351387","target":"absent","response":"absent","rt":"1462.4000000954","correct":true,"confidence":-1},{"trial_n":75,"span":10,"encoder":"5353721821","distractor":"5353721828","target":"present","response":"present","rt":"2432.5","correct":true,"confidence":-1},{"trial_n":76,"span":10,"encoder":"8430686448","distractor":"8430681448","target":"absent","response":"absent","rt":"2260.7999999523","correct":true,"confidence":-1},{"trial_n":77,"span":11,"encoder":"64617041926","distractor":"64618041926","target":"present","response":"present","rt":"1803.2000000477","correct":true,"confidence":-1},{"trial_n":78,"span":11,"encoder":"44994143814","distractor":"44994146814","target":"present","response":"present","rt":"1228.7000000477","correct":true,"confidence":-1},{"trial_n":79,"span":12,"encoder":"026813667126","distractor":"026819667126","target":"present","response":"absent","rt":"883","correct":false,"confidence":-1},{"trial_n":80,"span":11,"encoder":"93345827356","distractor":"03345827356","target":"absent","response":"absent","rt":"3851.7999999523","correct":true,"confidence":-1},{"trial_n":81,"span":11,"encoder":"31862033859","distractor":"31762033859","target":"present","response":"present","rt":"1284.8999998569","correct":true,"confidence":-1},{"trial_n":82,"span":12,"encoder":"920654692296","distractor":"920654693296","target":"absent","response":"absent","rt":"1254.9000000954","correct":true,"confidence":-1},{"trial_n":83,"span":12,"encoder":"406283739922","distractor":"406273739922","target":"present","response":"absent","rt":"1453","correct":false,"confidence":-1},{"trial_n":84,"span":11,"encoder":"55168585928","distractor":"55168585228","target":"absent","response":"present","rt":"891.70000004768","correct":false,"confidence":-1},{"trial_n":85,"span":10,"encoder":"4611305729","distractor":"4611303729","target":"present","response":"absent","rt":"1496.0999999046","correct":false,"confidence":-1},{"trial_n":86,"span":9,"encoder":"795465908","distractor":"795465998","target":"present","response":"present","rt":"2299.0999999046","correct":true,"confidence":-1},{"trial_n":87,"span":9,"encoder":"415596093","distractor":"415596023","target":"present","response":"present","rt":"2320.8999998569","correct":true,"confidence":-1},{"trial_n":88,"span":10,"encoder":"7308947498","distractor":"7308943498","target":"present","response":"absent","rt":"3788","correct":false,"confidence":-1},{"trial_n":89,"span":9,"encoder":"611381381","distractor":"611381081","target":"present","response":"present","rt":"75793.900000095","correct":true,"confidence":-1},{"trial_n":90,"span":9,"encoder":"261419575","distractor":"261419075","target":"present","response":"present","rt":"3249.5","correct":true,"confidence":-1},{"trial_n":91,"span":10,"encoder":"2531670375","distractor":"2539670375","target":"present","response":"present","rt":"3029.3000001907","correct":true,"confidence":1},{"trial_n":92,"span":10,"encoder":"1461584914","distractor":"1461784914","target":"absent","response":"absent","rt":"5540.3999998569","correct":true,"confidence":5},{"trial_n":93,"span":11,"encoder":"93219740097","distractor":"93719740097","target":"present","response":"absent","rt":"11687.5","correct":false,"confidence":2},{"trial_n":94,"span":10,"encoder":"6603001321","distractor":"6653001321","target":"present","response":"absent","rt":"6065.2999999523","correct":false,"confidence":1},{"trial_n":95,"span":9,"encoder":"674281665","distractor":"774281665","target":"present","response":"present","rt":"4652","correct":true,"confidence":2},{"trial_n":96,"span":9,"encoder":"025037450","distractor":"025033450","target":"absent","response":"absent","rt":"2689.3999998569","correct":true,"confidence":3},{"trial_n":97,"span":10,"encoder":"3435870311","distractor":"3435873311","target":"absent","response":"absent","rt":"2347.5999999046","correct":true,"confidence":1},{"trial_n":98,"span":10,"encoder":"4313340126","distractor":"0313340126","target":"absent","response":"present","rt":"3607.4000000954","correct":false,"confidence":3},{"trial_n":99,"span":9,"encoder":"361677984","distractor":"361677884","target":"present","response":"absent","rt":"5045.8000001907","correct":false,"confidence":3},{"trial_n":100,"span":8,"encoder":"19662807","distractor":"19662847","target":"present","response":"absent","rt":"6199.8000001907","correct":false,"confidence":2},{"trial_n":101,"span":7,"encoder":"8266511","distractor":"8266911","target":"present","response":"present","rt":"5722.1000001431","correct":true,"confidence":1},{"trial_n":102,"span":7,"encoder":"4519378","distractor":"4529378","target":"absent","response":"present","rt":"5889.5999999046","correct":false,"confidence":1},{"trial_n":103,"span":6,"encoder":"859112","distractor":"659112","target":"present","response":"present","rt":"3670","correct":true,"confidence":5},{"trial_n":104,"span":6,"encoder":"207176","distractor":"207146","target":"present","response":"present","rt":"3461.4000000954","correct":true,"confidence":1},{"trial_n":105,"span":7,"encoder":"2955850","distractor":"2995850","target":"absent","response":"absent","rt":"8198.3999998569","correct":true,"confidence":5},{"trial_n":106,"span":7,"encoder":"4108901","distractor":"5108901","target":"present","response":"absent","rt":"4680.5","correct":false,"confidence":3},{"trial_n":107,"span":6,"encoder":"468972","distractor":"438972","target":"absent","response":"absent","rt":"2312.9000000954","correct":true,"confidence":5},{"trial_n":108,"span":6,"encoder":"562994","distractor":"562996","target":"present","response":"present","rt":"1785.7000000477","correct":true,"confidence":5},{"trial_n":109,"span":7,"encoder":"7415657","distractor":"7495657","target":"absent","response":"present","rt":"5070","correct":false,"confidence":4},{"trial_n":110,"span":6,"encoder":"814142","distractor":"814542","target":"absent","response":"absent","rt":"2584.8999998569","correct":true,"confidence":2},{"trial_n":111,"span":6,"encoder":"884805","distractor":"884802","target":"absent","response":"absent","rt":"2700.8999998569","correct":true,"confidence":2},{"trial_n":112,"span":7,"encoder":"8639887","distractor":"8639884","target":"absent","response":"absent","rt":"2693","correct":true,"confidence":5},{"trial_n":113,"span":7,"encoder":"1557516","distractor":"1657516","target":"absent","response":"absent","rt":"4202.7000000477","correct":true,"confidence":2},{"trial_n":114,"span":8,"encoder":"64093097","distractor":"64023097","target":"absent","response":"absent","rt":"3489.7999999523","correct":true,"confidence":2},{"trial_n":115,"span":8,"encoder":"00718568","distractor":"00718598","target":"present","response":"present","rt":"2813.5999999046","correct":true,"confidence":1},{"trial_n":116,"span":9,"encoder":"865865602","distractor":"565865602","target":"absent","response":"present","rt":"1717.2999999523","correct":false,"confidence":1},{"trial_n":117,"span":8,"encoder":"22632904","distractor":"22632907","target":"absent","response":"present","rt":"3832.7999999523","correct":false,"confidence":3},{"trial_n":118,"span":7,"encoder":"3338151","distractor":"3328151","target":"absent","response":"absent","rt":"2329.0999999046","correct":true,"confidence":4},{"trial_n":119,"span":7,"encoder":"2577338","distractor":"2579338","target":"absent","response":"absent","rt":"5696","correct":true,"confidence":2},{"trial_n":120,"span":8,"encoder":"22294385","distractor":"22094385","target":"absent","response":"absent","rt":"3220.4000000954","correct":true,"confidence":3},{"trial_n":121,"span":8,"encoder":"88543152","distractor":"88573152","target":"present","response":"present","rt":"3551.3999998569","correct":true,"confidence":1},{"trial_n":122,"span":9,"encoder":"846227882","distractor":"846727882","target":"absent","response":"absent","rt":"3396.8000001907","correct":true,"confidence":1},{"trial_n":123,"span":9,"encoder":"508221751","distractor":"508226751","target":"present","response":"present","rt":"2507.8999998569","correct":true,"confidence":3},{"trial_n":124,"span":10,"encoder":"3542892594","distractor":"3542893594","target":"absent","response":"present","rt":"7837.5999999046","correct":false,"confidence":1},{"trial_n":125,"span":9,"encoder":"268731757","distractor":"268701757","target":"absent","response":"present","rt":"4791.3999998569","correct":false,"confidence":1},{"trial_n":126,"span":8,"encoder":"53058299","distractor":"53058279","target":"present","response":"absent","rt":"2138.5","correct":false,"confidence":1},{"trial_n":127,"span":7,"encoder":"5977748","distractor":"5977718","target":"present","response":"absent","rt":"3205.5","correct":false,"confidence":3},{"trial_n":128,"span":6,"encoder":"423285","distractor":"423215","target":"absent","response":"absent","rt":"27364.299999952","correct":true,"confidence":1},{"trial_n":129,"span":6,"encoder":"046889","distractor":"036889","target":"present","response":"present","rt":"2663.5","correct":true,"confidence":5},{"trial_n":130,"span":7,"encoder":"8288736","distractor":"8228736","target":"absent","response":"absent","rt":"3972.7000000477","correct":true,"confidence":5},{"trial_n":131,"span":7,"encoder":"9723833","distractor":"9773833","target":"present","response":"present","rt":"5149.5","correct":true,"confidence":1},{"trial_n":132,"span":8,"encoder":"77744663","distractor":"77344663","target":"present","response":"present","rt":"5623.2000000477","correct":true,"confidence":5},{"trial_n":133,"span":8,"encoder":"77662758","distractor":"77662778","target":"absent","response":"absent","rt":"4592.7000000477","correct":true,"confidence":1},{"trial_n":134,"span":9,"encoder":"858444003","distractor":"858414003","target":"present","response":"absent","rt":"4384.8999998569","correct":false,"confidence":3},{"trial_n":135,"span":8,"encoder":"01181940","distractor":"01181941","target":"absent","response":"absent","rt":"2986.7999999523","correct":true,"confidence":1},{"trial_n":136,"span":8,"encoder":"55272444","distractor":"55292444","target":"absent","response":"absent","rt":"5600.5999999046","correct":true,"confidence":1},{"trial_n":137,"span":9,"encoder":"977656668","distractor":"927656668","target":"absent","response":"present","rt":"5134.1000001431","correct":false,"confidence":2},{"trial_n":138,"span":8,"encoder":"21714148","distractor":"21814148","target":"present","response":"present","rt":"16726.200000048","correct":true,"confidence":1},{"trial_n":139,"span":8,"encoder":"45855924","distractor":"45855424","target":"absent","response":"present","rt":"7451.0999999046","correct":false,"confidence":2},{"trial_n":140,"span":7,"encoder":"1467837","distractor":"1467836","target":"present","response":"present","rt":"2611.5","correct":true,"confidence":4}]