[{"trial_n":1,"min":25,"max":230,"target":"present","response":"absent","rt":8123,"correct":false,"confidence":-1},{"trial_n":2,"min":25,"max":230,"target":"present","response":"present","rt":3241.4000000358,"correct":true,"confidence":-1},{"trial_n":3,"min":25,"max":230,"target":"absent","response":"absent","rt":838.19999998808,"correct":true,"confidence":-1},{"trial_n":4,"min":41,"max":214,"target":"absent","response":"absent","rt":521.5,"correct":true,"confidence":-1},{"trial_n":5,"min":41,"max":214,"target":"present","response":"present","rt":476.19999998808,"correct":true,"confidence":-1},{"trial_n":6,"min":57,"max":198,"target":"absent","response":"absent","rt":415.39999997616,"correct":true,"confidence":-1},{"trial_n":7,"min":57,"max":198,"target":"present","response":"present","rt":491.69999998808,"correct":true,"confidence":-1},{"trial_n":8,"min":73,"max":182,"target":"present","response":"absent","rt":555.40000003576,"correct":false,"confidence":-1},{"trial_n":9,"min":57,"max":198,"target":"present","response":"present","rt":505.5,"correct":true,"confidence":-1},{"trial_n":10,"min":57,"max":198,"target":"absent","response":"absent","rt":526,"correct":true,"confidence":-1},{"trial_n":11,"min":65,"max":190,"target":"present","response":"present","rt":475.5,"correct":true,"confidence":-1},{"trial_n":12,"min":65,"max":190,"target":"present","response":"present","rt":512.59999996424,"correct":true,"confidence":-1},{"trial_n":13,"min":73,"max":182,"target":"present","response":"present","rt":508.09999996424,"correct":true,"confidence":-1},{"trial_n":14,"min":73,"max":182,"target":"absent","response":"absent","rt":402.10000002384,"correct":true,"confidence":-1},{"trial_n":15,"min":81,"max":174,"target":"present","response":"absent","rt":464.5,"correct":false,"confidence":-1},{"trial_n":16,"min":73,"max":182,"target":"absent","response":"present","rt":539.5,"correct":false,"confidence":-1},{"trial_n":17,"min":65,"max":190,"target":"absent","response":"absent","rt":494.30000001192,"correct":true,"confidence":-1},{"trial_n":18,"min":65,"max":190,"target":"present","response":"present","rt":484.09999996424,"correct":true,"confidence":-1},{"trial_n":19,"min":73,"max":182,"target":"absent","response":"absent","rt":100,"correct":true,"confidence":-1},{"trial_n":20,"min":73,"max":182,"target":"absent","response":"absent","rt":711,"correct":true,"confidence":-1},{"trial_n":21,"min":77,"max":178,"target":"present","response":"present","rt":568.40000003576,"correct":true,"confidence":4},{"trial_n":22,"min":77,"max":178,"target":"present","response":"present","rt":382.19999998808,"correct":true,"confidence":4},{"trial_n":23,"min":81,"max":174,"target":"absent","response":"absent","rt":372.30000001192,"correct":true,"confidence":5},{"trial_n":24,"min":81,"max":174,"target":"present","response":"present","rt":653.40000003576,"correct":true,"confidence":3},{"trial_n":25,"min":85,"max":170,"target":"absent","response":"absent","rt":840.79999995232,"correct":true,"confidence":4},{"trial_n":26,"min":85,"max":170,"target":"absent","response":"absent","rt":476,"correct":true,"confidence":4},{"trial_n":27,"min":89,"max":166,"target":"absent","response":"present","rt":1429.8000000119,"correct":false,"confidence":3},{"trial_n":28,"min":85,"max":170,"target":"present","response":"present","rt":480.20000004768,"correct":true,"confidence":2},{"trial_n":29,"min":85,"max":170,"target":"absent","response":"absent","rt":449.39999997616,"correct":true,"confidence":4},{"trial_n":30,"min":89,"max":166,"target":"present","response":"present","rt":203.30000001192,"correct":true,"confidence":4},{"trial_n":31,"min":89,"max":166,"target":"present","response":"absent","rt":1474,"correct":false,"confidence":3},{"trial_n":32,"min":87,"max":168,"target":"present","response":"present","rt":659.30000001192,"correct":true,"confidence":2},{"trial_n":33,"min":87,"max":168,"target":"absent","response":"absent","rt":397.20000004768,"correct":true,"confidence":4},{"trial_n":34,"min":89,"max":166,"target":"present","response":"absent","rt":513,"correct":false,"confidence":3},{"trial_n":35,"min":87,"max":168,"target":"absent","response":"absent","rt":696.19999998808,"correct":true,"confidence":4},{"trial_n":36,"min":87,"max":168,"target":"absent","response":"absent","rt":342,"correct":true,"confidence":4},{"trial_n":37,"min":89,"max":166,"target":"absent","response":"absent","rt":367.59999996424,"correct":true,"confidence":4},{"trial_n":38,"min":89,"max":166,"target":"absent","response":"present","rt":987.69999998808,"correct":false,"confidence":2},{"trial_n":39,"min":87,"max":168,"target":"present","response":"absent","rt":633.30000001192,"correct":false,"confidence":3},{"trial_n":40,"min":85,"max":170,"target":"absent","response":"absent","rt":407.90000003576,"correct":true,"confidence":3},{"trial_n":41,"min":85,"max":170,"target":"present","response":"present","rt":794.69999998808,"correct":true,"confidence":4},{"trial_n":42,"min":86,"max":169,"target":"absent","response":"absent","rt":368.30000001192,"correct":true,"confidence":4},{"trial_n":43,"min":86,"max":169,"target":"present","response":"absent","rt":798.30000001192,"correct":false,"confidence":3},{"trial_n":44,"min":85,"max":170,"target":"absent","response":"present","rt":340.20000004768,"correct":false,"confidence":4},{"trial_n":45,"min":84,"max":171,"target":"absent","response":"absent","rt":539.90000003576,"correct":true,"confidence":4},{"trial_n":46,"min":84,"max":171,"target":"present","response":"present","rt":451.69999998808,"correct":true,"confidence":5},{"trial_n":47,"min":85,"max":170,"target":"absent","response":"absent","rt":394.5,"correct":true,"confidence":4},{"trial_n":48,"min":85,"max":170,"target":"present","response":"present","rt":423.5,"correct":true,"confidence":5},{"trial_n":49,"min":86,"max":169,"target":"present","response":"present","rt":506.40000003576,"correct":true,"confidence":5},{"trial_n":50,"min":86,"max":169,"target":"absent","response":"absent","rt":634.30000001192,"correct":true,"confidence":2},{"trial_n":51,"min":87,"max":168,"target":"present","response":"present","rt":357.69999998808,"correct":true,"confidence":4},{"trial_n":52,"min":87,"max":168,"target":"absent","response":"present","rt":923.69999998808,"correct":false,"confidence":3},{"trial_n":53,"min":86,"max":169,"target":"present","response":"present","rt":336.19999998808,"correct":true,"confidence":5},{"trial_n":54,"min":86,"max":169,"target":"present","response":"present","rt":368.59999996424,"correct":true,"confidence":5},{"trial_n":55,"min":87,"max":168,"target":"present","response":"present","rt":412.30000001192,"correct":true,"confidence":5},{"trial_n":56,"min":87,"max":168,"target":"present","response":"present","rt":460.10000002384,"correct":true,"confidence":4},{"trial_n":57,"min":88,"max":167,"target":"present","response":"present","rt":493.39999997616,"correct":true,"confidence":4},{"trial_n":58,"min":88,"max":167,"target":"present","response":"present","rt":603.69999998808,"correct":true,"confidence":3},{"trial_n":59,"min":89,"max":166,"target":"present","response":"present","rt":397.59999996424,"correct":true,"confidence":4},{"trial_n":60,"min":89,"max":166,"target":"absent","response":"present","rt":562.90000003576,"correct":false,"confidence":4},{"trial_n":61,"min":88,"max":167,"target":"absent","response":"present","rt":501.80000001192,"correct":false,"confidence":4},{"trial_n":62,"min":87,"max":168,"target":"absent","response":"absent","rt":932.80000001192,"correct":true,"confidence":2},{"trial_n":63,"min":87,"max":168,"target":"absent","response":"absent","rt":325,"correct":true,"confidence":4},{"trial_n":64,"min":88,"max":167,"target":"absent","response":"absent","rt":930.19999998808,"correct":true,"confidence":4},{"trial_n":65,"min":88,"max":167,"target":"absent","response":"absent","rt":451,"correct":true,"confidence":4},{"trial_n":66,"min":89,"max":166,"target":"present","response":"present","rt":647.69999998808,"correct":true,"confidence":3},{"trial_n":67,"min":89,"max":166,"target":"absent","response":"present","rt":1884.6000000238,"correct":false,"confidence":2},{"trial_n":68,"min":88,"max":167,"target":"present","response":"present","rt":398,"correct":true,"confidence":4},{"trial_n":69,"min":88,"max":167,"target":"present","response":"present","rt":239.40000003576,"correct":true,"confidence":4},{"trial_n":70,"min":89,"max":166,"target":"absent","response":"absent","rt":929.19999998808,"correct":true,"confidence":2},{"trial_n":71,"min":41,"max":214,"target":"present","response":"present","rt":2706.9000000358,"correct":true,"confidence":-1},{"trial_n":72,"min":41,"max":214,"target":"present","response":"present","rt":1273.6999999881,"correct":true,"confidence":-1},{"trial_n":73,"min":57,"max":198,"target":"absent","response":"absent","rt":611.70000004768,"correct":true,"confidence":-1},{"trial_n":74,"min":57,"max":198,"target":"absent","response":"absent","rt":720.30000001192,"correct":true,"confidence":-1},{"trial_n":75,"min":73,"max":182,"target":"present","response":"present","rt":470.09999996424,"correct":true,"confidence":-1},{"trial_n":76,"min":73,"max":182,"target":"present","response":"present","rt":519.09999996424,"correct":true,"confidence":-1},{"trial_n":77,"min":89,"max":166,"target":"absent","response":"absent","rt":1338.2000000477,"correct":true,"confidence":-1},{"trial_n":78,"min":89,"max":166,"target":"present","response":"present","rt":414.69999998808,"correct":true,"confidence":-1},{"trial_n":79,"min":105,"max":150,"target":"absent","response":"present","rt":757.89999997616,"correct":false,"confidence":-1},{"trial_n":80,"min":89,"max":166,"target":"absent","response":"absent","rt":1042.1000000238,"correct":true,"confidence":-1},{"trial_n":81,"min":89,"max":166,"target":"absent","response":"present","rt":849.69999998808,"correct":false,"confidence":-1},{"trial_n":82,"min":81,"max":174,"target":"present","response":"present","rt":766.80000001192,"correct":true,"confidence":-1},{"trial_n":83,"min":81,"max":174,"target":"absent","response":"absent","rt":646.80000001192,"correct":true,"confidence":-1},{"trial_n":84,"min":89,"max":166,"target":"present","response":"present","rt":698.5,"correct":true,"confidence":-1},{"trial_n":85,"min":89,"max":166,"target":"absent","response":"absent","rt":786,"correct":true,"confidence":-1},{"trial_n":86,"min":97,"max":158,"target":"present","response":"present","rt":741.10000002384,"correct":true,"confidence":-1},{"trial_n":87,"min":97,"max":158,"target":"present","response":"present","rt":763.60000002384,"correct":true,"confidence":-1},{"trial_n":88,"min":105,"max":150,"target":"present","response":"present","rt":477.09999996424,"correct":true,"confidence":-1},{"trial_n":89,"min":105,"max":150,"target":"absent","response":"present","rt":553.40000003576,"correct":false,"confidence":-1},{"trial_n":90,"min":97,"max":158,"target":"absent","response":"absent","rt":586,"correct":true,"confidence":-1},{"trial_n":91,"min":97,"max":158,"target":"absent","response":"present","rt":773.19999998808,"correct":false,"confidence":3},{"trial_n":92,"min":93,"max":162,"target":"absent","response":"present","rt":570.40000003576,"correct":false,"confidence":2},{"trial_n":93,"min":89,"max":166,"target":"absent","response":"absent","rt":1557,"correct":true,"confidence":2},{"trial_n":94,"min":89,"max":166,"target":"present","response":"present","rt":634,"correct":true,"confidence":3},{"trial_n":95,"min":93,"max":162,"target":"absent","response":"absent","rt":804.89999997616,"correct":true,"confidence":3},{"trial_n":96,"min":93,"max":162,"target":"absent","response":"present","rt":702.80000001192,"correct":false,"confidence":2},{"trial_n":97,"min":89,"max":166,"target":"present","response":"present","rt":468.19999998808,"correct":true,"confidence":4},{"trial_n":98,"min":89,"max":166,"target":"absent","response":"present","rt":789.5,"correct":false,"confidence":2},{"trial_n":99,"min":85,"max":170,"target":"absent","response":"absent","rt":981.5,"correct":true,"confidence":3},{"trial_n":100,"min":85,"max":170,"target":"present","response":"present","rt":763.19999998808,"correct":true,"confidence":3},{"trial_n":101,"min":87,"max":168,"target":"present","response":"present","rt":323.30000001192,"correct":true,"confidence":4},{"trial_n":102,"min":87,"max":168,"target":"absent","response":"present","rt":586.60000002384,"correct":false,"confidence":3},{"trial_n":103,"min":85,"max":170,"target":"present","response":"present","rt":611.89999997616,"correct":true,"confidence":4},{"trial_n":104,"min":85,"max":170,"target":"present","response":"present","rt":1277,"correct":true,"confidence":2},{"trial_n":105,"min":87,"max":168,"target":"absent","response":"absent","rt":1240.6000000238,"correct":true,"confidence":2},{"trial_n":106,"min":87,"max":168,"target":"present","response":"present","rt":371.60000002384,"correct":true,"confidence":4},{"trial_n":107,"min":89,"max":166,"target":"present","response":"present","rt":521,"correct":true,"confidence":4},{"trial_n":108,"min":89,"max":166,"target":"present","response":"present","rt":494,"correct":true,"confidence":4},{"trial_n":109,"min":91,"max":164,"target":"present","response":"absent","rt":651.60000002384,"correct":false,"confidence":2},{"trial_n":110,"min":89,"max":166,"target":"absent","response":"absent","rt":1095.1000000238,"correct":true,"confidence":3},{"trial_n":111,"min":89,"max":166,"target":"absent","response":"present","rt":997.19999998808,"correct":false,"confidence":2},{"trial_n":112,"min":88,"max":167,"target":"present","response":"present","rt":210.20000004768,"correct":true,"confidence":4},{"trial_n":113,"min":88,"max":167,"target":"present","response":"absent","rt":684.89999997616,"correct":false,"confidence":2},{"trial_n":114,"min":87,"max":168,"target":"present","response":"present","rt":629,"correct":true,"confidence":3},{"trial_n":115,"min":87,"max":168,"target":"present","response":"present","rt":421.09999996424,"correct":true,"confidence":3},{"trial_n":116,"min":88,"max":167,"target":"absent","response":"present","rt":371.30000001192,"correct":false,"confidence":3},{"trial_n":117,"min":87,"max":168,"target":"absent","response":"absent","rt":619.09999996424,"correct":true,"confidence":4},{"trial_n":118,"min":87,"max":168,"target":"absent","response":"present","rt":568.80000001192,"correct":false,"confidence":4},{"trial_n":119,"min":86,"max":169,"target":"absent","response":"present","rt":168.5,"correct":false,"confidence":4},{"trial_n":120,"min":85,"max":170,"target":"present","response":"present","rt":479,"correct":true,"confidence":4},{"trial_n":121,"min":85,"max":170,"target":"present","response":"present","rt":566.90000003576,"correct":true,"confidence":3},{"trial_n":122,"min":86,"max":169,"target":"present","response":"present","rt":183.89999997616,"correct":true,"confidence":3},{"trial_n":123,"min":86,"max":169,"target":"present","response":"present","rt":188.69999998808,"correct":true,"confidence":4},{"trial_n":124,"min":87,"max":168,"target":"absent","response":"absent","rt":415.10000002384,"correct":true,"confidence":3},{"trial_n":125,"min":87,"max":168,"target":"present","response":"present","rt":313.79999995232,"correct":true,"confidence":4},{"trial_n":126,"min":88,"max":167,"target":"present","response":"present","rt":1884.5,"correct":true,"confidence":3},{"trial_n":127,"min":88,"max":167,"target":"absent","response":"absent","rt":997.5,"correct":true,"confidence":2},{"trial_n":128,"min":89,"max":166,"target":"present","response":"present","rt":413.19999998808,"correct":true,"confidence":4},{"trial_n":129,"min":89,"max":166,"target":"absent","response":"absent","rt":968.39999997616,"correct":true,"confidence":5},{"trial_n":130,"min":90,"max":165,"target":"absent","response":"absent","rt":852.79999995232,"correct":true,"confidence":2},{"trial_n":131,"min":90,"max":165,"target":"present","response":"present","rt":839.80000001192,"correct":true,"confidence":2},{"trial_n":132,"min":91,"max":164,"target":"present","response":"present","rt":213.80000001192,"correct":true,"confidence":4},{"trial_n":133,"min":91,"max":164,"target":"present","response":"present","rt":287.5,"correct":true,"confidence":4},{"trial_n":134,"min":92,"max":163,"target":"absent","response":"absent","rt":730,"correct":true,"confidence":3},{"trial_n":135,"min":92,"max":163,"target":"absent","response":"present","rt":450.5,"correct":false,"confidence":2},{"trial_n":136,"min":91,"max":164,"target":"absent","response":"absent","rt":570,"correct":true,"confidence":3},{"trial_n":137,"min":91,"max":164,"target":"absent","response":"absent","rt":539.80000001192,"correct":true,"confidence":4},{"trial_n":138,"min":92,"max":163,"target":"absent","response":"absent","rt":1183.1999999881,"correct":true,"confidence":3},{"trial_n":139,"min":92,"max":163,"target":"present","response":"present","rt":178.20000004768,"correct":true,"confidence":4},{"trial_n":140,"min":93,"max":162,"target":"present","response":"present","rt":1013.4000000358,"correct":true,"confidence":2}]