[{"trial_n":1,"span":8,"encoder":"37045137","distractor":"39045137","target":"present","response":"present","rt":"7313","correct":true,"confidence":-1},{"trial_n":2,"span":8,"encoder":"23878309","distractor":"23868309","target":"present","response":"absent","rt":"1390","correct":false,"confidence":-1},{"trial_n":3,"span":6,"encoder":"125096","distractor":"925096","target":"absent","response":"absent","rt":"1398","correct":true,"confidence":-1},{"trial_n":4,"span":6,"encoder":"664830","distractor":"164830","target":"absent","response":"absent","rt":"1283","correct":true,"confidence":-1},{"trial_n":5,"span":8,"encoder":"45752807","distractor":"45752809","target":"present","response":"present","rt":"2374","correct":true,"confidence":-1},{"trial_n":6,"span":8,"encoder":"95077001","distractor":"95047001","target":"present","response":"present","rt":"2291","correct":true,"confidence":-1},{"trial_n":7,"span":10,"encoder":"9444609240","distractor":"9444659240","target":"absent","response":"absent","rt":"1934","correct":true,"confidence":-1},{"trial_n":8,"span":10,"encoder":"6101386944","distractor":"6101386943","target":"present","response":"present","rt":"1568.9999999999","correct":true,"confidence":-1},{"trial_n":9,"span":12,"encoder":"238551310446","distractor":"218551310446","target":"absent","response":"absent","rt":"1536","correct":true,"confidence":-1},{"trial_n":10,"span":12,"encoder":"166606981178","distractor":"166602981178","target":"present","response":"present","rt":"1787","correct":true,"confidence":-1},{"trial_n":11,"span":14,"encoder":"39279926072085","distractor":"39279926072081","target":"present","response":"present","rt":"1308","correct":true,"confidence":-1},{"trial_n":12,"span":14,"encoder":"86599868151002","distractor":"86599868154002","target":"absent","response":"present","rt":"2663","correct":false,"confidence":-1},{"trial_n":13,"span":13,"encoder":"1009254727336","distractor":"1000254727336","target":"absent","response":"present","rt":"2012.0000000001","correct":false,"confidence":-1},{"trial_n":14,"span":12,"encoder":"022809356147","distractor":"022809356143","target":"present","response":"present","rt":"1182","correct":true,"confidence":-1},{"trial_n":15,"span":12,"encoder":"049411537852","distractor":"049411537752","target":"absent","response":"absent","rt":"3163","correct":true,"confidence":-1},{"trial_n":16,"span":13,"encoder":"1912792230536","distractor":"1902792230536","target":"absent","response":"present","rt":"1318.9999999999","correct":false,"confidence":-1},{"trial_n":17,"span":12,"encoder":"552911235792","distractor":"552921235792","target":"absent","response":"present","rt":"822","correct":false,"confidence":-1},{"trial_n":18,"span":11,"encoder":"85521068982","distractor":"25521068982","target":"present","response":"present","rt":"1218","correct":true,"confidence":-1},{"trial_n":19,"span":11,"encoder":"49774262197","distractor":"49774263197","target":"present","response":"present","rt":"2427","correct":true,"confidence":-1},{"trial_n":20,"span":12,"encoder":"695542899001","distractor":"695542899901","target":"present","response":"present","rt":"2192.9999999999","correct":true,"confidence":-1},{"trial_n":21,"span":12,"encoder":"905216770054","distractor":"905216770954","target":"present","response":"present","rt":"3989","correct":true,"confidence":1},{"trial_n":22,"span":13,"encoder":"9529042348325","distractor":"9529842348325","target":"absent","response":"present","rt":"3467.0000000001","correct":false,"confidence":3},{"trial_n":23,"span":12,"encoder":"517887147260","distractor":"517817147260","target":"absent","response":"present","rt":"2113","correct":false,"confidence":3},{"trial_n":24,"span":11,"encoder":"13068999084","distractor":"13068299084","target":"present","response":"present","rt":"2450","correct":true,"confidence":4},{"trial_n":25,"span":11,"encoder":"52201947088","distractor":"52201947048","target":"absent","response":"absent","rt":"1753.9999999999","correct":true,"confidence":5},{"trial_n":26,"span":12,"encoder":"286719528629","distractor":"280719528629","target":"present","response":"absent","rt":"4690","correct":false,"confidence":3},{"trial_n":27,"span":11,"encoder":"85023769083","distractor":"85023369083","target":"absent","response":"present","rt":"2374","correct":false,"confidence":3},{"trial_n":28,"span":10,"encoder":"1583737063","distractor":"1583837063","target":"present","response":"present","rt":"2360","correct":true,"confidence":3},{"trial_n":29,"span":10,"encoder":"0702644231","distractor":"0702648231","target":"absent","response":"present","rt":"3534.9999999999","correct":false,"confidence":3},{"trial_n":30,"span":9,"encoder":"713004596","distractor":"713005596","target":"absent","response":"absent","rt":"4071","correct":true,"confidence":4},{"trial_n":31,"span":9,"encoder":"575448278","distractor":"575428278","target":"present","response":"absent","rt":"3260.9999999999","correct":false,"confidence":4},{"trial_n":32,"span":8,"encoder":"87709246","distractor":"87709244","target":"absent","response":"absent","rt":"4348","correct":true,"confidence":4},{"trial_n":33,"span":8,"encoder":"00496836","distractor":"60496836","target":"present","response":"present","rt":"3582","correct":true,"confidence":4},{"trial_n":34,"span":9,"encoder":"797552726","distractor":"797512726","target":"present","response":"present","rt":"2350.9999999999","correct":true,"confidence":3},{"trial_n":35,"span":9,"encoder":"183439314","distractor":"183433314","target":"present","response":"present","rt":"2268.0000000001","correct":true,"confidence":3},{"trial_n":36,"span":10,"encoder":"0530395445","distractor":"0530395444","target":"absent","response":"absent","rt":"2043","correct":true,"confidence":5},{"trial_n":37,"span":10,"encoder":"5444323196","distractor":"5744323196","target":"present","response":"present","rt":"2747","correct":true,"confidence":5},{"trial_n":38,"span":11,"encoder":"05035601162","distractor":"05035601172","target":"absent","response":"present","rt":"3589","correct":false,"confidence":3},{"trial_n":39,"span":10,"encoder":"3865691249","distractor":"3863691249","target":"absent","response":"present","rt":"2581","correct":false,"confidence":3},{"trial_n":40,"span":9,"encoder":"918634215","distractor":"918234215","target":"absent","response":"absent","rt":"3085","correct":true,"confidence":4},{"trial_n":41,"span":9,"encoder":"892814813","distractor":"812814813","target":"absent","response":"absent","rt":"3859","correct":true,"confidence":3},{"trial_n":42,"span":10,"encoder":"0412578031","distractor":"0492578031","target":"present","response":"present","rt":"3331","correct":true,"confidence":4},{"trial_n":43,"span":10,"encoder":"3327142388","distractor":"3327145388","target":"absent","response":"absent","rt":"3602","correct":true,"confidence":3},{"trial_n":44,"span":11,"encoder":"36070916541","distractor":"36570916541","target":"present","response":"present","rt":"4930","correct":true,"confidence":4},{"trial_n":45,"span":11,"encoder":"21317769305","distractor":"21317869305","target":"present","response":"present","rt":"2010.0000000002","correct":true,"confidence":3},{"trial_n":46,"span":12,"encoder":"581793435578","distractor":"581763435578","target":"present","response":"present","rt":"3946","correct":true,"confidence":2},{"trial_n":47,"span":12,"encoder":"742921360295","distractor":"742921369295","target":"present","response":"present","rt":"2595","correct":true,"confidence":4},{"trial_n":48,"span":13,"encoder":"5770967641418","distractor":"5770967641318","target":"absent","response":"absent","rt":"4659","correct":true,"confidence":5},{"trial_n":49,"span":13,"encoder":"7973385169024","distractor":"7973385167024","target":"absent","response":"absent","rt":"3536","correct":true,"confidence":5},{"trial_n":50,"span":14,"encoder":"35255602520848","distractor":"35255602220848","target":"absent","response":"absent","rt":"2002","correct":true,"confidence":1},{"trial_n":51,"span":14,"encoder":"06972189398671","distractor":"06972189396671","target":"present","response":"absent","rt":"3295","correct":false,"confidence":4},{"trial_n":52,"span":13,"encoder":"2617715564098","distractor":"2618715564098","target":"present","response":"absent","rt":"3776.0000000002","correct":false,"confidence":3},{"trial_n":53,"span":12,"encoder":"347612457063","distractor":"347612477063","target":"absent","response":"absent","rt":"2526","correct":true,"confidence":3},{"trial_n":54,"span":12,"encoder":"124433389010","distractor":"124433386010","target":"absent","response":"present","rt":"2869.9999999998","correct":false,"confidence":3},{"trial_n":55,"span":11,"encoder":"50354388070","distractor":"50354383070","target":"present","response":"present","rt":"3499","correct":true,"confidence":3},{"trial_n":56,"span":11,"encoder":"10251801813","distractor":"10252801813","target":"absent","response":"present","rt":"2016","correct":false,"confidence":3},{"trial_n":57,"span":10,"encoder":"6433529521","distractor":"6433529581","target":"absent","response":"present","rt":"4368","correct":false,"confidence":3},{"trial_n":58,"span":9,"encoder":"032730883","distractor":"032700883","target":"present","response":"present","rt":"3782","correct":true,"confidence":4},{"trial_n":59,"span":9,"encoder":"395825528","distractor":"395825828","target":"present","response":"present","rt":"2166","correct":true,"confidence":3},{"trial_n":60,"span":10,"encoder":"3217855075","distractor":"3217856075","target":"present","response":"present","rt":"3191.0000000002","correct":true,"confidence":3},{"trial_n":61,"span":10,"encoder":"8218406258","distractor":"8218406288","target":"present","response":"present","rt":"1369","correct":true,"confidence":3},{"trial_n":62,"span":11,"encoder":"62360056952","distractor":"62300056952","target":"absent","response":"absent","rt":"1929","correct":true,"confidence":2},{"trial_n":63,"span":11,"encoder":"35482488984","distractor":"35482485984","target":"present","response":"present","rt":"3235","correct":true,"confidence":4},{"trial_n":64,"span":12,"encoder":"746724177211","distractor":"746724177611","target":"absent","response":"absent","rt":"2537","correct":true,"confidence":4},{"trial_n":65,"span":12,"encoder":"035623913031","distractor":"035623913030","target":"absent","response":"present","rt":"3558","correct":false,"confidence":3},{"trial_n":66,"span":11,"encoder":"03675967853","distractor":"03685967853","target":"present","response":"present","rt":"3664","correct":true,"confidence":2},{"trial_n":67,"span":11,"encoder":"98664019735","distractor":"99664019735","target":"present","response":"present","rt":"3861","correct":true,"confidence":2},{"trial_n":68,"span":12,"encoder":"579540893221","distractor":"579540873221","target":"absent","response":"present","rt":"2001","correct":false,"confidence":2},{"trial_n":69,"span":11,"encoder":"10732337836","distractor":"10762337836","target":"present","response":"present","rt":"2677","correct":true,"confidence":3},{"trial_n":70,"span":11,"encoder":"74981783030","distractor":"24981783030","target":"absent","response":"absent","rt":"2401","correct":true,"confidence":3},{"trial_n":71,"span":8,"encoder":"57106388","distractor":"56106388","target":"present","response":"present","rt":"5346","correct":true,"confidence":-1},{"trial_n":72,"span":8,"encoder":"30489448","distractor":"30481448","target":"present","response":"present","rt":"3378","correct":true,"confidence":-1},{"trial_n":73,"span":9,"encoder":"672486337","distractor":"672486937","target":"absent","response":"present","rt":"4930","correct":false,"confidence":-1},{"trial_n":74,"span":8,"encoder":"02082023","distractor":"02092023","target":"absent","response":"present","rt":"5672","correct":false,"confidence":-1},{"trial_n":75,"span":7,"encoder":"1028642","distractor":"1028672","target":"present","response":"present","rt":"2501","correct":true,"confidence":-1},{"trial_n":76,"span":7,"encoder":"9069174","distractor":"9009174","target":"present","response":"present","rt":"2107","correct":true,"confidence":-1},{"trial_n":77,"span":8,"encoder":"99231545","distractor":"99231547","target":"present","response":"present","rt":"4411","correct":true,"confidence":-1},{"trial_n":78,"span":8,"encoder":"65131911","distractor":"65101911","target":"present","response":"present","rt":"5089","correct":true,"confidence":-1},{"trial_n":79,"span":9,"encoder":"092133851","distractor":"092133151","target":"present","response":"present","rt":"3870","correct":true,"confidence":-1},{"trial_n":80,"span":9,"encoder":"894113207","distractor":"894113203","target":"absent","response":"absent","rt":"1314.0000000002","correct":true,"confidence":-1},{"trial_n":81,"span":10,"encoder":"4094946187","distractor":"4094946181","target":"absent","response":"absent","rt":"1939","correct":true,"confidence":-1},{"trial_n":82,"span":10,"encoder":"7785284557","distractor":"7785484557","target":"present","response":"present","rt":"1908","correct":true,"confidence":-1},{"trial_n":83,"span":11,"encoder":"18323964926","distractor":"18323934926","target":"present","response":"present","rt":"2116","correct":true,"confidence":-1},{"trial_n":84,"span":11,"encoder":"30944340142","distractor":"37944340142","target":"absent","response":"absent","rt":"2918","correct":true,"confidence":-1},{"trial_n":85,"span":12,"encoder":"849770131726","distractor":"849710131726","target":"present","response":"present","rt":"7755","correct":true,"confidence":-1},{"trial_n":86,"span":12,"encoder":"462101860181","distractor":"462141860181","target":"absent","response":"absent","rt":"531","correct":true,"confidence":-1},{"trial_n":87,"span":13,"encoder":"4349824809401","distractor":"4389824809401","target":"absent","response":"absent","rt":"945.00000000023","correct":true,"confidence":-1},{"trial_n":88,"span":13,"encoder":"5954511508438","distractor":"9954511508438","target":"present","response":"present","rt":"3543","correct":true,"confidence":-1},{"trial_n":89,"span":14,"encoder":"71952668393311","distractor":"71912668393311","target":"present","response":"present","rt":"7632","correct":true,"confidence":-1},{"trial_n":90,"span":14,"encoder":"01057512254338","distractor":"01057512284338","target":"present","response":"present","rt":"3018","correct":true,"confidence":-1},{"trial_n":91,"span":15,"encoder":"417866560960155","distractor":"417466560960155","target":"absent","response":"present","rt":"4583","correct":false,"confidence":2},{"trial_n":92,"span":14,"encoder":"49255040296912","distractor":"49755040296912","target":"absent","response":"absent","rt":"3667","correct":true,"confidence":3},{"trial_n":93,"span":14,"encoder":"45985276795778","distractor":"41985276795778","target":"present","response":"present","rt":"3438","correct":true,"confidence":1},{"trial_n":94,"span":15,"encoder":"812608106803869","distractor":"811608106803869","target":"present","response":"present","rt":"3881.9999999998","correct":true,"confidence":3},{"trial_n":95,"span":15,"encoder":"469924315440422","distractor":"469924315450422","target":"present","response":"present","rt":"5373","correct":true,"confidence":3},{"trial_n":96,"span":16,"encoder":"9629807063348749","distractor":"9629807003348749","target":"absent","response":"present","rt":"8636","correct":false,"confidence":1},{"trial_n":97,"span":15,"encoder":"764283666946636","distractor":"764283666946696","target":"absent","response":"absent","rt":"2943.0000000002","correct":true,"confidence":4},{"trial_n":98,"span":15,"encoder":"224626810524077","distractor":"224626610524077","target":"present","response":"present","rt":"7912","correct":true,"confidence":1},{"trial_n":99,"span":16,"encoder":"2247714318673269","distractor":"2147714318673269","target":"absent","response":"present","rt":"6377","correct":false,"confidence":1},{"trial_n":100,"span":15,"encoder":"803509050475347","distractor":"803529050475347","target":"present","response":"present","rt":"8369","correct":true,"confidence":1},{"trial_n":101,"span":15,"encoder":"863429955577469","distractor":"863429955571469","target":"present","response":"present","rt":"3753","correct":true,"confidence":1},{"trial_n":102,"span":16,"encoder":"3854771242907972","distractor":"3854771242902972","target":"absent","response":"present","rt":"4919","correct":false,"confidence":2},{"trial_n":103,"span":15,"encoder":"675765528583681","distractor":"675765508583681","target":"present","response":"absent","rt":"4420","correct":false,"confidence":4},{"trial_n":104,"span":14,"encoder":"99361722445186","distractor":"99381722445186","target":"absent","response":"present","rt":"7148","correct":false,"confidence":3},{"trial_n":105,"span":13,"encoder":"5258446113725","distractor":"5258446173725","target":"absent","response":"absent","rt":"6493.9999999998","correct":true,"confidence":3},{"trial_n":106,"span":13,"encoder":"7942868629837","distractor":"7942068629837","target":"present","response":"present","rt":"3761.9999999998","correct":true,"confidence":3},{"trial_n":107,"span":14,"encoder":"96541010799475","distractor":"16541010799475","target":"present","response":"present","rt":"3511","correct":true,"confidence":1},{"trial_n":108,"span":14,"encoder":"09244597087361","distractor":"09224597087361","target":"absent","response":"present","rt":"5786","correct":false,"confidence":1},{"trial_n":109,"span":13,"encoder":"0281188429418","distractor":"0381188429418","target":"present","response":"absent","rt":"11933","correct":false,"confidence":1},{"trial_n":110,"span":12,"encoder":"486367706010","distractor":"486367736010","target":"absent","response":"present","rt":"3489","correct":false,"confidence":1},{"trial_n":111,"span":11,"encoder":"59344094338","distractor":"59144094338","target":"absent","response":"absent","rt":"1877","correct":true,"confidence":3},{"trial_n":112,"span":11,"encoder":"43931286184","distractor":"43931286164","target":"absent","response":"absent","rt":"1225","correct":true,"confidence":3},{"trial_n":113,"span":12,"encoder":"565022644502","distractor":"965022644502","target":"present","response":"present","rt":"2682.9999999998","correct":true,"confidence":3},{"trial_n":114,"span":12,"encoder":"959536909592","distractor":"949536909592","target":"absent","response":"present","rt":"5074","correct":false,"confidence":1},{"trial_n":115,"span":11,"encoder":"99783405421","distractor":"93783405421","target":"present","response":"absent","rt":"3064","correct":false,"confidence":1},{"trial_n":116,"span":10,"encoder":"4510098143","distractor":"4512098143","target":"absent","response":"absent","rt":"6286","correct":true,"confidence":1},{"trial_n":117,"span":10,"encoder":"3616737889","distractor":"3616737829","target":"absent","response":"absent","rt":"3952","correct":true,"confidence":4},{"trial_n":118,"span":11,"encoder":"50722058216","distractor":"50728058216","target":"absent","response":"present","rt":"3306","correct":false,"confidence":1},{"trial_n":119,"span":10,"encoder":"9516795028","distractor":"9596795028","target":"absent","response":"present","rt":"3949","correct":false,"confidence":1},{"trial_n":120,"span":9,"encoder":"736402948","distractor":"736502948","target":"absent","response":"absent","rt":"2182","correct":true,"confidence":4},{"trial_n":121,"span":9,"encoder":"932253046","distractor":"932253042","target":"absent","response":"absent","rt":"2031.0000000002","correct":true,"confidence":1},{"trial_n":122,"span":10,"encoder":"1152425829","distractor":"1152420829","target":"present","response":"present","rt":"3416","correct":true,"confidence":4},{"trial_n":123,"span":10,"encoder":"6374712557","distractor":"6374712757","target":"present","response":"absent","rt":"5873.0000000002","correct":false,"confidence":1},{"trial_n":124,"span":9,"encoder":"182558162","distractor":"182458162","target":"absent","response":"absent","rt":"3501.9999999998","correct":true,"confidence":4},{"trial_n":125,"span":9,"encoder":"019405168","distractor":"019405160","target":"present","response":"present","rt":"3914.0000000002","correct":true,"confidence":1},{"trial_n":126,"span":10,"encoder":"2853284252","distractor":"7853284252","target":"present","response":"absent","rt":"26099","correct":false,"confidence":4},{"trial_n":127,"span":9,"encoder":"090778263","distractor":"030778263","target":"absent","response":"absent","rt":"1996","correct":true,"confidence":5},{"trial_n":128,"span":9,"encoder":"591851998","distractor":"591851995","target":"present","response":"absent","rt":"5361","correct":false,"confidence":3},{"trial_n":129,"span":8,"encoder":"67072370","distractor":"87072370","target":"present","response":"present","rt":"2727","correct":true,"confidence":4},{"trial_n":130,"span":8,"encoder":"73792468","distractor":"76792468","target":"present","response":"present","rt":"2916","correct":true,"confidence":4},{"trial_n":131,"span":9,"encoder":"284520380","distractor":"284520388","target":"absent","response":"absent","rt":"3587","correct":true,"confidence":1},{"trial_n":132,"span":9,"encoder":"152122953","distractor":"352122953","target":"absent","response":"absent","rt":"1734.9999999995","correct":true,"confidence":4},{"trial_n":133,"span":10,"encoder":"7166403307","distractor":"7156403307","target":"absent","response":"absent","rt":"1801","correct":true,"confidence":4},{"trial_n":134,"span":10,"encoder":"5733887525","distractor":"5733587525","target":"absent","response":"absent","rt":"4037","correct":true,"confidence":2},{"trial_n":135,"span":11,"encoder":"75679072936","distractor":"75679072931","target":"present","response":"absent","rt":"9561","correct":false,"confidence":1},{"trial_n":136,"span":10,"encoder":"1076634873","distractor":"1076634973","target":"present","response":"absent","rt":"3523","correct":false,"confidence":1},{"trial_n":137,"span":9,"encoder":"141837399","distractor":"941837399","target":"present","response":"absent","rt":"2130","correct":false,"confidence":1},{"trial_n":138,"span":8,"encoder":"81652105","distractor":"81952105","target":"absent","response":"absent","rt":"4805","correct":true,"confidence":1},{"trial_n":139,"span":8,"encoder":"04730682","distractor":"04730182","target":"absent","response":"absent","rt":"1952","correct":true,"confidence":4},{"trial_n":140,"span":9,"encoder":"945024216","distractor":"945025216","target":"present","response":"present","rt":"3248","correct":true,"confidence":4}]