[{"trial_n":1,"span":8,"encoder":"11736299","distractor":"11736291","target":"present","response":"present","rt":"6849.7000000477","correct":true,"confidence":-1},{"trial_n":2,"span":8,"encoder":"26320607","distractor":"26320647","target":"present","response":"present","rt":"1463","correct":true,"confidence":-1},{"trial_n":3,"span":10,"encoder":"8534695845","distractor":"8534295845","target":"absent","response":"present","rt":"1594.3000000119","correct":false,"confidence":-1},{"trial_n":4,"span":8,"encoder":"10852309","distractor":"14852309","target":"absent","response":"present","rt":"1755.5","correct":false,"confidence":-1},{"trial_n":5,"span":6,"encoder":"146431","distractor":"246431","target":"present","response":"present","rt":"1251.3000000119","correct":true,"confidence":-1},{"trial_n":6,"span":6,"encoder":"479975","distractor":"479970","target":"absent","response":"absent","rt":"2017.1999999881","correct":true,"confidence":-1},{"trial_n":7,"span":8,"encoder":"57365905","distractor":"51365905","target":"absent","response":"present","rt":"1403.2999999523","correct":false,"confidence":-1},{"trial_n":8,"span":6,"encoder":"255717","distractor":"257717","target":"present","response":"present","rt":"1486.8000000119","correct":true,"confidence":-1},{"trial_n":9,"span":6,"encoder":"344769","distractor":"744769","target":"absent","response":"present","rt":"1330","correct":false,"confidence":-1},{"trial_n":10,"span":4,"encoder":"7039","distractor":"7031","target":"present","response":"present","rt":"1521.6999999881","correct":true,"confidence":-1},{"trial_n":11,"span":4,"encoder":"5849","distractor":"5249","target":"present","response":"present","rt":"822.59999996424","correct":true,"confidence":-1},{"trial_n":12,"span":5,"encoder":"82315","distractor":"82915","target":"absent","response":"present","rt":"795.5","correct":false,"confidence":-1},{"trial_n":13,"span":4,"encoder":"8759","distractor":"8799","target":"present","response":"present","rt":"1699.9000000358","correct":true,"confidence":-1},{"trial_n":14,"span":4,"encoder":"7985","distractor":"7981","target":"absent","response":"absent","rt":"1368.7999999523","correct":true,"confidence":-1},{"trial_n":15,"span":5,"encoder":"23724","distractor":"23714","target":"present","response":"present","rt":"1483.2000000477","correct":true,"confidence":-1},{"trial_n":16,"span":5,"encoder":"29378","distractor":"29398","target":"present","response":"present","rt":"1159.6999999881","correct":true,"confidence":-1},{"trial_n":17,"span":6,"encoder":"252154","distractor":"352154","target":"absent","response":"present","rt":"2654.8999999762","correct":false,"confidence":-1},{"trial_n":18,"span":5,"encoder":"24497","distractor":"24197","target":"absent","response":"absent","rt":"1687.4000000358","correct":true,"confidence":-1},{"trial_n":19,"span":5,"encoder":"67228","distractor":"67225","target":"absent","response":"absent","rt":"1240.8000000119","correct":true,"confidence":-1},{"trial_n":20,"span":6,"encoder":"900067","distractor":"930067","target":"present","response":"present","rt":"1108.6999999881","correct":true,"confidence":-1},{"trial_n":21,"span":6,"encoder":"852905","distractor":"852945","target":"present","response":"present","rt":"925.19999998808","correct":true,"confidence":3},{"trial_n":22,"span":7,"encoder":"2381677","distractor":"2381671","target":"absent","response":"absent","rt":"2582.6999999881","correct":true,"confidence":4},{"trial_n":23,"span":7,"encoder":"7435422","distractor":"7430422","target":"absent","response":"present","rt":"1621.9000000358","correct":false,"confidence":3},{"trial_n":24,"span":6,"encoder":"459043","distractor":"459343","target":"present","response":"present","rt":"3119.6999999881","correct":true,"confidence":3},{"trial_n":25,"span":6,"encoder":"042187","distractor":"042287","target":"absent","response":"absent","rt":"1820.3000000119","correct":true,"confidence":3},{"trial_n":26,"span":7,"encoder":"5764149","distractor":"2764149","target":"present","response":"absent","rt":"3310.8000000119","correct":false,"confidence":3},{"trial_n":27,"span":6,"encoder":"680917","distractor":"640917","target":"present","response":"present","rt":"2567.6999999881","correct":true,"confidence":2},{"trial_n":28,"span":6,"encoder":"720700","distractor":"720703","target":"present","response":"present","rt":"1174","correct":true,"confidence":4},{"trial_n":29,"span":7,"encoder":"4760932","distractor":"4760732","target":"absent","response":"absent","rt":"3737.4000000358","correct":true,"confidence":2},{"trial_n":30,"span":7,"encoder":"1822932","distractor":"1821932","target":"present","response":"present","rt":"1466.8999999762","correct":true,"confidence":4},{"trial_n":31,"span":8,"encoder":"07960098","distractor":"07960298","target":"present","response":"present","rt":"1602.6999999881","correct":true,"confidence":3},{"trial_n":32,"span":8,"encoder":"71908713","distractor":"71903713","target":"present","response":"present","rt":"1244.7999999523","correct":true,"confidence":4},{"trial_n":33,"span":9,"encoder":"441660557","distractor":"441660357","target":"present","response":"present","rt":"1650.3999999762","correct":true,"confidence":4},{"trial_n":34,"span":9,"encoder":"556017576","distractor":"556019576","target":"present","response":"present","rt":"2612.5999999642","correct":true,"confidence":3},{"trial_n":35,"span":10,"encoder":"6439719356","distractor":"6409719356","target":"present","response":"absent","rt":"2264.8000000119","correct":false,"confidence":2},{"trial_n":36,"span":9,"encoder":"518042657","distractor":"518022657","target":"absent","response":"present","rt":"3241.2000000477","correct":false,"confidence":3},{"trial_n":37,"span":8,"encoder":"03371478","distractor":"03341478","target":"absent","response":"present","rt":"1303.3000000119","correct":false,"confidence":4},{"trial_n":38,"span":7,"encoder":"2293418","distractor":"4293418","target":"absent","response":"absent","rt":"1902.9000000358","correct":true,"confidence":4},{"trial_n":39,"span":7,"encoder":"7414852","distractor":"7414872","target":"absent","response":"present","rt":"1776.3999999762","correct":false,"confidence":2},{"trial_n":40,"span":6,"encoder":"885037","distractor":"885067","target":"absent","response":"absent","rt":"1817.5","correct":true,"confidence":4},{"trial_n":41,"span":6,"encoder":"166637","distractor":"766637","target":"present","response":"present","rt":"1113.5","correct":true,"confidence":4},{"trial_n":42,"span":7,"encoder":"4075426","distractor":"4074426","target":"absent","response":"present","rt":"1542.5","correct":false,"confidence":3},{"trial_n":43,"span":6,"encoder":"942630","distractor":"942680","target":"present","response":"present","rt":"4455.1000000238","correct":true,"confidence":3},{"trial_n":44,"span":6,"encoder":"734222","distractor":"736222","target":"present","response":"present","rt":"1332.8999999762","correct":true,"confidence":3},{"trial_n":45,"span":7,"encoder":"8033591","distractor":"8033541","target":"absent","response":"absent","rt":"1559.4000000358","correct":true,"confidence":4},{"trial_n":46,"span":7,"encoder":"9622762","distractor":"9627762","target":"present","response":"present","rt":"1360","correct":true,"confidence":3},{"trial_n":47,"span":8,"encoder":"75132332","distractor":"75142332","target":"present","response":"present","rt":"1323.6999999881","correct":true,"confidence":3},{"trial_n":48,"span":8,"encoder":"80903367","distractor":"80903377","target":"present","response":"present","rt":"2758","correct":true,"confidence":4},{"trial_n":49,"span":9,"encoder":"640922282","distractor":"648922282","target":"absent","response":"present","rt":"1196","correct":false,"confidence":3},{"trial_n":50,"span":8,"encoder":"37508222","distractor":"37508212","target":"absent","response":"absent","rt":"3548.5","correct":true,"confidence":2},{"trial_n":51,"span":8,"encoder":"80285864","distractor":"40285864","target":"absent","response":"present","rt":"1136.8999999762","correct":false,"confidence":3},{"trial_n":52,"span":7,"encoder":"0718967","distractor":"0708967","target":"present","response":"absent","rt":"3234.9000000358","correct":false,"confidence":1},{"trial_n":53,"span":6,"encoder":"861284","distractor":"861274","target":"absent","response":"present","rt":"1164.1000000238","correct":false,"confidence":3},{"trial_n":54,"span":5,"encoder":"18990","distractor":"18290","target":"absent","response":"absent","rt":"1544.4000000358","correct":true,"confidence":5},{"trial_n":55,"span":5,"encoder":"05271","distractor":"09271","target":"present","response":"present","rt":"1041.4000000358","correct":true,"confidence":5},{"trial_n":56,"span":6,"encoder":"697008","distractor":"687008","target":"absent","response":"present","rt":"1105.8999999762","correct":false,"confidence":4},{"trial_n":57,"span":5,"encoder":"40347","distractor":"40397","target":"present","response":"present","rt":"1016.1000000238","correct":true,"confidence":5},{"trial_n":58,"span":5,"encoder":"23316","distractor":"63316","target":"absent","response":"present","rt":"1836.7000000477","correct":false,"confidence":5},{"trial_n":59,"span":4,"encoder":"7171","distractor":"7101","target":"absent","response":"absent","rt":"1564.5","correct":true,"confidence":5},{"trial_n":60,"span":4,"encoder":"9772","distractor":"2772","target":"present","response":"present","rt":"1563.4000000358","correct":true,"confidence":5},{"trial_n":61,"span":5,"encoder":"10933","distractor":"10932","target":"present","response":"present","rt":"1791.4000000358","correct":true,"confidence":4},{"trial_n":62,"span":5,"encoder":"09097","distractor":"09092","target":"absent","response":"absent","rt":"1321.3999999762","correct":true,"confidence":5},{"trial_n":63,"span":6,"encoder":"553197","distractor":"553997","target":"present","response":"present","rt":"2431.3999999762","correct":true,"confidence":4},{"trial_n":64,"span":6,"encoder":"277268","distractor":"277266","target":"absent","response":"absent","rt":"1383.5","correct":true,"confidence":4},{"trial_n":65,"span":7,"encoder":"2700020","distractor":"2720020","target":"absent","response":"present","rt":"2311","correct":false,"confidence":3},{"trial_n":66,"span":6,"encoder":"728884","distractor":"728885","target":"absent","response":"absent","rt":"1401.0999999642","correct":true,"confidence":5},{"trial_n":67,"span":6,"encoder":"393654","distractor":"313654","target":"present","response":"present","rt":"1461.6000000238","correct":true,"confidence":4},{"trial_n":68,"span":7,"encoder":"1144070","distractor":"1154070","target":"present","response":"present","rt":"1389.8000000119","correct":true,"confidence":4},{"trial_n":69,"span":7,"encoder":"8708900","distractor":"8708908","target":"present","response":"present","rt":"2753.5999999642","correct":true,"confidence":3},{"trial_n":70,"span":8,"encoder":"82210552","distractor":"22210552","target":"absent","response":"absent","rt":"2142.3999999762","correct":true,"confidence":3},{"trial_n":71,"span":8,"encoder":"24179408","distractor":"24179108","target":"present","response":"present","rt":"4954.2000000477","correct":true,"confidence":-1},{"trial_n":72,"span":8,"encoder":"02962707","distractor":"02967707","target":"present","response":"present","rt":"4317.3999999762","correct":true,"confidence":-1},{"trial_n":73,"span":9,"encoder":"898885429","distractor":"894885429","target":"absent","response":"absent","rt":"3452","correct":true,"confidence":-1},{"trial_n":74,"span":9,"encoder":"423737366","distractor":"423737266","target":"absent","response":"absent","rt":"3685.0999999642","correct":true,"confidence":-1},{"trial_n":75,"span":10,"encoder":"2127839927","distractor":"2727839927","target":"present","response":"present","rt":"8173.1999999881","correct":true,"confidence":-1},{"trial_n":76,"span":10,"encoder":"2020756643","distractor":"2020756243","target":"present","response":"present","rt":"2408.2999999523","correct":true,"confidence":-1},{"trial_n":77,"span":11,"encoder":"51516334115","distractor":"51516634115","target":"absent","response":"present","rt":"3292.5","correct":false,"confidence":-1},{"trial_n":78,"span":10,"encoder":"6322911634","distractor":"6322981634","target":"present","response":"absent","rt":"2188.3999999762","correct":false,"confidence":-1},{"trial_n":79,"span":9,"encoder":"551884719","distractor":"550884719","target":"absent","response":"present","rt":"3490.6000000238","correct":false,"confidence":-1},{"trial_n":80,"span":8,"encoder":"43972744","distractor":"93972744","target":"present","response":"absent","rt":"1452","correct":false,"confidence":-1},{"trial_n":81,"span":7,"encoder":"8143718","distractor":"8143710","target":"present","response":"present","rt":"1389","correct":true,"confidence":-1},{"trial_n":82,"span":7,"encoder":"3204818","distractor":"3204815","target":"present","response":"present","rt":"1340.5","correct":true,"confidence":-1},{"trial_n":83,"span":8,"encoder":"48618121","distractor":"48618128","target":"absent","response":"absent","rt":"1230.3000000119","correct":true,"confidence":-1},{"trial_n":84,"span":8,"encoder":"72161526","distractor":"72861526","target":"present","response":"absent","rt":"1021.8999999762","correct":false,"confidence":-1},{"trial_n":85,"span":7,"encoder":"1972140","distractor":"1472140","target":"absent","response":"present","rt":"2423.8000000119","correct":false,"confidence":-1},{"trial_n":86,"span":6,"encoder":"339894","distractor":"339824","target":"absent","response":"absent","rt":"832.19999998808","correct":true,"confidence":-1},{"trial_n":87,"span":6,"encoder":"290996","distractor":"290196","target":"present","response":"present","rt":"1344.1999999881","correct":true,"confidence":-1},{"trial_n":88,"span":7,"encoder":"7076512","distractor":"7071512","target":"absent","response":"present","rt":"2777.6999999881","correct":false,"confidence":-1},{"trial_n":89,"span":6,"encoder":"289996","distractor":"229996","target":"absent","response":"present","rt":"3551.3000000119","correct":false,"confidence":-1},{"trial_n":90,"span":5,"encoder":"09764","distractor":"07764","target":"present","response":"absent","rt":"853.09999996424","correct":false,"confidence":-1},{"trial_n":91,"span":4,"encoder":"3508","distractor":"9508","target":"present","response":"present","rt":"9739.5","correct":true,"confidence":4},{"trial_n":92,"span":4,"encoder":"0550","distractor":"0558","target":"present","response":"present","rt":"2165","correct":true,"confidence":3},{"trial_n":93,"span":5,"encoder":"37714","distractor":"17714","target":"absent","response":"absent","rt":"2275.1999999881","correct":true,"confidence":3},{"trial_n":94,"span":5,"encoder":"65265","distractor":"66265","target":"absent","response":"absent","rt":"2684.5","correct":true,"confidence":3},{"trial_n":95,"span":6,"encoder":"286976","distractor":"286776","target":"present","response":"present","rt":"3182.5","correct":true,"confidence":4},{"trial_n":96,"span":6,"encoder":"776506","distractor":"770506","target":"absent","response":"absent","rt":"3972.1000000238","correct":true,"confidence":2},{"trial_n":97,"span":7,"encoder":"7761033","distractor":"7761933","target":"present","response":"present","rt":"5142.6000000238","correct":true,"confidence":2},{"trial_n":98,"span":7,"encoder":"8306408","distractor":"8306403","target":"absent","response":"absent","rt":"2286.2999999523","correct":true,"confidence":3},{"trial_n":99,"span":8,"encoder":"86364036","distractor":"86324036","target":"absent","response":"absent","rt":"3547.3000000119","correct":true,"confidence":2},{"trial_n":100,"span":8,"encoder":"55609150","distractor":"55600150","target":"absent","response":"absent","rt":"3339.6999999881","correct":true,"confidence":3},{"trial_n":101,"span":9,"encoder":"346539127","distractor":"346639127","target":"absent","response":"absent","rt":"2229.5","correct":true,"confidence":2},{"trial_n":102,"span":9,"encoder":"449172475","distractor":"443172475","target":"absent","response":"absent","rt":"4310.4000000358","correct":true,"confidence":2},{"trial_n":103,"span":10,"encoder":"5872052869","distractor":"5872052369","target":"present","response":"present","rt":"4607.9000000358","correct":true,"confidence":3},{"trial_n":104,"span":10,"encoder":"0962840768","distractor":"0962840769","target":"present","response":"present","rt":"1576.8999999762","correct":true,"confidence":4},{"trial_n":105,"span":11,"encoder":"79292720632","distractor":"75292720632","target":"absent","response":"absent","rt":"6399.1999999881","correct":true,"confidence":2},{"trial_n":106,"span":11,"encoder":"92365591354","distractor":"32365591354","target":"absent","response":"absent","rt":"8013","correct":true,"confidence":3},{"trial_n":107,"span":12,"encoder":"686549337473","distractor":"696549337473","target":"present","response":"absent","rt":"3594.5","correct":false,"confidence":2},{"trial_n":108,"span":11,"encoder":"44454334923","distractor":"44754334923","target":"absent","response":"absent","rt":"4472","correct":true,"confidence":3},{"trial_n":109,"span":11,"encoder":"70029591093","distractor":"70029791093","target":"absent","response":"present","rt":"5204.6999999881","correct":false,"confidence":2},{"trial_n":110,"span":10,"encoder":"2745893100","distractor":"2745893102","target":"absent","response":"absent","rt":"2358.6999999881","correct":true,"confidence":3},{"trial_n":111,"span":10,"encoder":"3505279424","distractor":"3502279424","target":"absent","response":"absent","rt":"3266.7999999523","correct":true,"confidence":2},{"trial_n":112,"span":11,"encoder":"50691936311","distractor":"90691936311","target":"present","response":"present","rt":"3193.7999999523","correct":true,"confidence":3},{"trial_n":113,"span":11,"encoder":"38708336564","distractor":"38708336524","target":"present","response":"present","rt":"2755.3000000119","correct":true,"confidence":4},{"trial_n":114,"span":12,"encoder":"762228907886","distractor":"762258907886","target":"present","response":"absent","rt":"3608.1999999881","correct":false,"confidence":3},{"trial_n":115,"span":11,"encoder":"27440995314","distractor":"27440955314","target":"present","response":"absent","rt":"4812.8000000119","correct":false,"confidence":2},{"trial_n":116,"span":10,"encoder":"9575385427","distractor":"9575185427","target":"present","response":"absent","rt":"6886.6000000238","correct":false,"confidence":3},{"trial_n":117,"span":9,"encoder":"445302762","distractor":"425302762","target":"absent","response":"absent","rt":"2557","correct":true,"confidence":3},{"trial_n":118,"span":9,"encoder":"661448361","distractor":"661448362","target":"absent","response":"absent","rt":"1264.8000000119","correct":true,"confidence":4},{"trial_n":119,"span":10,"encoder":"1299719817","distractor":"1299719813","target":"absent","response":"absent","rt":"1353.6000000238","correct":true,"confidence":4},{"trial_n":120,"span":10,"encoder":"8506516633","distractor":"8506516433","target":"present","response":"present","rt":"2408.8999999762","correct":true,"confidence":4},{"trial_n":121,"span":11,"encoder":"46888139993","distractor":"46888139992","target":"absent","response":"absent","rt":"4153.1000000238","correct":true,"confidence":4},{"trial_n":122,"span":11,"encoder":"89294315285","distractor":"89294315245","target":"absent","response":"absent","rt":"2539.6000000238","correct":true,"confidence":4},{"trial_n":123,"span":12,"encoder":"342028807360","distractor":"342068807360","target":"absent","response":"present","rt":"10904.900000036","correct":false,"confidence":2},{"trial_n":124,"span":11,"encoder":"57012448026","distractor":"57022448026","target":"present","response":"present","rt":"3169.1000000238","correct":true,"confidence":3},{"trial_n":125,"span":11,"encoder":"85113528412","distractor":"85113928412","target":"present","response":"absent","rt":"4220.6999999881","correct":false,"confidence":3},{"trial_n":126,"span":10,"encoder":"8774916258","distractor":"8774916958","target":"absent","response":"absent","rt":"4318.5999999642","correct":true,"confidence":3},{"trial_n":127,"span":10,"encoder":"1519915574","distractor":"1519915594","target":"present","response":"absent","rt":"4208.5999999642","correct":false,"confidence":3},{"trial_n":128,"span":9,"encoder":"877281918","distractor":"877281978","target":"absent","response":"absent","rt":"4029.1999999881","correct":true,"confidence":3},{"trial_n":129,"span":9,"encoder":"826586604","distractor":"826583604","target":"present","response":"absent","rt":"4345.4000000358","correct":false,"confidence":2},{"trial_n":130,"span":8,"encoder":"68250256","distractor":"68750256","target":"absent","response":"absent","rt":"3154.5999999642","correct":true,"confidence":3},{"trial_n":131,"span":8,"encoder":"76471753","distractor":"46471753","target":"absent","response":"absent","rt":"6855.8999999762","correct":true,"confidence":2},{"trial_n":132,"span":9,"encoder":"723631957","distractor":"723031957","target":"present","response":"present","rt":"5560.4000000358","correct":true,"confidence":2},{"trial_n":133,"span":9,"encoder":"549250195","distractor":"599250195","target":"present","response":"present","rt":"2874.8000000119","correct":true,"confidence":3},{"trial_n":134,"span":10,"encoder":"2727423059","distractor":"2727423089","target":"present","response":"present","rt":"3219","correct":true,"confidence":3},{"trial_n":135,"span":10,"encoder":"7975259274","distractor":"7975359274","target":"absent","response":"absent","rt":"6423.3999999762","correct":true,"confidence":4},{"trial_n":136,"span":11,"encoder":"84133518594","distractor":"84133588594","target":"present","response":"absent","rt":"4125.3000000119","correct":false,"confidence":2},{"trial_n":137,"span":10,"encoder":"0492958118","distractor":"0491958118","target":"present","response":"present","rt":"4368.8999999762","correct":true,"confidence":3},{"trial_n":138,"span":10,"encoder":"5314470714","distractor":"5114470714","target":"present","response":"present","rt":"5221.6000000238","correct":true,"confidence":3},{"trial_n":139,"span":11,"encoder":"41826438311","distractor":"41826438313","target":"present","response":"present","rt":"1633.8000000119","correct":true,"confidence":4},{"trial_n":140,"span":11,"encoder":"52119830875","distractor":"52111830875","target":"present","response":"present","rt":"1706","correct":true,"confidence":4}]