[{"trial_n":1,"n_dots":4.25,"target":"right","response":"left","rt":3624,"correct":false,"confidence":-1},{"trial_n":2,"n_dots":4.25,"target":"right","response":"right","rt":1727.1999999881,"correct":true,"confidence":-1},{"trial_n":3,"n_dots":4.25,"target":"left","response":"right","rt":806.39999997616,"correct":false,"confidence":-1},{"trial_n":4,"n_dots":4.65,"target":"left","response":"left","rt":506.5,"correct":true,"confidence":-1},{"trial_n":5,"n_dots":4.65,"target":"right","response":"right","rt":635.80000001192,"correct":true,"confidence":-1},{"trial_n":6,"n_dots":4.25,"target":"right","response":"right","rt":507.80000001192,"correct":true,"confidence":-1},{"trial_n":7,"n_dots":4.25,"target":"right","response":"right","rt":549.19999998808,"correct":true,"confidence":-1},{"trial_n":8,"n_dots":4.05,"target":"left","response":"left","rt":317.60000002384,"correct":true,"confidence":-1},{"trial_n":9,"n_dots":4.05,"target":"right","response":"right","rt":497.90000003576,"correct":true,"confidence":-1},{"trial_n":10,"n_dots":3.85,"target":"left","response":"left","rt":373,"correct":true,"confidence":-1},{"trial_n":11,"n_dots":3.85,"target":"right","response":"right","rt":308.29999995232,"correct":true,"confidence":-1},{"trial_n":12,"n_dots":3.65,"target":"left","response":"left","rt":448.39999997616,"correct":true,"confidence":-1},{"trial_n":13,"n_dots":3.65,"target":"left","response":"left","rt":713.40000003576,"correct":true,"confidence":-1},{"trial_n":14,"n_dots":3.55,"target":"left","response":"left","rt":343.69999998808,"correct":true,"confidence":-1},{"trial_n":15,"n_dots":3.55,"target":"left","response":"left","rt":403.5,"correct":true,"confidence":-1},{"trial_n":16,"n_dots":3.45,"target":"left","response":"left","rt":362.30000001192,"correct":true,"confidence":-1},{"trial_n":17,"n_dots":3.45,"target":"left","response":"left","rt":508.10000002384,"correct":true,"confidence":-1},{"trial_n":18,"n_dots":3.35,"target":"right","response":"left","rt":402.40000003576,"correct":false,"confidence":-1},{"trial_n":19,"n_dots":3.45,"target":"right","response":"left","rt":442.5,"correct":false,"confidence":-1},{"trial_n":20,"n_dots":3.55,"target":"left","response":"left","rt":447.30000001192,"correct":true,"confidence":-1},{"trial_n":21,"n_dots":3.55,"target":"right","response":"right","rt":505.60000002384,"correct":true,"confidence":3},{"trial_n":22,"n_dots":3.45,"target":"left","response":"left","rt":557.69999998808,"correct":true,"confidence":4},{"trial_n":23,"n_dots":3.45,"target":"left","response":"left","rt":435.30000001192,"correct":true,"confidence":4},{"trial_n":24,"n_dots":3.35,"target":"left","response":"left","rt":616.19999998808,"correct":true,"confidence":4},{"trial_n":25,"n_dots":3.35,"target":"right","response":"right","rt":354.29999995232,"correct":true,"confidence":3},{"trial_n":26,"n_dots":3.25,"target":"left","response":"left","rt":572.59999996424,"correct":true,"confidence":4},{"trial_n":27,"n_dots":3.25,"target":"right","response":"left","rt":429.5,"correct":false,"confidence":3},{"trial_n":28,"n_dots":3.35,"target":"right","response":"left","rt":872.90000003576,"correct":false,"confidence":2},{"trial_n":29,"n_dots":3.45,"target":"left","response":"left","rt":323,"correct":true,"confidence":5},{"trial_n":30,"n_dots":3.45,"target":"left","response":"left","rt":264.20000004768,"correct":true,"confidence":4},{"trial_n":31,"n_dots":3.35,"target":"left","response":"left","rt":289.60000002384,"correct":true,"confidence":4},{"trial_n":32,"n_dots":3.35,"target":"left","response":"left","rt":450,"correct":true,"confidence":4},{"trial_n":33,"n_dots":3.25,"target":"right","response":"right","rt":540.79999995232,"correct":true,"confidence":2},{"trial_n":34,"n_dots":3.25,"target":"left","response":"left","rt":262.30000001192,"correct":true,"confidence":4},{"trial_n":35,"n_dots":3.15,"target":"left","response":"left","rt":377.40000003576,"correct":true,"confidence":3},{"trial_n":36,"n_dots":3.15,"target":"left","response":"left","rt":233.89999997616,"correct":true,"confidence":4},{"trial_n":37,"n_dots":3.05,"target":"right","response":"left","rt":311.89999997616,"correct":false,"confidence":2},{"trial_n":38,"n_dots":3.15,"target":"right","response":"left","rt":524.30000001192,"correct":false,"confidence":3},{"trial_n":39,"n_dots":3.25,"target":"right","response":"left","rt":371.59999996424,"correct":false,"confidence":2},{"trial_n":40,"n_dots":3.35,"target":"right","response":"right","rt":603.39999997616,"correct":true,"confidence":4},{"trial_n":41,"n_dots":3.35,"target":"right","response":"right","rt":211.59999996424,"correct":true,"confidence":4},{"trial_n":42,"n_dots":3.25,"target":"left","response":"left","rt":284.10000002384,"correct":true,"confidence":4},{"trial_n":43,"n_dots":3.25,"target":"right","response":"right","rt":402.20000004768,"correct":true,"confidence":3},{"trial_n":44,"n_dots":3.15,"target":"left","response":"left","rt":296.89999997616,"correct":true,"confidence":2},{"trial_n":45,"n_dots":3.15,"target":"right","response":"right","rt":148,"correct":true,"confidence":3},{"trial_n":46,"n_dots":3.05,"target":"left","response":"left","rt":467.70000004768,"correct":true,"confidence":4},{"trial_n":47,"n_dots":3.05,"target":"left","response":"left","rt":1800,"correct":true,"confidence":2},{"trial_n":48,"n_dots":2.95,"target":"right","response":"right","rt":234.69999998808,"correct":true,"confidence":4},{"trial_n":49,"n_dots":2.95,"target":"right","response":"right","rt":412,"correct":true,"confidence":4},{"trial_n":50,"n_dots":2.85,"target":"left","response":"left","rt":495.30000001192,"correct":true,"confidence":2},{"trial_n":51,"n_dots":2.85,"target":"left","response":"right","rt":315.5,"correct":false,"confidence":2},{"trial_n":52,"n_dots":2.95,"target":"right","response":"right","rt":421.19999998808,"correct":true,"confidence":2},{"trial_n":53,"n_dots":2.95,"target":"right","response":"left","rt":952.19999998808,"correct":false,"confidence":2},{"trial_n":54,"n_dots":3.05,"target":"left","response":"left","rt":261.19999998808,"correct":true,"confidence":2},{"trial_n":55,"n_dots":3.05,"target":"right","response":"left","rt":511.5,"correct":false,"confidence":2},{"trial_n":56,"n_dots":3.15,"target":"right","response":"right","rt":880.69999998808,"correct":true,"confidence":3},{"trial_n":57,"n_dots":3.15,"target":"left","response":"left","rt":17.199999988079,"correct":true,"confidence":4},{"trial_n":58,"n_dots":3.05,"target":"right","response":"right","rt":701.30000001192,"correct":true,"confidence":2},{"trial_n":59,"n_dots":3.05,"target":"left","response":"left","rt":424.80000001192,"correct":true,"confidence":4},{"trial_n":60,"n_dots":2.95,"target":"left","response":"left","rt":364.30000001192,"correct":true,"confidence":3},{"trial_n":61,"n_dots":2.95,"target":"right","response":"right","rt":249.5,"correct":true,"confidence":3},{"trial_n":62,"n_dots":2.85,"target":"left","response":"right","rt":447.10000002384,"correct":false,"confidence":4},{"trial_n":63,"n_dots":2.95,"target":"right","response":"right","rt":252.59999996424,"correct":true,"confidence":3},{"trial_n":64,"n_dots":2.95,"target":"left","response":"right","rt":599.69999998808,"correct":false,"confidence":2},{"trial_n":65,"n_dots":3.05,"target":"right","response":"left","rt":768.19999998808,"correct":false,"confidence":2},{"trial_n":66,"n_dots":3.15,"target":"right","response":"left","rt":421.29999995232,"correct":false,"confidence":2},{"trial_n":67,"n_dots":3.25,"target":"left","response":"left","rt":1139,"correct":true,"confidence":3},{"trial_n":68,"n_dots":3.25,"target":"left","response":"right","rt":321.09999996424,"correct":false,"confidence":2},{"trial_n":69,"n_dots":3.35,"target":"left","response":"right","rt":495.60000002384,"correct":false,"confidence":3},{"trial_n":70,"n_dots":3.45,"target":"right","response":"right","rt":182.59999996424,"correct":true,"confidence":4},{"trial_n":71,"n_dots":3.45,"target":"right","response":"left","rt":569.39999997616,"correct":false,"confidence":2},{"trial_n":72,"n_dots":3.55,"target":"right","response":"right","rt":266.60000002384,"correct":true,"confidence":2},{"trial_n":73,"n_dots":3.55,"target":"left","response":"left","rt":373.60000002384,"correct":true,"confidence":3},{"trial_n":74,"n_dots":3.45,"target":"left","response":"left","rt":210.5,"correct":true,"confidence":4},{"trial_n":75,"n_dots":3.45,"target":"right","response":"left","rt":304.19999998808,"correct":false,"confidence":2},{"trial_n":76,"n_dots":3.55,"target":"left","response":"left","rt":257.5,"correct":true,"confidence":4},{"trial_n":77,"n_dots":3.55,"target":"right","response":"right","rt":583.39999997616,"correct":true,"confidence":2},{"trial_n":78,"n_dots":3.45,"target":"right","response":"right","rt":377.19999998808,"correct":true,"confidence":3},{"trial_n":79,"n_dots":3.45,"target":"right","response":"right","rt":713.60000002384,"correct":true,"confidence":4},{"trial_n":80,"n_dots":3.35,"target":"right","response":"left","rt":576.80000001192,"correct":false,"confidence":2},{"trial_n":81,"n_dots":3.45,"target":"left","response":"right","rt":554.30000001192,"correct":false,"confidence":3},{"trial_n":82,"n_dots":3.55,"target":"left","response":"right","rt":315,"correct":false,"confidence":2},{"trial_n":83,"n_dots":3.65,"target":"left","response":"right","rt":717.80000001192,"correct":false,"confidence":2},{"trial_n":84,"n_dots":3.75,"target":"right","response":"right","rt":998.19999998808,"correct":true,"confidence":4},{"trial_n":85,"n_dots":3.75,"target":"right","response":"right","rt":606.79999995232,"correct":true,"confidence":3},{"trial_n":86,"n_dots":3.65,"target":"left","response":"left","rt":459.19999998808,"correct":true,"confidence":3},{"trial_n":87,"n_dots":3.65,"target":"left","response":"left","rt":231.69999998808,"correct":true,"confidence":3},{"trial_n":88,"n_dots":3.55,"target":"right","response":"left","rt":812,"correct":false,"confidence":2},{"trial_n":89,"n_dots":3.65,"target":"right","response":"right","rt":290.09999996424,"correct":true,"confidence":2},{"trial_n":90,"n_dots":3.65,"target":"left","response":"left","rt":1057.7000000477,"correct":true,"confidence":3},{"trial_n":91,"n_dots":3.55,"target":"left","response":"left","rt":339.09999996424,"correct":true,"confidence":3},{"trial_n":92,"n_dots":3.55,"target":"right","response":"right","rt":441.30000001192,"correct":true,"confidence":2},{"trial_n":93,"n_dots":3.45,"target":"left","response":"right","rt":283.90000003576,"correct":false,"confidence":2},{"trial_n":94,"n_dots":3.55,"target":"left","response":"left","rt":939.30000001192,"correct":true,"confidence":4},{"trial_n":95,"n_dots":3.55,"target":"left","response":"left","rt":343.5,"correct":true,"confidence":3},{"trial_n":96,"n_dots":3.45,"target":"right","response":"right","rt":295.69999998808,"correct":true,"confidence":3},{"trial_n":97,"n_dots":3.45,"target":"right","response":"right","rt":246.30000001192,"correct":true,"confidence":3},{"trial_n":98,"n_dots":3.35,"target":"right","response":"right","rt":1187,"correct":true,"confidence":3},{"trial_n":99,"n_dots":3.35,"target":"left","response":"left","rt":263.79999995232,"correct":true,"confidence":2},{"trial_n":100,"n_dots":3.25,"target":"left","response":"left","rt":361,"correct":true,"confidence":3},{"trial_n":101,"n_dots":3.25,"target":"left","response":"right","rt":240.5,"correct":false,"confidence":2},{"trial_n":102,"n_dots":3.35,"target":"right","response":"left","rt":320.80000001192,"correct":false,"confidence":2},{"trial_n":103,"n_dots":3.45,"target":"left","response":"left","rt":902.90000003576,"correct":true,"confidence":3},{"trial_n":104,"n_dots":3.45,"target":"right","response":"right","rt":369.30000001192,"correct":true,"confidence":2},{"trial_n":105,"n_dots":3.35,"target":"right","response":"right","rt":720.40000003576,"correct":true,"confidence":3},{"trial_n":106,"n_dots":3.35,"target":"left","response":"left","rt":715.89999997616,"correct":true,"confidence":4},{"trial_n":107,"n_dots":3.25,"target":"right","response":"right","rt":454.5,"correct":true,"confidence":4},{"trial_n":108,"n_dots":3.25,"target":"left","response":"left","rt":522.60000002384,"correct":true,"confidence":3},{"trial_n":109,"n_dots":3.15,"target":"right","response":"right","rt":2886.6000000238,"correct":true,"confidence":3},{"trial_n":110,"n_dots":3.15,"target":"right","response":"right","rt":742.69999998808,"correct":true,"confidence":2},{"trial_n":111,"n_dots":3.05,"target":"right","response":"right","rt":510.60000002384,"correct":true,"confidence":4},{"trial_n":112,"n_dots":3.05,"target":"left","response":"right","rt":260.10000002384,"correct":false,"confidence":2},{"trial_n":113,"n_dots":3.15,"target":"right","response":"right","rt":620,"correct":true,"confidence":2},{"trial_n":114,"n_dots":3.15,"target":"left","response":"left","rt":854,"correct":true,"confidence":3},{"trial_n":115,"n_dots":3.05,"target":"right","response":"right","rt":264.10000002384,"correct":true,"confidence":4},{"trial_n":116,"n_dots":3.05,"target":"left","response":"left","rt":231.90000003576,"correct":true,"confidence":3},{"trial_n":117,"n_dots":2.95,"target":"left","response":"left","rt":216.09999996424,"correct":true,"confidence":3},{"trial_n":118,"n_dots":2.95,"target":"right","response":"left","rt":282.29999995232,"correct":false,"confidence":3},{"trial_n":119,"n_dots":3.05,"target":"right","response":"right","rt":728,"correct":true,"confidence":2},{"trial_n":120,"n_dots":3.05,"target":"right","response":"right","rt":652.10000002384,"correct":true,"confidence":2}]