[{"trial_n":1,"span":8,"encoder":"92588144","distractor":"92588146","target":"present","response":"present","rt":"8388","correct":true,"confidence":-1},{"trial_n":2,"span":8,"encoder":"17523345","distractor":"17023345","target":"present","response":"present","rt":"2159","correct":true,"confidence":-1},{"trial_n":3,"span":10,"encoder":"4263386368","distractor":"4963386368","target":"absent","response":"present","rt":"1943","correct":false,"confidence":-1},{"trial_n":4,"span":8,"encoder":"87407095","distractor":"87408095","target":"absent","response":"present","rt":"958","correct":false,"confidence":-1},{"trial_n":5,"span":6,"encoder":"758917","distractor":"758912","target":"present","response":"present","rt":"877","correct":true,"confidence":-1},{"trial_n":6,"span":6,"encoder":"002760","distractor":"802760","target":"present","response":"present","rt":"1800","correct":true,"confidence":-1},{"trial_n":7,"span":8,"encoder":"71814125","distractor":"71814625","target":"present","response":"present","rt":"1052","correct":true,"confidence":-1},{"trial_n":8,"span":8,"encoder":"20826724","distractor":"29826724","target":"present","response":"present","rt":"1688","correct":true,"confidence":-1},{"trial_n":9,"span":10,"encoder":"6416877127","distractor":"6416877121","target":"present","response":"absent","rt":"1438","correct":false,"confidence":-1},{"trial_n":10,"span":8,"encoder":"59439230","distractor":"59439280","target":"present","response":"present","rt":"802","correct":true,"confidence":-1},{"trial_n":11,"span":8,"encoder":"70418245","distractor":"71418245","target":"absent","response":"present","rt":"814","correct":false,"confidence":-1},{"trial_n":12,"span":7,"encoder":"2662652","distractor":"3662652","target":"present","response":"present","rt":"589","correct":true,"confidence":-1},{"trial_n":13,"span":7,"encoder":"9290818","distractor":"5290818","target":"present","response":"present","rt":"1127","correct":true,"confidence":-1},{"trial_n":14,"span":8,"encoder":"69292111","distractor":"69252111","target":"absent","response":"present","rt":"1677","correct":false,"confidence":-1},{"trial_n":15,"span":7,"encoder":"0592110","distractor":"0592710","target":"absent","response":"present","rt":"610","correct":false,"confidence":-1},{"trial_n":16,"span":6,"encoder":"902317","distractor":"902310","target":"absent","response":"present","rt":"3487","correct":false,"confidence":-1},{"trial_n":17,"span":5,"encoder":"20539","distractor":"30539","target":"present","response":"present","rt":"2025","correct":true,"confidence":-1},{"trial_n":18,"span":5,"encoder":"97358","distractor":"97356","target":"present","response":"present","rt":"613","correct":true,"confidence":-1},{"trial_n":19,"span":6,"encoder":"442374","distractor":"443374","target":"absent","response":"absent","rt":"2506","correct":true,"confidence":-1},{"trial_n":20,"span":6,"encoder":"627004","distractor":"627064","target":"absent","response":"present","rt":"958","correct":false,"confidence":-1},{"trial_n":21,"span":5,"encoder":"51291","distractor":"53291","target":"present","response":"present","rt":"2737","correct":true,"confidence":2},{"trial_n":22,"span":5,"encoder":"20620","distractor":"20320","target":"present","response":"present","rt":"3291","correct":true,"confidence":4},{"trial_n":23,"span":6,"encoder":"831748","distractor":"836748","target":"absent","response":"present","rt":"3974","correct":false,"confidence":3},{"trial_n":24,"span":5,"encoder":"72243","distractor":"02243","target":"present","response":"present","rt":"1358","correct":true,"confidence":4},{"trial_n":25,"span":5,"encoder":"39441","distractor":"39481","target":"absent","response":"present","rt":"5781","correct":false,"confidence":4},{"trial_n":26,"span":4,"encoder":"1519","distractor":"2519","target":"present","response":"present","rt":"1886","correct":true,"confidence":5},{"trial_n":27,"span":4,"encoder":"5526","distractor":"5026","target":"present","response":"present","rt":"1333","correct":true,"confidence":5},{"trial_n":28,"span":5,"encoder":"42529","distractor":"72529","target":"present","response":"present","rt":"2157","correct":true,"confidence":5},{"trial_n":29,"span":5,"encoder":"15026","distractor":"19026","target":"absent","response":"absent","rt":"3244","correct":true,"confidence":4},{"trial_n":30,"span":6,"encoder":"088180","distractor":"088183","target":"present","response":"present","rt":"1974","correct":true,"confidence":4},{"trial_n":31,"span":6,"encoder":"656660","distractor":"656600","target":"absent","response":"present","rt":"1830.9999999999","correct":false,"confidence":4},{"trial_n":32,"span":5,"encoder":"65095","distractor":"68095","target":"present","response":"present","rt":"2027","correct":true,"confidence":5},{"trial_n":33,"span":5,"encoder":"33507","distractor":"33577","target":"present","response":"present","rt":"1894","correct":true,"confidence":5},{"trial_n":34,"span":6,"encoder":"323783","distractor":"323723","target":"present","response":"absent","rt":"6604.0000000001","correct":false,"confidence":3},{"trial_n":35,"span":5,"encoder":"46594","distractor":"96594","target":"absent","response":"present","rt":"3244","correct":false,"confidence":5},{"trial_n":36,"span":4,"encoder":"9544","distractor":"0544","target":"absent","response":"absent","rt":"4417","correct":true,"confidence":4},{"trial_n":37,"span":4,"encoder":"4247","distractor":"4147","target":"absent","response":"absent","rt":"1750.9999999999","correct":true,"confidence":5},{"trial_n":38,"span":5,"encoder":"32668","distractor":"62668","target":"absent","response":"absent","rt":"2935","correct":true,"confidence":4},{"trial_n":39,"span":5,"encoder":"93773","distractor":"33773","target":"present","response":"present","rt":"1677","correct":true,"confidence":4},{"trial_n":40,"span":6,"encoder":"512588","distractor":"812588","target":"present","response":"absent","rt":"4907","correct":false,"confidence":4},{"trial_n":41,"span":5,"encoder":"07702","distractor":"02702","target":"absent","response":"absent","rt":"4448","correct":true,"confidence":4},{"trial_n":42,"span":5,"encoder":"01370","distractor":"01390","target":"present","response":"present","rt":"1549","correct":true,"confidence":5},{"trial_n":43,"span":6,"encoder":"192587","distractor":"192687","target":"present","response":"present","rt":"2117","correct":true,"confidence":4},{"trial_n":44,"span":6,"encoder":"080992","distractor":"980992","target":"absent","response":"absent","rt":"2122","correct":true,"confidence":3},{"trial_n":45,"span":7,"encoder":"3464521","distractor":"3424521","target":"present","response":"absent","rt":"2562.9999999999","correct":false,"confidence":2},{"trial_n":46,"span":6,"encoder":"054768","distractor":"054368","target":"absent","response":"absent","rt":"2284","correct":true,"confidence":2},{"trial_n":47,"span":6,"encoder":"299474","distractor":"289474","target":"present","response":"present","rt":"2982","correct":true,"confidence":3},{"trial_n":48,"span":7,"encoder":"2019398","distractor":"2019393","target":"absent","response":"absent","rt":"3079.0000000001","correct":true,"confidence":3},{"trial_n":49,"span":7,"encoder":"3291253","distractor":"2291253","target":"absent","response":"present","rt":"2438","correct":false,"confidence":2},{"trial_n":50,"span":6,"encoder":"691199","distractor":"291199","target":"present","response":"present","rt":"2059","correct":true,"confidence":4},{"trial_n":51,"span":6,"encoder":"467086","distractor":"497086","target":"absent","response":"present","rt":"4587.9999999999","correct":false,"confidence":2},{"trial_n":52,"span":5,"encoder":"25790","distractor":"25990","target":"absent","response":"absent","rt":"1606","correct":true,"confidence":3},{"trial_n":53,"span":5,"encoder":"66453","distractor":"76453","target":"absent","response":"absent","rt":"2190","correct":true,"confidence":3},{"trial_n":54,"span":6,"encoder":"504978","distractor":"504975","target":"absent","response":"absent","rt":"1284","correct":true,"confidence":4},{"trial_n":55,"span":6,"encoder":"552606","distractor":"512606","target":"absent","response":"present","rt":"2722.0000000001","correct":false,"confidence":2},{"trial_n":56,"span":5,"encoder":"55508","distractor":"55501","target":"present","response":"present","rt":"2020.0000000001","correct":true,"confidence":5},{"trial_n":57,"span":5,"encoder":"95366","distractor":"35366","target":"present","response":"present","rt":"1666.9999999999","correct":true,"confidence":4},{"trial_n":58,"span":6,"encoder":"388583","distractor":"388503","target":"absent","response":"absent","rt":"2781","correct":true,"confidence":3},{"trial_n":59,"span":6,"encoder":"731803","distractor":"730803","target":"present","response":"present","rt":"1394.9999999999","correct":true,"confidence":3},{"trial_n":60,"span":7,"encoder":"9841563","distractor":"9841565","target":"absent","response":"absent","rt":"1764","correct":true,"confidence":3},{"trial_n":61,"span":7,"encoder":"6318497","distractor":"6328497","target":"absent","response":"present","rt":"1818.0000000001","correct":false,"confidence":2},{"trial_n":62,"span":6,"encoder":"657198","distractor":"657898","target":"present","response":"present","rt":"1454.0000000001","correct":true,"confidence":2},{"trial_n":63,"span":6,"encoder":"291655","distractor":"291955","target":"absent","response":"present","rt":"1565.9999999999","correct":false,"confidence":3},{"trial_n":64,"span":5,"encoder":"15608","distractor":"15604","target":"absent","response":"absent","rt":"1323","correct":true,"confidence":4},{"trial_n":65,"span":5,"encoder":"24359","distractor":"44359","target":"present","response":"present","rt":"2543","correct":true,"confidence":3},{"trial_n":66,"span":6,"encoder":"869158","distractor":"859158","target":"absent","response":"present","rt":"1528.0000000001","correct":false,"confidence":2},{"trial_n":67,"span":5,"encoder":"28917","distractor":"28217","target":"absent","response":"absent","rt":"2620.9999999999","correct":true,"confidence":3},{"trial_n":68,"span":5,"encoder":"00131","distractor":"00134","target":"absent","response":"present","rt":"2260","correct":false,"confidence":2},{"trial_n":69,"span":4,"encoder":"6153","distractor":"6155","target":"present","response":"present","rt":"1763","correct":true,"confidence":3},{"trial_n":70,"span":4,"encoder":"2745","distractor":"9745","target":"present","response":"present","rt":"1124","correct":true,"confidence":5},{"trial_n":71,"span":8,"encoder":"25037005","distractor":"25037003","target":"present","response":"absent","rt":"5349","correct":false,"confidence":-1},{"trial_n":72,"span":7,"encoder":"5952138","distractor":"5952130","target":"present","response":"present","rt":"1808","correct":true,"confidence":-1},{"trial_n":73,"span":7,"encoder":"3755406","distractor":"3757406","target":"absent","response":"present","rt":"1227","correct":false,"confidence":-1},{"trial_n":74,"span":6,"encoder":"369299","distractor":"369293","target":"absent","response":"absent","rt":"1559.0000000001","correct":true,"confidence":-1},{"trial_n":75,"span":6,"encoder":"012953","distractor":"012923","target":"present","response":"absent","rt":"1979","correct":false,"confidence":-1},{"trial_n":76,"span":5,"encoder":"41463","distractor":"41863","target":"absent","response":"absent","rt":"922","correct":true,"confidence":-1},{"trial_n":77,"span":5,"encoder":"33672","distractor":"33682","target":"present","response":"present","rt":"1428","correct":true,"confidence":-1},{"trial_n":78,"span":6,"encoder":"482717","distractor":"482710","target":"absent","response":"absent","rt":"1598","correct":true,"confidence":-1},{"trial_n":79,"span":6,"encoder":"258109","distractor":"258119","target":"absent","response":"absent","rt":"1705","correct":true,"confidence":-1},{"trial_n":80,"span":7,"encoder":"8586075","distractor":"8586079","target":"absent","response":"absent","rt":"1376.0000000001","correct":true,"confidence":-1},{"trial_n":81,"span":7,"encoder":"5846945","distractor":"5846905","target":"present","response":"present","rt":"1529","correct":true,"confidence":-1},{"trial_n":82,"span":8,"encoder":"80657046","distractor":"80659046","target":"present","response":"present","rt":"1623","correct":true,"confidence":-1},{"trial_n":83,"span":8,"encoder":"53964965","distractor":"53954965","target":"absent","response":"absent","rt":"4274","correct":true,"confidence":-1},{"trial_n":84,"span":9,"encoder":"910240631","distractor":"910840631","target":"present","response":"present","rt":"961","correct":true,"confidence":-1},{"trial_n":85,"span":9,"encoder":"181311876","distractor":"281311876","target":"absent","response":"present","rt":"2409","correct":false,"confidence":-1},{"trial_n":86,"span":8,"encoder":"40125537","distractor":"40125437","target":"absent","response":"absent","rt":"2362","correct":true,"confidence":-1},{"trial_n":87,"span":8,"encoder":"90139158","distractor":"90139198","target":"absent","response":"absent","rt":"1106","correct":true,"confidence":-1},{"trial_n":88,"span":9,"encoder":"328991492","distractor":"328991402","target":"absent","response":"present","rt":"1369","correct":false,"confidence":-1},{"trial_n":89,"span":8,"encoder":"95101270","distractor":"95100270","target":"present","response":"present","rt":"12140","correct":true,"confidence":-1},{"trial_n":90,"span":8,"encoder":"19427813","distractor":"19427814","target":"absent","response":"absent","rt":"712","correct":true,"confidence":-1},{"trial_n":91,"span":9,"encoder":"244411298","distractor":"244411798","target":"absent","response":"absent","rt":"2868.9999999999","correct":true,"confidence":3},{"trial_n":92,"span":9,"encoder":"866432480","distractor":"866432380","target":"absent","response":"absent","rt":"5036","correct":true,"confidence":3},{"trial_n":93,"span":10,"encoder":"3456551984","distractor":"6456551984","target":"present","response":"present","rt":"2756.0000000001","correct":true,"confidence":2},{"trial_n":94,"span":10,"encoder":"1892044665","distractor":"1892044655","target":"present","response":"present","rt":"3933","correct":true,"confidence":2},{"trial_n":95,"span":11,"encoder":"50813506222","distractor":"50813508222","target":"present","response":"present","rt":"4236","correct":true,"confidence":2},{"trial_n":96,"span":11,"encoder":"88893598391","distractor":"88993598391","target":"absent","response":"absent","rt":"5400","correct":true,"confidence":1},{"trial_n":97,"span":12,"encoder":"632712356604","distractor":"632711356604","target":"present","response":"absent","rt":"6295","correct":false,"confidence":1},{"trial_n":98,"span":11,"encoder":"30624169469","distractor":"30624169466","target":"present","response":"present","rt":"2253","correct":true,"confidence":3},{"trial_n":99,"span":11,"encoder":"38000865129","distractor":"38070865129","target":"absent","response":"present","rt":"6415","correct":false,"confidence":1},{"trial_n":100,"span":10,"encoder":"6918019575","distractor":"6918619575","target":"present","response":"absent","rt":"3201","correct":false,"confidence":1},{"trial_n":101,"span":9,"encoder":"549719920","distractor":"549919920","target":"present","response":"present","rt":"3279","correct":true,"confidence":1},{"trial_n":102,"span":9,"encoder":"130583700","distractor":"133583700","target":"present","response":"absent","rt":"3369","correct":false,"confidence":1},{"trial_n":103,"span":8,"encoder":"66614334","distractor":"69614334","target":"absent","response":"present","rt":"2217","correct":false,"confidence":1},{"trial_n":104,"span":7,"encoder":"5637297","distractor":"5237297","target":"present","response":"present","rt":"3900","correct":true,"confidence":1},{"trial_n":105,"span":7,"encoder":"5439123","distractor":"5439127","target":"present","response":"absent","rt":"1869.9999999999","correct":false,"confidence":2},{"trial_n":106,"span":6,"encoder":"321318","distractor":"325318","target":"absent","response":"absent","rt":"5067.9999999999","correct":true,"confidence":2},{"trial_n":107,"span":6,"encoder":"456727","distractor":"452727","target":"absent","response":"absent","rt":"3319","correct":true,"confidence":2},{"trial_n":108,"span":7,"encoder":"2666022","distractor":"2666522","target":"present","response":"present","rt":"1976.9999999999","correct":true,"confidence":3},{"trial_n":109,"span":7,"encoder":"9150810","distractor":"8150810","target":"absent","response":"absent","rt":"2257","correct":true,"confidence":3},{"trial_n":110,"span":8,"encoder":"85960675","distractor":"85760675","target":"present","response":"absent","rt":"7712","correct":false,"confidence":2},{"trial_n":111,"span":7,"encoder":"3771376","distractor":"5771376","target":"present","response":"present","rt":"3984.0000000001","correct":true,"confidence":3},{"trial_n":112,"span":7,"encoder":"5613819","distractor":"3613819","target":"absent","response":"present","rt":"2269","correct":false,"confidence":3},{"trial_n":113,"span":6,"encoder":"662690","distractor":"660690","target":"present","response":"present","rt":"2075.9999999999","correct":true,"confidence":3},{"trial_n":114,"span":6,"encoder":"936259","distractor":"936256","target":"present","response":"present","rt":"5321","correct":true,"confidence":3},{"trial_n":115,"span":7,"encoder":"2811128","distractor":"2815128","target":"absent","response":"absent","rt":"1538","correct":true,"confidence":4},{"trial_n":116,"span":7,"encoder":"5911711","distractor":"5911719","target":"present","response":"present","rt":"1619.0000000001","correct":true,"confidence":4},{"trial_n":117,"span":8,"encoder":"03218288","distractor":"05218288","target":"present","response":"absent","rt":"3276.0000000001","correct":false,"confidence":3},{"trial_n":118,"span":7,"encoder":"8162783","distractor":"8462783","target":"present","response":"present","rt":"2450","correct":true,"confidence":3},{"trial_n":119,"span":7,"encoder":"2895151","distractor":"8895151","target":"present","response":"absent","rt":"3665","correct":false,"confidence":2},{"trial_n":120,"span":6,"encoder":"671835","distractor":"671836","target":"present","response":"present","rt":"3368","correct":true,"confidence":2},{"trial_n":121,"span":6,"encoder":"033588","distractor":"043588","target":"absent","response":"absent","rt":"1518","correct":true,"confidence":4},{"trial_n":122,"span":7,"encoder":"5718123","distractor":"5718128","target":"absent","response":"absent","rt":"1817","correct":true,"confidence":4},{"trial_n":123,"span":7,"encoder":"2842177","distractor":"2542177","target":"absent","response":"absent","rt":"2610.0000000002","correct":true,"confidence":2},{"trial_n":124,"span":8,"encoder":"48157810","distractor":"48257810","target":"present","response":"present","rt":"2240.0000000002","correct":true,"confidence":4},{"trial_n":125,"span":8,"encoder":"68646541","distractor":"68646141","target":"absent","response":"absent","rt":"3012","correct":true,"confidence":3},{"trial_n":126,"span":9,"encoder":"273311781","distractor":"273391781","target":"present","response":"present","rt":"7048","correct":true,"confidence":2},{"trial_n":127,"span":9,"encoder":"764546736","distractor":"764506736","target":"present","response":"present","rt":"3192","correct":true,"confidence":1},{"trial_n":128,"span":10,"encoder":"5392923006","distractor":"5362923006","target":"absent","response":"absent","rt":"7709","correct":true,"confidence":1},{"trial_n":129,"span":10,"encoder":"1721496207","distractor":"1721496307","target":"present","response":"present","rt":"2432","correct":true,"confidence":2},{"trial_n":130,"span":11,"encoder":"17267950702","distractor":"17267950700","target":"present","response":"present","rt":"1464","correct":true,"confidence":4},{"trial_n":131,"span":11,"encoder":"66544432750","distractor":"66549432750","target":"absent","response":"absent","rt":"2318","correct":true,"confidence":3},{"trial_n":132,"span":12,"encoder":"790825242488","distractor":"490825242488","target":"absent","response":"absent","rt":"7482","correct":true,"confidence":1},{"trial_n":133,"span":12,"encoder":"889113060306","distractor":"389113060306","target":"present","response":"present","rt":"1745","correct":true,"confidence":4},{"trial_n":134,"span":13,"encoder":"8015863604145","distractor":"8015863607145","target":"absent","response":"absent","rt":"2467","correct":true,"confidence":1},{"trial_n":135,"span":13,"encoder":"1461686963055","distractor":"1461646963055","target":"absent","response":"absent","rt":"5798","correct":true,"confidence":1},{"trial_n":136,"span":14,"encoder":"43585359319631","distractor":"43586359319631","target":"absent","response":"present","rt":"3621","correct":false,"confidence":1},{"trial_n":137,"span":13,"encoder":"8516644988640","distractor":"8516644988645","target":"present","response":"absent","rt":"3019","correct":false,"confidence":1},{"trial_n":138,"span":12,"encoder":"553601327689","distractor":"553601427689","target":"present","response":"present","rt":"1918","correct":true,"confidence":1},{"trial_n":139,"span":12,"encoder":"781008344379","distractor":"781008344879","target":"absent","response":"present","rt":"1655","correct":false,"confidence":1},{"trial_n":140,"span":11,"encoder":"65992719847","distractor":"66992719847","target":"absent","response":"absent","rt":"3710","correct":true,"confidence":1}]