[{"trial_n":1,"min":25,"max":230,"target":"present","response":"present","rt":8995,"correct":true,"confidence":-1},{"trial_n":2,"min":25,"max":230,"target":"present","response":"absent","rt":2207,"correct":false,"confidence":-1},{"trial_n":3,"min":9,"max":246,"target":"absent","response":"present","rt":1084,"correct":false,"confidence":-1},{"trial_n":4,"min":0,"max":255,"target":"absent","response":"present","rt":1995,"correct":false,"confidence":-1},{"trial_n":5,"min":0,"max":255,"target":"present","response":"present","rt":884,"correct":true,"confidence":-1},{"trial_n":6,"min":0,"max":255,"target":"present","response":"present","rt":490,"correct":true,"confidence":-1},{"trial_n":7,"min":16,"max":239,"target":"absent","response":"absent","rt":471,"correct":true,"confidence":-1},{"trial_n":8,"min":16,"max":239,"target":"present","response":"present","rt":359,"correct":true,"confidence":-1},{"trial_n":9,"min":32,"max":223,"target":"absent","response":"absent","rt":518,"correct":true,"confidence":-1},{"trial_n":10,"min":32,"max":223,"target":"present","response":"present","rt":610,"correct":true,"confidence":-1},{"trial_n":11,"min":40,"max":215,"target":"present","response":"present","rt":344,"correct":true,"confidence":-1},{"trial_n":12,"min":40,"max":215,"target":"absent","response":"absent","rt":363,"correct":true,"confidence":-1},{"trial_n":13,"min":48,"max":207,"target":"present","response":"present","rt":393,"correct":true,"confidence":-1},{"trial_n":14,"min":48,"max":207,"target":"present","response":"present","rt":473,"correct":true,"confidence":-1},{"trial_n":15,"min":56,"max":199,"target":"present","response":"present","rt":447,"correct":true,"confidence":-1},{"trial_n":16,"min":56,"max":199,"target":"present","response":"present","rt":364,"correct":true,"confidence":-1},{"trial_n":17,"min":64,"max":191,"target":"absent","response":"absent","rt":327,"correct":true,"confidence":-1},{"trial_n":18,"min":64,"max":191,"target":"absent","response":"absent","rt":375,"correct":true,"confidence":-1},{"trial_n":19,"min":72,"max":183,"target":"absent","response":"absent","rt":142,"correct":true,"confidence":-1},{"trial_n":20,"min":72,"max":183,"target":"present","response":"present","rt":257.99999999999,"correct":true,"confidence":-1},{"trial_n":21,"min":76,"max":179,"target":"absent","response":"absent","rt":559,"correct":true,"confidence":5},{"trial_n":22,"min":76,"max":179,"target":"absent","response":"absent","rt":587,"correct":true,"confidence":5},{"trial_n":23,"min":80,"max":175,"target":"present","response":"present","rt":746,"correct":true,"confidence":5},{"trial_n":24,"min":80,"max":175,"target":"present","response":"absent","rt":893,"correct":false,"confidence":3},{"trial_n":25,"min":76,"max":179,"target":"present","response":"present","rt":611.99999999999,"correct":true,"confidence":5},{"trial_n":26,"min":76,"max":179,"target":"absent","response":"absent","rt":509,"correct":true,"confidence":3},{"trial_n":27,"min":80,"max":175,"target":"present","response":"present","rt":694,"correct":true,"confidence":3},{"trial_n":28,"min":80,"max":175,"target":"absent","response":"absent","rt":1745,"correct":true,"confidence":4},{"trial_n":29,"min":84,"max":171,"target":"present","response":"present","rt":1920,"correct":true,"confidence":2},{"trial_n":30,"min":84,"max":171,"target":"absent","response":"absent","rt":915,"correct":true,"confidence":4},{"trial_n":31,"min":86,"max":169,"target":"present","response":"absent","rt":766,"correct":false,"confidence":3},{"trial_n":32,"min":84,"max":171,"target":"absent","response":"absent","rt":1820,"correct":true,"confidence":4},{"trial_n":33,"min":84,"max":171,"target":"absent","response":"absent","rt":402.99999999999,"correct":true,"confidence":5},{"trial_n":34,"min":86,"max":169,"target":"present","response":"absent","rt":2195,"correct":false,"confidence":3},{"trial_n":35,"min":84,"max":171,"target":"present","response":"absent","rt":551,"correct":false,"confidence":3},{"trial_n":36,"min":82,"max":173,"target":"absent","response":"absent","rt":402,"correct":true,"confidence":4},{"trial_n":37,"min":82,"max":173,"target":"absent","response":"absent","rt":448,"correct":true,"confidence":4},{"trial_n":38,"min":84,"max":171,"target":"absent","response":"absent","rt":505,"correct":true,"confidence":3},{"trial_n":39,"min":84,"max":171,"target":"absent","response":"present","rt":790,"correct":false,"confidence":2},{"trial_n":40,"min":82,"max":173,"target":"absent","response":"absent","rt":480,"correct":true,"confidence":2},{"trial_n":41,"min":82,"max":173,"target":"absent","response":"absent","rt":740,"correct":true,"confidence":4},{"trial_n":42,"min":83,"max":172,"target":"present","response":"present","rt":571,"correct":true,"confidence":5},{"trial_n":43,"min":83,"max":172,"target":"present","response":"present","rt":616.99999999997,"correct":true,"confidence":4},{"trial_n":44,"min":84,"max":171,"target":"present","response":"absent","rt":632,"correct":false,"confidence":3},{"trial_n":45,"min":83,"max":172,"target":"absent","response":"absent","rt":562,"correct":true,"confidence":3},{"trial_n":46,"min":83,"max":172,"target":"present","response":"absent","rt":462,"correct":false,"confidence":3},{"trial_n":47,"min":82,"max":173,"target":"absent","response":"absent","rt":656,"correct":true,"confidence":3},{"trial_n":48,"min":82,"max":173,"target":"absent","response":"absent","rt":365,"correct":true,"confidence":2},{"trial_n":49,"min":83,"max":172,"target":"absent","response":"absent","rt":416.99999999997,"correct":true,"confidence":2},{"trial_n":50,"min":83,"max":172,"target":"present","response":"absent","rt":610.99999999997,"correct":false,"confidence":2},{"trial_n":51,"min":82,"max":173,"target":"absent","response":"absent","rt":565,"correct":true,"confidence":3},{"trial_n":52,"min":82,"max":173,"target":"present","response":"present","rt":601,"correct":true,"confidence":3},{"trial_n":53,"min":83,"max":172,"target":"absent","response":"absent","rt":448.99999999997,"correct":true,"confidence":3},{"trial_n":54,"min":83,"max":172,"target":"absent","response":"absent","rt":332,"correct":true,"confidence":2},{"trial_n":55,"min":84,"max":171,"target":"present","response":"absent","rt":427,"correct":false,"confidence":2},{"trial_n":56,"min":83,"max":172,"target":"present","response":"absent","rt":630,"correct":false,"confidence":2},{"trial_n":57,"min":82,"max":173,"target":"present","response":"present","rt":705.00000000003,"correct":true,"confidence":3},{"trial_n":58,"min":82,"max":173,"target":"absent","response":"absent","rt":360.99999999997,"correct":true,"confidence":2},{"trial_n":59,"min":83,"max":172,"target":"present","response":"absent","rt":724.00000000003,"correct":false,"confidence":2},{"trial_n":60,"min":82,"max":173,"target":"present","response":"absent","rt":393,"correct":false,"confidence":1},{"trial_n":61,"min":81,"max":174,"target":"absent","response":"absent","rt":426.00000000003,"correct":true,"confidence":2},{"trial_n":62,"min":81,"max":174,"target":"absent","response":"absent","rt":946,"correct":true,"confidence":2},{"trial_n":63,"min":82,"max":173,"target":"present","response":"present","rt":1241,"correct":true,"confidence":2},{"trial_n":64,"min":82,"max":173,"target":"absent","response":"absent","rt":616,"correct":true,"confidence":2},{"trial_n":65,"min":83,"max":172,"target":"present","response":"absent","rt":471,"correct":false,"confidence":2},{"trial_n":66,"min":82,"max":173,"target":"present","response":"present","rt":631,"correct":true,"confidence":3},{"trial_n":67,"min":82,"max":173,"target":"present","response":"present","rt":861.99999999997,"correct":true,"confidence":3},{"trial_n":68,"min":83,"max":172,"target":"absent","response":"absent","rt":386,"correct":true,"confidence":2},{"trial_n":69,"min":83,"max":172,"target":"absent","response":"absent","rt":488,"correct":true,"confidence":2},{"trial_n":70,"min":84,"max":171,"target":"present","response":"absent","rt":652,"correct":false,"confidence":2},{"trial_n":71,"min":41,"max":214,"target":"present","response":"present","rt":2082,"correct":true,"confidence":-1},{"trial_n":72,"min":41,"max":214,"target":"present","response":"present","rt":20,"correct":true,"confidence":-1},{"trial_n":73,"min":57,"max":198,"target":"absent","response":"absent","rt":812,"correct":true,"confidence":-1},{"trial_n":74,"min":57,"max":198,"target":"absent","response":"absent","rt":337.00000000003,"correct":true,"confidence":-1},{"trial_n":75,"min":73,"max":182,"target":"present","response":"present","rt":254,"correct":true,"confidence":-1},{"trial_n":76,"min":73,"max":182,"target":"absent","response":"absent","rt":505.00000000003,"correct":true,"confidence":-1},{"trial_n":77,"min":89,"max":166,"target":"absent","response":"absent","rt":662,"correct":true,"confidence":-1},{"trial_n":78,"min":89,"max":166,"target":"absent","response":"present","rt":551.00000000003,"correct":false,"confidence":-1},{"trial_n":79,"min":73,"max":182,"target":"absent","response":"absent","rt":484,"correct":true,"confidence":-1},{"trial_n":80,"min":73,"max":182,"target":"absent","response":"absent","rt":575.99999999997,"correct":true,"confidence":-1},{"trial_n":81,"min":81,"max":174,"target":"absent","response":"absent","rt":694.00000000003,"correct":true,"confidence":-1},{"trial_n":82,"min":81,"max":174,"target":"present","response":"present","rt":340.00000000003,"correct":true,"confidence":-1},{"trial_n":83,"min":89,"max":166,"target":"absent","response":"absent","rt":527.00000000006,"correct":true,"confidence":-1},{"trial_n":84,"min":89,"max":166,"target":"absent","response":"present","rt":620.99999999994,"correct":false,"confidence":-1},{"trial_n":85,"min":81,"max":174,"target":"absent","response":"absent","rt":403,"correct":true,"confidence":-1},{"trial_n":86,"min":81,"max":174,"target":"present","response":"absent","rt":635,"correct":false,"confidence":-1},{"trial_n":87,"min":73,"max":182,"target":"present","response":"present","rt":521,"correct":true,"confidence":-1},{"trial_n":88,"min":73,"max":182,"target":"present","response":"present","rt":524,"correct":true,"confidence":-1},{"trial_n":89,"min":81,"max":174,"target":"absent","response":"absent","rt":1097,"correct":true,"confidence":-1},{"trial_n":90,"min":81,"max":174,"target":"present","response":"present","rt":483,"correct":true,"confidence":-1},{"trial_n":91,"min":85,"max":170,"target":"present","response":"present","rt":489,"correct":true,"confidence":3},{"trial_n":92,"min":85,"max":170,"target":"present","response":"present","rt":247,"correct":true,"confidence":4},{"trial_n":93,"min":89,"max":166,"target":"present","response":"absent","rt":893,"correct":false,"confidence":1},{"trial_n":94,"min":85,"max":170,"target":"present","response":"present","rt":335,"correct":true,"confidence":3},{"trial_n":95,"min":85,"max":170,"target":"present","response":"present","rt":246,"correct":true,"confidence":4},{"trial_n":96,"min":89,"max":166,"target":"absent","response":"absent","rt":439,"correct":true,"confidence":4},{"trial_n":97,"min":89,"max":166,"target":"absent","response":"present","rt":440,"correct":false,"confidence":3},{"trial_n":98,"min":85,"max":170,"target":"absent","response":"present","rt":332,"correct":false,"confidence":3},{"trial_n":99,"min":81,"max":174,"target":"present","response":"present","rt":202,"correct":true,"confidence":3},{"trial_n":100,"min":81,"max":174,"target":"present","response":"present","rt":167,"correct":true,"confidence":3},{"trial_n":101,"min":83,"max":172,"target":"absent","response":"present","rt":278,"correct":false,"confidence":2},{"trial_n":102,"min":81,"max":174,"target":"absent","response":"absent","rt":443,"correct":true,"confidence":2},{"trial_n":103,"min":81,"max":174,"target":"absent","response":"absent","rt":532,"correct":true,"confidence":3},{"trial_n":104,"min":83,"max":172,"target":"present","response":"absent","rt":635.00000000006,"correct":false,"confidence":2},{"trial_n":105,"min":81,"max":174,"target":"absent","response":"present","rt":535,"correct":false,"confidence":1},{"trial_n":106,"min":79,"max":176,"target":"absent","response":"absent","rt":521,"correct":true,"confidence":3},{"trial_n":107,"min":79,"max":176,"target":"present","response":"present","rt":227,"correct":true,"confidence":3},{"trial_n":108,"min":81,"max":174,"target":"present","response":"present","rt":200,"correct":true,"confidence":4},{"trial_n":109,"min":81,"max":174,"target":"present","response":"present","rt":231,"correct":true,"confidence":4},{"trial_n":110,"min":83,"max":172,"target":"present","response":"present","rt":133,"correct":true,"confidence":4},{"trial_n":111,"min":83,"max":172,"target":"present","response":"present","rt":206,"correct":true,"confidence":4},{"trial_n":112,"min":84,"max":171,"target":"absent","response":"absent","rt":617,"correct":true,"confidence":3},{"trial_n":113,"min":84,"max":171,"target":"absent","response":"absent","rt":681.00000000006,"correct":true,"confidence":2},{"trial_n":114,"min":85,"max":170,"target":"present","response":"present","rt":78,"correct":true,"confidence":3},{"trial_n":115,"min":85,"max":170,"target":"absent","response":"absent","rt":507,"correct":true,"confidence":3},{"trial_n":116,"min":86,"max":169,"target":"present","response":"present","rt":304,"correct":true,"confidence":3},{"trial_n":117,"min":86,"max":169,"target":"present","response":"present","rt":517,"correct":true,"confidence":3},{"trial_n":118,"min":87,"max":168,"target":"absent","response":"present","rt":610.00000000006,"correct":false,"confidence":3},{"trial_n":119,"min":86,"max":169,"target":"absent","response":"present","rt":567,"correct":false,"confidence":1},{"trial_n":120,"min":85,"max":170,"target":"present","response":"present","rt":507,"correct":true,"confidence":1},{"trial_n":121,"min":85,"max":170,"target":"present","response":"present","rt":209,"correct":true,"confidence":5},{"trial_n":122,"min":86,"max":169,"target":"absent","response":"present","rt":1254.0000000001,"correct":false,"confidence":1},{"trial_n":123,"min":85,"max":170,"target":"present","response":"present","rt":175,"correct":true,"confidence":3},{"trial_n":124,"min":85,"max":170,"target":"present","response":"present","rt":184.99999999994,"correct":true,"confidence":4},{"trial_n":125,"min":86,"max":169,"target":"absent","response":"present","rt":533,"correct":false,"confidence":1},{"trial_n":126,"min":85,"max":170,"target":"present","response":"present","rt":981,"correct":true,"confidence":4},{"trial_n":127,"min":85,"max":170,"target":"present","response":"present","rt":169,"correct":true,"confidence":4},{"trial_n":128,"min":86,"max":169,"target":"present","response":"absent","rt":1233,"correct":false,"confidence":1},{"trial_n":129,"min":85,"max":170,"target":"absent","response":"absent","rt":1127,"correct":true,"confidence":3},{"trial_n":130,"min":85,"max":170,"target":"present","response":"present","rt":1249,"correct":true,"confidence":1},{"trial_n":131,"min":86,"max":169,"target":"absent","response":"absent","rt":583,"correct":true,"confidence":2},{"trial_n":132,"min":86,"max":169,"target":"present","response":"absent","rt":683,"correct":false,"confidence":2},{"trial_n":133,"min":85,"max":170,"target":"present","response":"present","rt":188,"correct":true,"confidence":2},{"trial_n":134,"min":85,"max":170,"target":"absent","response":"present","rt":353,"correct":false,"confidence":1},{"trial_n":135,"min":84,"max":171,"target":"absent","response":"absent","rt":260,"correct":true,"confidence":1},{"trial_n":136,"min":84,"max":171,"target":"absent","response":"present","rt":706,"correct":false,"confidence":1},{"trial_n":137,"min":83,"max":172,"target":"absent","response":"absent","rt":438,"correct":true,"confidence":2},{"trial_n":138,"min":83,"max":172,"target":"present","response":"present","rt":171,"correct":true,"confidence":4},{"trial_n":139,"min":84,"max":171,"target":"present","response":"absent","rt":614.00000000006,"correct":false,"confidence":4},{"trial_n":140,"min":83,"max":172,"target":"absent","response":"present","rt":1427,"correct":false,"confidence":1}]