[{"trial_n":1,"min":25,"max":230,"target":"present","response":"absent","rt":4050.7999999989,"correct":false,"confidence":-1},{"trial_n":2,"min":25,"max":230,"target":"present","response":"present","rt":976.59999999963,"correct":true,"confidence":-1},{"trial_n":3,"min":25,"max":230,"target":"absent","response":"absent","rt":321.90000000037,"correct":true,"confidence":-1},{"trial_n":4,"min":41,"max":214,"target":"absent","response":"absent","rt":167.29999999888,"correct":true,"confidence":-1},{"trial_n":5,"min":41,"max":214,"target":"present","response":"present","rt":403.5,"correct":true,"confidence":-1},{"trial_n":6,"min":57,"max":198,"target":"present","response":"absent","rt":162.90000000037,"correct":false,"confidence":-1},{"trial_n":7,"min":41,"max":214,"target":"present","response":"present","rt":159.20000000112,"correct":true,"confidence":-1},{"trial_n":8,"min":41,"max":214,"target":"absent","response":"absent","rt":569.5,"correct":true,"confidence":-1},{"trial_n":9,"min":57,"max":198,"target":"absent","response":"absent","rt":288,"correct":true,"confidence":-1},{"trial_n":10,"min":57,"max":198,"target":"absent","response":"absent","rt":450,"correct":true,"confidence":-1},{"trial_n":11,"min":65,"max":190,"target":"present","response":"absent","rt":406,"correct":false,"confidence":-1},{"trial_n":12,"min":57,"max":198,"target":"absent","response":"present","rt":509.30000000075,"correct":false,"confidence":-1},{"trial_n":13,"min":49,"max":206,"target":"absent","response":"absent","rt":324.30000000075,"correct":true,"confidence":-1},{"trial_n":14,"min":49,"max":206,"target":"present","response":"present","rt":288.79999999888,"correct":true,"confidence":-1},{"trial_n":15,"min":57,"max":198,"target":"present","response":"absent","rt":157,"correct":false,"confidence":-1},{"trial_n":16,"min":49,"max":206,"target":"present","response":"present","rt":404.60000000149,"correct":true,"confidence":-1},{"trial_n":17,"min":49,"max":206,"target":"present","response":"present","rt":546.10000000149,"correct":true,"confidence":-1},{"trial_n":18,"min":57,"max":198,"target":"absent","response":"absent","rt":462.5,"correct":true,"confidence":-1},{"trial_n":19,"min":57,"max":198,"target":"present","response":"present","rt":217.39999999851,"correct":true,"confidence":-1},{"trial_n":20,"min":65,"max":190,"target":"present","response":"present","rt":417.09999999963,"correct":true,"confidence":-1},{"trial_n":21,"min":65,"max":190,"target":"present","response":"present","rt":371.40000000037,"correct":true,"confidence":3},{"trial_n":22,"min":69,"max":186,"target":"absent","response":"absent","rt":477.59999999963,"correct":true,"confidence":3},{"trial_n":23,"min":69,"max":186,"target":"absent","response":"absent","rt":541,"correct":true,"confidence":3},{"trial_n":24,"min":73,"max":182,"target":"present","response":"present","rt":432.69999999925,"correct":true,"confidence":3},{"trial_n":25,"min":73,"max":182,"target":"absent","response":"absent","rt":389.90000000037,"correct":true,"confidence":3},{"trial_n":26,"min":77,"max":178,"target":"absent","response":"absent","rt":1785.7999999989,"correct":true,"confidence":3},{"trial_n":27,"min":77,"max":178,"target":"absent","response":"present","rt":527.5,"correct":false,"confidence":3},{"trial_n":28,"min":73,"max":182,"target":"absent","response":"absent","rt":377,"correct":true,"confidence":3},{"trial_n":29,"min":73,"max":182,"target":"absent","response":"present","rt":698.19999999925,"correct":false,"confidence":3},{"trial_n":30,"min":69,"max":186,"target":"present","response":"present","rt":665.59999999963,"correct":true,"confidence":3},{"trial_n":31,"min":69,"max":186,"target":"present","response":"present","rt":345.59999999963,"correct":true,"confidence":4},{"trial_n":32,"min":71,"max":184,"target":"present","response":"present","rt":538.39999999851,"correct":true,"confidence":4},{"trial_n":33,"min":71,"max":184,"target":"absent","response":"absent","rt":403.09999999963,"correct":true,"confidence":4},{"trial_n":34,"min":73,"max":182,"target":"absent","response":"absent","rt":1149.3000000007,"correct":true,"confidence":3},{"trial_n":35,"min":73,"max":182,"target":"present","response":"present","rt":398.5,"correct":true,"confidence":3},{"trial_n":36,"min":75,"max":180,"target":"present","response":"present","rt":411.89999999851,"correct":true,"confidence":3},{"trial_n":37,"min":75,"max":180,"target":"absent","response":"absent","rt":354.90000000037,"correct":true,"confidence":3},{"trial_n":38,"min":77,"max":178,"target":"absent","response":"present","rt":1568.9000000004,"correct":false,"confidence":3},{"trial_n":39,"min":75,"max":180,"target":"absent","response":"present","rt":589.80000000075,"correct":false,"confidence":3},{"trial_n":40,"min":73,"max":182,"target":"present","response":"present","rt":312.80000000075,"correct":true,"confidence":3},{"trial_n":41,"min":73,"max":182,"target":"present","response":"present","rt":479.59999999963,"correct":true,"confidence":3},{"trial_n":42,"min":74,"max":181,"target":"absent","response":"absent","rt":371.09999999963,"correct":true,"confidence":3},{"trial_n":43,"min":74,"max":181,"target":"present","response":"present","rt":615.20000000112,"correct":true,"confidence":3},{"trial_n":44,"min":75,"max":180,"target":"absent","response":"absent","rt":382.5,"correct":true,"confidence":3},{"trial_n":45,"min":75,"max":180,"target":"present","response":"present","rt":459.59999999963,"correct":true,"confidence":4},{"trial_n":46,"min":76,"max":179,"target":"present","response":"present","rt":1072.5999999996,"correct":true,"confidence":3},{"trial_n":47,"min":76,"max":179,"target":"absent","response":"present","rt":561.69999999925,"correct":false,"confidence":1},{"trial_n":48,"min":75,"max":180,"target":"present","response":"present","rt":763.80000000075,"correct":true,"confidence":3},{"trial_n":49,"min":75,"max":180,"target":"present","response":"present","rt":1105.4000000004,"correct":true,"confidence":3},{"trial_n":50,"min":76,"max":179,"target":"present","response":"present","rt":337.30000000075,"correct":true,"confidence":4},{"trial_n":51,"min":76,"max":179,"target":"present","response":"present","rt":385.40000000037,"correct":true,"confidence":1},{"trial_n":52,"min":77,"max":178,"target":"present","response":"present","rt":698.40000000037,"correct":true,"confidence":3},{"trial_n":53,"min":77,"max":178,"target":"present","response":"present","rt":306.20000000112,"correct":true,"confidence":4},{"trial_n":54,"min":78,"max":177,"target":"absent","response":"absent","rt":394.79999999888,"correct":true,"confidence":4},{"trial_n":55,"min":78,"max":177,"target":"absent","response":"present","rt":1240.7999999989,"correct":false,"confidence":3},{"trial_n":56,"min":77,"max":178,"target":"absent","response":"present","rt":509.30000000075,"correct":false,"confidence":3},{"trial_n":57,"min":76,"max":179,"target":"present","response":"present","rt":486.59999999963,"correct":true,"confidence":3},{"trial_n":58,"min":76,"max":179,"target":"absent","response":"absent","rt":378.40000000037,"correct":true,"confidence":3},{"trial_n":59,"min":77,"max":178,"target":"absent","response":"absent","rt":553,"correct":true,"confidence":3},{"trial_n":60,"min":77,"max":178,"target":"present","response":"present","rt":966.80000000075,"correct":true,"confidence":3},{"trial_n":61,"min":78,"max":177,"target":"present","response":"present","rt":392.09999999963,"correct":true,"confidence":3},{"trial_n":62,"min":78,"max":177,"target":"present","response":"present","rt":446.80000000075,"correct":true,"confidence":3},{"trial_n":63,"min":79,"max":176,"target":"absent","response":"absent","rt":16042.800000001,"correct":true,"confidence":3},{"trial_n":64,"min":79,"max":176,"target":"absent","response":"absent","rt":318.90000000037,"correct":true,"confidence":3},{"trial_n":65,"min":80,"max":175,"target":"absent","response":"absent","rt":330.59999999963,"correct":true,"confidence":3},{"trial_n":66,"min":80,"max":175,"target":"present","response":"absent","rt":569.19999999925,"correct":false,"confidence":3},{"trial_n":67,"min":79,"max":176,"target":"present","response":"absent","rt":288.79999999888,"correct":false,"confidence":3},{"trial_n":68,"min":78,"max":177,"target":"absent","response":"absent","rt":376.80000000075,"correct":true,"confidence":4},{"trial_n":69,"min":78,"max":177,"target":"absent","response":"absent","rt":394.79999999888,"correct":true,"confidence":4},{"trial_n":70,"min":79,"max":176,"target":"absent","response":"absent","rt":275.59999999963,"correct":true,"confidence":4},{"trial_n":71,"min":41,"max":214,"target":"present","response":"present","rt":4269.1999999993,"correct":true,"confidence":-1},{"trial_n":72,"min":41,"max":214,"target":"present","response":"absent","rt":197.59999999963,"correct":false,"confidence":-1},{"trial_n":73,"min":25,"max":230,"target":"absent","response":"absent","rt":412.29999999888,"correct":true,"confidence":-1},{"trial_n":74,"min":25,"max":230,"target":"absent","response":"absent","rt":636.5,"correct":true,"confidence":-1},{"trial_n":75,"min":41,"max":214,"target":"present","response":"present","rt":332.59999999963,"correct":true,"confidence":-1},{"trial_n":76,"min":41,"max":214,"target":"absent","response":"present","rt":409,"correct":false,"confidence":-1},{"trial_n":77,"min":25,"max":230,"target":"absent","response":"absent","rt":692.09999999963,"correct":true,"confidence":-1},{"trial_n":78,"min":25,"max":230,"target":"present","response":"present","rt":184.79999999888,"correct":true,"confidence":-1},{"trial_n":79,"min":41,"max":214,"target":"present","response":"present","rt":346,"correct":true,"confidence":-1},{"trial_n":80,"min":41,"max":214,"target":"present","response":"present","rt":83.400000000373,"correct":true,"confidence":-1},{"trial_n":81,"min":49,"max":206,"target":"absent","response":"present","rt":367.5,"correct":false,"confidence":-1},{"trial_n":82,"min":41,"max":214,"target":"absent","response":"present","rt":300.19999999925,"correct":false,"confidence":-1},{"trial_n":83,"min":33,"max":222,"target":"present","response":"present","rt":423.90000000037,"correct":true,"confidence":-1},{"trial_n":84,"min":33,"max":222,"target":"present","response":"present","rt":153,"correct":true,"confidence":-1},{"trial_n":85,"min":41,"max":214,"target":"present","response":"present","rt":27.199999999255,"correct":true,"confidence":-1},{"trial_n":86,"min":41,"max":214,"target":"present","response":"present","rt":148.80000000075,"correct":true,"confidence":-1},{"trial_n":87,"min":49,"max":206,"target":"absent","response":"absent","rt":156.29999999888,"correct":true,"confidence":-1},{"trial_n":88,"min":49,"max":206,"target":"present","response":"present","rt":320.79999999888,"correct":true,"confidence":-1},{"trial_n":89,"min":57,"max":198,"target":"absent","response":"absent","rt":362.60000000149,"correct":true,"confidence":-1},{"trial_n":90,"min":57,"max":198,"target":"present","response":"present","rt":796.59999999963,"correct":true,"confidence":-1},{"trial_n":91,"min":61,"max":194,"target":"present","response":"present","rt":521.39999999851,"correct":true,"confidence":3},{"trial_n":92,"min":61,"max":194,"target":"present","response":"present","rt":765.70000000112,"correct":true,"confidence":3},{"trial_n":93,"min":65,"max":190,"target":"absent","response":"absent","rt":180,"correct":true,"confidence":4},{"trial_n":94,"min":65,"max":190,"target":"absent","response":"absent","rt":482.60000000149,"correct":true,"confidence":4},{"trial_n":95,"min":69,"max":186,"target":"absent","response":"absent","rt":529,"correct":true,"confidence":4},{"trial_n":96,"min":69,"max":186,"target":"absent","response":"absent","rt":673.09999999963,"correct":true,"confidence":4},{"trial_n":97,"min":73,"max":182,"target":"absent","response":"absent","rt":957.90000000037,"correct":true,"confidence":3},{"trial_n":98,"min":73,"max":182,"target":"absent","response":"absent","rt":569.89999999851,"correct":true,"confidence":3},{"trial_n":99,"min":77,"max":178,"target":"present","response":"present","rt":789.5,"correct":true,"confidence":3},{"trial_n":100,"min":77,"max":178,"target":"present","response":"present","rt":4249.9000000004,"correct":true,"confidence":3},{"trial_n":101,"min":79,"max":176,"target":"absent","response":"absent","rt":458.60000000149,"correct":true,"confidence":3},{"trial_n":102,"min":79,"max":176,"target":"present","response":"present","rt":434.69999999925,"correct":true,"confidence":3},{"trial_n":103,"min":81,"max":174,"target":"present","response":"present","rt":647.30000000075,"correct":true,"confidence":3},{"trial_n":104,"min":81,"max":174,"target":"absent","response":"present","rt":8149.5,"correct":false,"confidence":3},{"trial_n":105,"min":79,"max":176,"target":"absent","response":"absent","rt":512.69999999925,"correct":true,"confidence":3},{"trial_n":106,"min":79,"max":176,"target":"present","response":"present","rt":532.29999999888,"correct":true,"confidence":3},{"trial_n":107,"min":81,"max":174,"target":"present","response":"present","rt":442.80000000075,"correct":true,"confidence":3},{"trial_n":108,"min":81,"max":174,"target":"absent","response":"present","rt":417.19999999925,"correct":false,"confidence":3},{"trial_n":109,"min":79,"max":176,"target":"absent","response":"absent","rt":547.79999999888,"correct":true,"confidence":3},{"trial_n":110,"min":79,"max":176,"target":"present","response":"present","rt":301.80000000075,"correct":true,"confidence":3},{"trial_n":111,"min":80,"max":175,"target":"absent","response":"absent","rt":391.90000000037,"correct":true,"confidence":3},{"trial_n":112,"min":80,"max":175,"target":"present","response":"present","rt":887.19999999925,"correct":true,"confidence":1},{"trial_n":113,"min":81,"max":174,"target":"absent","response":"absent","rt":316.80000000075,"correct":true,"confidence":3},{"trial_n":114,"min":81,"max":174,"target":"absent","response":"absent","rt":1142.0999999996,"correct":true,"confidence":1},{"trial_n":115,"min":82,"max":173,"target":"present","response":"present","rt":640.30000000075,"correct":true,"confidence":3},{"trial_n":116,"min":82,"max":173,"target":"absent","response":"absent","rt":821.10000000149,"correct":true,"confidence":3},{"trial_n":117,"min":83,"max":172,"target":"absent","response":"absent","rt":1199,"correct":true,"confidence":3},{"trial_n":118,"min":83,"max":172,"target":"present","response":"present","rt":340.89999999851,"correct":true,"confidence":3},{"trial_n":119,"min":84,"max":171,"target":"present","response":"present","rt":1009.3000000007,"correct":true,"confidence":1},{"trial_n":120,"min":84,"max":171,"target":"absent","response":"absent","rt":485,"correct":true,"confidence":3},{"trial_n":121,"min":85,"max":170,"target":"present","response":"absent","rt":653.80000000075,"correct":false,"confidence":1},{"trial_n":122,"min":84,"max":171,"target":"absent","response":"absent","rt":578.5,"correct":true,"confidence":1},{"trial_n":123,"min":84,"max":171,"target":"present","response":"present","rt":428.60000000149,"correct":true,"confidence":1},{"trial_n":124,"min":85,"max":170,"target":"absent","response":"present","rt":1285.3000000007,"correct":false,"confidence":2},{"trial_n":125,"min":84,"max":171,"target":"absent","response":"absent","rt":579.80000000075,"correct":true,"confidence":2},{"trial_n":126,"min":84,"max":171,"target":"absent","response":"absent","rt":674.39999999851,"correct":true,"confidence":3},{"trial_n":127,"min":85,"max":170,"target":"present","response":"present","rt":300.19999999925,"correct":true,"confidence":3},{"trial_n":128,"min":85,"max":170,"target":"present","response":"present","rt":484.69999999925,"correct":true,"confidence":3},{"trial_n":129,"min":86,"max":169,"target":"absent","response":"present","rt":693,"correct":false,"confidence":3},{"trial_n":130,"min":85,"max":170,"target":"present","response":"present","rt":597.80000000075,"correct":true,"confidence":4},{"trial_n":131,"min":85,"max":170,"target":"present","response":"present","rt":347.10000000149,"correct":true,"confidence":4},{"trial_n":132,"min":86,"max":169,"target":"present","response":"present","rt":240.5,"correct":true,"confidence":4},{"trial_n":133,"min":86,"max":169,"target":"absent","response":"absent","rt":693.40000000224,"correct":true,"confidence":4},{"trial_n":134,"min":87,"max":168,"target":"present","response":"present","rt":756.80000000075,"correct":true,"confidence":1},{"trial_n":135,"min":87,"max":168,"target":"absent","response":"present","rt":807,"correct":false,"confidence":2},{"trial_n":136,"min":86,"max":169,"target":"absent","response":"present","rt":559.20000000298,"correct":false,"confidence":1},{"trial_n":137,"min":85,"max":170,"target":"present","response":"present","rt":334.10000000149,"correct":true,"confidence":3},{"trial_n":138,"min":85,"max":170,"target":"present","response":"present","rt":1525.799999997,"correct":true,"confidence":3},{"trial_n":139,"min":86,"max":169,"target":"absent","response":"absent","rt":1095.1999999993,"correct":true,"confidence":3},{"trial_n":140,"min":86,"max":169,"target":"present","response":"absent","rt":535.5,"correct":false,"confidence":2}]