[{"trial_n":1,"span":8,"encoder":"90916456","distractor":"90916476","target":"present","response":"present","rt":"6654","correct":true,"confidence":-1},{"trial_n":2,"span":8,"encoder":"62645932","distractor":"68645932","target":"present","response":"absent","rt":"1999.3000000119","correct":false,"confidence":-1},{"trial_n":3,"span":6,"encoder":"800764","distractor":"800760","target":"absent","response":"absent","rt":"2004.7999999821","correct":true,"confidence":-1},{"trial_n":4,"span":6,"encoder":"810192","distractor":"810592","target":"absent","response":"absent","rt":"2526","correct":true,"confidence":-1},{"trial_n":5,"span":8,"encoder":"77819681","distractor":"77819682","target":"present","response":"absent","rt":"2856.900000006","correct":false,"confidence":-1},{"trial_n":6,"span":6,"encoder":"211705","distractor":"311705","target":"present","response":"absent","rt":"2618","correct":false,"confidence":-1},{"trial_n":7,"span":4,"encoder":"4560","distractor":"4568","target":"present","response":"present","rt":"1231.5","correct":true,"confidence":-1},{"trial_n":8,"span":4,"encoder":"6156","distractor":"6196","target":"absent","response":"absent","rt":"1691.8999999762","correct":true,"confidence":-1},{"trial_n":9,"span":6,"encoder":"517120","distractor":"517123","target":"present","response":"present","rt":"2669.8999999762","correct":true,"confidence":-1},{"trial_n":10,"span":6,"encoder":"677012","distractor":"077012","target":"present","response":"present","rt":"1800","correct":true,"confidence":-1},{"trial_n":11,"span":8,"encoder":"01327329","distractor":"01327399","target":"absent","response":"absent","rt":"1405","correct":true,"confidence":-1},{"trial_n":12,"span":8,"encoder":"49069873","distractor":"49069773","target":"absent","response":"present","rt":"3452.5","correct":false,"confidence":-1},{"trial_n":13,"span":7,"encoder":"6656862","distractor":"6456862","target":"absent","response":"absent","rt":"1089.599999994","correct":true,"confidence":-1},{"trial_n":14,"span":7,"encoder":"7350074","distractor":"7356074","target":"present","response":"present","rt":"2274.6999999881","correct":true,"confidence":-1},{"trial_n":15,"span":8,"encoder":"76231347","distractor":"76231307","target":"absent","response":"absent","rt":"2084.400000006","correct":true,"confidence":-1},{"trial_n":16,"span":8,"encoder":"20016592","distractor":"20076592","target":"present","response":"present","rt":"1971.2999999821","correct":true,"confidence":-1},{"trial_n":17,"span":9,"encoder":"542299957","distractor":"542290957","target":"present","response":"present","rt":"1628.3999999762","correct":true,"confidence":-1},{"trial_n":18,"span":9,"encoder":"071317316","distractor":"071367316","target":"present","response":"present","rt":"2199.7000000179","correct":true,"confidence":-1},{"trial_n":19,"span":10,"encoder":"9953660821","distractor":"9953669821","target":"absent","response":"absent","rt":"1559","correct":true,"confidence":-1},{"trial_n":20,"span":10,"encoder":"9352391879","distractor":"9352396879","target":"absent","response":"present","rt":"3166.8000000119","correct":false,"confidence":-1},{"trial_n":21,"span":9,"encoder":"937167093","distractor":"937067093","target":"present","response":"present","rt":"2855.2000000179","correct":true,"confidence":3},{"trial_n":22,"span":9,"encoder":"084287683","distractor":"284287683","target":"present","response":"present","rt":"4574.5","correct":true,"confidence":3},{"trial_n":23,"span":10,"encoder":"1365793955","distractor":"1365790955","target":"present","response":"present","rt":"4012.2000000179","correct":true,"confidence":4},{"trial_n":24,"span":10,"encoder":"0957567726","distractor":"0907567726","target":"absent","response":"present","rt":"4209.1999999881","correct":false,"confidence":3},{"trial_n":25,"span":9,"encoder":"499483896","distractor":"499483886","target":"absent","response":"absent","rt":"4646.900000006","correct":true,"confidence":3},{"trial_n":26,"span":9,"encoder":"516713506","distractor":"516713006","target":"present","response":"absent","rt":"2109.599999994","correct":false,"confidence":3},{"trial_n":27,"span":8,"encoder":"71878704","distractor":"71808704","target":"present","response":"present","rt":"2690.5","correct":true,"confidence":3},{"trial_n":28,"span":8,"encoder":"32660734","distractor":"32669734","target":"absent","response":"absent","rt":"2542.5","correct":true,"confidence":4},{"trial_n":29,"span":9,"encoder":"102606616","distractor":"182606616","target":"present","response":"absent","rt":"2060.6999999881","correct":false,"confidence":3},{"trial_n":30,"span":8,"encoder":"52408212","distractor":"52408213","target":"present","response":"present","rt":"2876.6999999881","correct":true,"confidence":2},{"trial_n":31,"span":8,"encoder":"41285334","distractor":"41295334","target":"present","response":"present","rt":"2527.5","correct":true,"confidence":5},{"trial_n":32,"span":9,"encoder":"465630878","distractor":"465630858","target":"present","response":"present","rt":"3629.5","correct":true,"confidence":3},{"trial_n":33,"span":9,"encoder":"947832157","distractor":"987832157","target":"absent","response":"present","rt":"3400.1999999881","correct":false,"confidence":3},{"trial_n":34,"span":8,"encoder":"39797113","distractor":"39797153","target":"present","response":"present","rt":"2654.8000000119","correct":true,"confidence":5},{"trial_n":35,"span":8,"encoder":"98760189","distractor":"98766189","target":"absent","response":"absent","rt":"3022.1000000238","correct":true,"confidence":4},{"trial_n":36,"span":9,"encoder":"891661281","distractor":"891661241","target":"absent","response":"present","rt":"3121.599999994","correct":false,"confidence":2},{"trial_n":37,"span":8,"encoder":"12635785","distractor":"12635775","target":"present","response":"present","rt":"5151.5","correct":true,"confidence":2},{"trial_n":38,"span":8,"encoder":"39292459","distractor":"34292459","target":"absent","response":"absent","rt":"1883.8999999762","correct":true,"confidence":4},{"trial_n":39,"span":9,"encoder":"487956409","distractor":"482956409","target":"present","response":"absent","rt":"3714.099999994","correct":false,"confidence":2},{"trial_n":40,"span":8,"encoder":"18540170","distractor":"18590170","target":"absent","response":"absent","rt":"4331.3000000119","correct":true,"confidence":2},{"trial_n":41,"span":8,"encoder":"43065272","distractor":"43565272","target":"present","response":"present","rt":"3966.2000000179","correct":true,"confidence":2},{"trial_n":42,"span":9,"encoder":"709180483","distractor":"709130483","target":"absent","response":"absent","rt":"3261.7000000179","correct":true,"confidence":2},{"trial_n":43,"span":9,"encoder":"115588275","distractor":"115588875","target":"present","response":"present","rt":"2658.400000006","correct":true,"confidence":4},{"trial_n":44,"span":10,"encoder":"7205480886","distractor":"7205480686","target":"present","response":"present","rt":"3037.400000006","correct":true,"confidence":4},{"trial_n":45,"span":10,"encoder":"1755035515","distractor":"1755031515","target":"absent","response":"absent","rt":"4259.900000006","correct":true,"confidence":4},{"trial_n":46,"span":11,"encoder":"32369460678","distractor":"32359460678","target":"present","response":"present","rt":"4795.599999994","correct":true,"confidence":3},{"trial_n":47,"span":11,"encoder":"76070088052","distractor":"76870088052","target":"present","response":"present","rt":"4858.3000000119","correct":true,"confidence":4},{"trial_n":48,"span":12,"encoder":"539855995201","distractor":"539855996201","target":"absent","response":"present","rt":"4207.5","correct":false,"confidence":4},{"trial_n":49,"span":11,"encoder":"33059785097","distractor":"33059789097","target":"absent","response":"present","rt":"4310.6999999881","correct":false,"confidence":4},{"trial_n":50,"span":10,"encoder":"0825020011","distractor":"7825020011","target":"present","response":"present","rt":"4210.7999999821","correct":true,"confidence":4},{"trial_n":51,"span":10,"encoder":"3467463953","distractor":"3667463953","target":"absent","response":"absent","rt":"4030","correct":true,"confidence":3},{"trial_n":52,"span":11,"encoder":"88549564003","distractor":"88549564004","target":"absent","response":"present","rt":"5660.6000000238","correct":false,"confidence":2},{"trial_n":53,"span":10,"encoder":"9033419335","distractor":"9033479335","target":"absent","response":"present","rt":"3046.2000000179","correct":false,"confidence":3},{"trial_n":54,"span":9,"encoder":"664309299","distractor":"684309299","target":"present","response":"present","rt":"3468.599999994","correct":true,"confidence":3},{"trial_n":55,"span":9,"encoder":"064572179","distractor":"064542179","target":"absent","response":"present","rt":"3254.8000000119","correct":false,"confidence":1},{"trial_n":56,"span":8,"encoder":"57702549","distractor":"57702579","target":"absent","response":"present","rt":"3028.8000000119","correct":false,"confidence":4},{"trial_n":57,"span":7,"encoder":"4425421","distractor":"4425621","target":"absent","response":"present","rt":"4014.400000006","correct":false,"confidence":3},{"trial_n":58,"span":6,"encoder":"550370","distractor":"550374","target":"absent","response":"absent","rt":"2568.400000006","correct":true,"confidence":4},{"trial_n":59,"span":6,"encoder":"317021","distractor":"313021","target":"absent","response":"present","rt":"3216.2000000179","correct":false,"confidence":4},{"trial_n":60,"span":5,"encoder":"60276","distractor":"60274","target":"present","response":"present","rt":"1923.6999999881","correct":true,"confidence":5},{"trial_n":61,"span":5,"encoder":"91772","distractor":"91472","target":"present","response":"present","rt":"1638.8000000119","correct":true,"confidence":5},{"trial_n":62,"span":6,"encoder":"140558","distractor":"140550","target":"present","response":"absent","rt":"3789.6999999881","correct":false,"confidence":3},{"trial_n":63,"span":5,"encoder":"46617","distractor":"46611","target":"absent","response":"absent","rt":"1702.099999994","correct":true,"confidence":5},{"trial_n":64,"span":5,"encoder":"11037","distractor":"11067","target":"present","response":"present","rt":"1590.900000006","correct":true,"confidence":5},{"trial_n":65,"span":6,"encoder":"080303","distractor":"080305","target":"absent","response":"absent","rt":"1551.8000000119","correct":true,"confidence":5},{"trial_n":66,"span":6,"encoder":"328864","distractor":"378864","target":"absent","response":"absent","rt":"4571.8000000119","correct":true,"confidence":4},{"trial_n":67,"span":7,"encoder":"5728657","distractor":"2728657","target":"present","response":"absent","rt":"4009.400000006","correct":false,"confidence":2},{"trial_n":68,"span":6,"encoder":"750543","distractor":"755543","target":"absent","response":"absent","rt":"1711","correct":true,"confidence":5},{"trial_n":69,"span":6,"encoder":"635867","distractor":"635837","target":"present","response":"present","rt":"2544.599999994","correct":true,"confidence":4},{"trial_n":70,"span":7,"encoder":"1215788","distractor":"1915788","target":"absent","response":"absent","rt":"1735.3000000119","correct":true,"confidence":5},{"trial_n":71,"span":8,"encoder":"57858550","distractor":"57858530","target":"present","response":"present","rt":"4717.1999999881","correct":true,"confidence":-1},{"trial_n":72,"span":8,"encoder":"70884984","distractor":"70884983","target":"present","response":"present","rt":"2341.6999999881","correct":true,"confidence":-1},{"trial_n":73,"span":9,"encoder":"987574924","distractor":"987524924","target":"absent","response":"absent","rt":"6251.5","correct":true,"confidence":-1},{"trial_n":74,"span":9,"encoder":"108788602","distractor":"108788802","target":"absent","response":"absent","rt":"2027.099999994","correct":true,"confidence":-1},{"trial_n":75,"span":10,"encoder":"1278964130","distractor":"1278964160","target":"present","response":"present","rt":"1680.5","correct":true,"confidence":-1},{"trial_n":76,"span":10,"encoder":"7557426652","distractor":"7557428652","target":"present","response":"present","rt":"2443.1999999881","correct":true,"confidence":-1},{"trial_n":77,"span":11,"encoder":"42582815457","distractor":"42582815459","target":"absent","response":"absent","rt":"1540.099999994","correct":true,"confidence":-1},{"trial_n":78,"span":11,"encoder":"47122534131","distractor":"47222534131","target":"absent","response":"present","rt":"3406.2999999821","correct":false,"confidence":-1},{"trial_n":79,"span":10,"encoder":"0437201859","distractor":"0447201859","target":"present","response":"present","rt":"5003.1000000238","correct":true,"confidence":-1},{"trial_n":80,"span":10,"encoder":"8458834584","distractor":"8458834587","target":"present","response":"present","rt":"1969.7999999821","correct":true,"confidence":-1},{"trial_n":81,"span":11,"encoder":"87291213024","distractor":"81291213024","target":"absent","response":"present","rt":"3319","correct":false,"confidence":-1},{"trial_n":82,"span":10,"encoder":"8283899512","distractor":"8283399512","target":"present","response":"present","rt":"3997.1999999881","correct":true,"confidence":-1},{"trial_n":83,"span":10,"encoder":"5546038627","distractor":"5546018627","target":"present","response":"present","rt":"2959.900000006","correct":true,"confidence":-1},{"trial_n":84,"span":11,"encoder":"20897918334","distractor":"20897918374","target":"absent","response":"absent","rt":"1688.400000006","correct":true,"confidence":-1},{"trial_n":85,"span":11,"encoder":"07767526902","distractor":"07727526902","target":"absent","response":"absent","rt":"3453","correct":true,"confidence":-1},{"trial_n":86,"span":12,"encoder":"848461267789","distractor":"848421267789","target":"present","response":"present","rt":"4844.400000006","correct":true,"confidence":-1},{"trial_n":87,"span":12,"encoder":"498243237941","distractor":"498241237941","target":"absent","response":"absent","rt":"5612.599999994","correct":true,"confidence":-1},{"trial_n":88,"span":13,"encoder":"0448277655930","distractor":"0748277655930","target":"present","response":"absent","rt":"8269.599999994","correct":false,"confidence":-1},{"trial_n":89,"span":12,"encoder":"495022810046","distractor":"497022810046","target":"absent","response":"present","rt":"7033.900000006","correct":false,"confidence":-1},{"trial_n":90,"span":11,"encoder":"96328246347","distractor":"96328246147","target":"absent","response":"absent","rt":"2404.099999994","correct":true,"confidence":-1},{"trial_n":91,"span":11,"encoder":"10331646614","distractor":"10330646614","target":"absent","response":"absent","rt":"10045.599999994","correct":true,"confidence":4},{"trial_n":92,"span":12,"encoder":"870130573902","distractor":"870730573902","target":"present","response":"absent","rt":"7531.400000006","correct":false,"confidence":3},{"trial_n":93,"span":11,"encoder":"53714175176","distractor":"53734175176","target":"absent","response":"present","rt":"8233.1999999881","correct":false,"confidence":2},{"trial_n":94,"span":10,"encoder":"4398211855","distractor":"4392211855","target":"present","response":"present","rt":"3629.900000006","correct":true,"confidence":4},{"trial_n":95,"span":10,"encoder":"7748972537","distractor":"0748972537","target":"present","response":"present","rt":"3619.099999994","correct":true,"confidence":4},{"trial_n":96,"span":11,"encoder":"14138923384","distractor":"10138923384","target":"absent","response":"absent","rt":"11778.5","correct":true,"confidence":1},{"trial_n":97,"span":11,"encoder":"19666525410","distractor":"19668525410","target":"present","response":"present","rt":"8900.5","correct":true,"confidence":3},{"trial_n":98,"span":12,"encoder":"393463842549","distractor":"393463842589","target":"present","response":"absent","rt":"3618.5","correct":false,"confidence":4},{"trial_n":99,"span":11,"encoder":"52044834378","distractor":"52044834374","target":"absent","response":"absent","rt":"2498.099999994","correct":true,"confidence":5},{"trial_n":100,"span":11,"encoder":"96512011769","distractor":"94512011769","target":"absent","response":"present","rt":"11389.599999994","correct":false,"confidence":2},{"trial_n":101,"span":10,"encoder":"8911852701","distractor":"8911752701","target":"absent","response":"absent","rt":"12556.900000006","correct":true,"confidence":2},{"trial_n":102,"span":10,"encoder":"5539095171","distractor":"3539095171","target":"present","response":"present","rt":"3863.400000006","correct":true,"confidence":4},{"trial_n":103,"span":11,"encoder":"32725247673","distractor":"32125247673","target":"absent","response":"absent","rt":"4992.6999999881","correct":true,"confidence":4},{"trial_n":104,"span":11,"encoder":"16385082995","distractor":"16375082995","target":"present","response":"present","rt":"5903.099999994","correct":true,"confidence":2},{"trial_n":105,"span":12,"encoder":"731171025556","distractor":"731176025556","target":"present","response":"present","rt":"2972.1000000238","correct":true,"confidence":4},{"trial_n":106,"span":12,"encoder":"031520157997","distractor":"031520257997","target":"present","response":"absent","rt":"9016.1000000238","correct":false,"confidence":1},{"trial_n":107,"span":11,"encoder":"25124663376","distractor":"25124664376","target":"absent","response":"absent","rt":"3813.099999994","correct":true,"confidence":3},{"trial_n":108,"span":11,"encoder":"92743735564","distractor":"92743735264","target":"present","response":"present","rt":"4545.099999994","correct":true,"confidence":2},{"trial_n":109,"span":12,"encoder":"794373366335","distractor":"794372366335","target":"present","response":"present","rt":"6206.599999994","correct":true,"confidence":1},{"trial_n":110,"span":12,"encoder":"707260056937","distractor":"707260059937","target":"present","response":"present","rt":"4174.7000000179","correct":true,"confidence":3},{"trial_n":111,"span":13,"encoder":"3024575881010","distractor":"3004575881010","target":"absent","response":"absent","rt":"2166.599999994","correct":true,"confidence":5},{"trial_n":112,"span":13,"encoder":"0916906335942","distractor":"0916906333942","target":"absent","response":"absent","rt":"5046.099999994","correct":true,"confidence":1},{"trial_n":113,"span":14,"encoder":"31003585390451","distractor":"31003585390450","target":"present","response":"present","rt":"10181.799999982","correct":true,"confidence":2},{"trial_n":114,"span":14,"encoder":"15018577444545","distractor":"15038577444545","target":"present","response":"present","rt":"8587","correct":true,"confidence":1},{"trial_n":115,"span":15,"encoder":"531581447396502","distractor":"531581447396522","target":"absent","response":"absent","rt":"2854","correct":true,"confidence":4},{"trial_n":116,"span":15,"encoder":"102618585061026","distractor":"102618585062026","target":"present","response":"present","rt":"2440.400000006","correct":true,"confidence":5},{"trial_n":117,"span":16,"encoder":"7606419062183139","distractor":"7606419062153139","target":"absent","response":"absent","rt":"8992.099999994","correct":true,"confidence":2},{"trial_n":118,"span":16,"encoder":"9281144342391284","distractor":"9281144242391284","target":"absent","response":"absent","rt":"13115","correct":true,"confidence":3},{"trial_n":119,"span":17,"encoder":"41657757962879735","distractor":"41687757962879735","target":"absent","response":"absent","rt":"8833.400000006","correct":true,"confidence":2},{"trial_n":120,"span":17,"encoder":"54901793366579806","distractor":"54901793360579806","target":"present","response":"absent","rt":"13467.100000024","correct":false,"confidence":2},{"trial_n":121,"span":16,"encoder":"1949983859063187","distractor":"1949983859363187","target":"absent","response":"absent","rt":"10670.900000006","correct":true,"confidence":1},{"trial_n":122,"span":16,"encoder":"5965892478381995","distractor":"5965892478381095","target":"absent","response":"absent","rt":"4107.7000000179","correct":true,"confidence":4},{"trial_n":123,"span":17,"encoder":"56679064528345628","distractor":"56679064528345620","target":"absent","response":"absent","rt":"4047.8000000119","correct":true,"confidence":5},{"trial_n":124,"span":17,"encoder":"89277106026291616","distractor":"89277106026291516","target":"present","response":"present","rt":"5315.400000006","correct":true,"confidence":5},{"trial_n":125,"span":18,"encoder":"640936262250577964","distractor":"640936662250577964","target":"present","response":"present","rt":"12818.300000012","correct":true,"confidence":3},{"trial_n":126,"span":18,"encoder":"406246221636766457","distractor":"407246221636766457","target":"absent","response":"present","rt":"12043.300000012","correct":false,"confidence":2},{"trial_n":127,"span":17,"encoder":"31557990890167009","distractor":"31557390890167009","target":"absent","response":"present","rt":"10579.5","correct":false,"confidence":2},{"trial_n":128,"span":16,"encoder":"9807190143306612","distractor":"9807190141306612","target":"present","response":"present","rt":"5141.599999994","correct":true,"confidence":3},{"trial_n":129,"span":16,"encoder":"4951324384418196","distractor":"4951324384418896","target":"present","response":"present","rt":"3925.8000000119","correct":true,"confidence":5},{"trial_n":130,"span":17,"encoder":"14727635144186736","distractor":"14727635144166736","target":"present","response":"absent","rt":"10894","correct":false,"confidence":2},{"trial_n":131,"span":16,"encoder":"9597997577610506","distractor":"9597997577610501","target":"absent","response":"absent","rt":"2133.099999994","correct":true,"confidence":5},{"trial_n":132,"span":16,"encoder":"7152606190601598","distractor":"5152606190601598","target":"present","response":"present","rt":"7078.5","correct":true,"confidence":3},{"trial_n":133,"span":17,"encoder":"38907280409651860","distractor":"38907280409651840","target":"absent","response":"absent","rt":"2032.8999999762","correct":true,"confidence":5},{"trial_n":134,"span":17,"encoder":"35855391654102388","distractor":"35855391653102388","target":"absent","response":"absent","rt":"5494.099999994","correct":true,"confidence":5},{"trial_n":135,"span":18,"encoder":"105463176149553200","distractor":"105463176149553204","target":"present","response":"absent","rt":"18328.199999988","correct":false,"confidence":4},{"trial_n":136,"span":17,"encoder":"59575735489457822","distractor":"59575735589457822","target":"present","response":"absent","rt":"9061.400000006","correct":false,"confidence":2},{"trial_n":137,"span":16,"encoder":"2282334650349476","distractor":"2282334650309476","target":"present","response":"present","rt":"4471.2000000179","correct":true,"confidence":4},{"trial_n":138,"span":16,"encoder":"1504528758190950","distractor":"1304528758190950","target":"present","response":"present","rt":"7182.599999994","correct":true,"confidence":3},{"trial_n":139,"span":17,"encoder":"51553553388509632","distractor":"41553553388509632","target":"absent","response":"absent","rt":"6739.6000000238","correct":true,"confidence":3},{"trial_n":140,"span":17,"encoder":"87829460788355592","distractor":"87829460788350592","target":"absent","response":"absent","rt":"2636.099999994","correct":true,"confidence":5}]