[{"trial_n":1,"span":8,"encoder":"95119710","distractor":"95119010","target":"present","response":"absent","rt":"3381.200000003","correct":false,"confidence":-1},{"trial_n":2,"span":6,"encoder":"000484","distractor":"000084","target":"present","response":"present","rt":"2493.3999999911","correct":true,"confidence":-1},{"trial_n":3,"span":6,"encoder":"590854","distractor":"597854","target":"absent","response":"absent","rt":"2906","correct":true,"confidence":-1},{"trial_n":4,"span":8,"encoder":"77711229","distractor":"77781229","target":"absent","response":"absent","rt":"1945.900000006","correct":true,"confidence":-1},{"trial_n":5,"span":8,"encoder":"37430397","distractor":"37830397","target":"present","response":"present","rt":"1710.700000003","correct":true,"confidence":-1},{"trial_n":6,"span":10,"encoder":"1033937212","distractor":"1033930212","target":"present","response":"present","rt":"1346.900000006","correct":true,"confidence":-1},{"trial_n":7,"span":10,"encoder":"9320322719","distractor":"9320322319","target":"present","response":"present","rt":"1381.900000006","correct":true,"confidence":-1},{"trial_n":8,"span":12,"encoder":"829016466990","distractor":"829016464990","target":"present","response":"present","rt":"1396.400000006","correct":true,"confidence":-1},{"trial_n":9,"span":12,"encoder":"327503638247","distractor":"327503631247","target":"present","response":"present","rt":"2359.3999999911","correct":true,"confidence":-1},{"trial_n":10,"span":14,"encoder":"47769807348693","distractor":"49769807348693","target":"absent","response":"present","rt":"2112.1000000089","correct":false,"confidence":-1},{"trial_n":11,"span":12,"encoder":"164643340498","distractor":"164643040498","target":"present","response":"present","rt":"1633.5","correct":true,"confidence":-1},{"trial_n":12,"span":12,"encoder":"113725047908","distractor":"113625047908","target":"absent","response":"present","rt":"2873.799999997","correct":false,"confidence":-1},{"trial_n":13,"span":11,"encoder":"27642325675","distractor":"27642325625","target":"present","response":"present","rt":"2510.799999997","correct":true,"confidence":-1},{"trial_n":14,"span":11,"encoder":"35005332961","distractor":"37005332961","target":"absent","response":"present","rt":"1688","correct":false,"confidence":-1},{"trial_n":15,"span":10,"encoder":"1327489309","distractor":"1327189309","target":"present","response":"present","rt":"2715.599999994","correct":true,"confidence":-1},{"trial_n":16,"span":10,"encoder":"1252176644","distractor":"1252176646","target":"present","response":"present","rt":"2887.8999999911","correct":true,"confidence":-1},{"trial_n":17,"span":11,"encoder":"17324454352","distractor":"17324414352","target":"absent","response":"present","rt":"2817.700000003","correct":false,"confidence":-1},{"trial_n":18,"span":10,"encoder":"3232733125","distractor":"3282733125","target":"present","response":"present","rt":"2558.299999997","correct":true,"confidence":-1},{"trial_n":19,"span":10,"encoder":"6320007914","distractor":"6320027914","target":"present","response":"present","rt":"3515.6999999881","correct":true,"confidence":-1},{"trial_n":20,"span":11,"encoder":"58794664591","distractor":"88794664591","target":"present","response":"present","rt":"3290.3999999911","correct":true,"confidence":-1},{"trial_n":21,"span":11,"encoder":"42504321120","distractor":"42594321120","target":"present","response":"present","rt":"3833.8999999911","correct":true,"confidence":2},{"trial_n":22,"span":12,"encoder":"256327597959","distractor":"256377597959","target":"present","response":"present","rt":"7139.200000003","correct":true,"confidence":5},{"trial_n":23,"span":12,"encoder":"602655687562","distractor":"602655687561","target":"present","response":"present","rt":"6578.5","correct":true,"confidence":4},{"trial_n":24,"span":13,"encoder":"4158333530952","distractor":"4154333530952","target":"absent","response":"absent","rt":"2552.5","correct":true,"confidence":1},{"trial_n":25,"span":13,"encoder":"1659835781402","distractor":"1059835781402","target":"present","response":"present","rt":"2810.5","correct":true,"confidence":4},{"trial_n":26,"span":14,"encoder":"77863206752511","distractor":"77865206752511","target":"present","response":"present","rt":"4723.200000003","correct":true,"confidence":4},{"trial_n":27,"span":14,"encoder":"72692014115400","distractor":"72692214115400","target":"present","response":"present","rt":"3305.299999997","correct":true,"confidence":4},{"trial_n":28,"span":15,"encoder":"626129537965604","distractor":"626123537965604","target":"absent","response":"present","rt":"3603.5","correct":false,"confidence":4},{"trial_n":29,"span":14,"encoder":"49097603075076","distractor":"49097503075076","target":"absent","response":"present","rt":"1262","correct":false,"confidence":1},{"trial_n":30,"span":13,"encoder":"8608067321779","distractor":"8608067321079","target":"present","response":"present","rt":"1348.3999999911","correct":true,"confidence":1},{"trial_n":31,"span":13,"encoder":"3235844652921","distractor":"3235844652121","target":"absent","response":"present","rt":"2583.799999997","correct":false,"confidence":1},{"trial_n":32,"span":12,"encoder":"169206740396","distractor":"169206700396","target":"present","response":"present","rt":"1286.700000003","correct":true,"confidence":1},{"trial_n":33,"span":12,"encoder":"882995930330","distractor":"882995930334","target":"present","response":"present","rt":"216.79999999702","correct":true,"confidence":1},{"trial_n":34,"span":13,"encoder":"2597609062747","distractor":"2593609062747","target":"absent","response":"present","rt":"994.20000000298","correct":false,"confidence":1},{"trial_n":35,"span":12,"encoder":"251453549099","distractor":"251423549099","target":"absent","response":"present","rt":"254.40000000596","correct":false,"confidence":1},{"trial_n":36,"span":11,"encoder":"18248061030","distractor":"18248064030","target":"absent","response":"present","rt":"1681.599999994","correct":false,"confidence":1},{"trial_n":37,"span":10,"encoder":"6530325390","distractor":"6530315390","target":"absent","response":"present","rt":"2158.599999994","correct":false,"confidence":1},{"trial_n":38,"span":9,"encoder":"394308876","distractor":"394408876","target":"present","response":"present","rt":"2714.200000003","correct":true,"confidence":1},{"trial_n":39,"span":9,"encoder":"647221184","distractor":"647221183","target":"absent","response":"present","rt":"1367","correct":false,"confidence":1},{"trial_n":40,"span":8,"encoder":"80782441","distractor":"84782441","target":"absent","response":"present","rt":"557.29999999702","correct":false,"confidence":1},{"trial_n":41,"span":7,"encoder":"4698268","distractor":"4699268","target":"absent","response":"present","rt":"333.70000000298","correct":false,"confidence":1},{"trial_n":42,"span":6,"encoder":"345718","distractor":"375718","target":"absent","response":"present","rt":"670.80000001192","correct":false,"confidence":1},{"trial_n":43,"span":5,"encoder":"18647","distractor":"18648","target":"present","response":"present","rt":"1877.599999994","correct":true,"confidence":1},{"trial_n":44,"span":5,"encoder":"80370","distractor":"80379","target":"present","response":"present","rt":"379","correct":true,"confidence":1},{"trial_n":45,"span":6,"encoder":"287119","distractor":"087119","target":"absent","response":"present","rt":"253.10000000894","correct":false,"confidence":1},{"trial_n":46,"span":5,"encoder":"61849","distractor":"69849","target":"absent","response":"present","rt":"150.79999999702","correct":false,"confidence":1},{"trial_n":47,"span":4,"encoder":"0789","distractor":"0769","target":"present","response":"present","rt":"326.60000000894","correct":true,"confidence":1},{"trial_n":48,"span":4,"encoder":"6510","distractor":"6515","target":"absent","response":"present","rt":"815.70000000298","correct":false,"confidence":1},{"trial_n":49,"span":3,"encoder":"792","distractor":"492","target":"absent","response":"present","rt":"188.80000001192","correct":false,"confidence":1},{"trial_n":50,"span":2,"encoder":"53","distractor":"83","target":"absent","response":"present","rt":"26.70000000298","correct":false,"confidence":1},{"trial_n":51,"span":2,"encoder":"70","distractor":"71","target":"present","response":"present","rt":"281.59999999404","correct":true,"confidence":1},{"trial_n":52,"span":2,"encoder":"30","distractor":"37","target":"absent","response":"present","rt":"204.39999999106","correct":false,"confidence":1},{"trial_n":53,"span":2,"encoder":"03","distractor":"09","target":"absent","response":"present","rt":"117.79999999702","correct":false,"confidence":1},{"trial_n":54,"span":2,"encoder":"14","distractor":"04","target":"present","response":"present","rt":"551.39999999106","correct":true,"confidence":1},{"trial_n":55,"span":2,"encoder":"36","distractor":"38","target":"absent","response":"present","rt":"148.79999999702","correct":false,"confidence":1},{"trial_n":56,"span":2,"encoder":"42","distractor":"44","target":"present","response":"present","rt":"2303.099999994","correct":true,"confidence":1},{"trial_n":57,"span":2,"encoder":"05","distractor":"06","target":"absent","response":"present","rt":"363.69999998808","correct":false,"confidence":1},{"trial_n":58,"span":2,"encoder":"32","distractor":"12","target":"absent","response":"present","rt":"554.20000000298","correct":false,"confidence":1},{"trial_n":59,"span":2,"encoder":"77","distractor":"47","target":"present","response":"present","rt":"124.5","correct":true,"confidence":1},{"trial_n":60,"span":2,"encoder":"40","distractor":"47","target":"absent","response":"present","rt":"280.39999999106","correct":false,"confidence":1},{"trial_n":61,"span":2,"encoder":"51","distractor":"41","target":"present","response":"present","rt":"1367.1999999881","correct":true,"confidence":1},{"trial_n":62,"span":2,"encoder":"95","distractor":"90","target":"present","response":"present","rt":"482.70000000298","correct":true,"confidence":1},{"trial_n":63,"span":3,"encoder":"976","distractor":"936","target":"absent","response":"present","rt":"428.79999999702","correct":false,"confidence":1},{"trial_n":64,"span":2,"encoder":"19","distractor":"99","target":"absent","response":"present","rt":"543.59999999404","correct":false,"confidence":1},{"trial_n":65,"span":2,"encoder":"58","distractor":"78","target":"present","response":"present","rt":"433.79999999702","correct":true,"confidence":1},{"trial_n":66,"span":2,"encoder":"37","distractor":"67","target":"absent","response":"present","rt":"537.29999999702","correct":false,"confidence":1},{"trial_n":67,"span":2,"encoder":"79","distractor":"72","target":"absent","response":"present","rt":"524.59999999404","correct":false,"confidence":1},{"trial_n":68,"span":2,"encoder":"40","distractor":"48","target":"present","response":"present","rt":"1731","correct":true,"confidence":1},{"trial_n":69,"span":2,"encoder":"42","distractor":"52","target":"present","response":"present","rt":"666.29999999702","correct":true,"confidence":1},{"trial_n":70,"span":3,"encoder":"647","distractor":"147","target":"absent","response":"present","rt":"827.09999999404","correct":false,"confidence":1},{"trial_n":71,"span":8,"encoder":"34438380","distractor":"36438380","target":"present","response":"present","rt":"25.5","correct":true,"confidence":-1},{"trial_n":72,"span":8,"encoder":"68355022","distractor":"68355042","target":"present","response":"present","rt":"1613.5","correct":true,"confidence":-1},{"trial_n":73,"span":9,"encoder":"907695071","distractor":"907695031","target":"absent","response":"present","rt":"301.29999999702","correct":false,"confidence":-1},{"trial_n":74,"span":8,"encoder":"93704323","distractor":"93794323","target":"absent","response":"present","rt":"137.40000000596","correct":false,"confidence":-1},{"trial_n":75,"span":7,"encoder":"0273690","distractor":"0273670","target":"present","response":"present","rt":"94.59999999404","correct":true,"confidence":-1},{"trial_n":76,"span":7,"encoder":"7285655","distractor":"7285555","target":"absent","response":"present","rt":"72.59999999404","correct":false,"confidence":-1},{"trial_n":77,"span":6,"encoder":"373030","distractor":"373330","target":"present","response":"present","rt":"21.09999999404","correct":true,"confidence":-1},{"trial_n":78,"span":6,"encoder":"736119","distractor":"736619","target":"present","response":"present","rt":"23.90000000596","correct":true,"confidence":-1},{"trial_n":79,"span":7,"encoder":"0503930","distractor":"0593930","target":"absent","response":"present","rt":"1","correct":false,"confidence":-1},{"trial_n":80,"span":6,"encoder":"117198","distractor":"117138","target":"absent","response":"present","rt":"31.199999988079","correct":false,"confidence":-1},{"trial_n":81,"span":5,"encoder":"82656","distractor":"82654","target":"present","response":"present","rt":"35.100000008941","correct":true,"confidence":-1},{"trial_n":82,"span":5,"encoder":"20759","distractor":"20559","target":"present","response":"present","rt":"41.90000000596","correct":true,"confidence":-1},{"trial_n":83,"span":6,"encoder":"656853","distractor":"651853","target":"present","response":"present","rt":"24.699999988079","correct":true,"confidence":-1},{"trial_n":84,"span":6,"encoder":"477047","distractor":"577047","target":"absent","response":"present","rt":"25.70000000298","correct":false,"confidence":-1},{"trial_n":85,"span":5,"encoder":"25547","distractor":"25541","target":"absent","response":"present","rt":"14474.5","correct":false,"confidence":-1},{"trial_n":86,"span":4,"encoder":"6916","distractor":"6936","target":"absent","response":"present","rt":"3846.200000003","correct":false,"confidence":-1},{"trial_n":87,"span":3,"encoder":"902","distractor":"602","target":"present","response":"present","rt":"802.90000000596","correct":true,"confidence":-1},{"trial_n":88,"span":3,"encoder":"807","distractor":"707","target":"absent","response":"present","rt":"53.20000000298","correct":false,"confidence":-1},{"trial_n":89,"span":2,"encoder":"23","distractor":"93","target":"absent","response":"present","rt":"564.29999999702","correct":false,"confidence":-1},{"trial_n":90,"span":2,"encoder":"44","distractor":"49","target":"present","response":"present","rt":"251.79999999702","correct":true,"confidence":-1},{"trial_n":91,"span":2,"encoder":"23","distractor":"43","target":"absent","response":"present","rt":"35.29999999702","correct":false,"confidence":1},{"trial_n":92,"span":2,"encoder":"27","distractor":"97","target":"absent","response":"present","rt":"8.9000000059605","correct":false,"confidence":1},{"trial_n":93,"span":2,"encoder":"21","distractor":"11","target":"present","response":"present","rt":"1.7000000029802","correct":true,"confidence":1},{"trial_n":94,"span":2,"encoder":"12","distractor":"19","target":"present","response":"present","rt":"48.59999999404","correct":true,"confidence":1},{"trial_n":95,"span":3,"encoder":"378","distractor":"377","target":"present","response":"present","rt":"27.79999999702","correct":true,"confidence":1},{"trial_n":96,"span":3,"encoder":"072","distractor":"022","target":"present","response":"present","rt":"41.600000008941","correct":true,"confidence":1},{"trial_n":97,"span":4,"encoder":"5339","distractor":"5337","target":"absent","response":"present","rt":"125.29999999702","correct":false,"confidence":1},{"trial_n":98,"span":3,"encoder":"827","distractor":"817","target":"present","response":"present","rt":"86.79999999702","correct":true,"confidence":1},{"trial_n":99,"span":3,"encoder":"289","distractor":"389","target":"present","response":"present","rt":"66.20000000298","correct":true,"confidence":1},{"trial_n":100,"span":4,"encoder":"0817","distractor":"0517","target":"absent","response":"present","rt":"131.20000000298","correct":false,"confidence":1},{"trial_n":101,"span":3,"encoder":"974","distractor":"970","target":"present","response":"present","rt":"163.90000000596","correct":true,"confidence":1},{"trial_n":102,"span":3,"encoder":"784","distractor":"384","target":"absent","response":"present","rt":"58","correct":false,"confidence":1},{"trial_n":103,"span":2,"encoder":"53","distractor":"83","target":"present","response":"present","rt":"-1.7999999970198","correct":true,"confidence":1},{"trial_n":104,"span":2,"encoder":"62","distractor":"02","target":"absent","response":"present","rt":"73.100000008941","correct":false,"confidence":1},{"trial_n":105,"span":2,"encoder":"60","distractor":"40","target":"absent","response":"present","rt":"183.20000000298","correct":false,"confidence":1},{"trial_n":106,"span":2,"encoder":"33","distractor":"43","target":"absent","response":"present","rt":"172.29999999702","correct":false,"confidence":1},{"trial_n":107,"span":2,"encoder":"81","distractor":"21","target":"present","response":"present","rt":"183.10000000894","correct":true,"confidence":1},{"trial_n":108,"span":2,"encoder":"81","distractor":"31","target":"absent","response":"present","rt":"164","correct":false,"confidence":1},{"trial_n":109,"span":2,"encoder":"69","distractor":"29","target":"present","response":"present","rt":"217.5","correct":true,"confidence":1},{"trial_n":110,"span":2,"encoder":"72","distractor":"22","target":"present","response":"present","rt":"194.09999999404","correct":true,"confidence":1},{"trial_n":111,"span":3,"encoder":"300","distractor":"309","target":"absent","response":"present","rt":"90.5","correct":false,"confidence":1},{"trial_n":112,"span":2,"encoder":"99","distractor":"91","target":"present","response":"present","rt":"44","correct":true,"confidence":1},{"trial_n":113,"span":2,"encoder":"70","distractor":"00","target":"present","response":"present","rt":"84.899999991059","correct":true,"confidence":1},{"trial_n":114,"span":3,"encoder":"005","distractor":"905","target":"present","response":"present","rt":"9.5","correct":true,"confidence":1},{"trial_n":115,"span":3,"encoder":"269","distractor":"229","target":"present","response":"present","rt":"11.399999991059","correct":true,"confidence":1},{"trial_n":116,"span":4,"encoder":"9091","distractor":"9096","target":"absent","response":"present","rt":"214.29999999702","correct":false,"confidence":1},{"trial_n":117,"span":3,"encoder":"027","distractor":"227","target":"absent","response":"present","rt":"89.59999999404","correct":false,"confidence":1},{"trial_n":118,"span":2,"encoder":"92","distractor":"97","target":"present","response":"present","rt":"160.29999999702","correct":true,"confidence":1},{"trial_n":119,"span":2,"encoder":"69","distractor":"79","target":"present","response":"present","rt":"195.5","correct":true,"confidence":1},{"trial_n":120,"span":3,"encoder":"704","distractor":"705","target":"present","response":"present","rt":"93.79999999702","correct":true,"confidence":1},{"trial_n":121,"span":3,"encoder":"549","distractor":"559","target":"absent","response":"present","rt":"222.20000000298","correct":false,"confidence":1},{"trial_n":122,"span":2,"encoder":"71","distractor":"77","target":"present","response":"present","rt":"240.09999999404","correct":true,"confidence":1},{"trial_n":123,"span":2,"encoder":"95","distractor":"05","target":"absent","response":"present","rt":"174.39999999106","correct":false,"confidence":1},{"trial_n":124,"span":2,"encoder":"68","distractor":"98","target":"present","response":"present","rt":"26.79999999702","correct":true,"confidence":1},{"trial_n":125,"span":2,"encoder":"79","distractor":"59","target":"absent","response":"present","rt":"13.79999999702","correct":false,"confidence":1},{"trial_n":126,"span":2,"encoder":"66","distractor":"76","target":"absent","response":"present","rt":"207.10000000894","correct":false,"confidence":1},{"trial_n":127,"span":2,"encoder":"49","distractor":"46","target":"absent","response":"present","rt":"134.89999999106","correct":false,"confidence":1},{"trial_n":128,"span":2,"encoder":"79","distractor":"69","target":"present","response":"present","rt":"204.90000000596","correct":true,"confidence":1},{"trial_n":129,"span":2,"encoder":"99","distractor":"96","target":"present","response":"present","rt":"51.90000000596","correct":true,"confidence":1},{"trial_n":130,"span":3,"encoder":"458","distractor":"438","target":"absent","response":"present","rt":"105.10000000894","correct":false,"confidence":1},{"trial_n":131,"span":2,"encoder":"74","distractor":"79","target":"present","response":"present","rt":"66.20000000298","correct":true,"confidence":1},{"trial_n":132,"span":2,"encoder":"46","distractor":"45","target":"absent","response":"present","rt":"36.79999999702","correct":false,"confidence":1},{"trial_n":133,"span":2,"encoder":"98","distractor":"95","target":"absent","response":"present","rt":"165.40000000596","correct":false,"confidence":1},{"trial_n":134,"span":2,"encoder":"86","distractor":"85","target":"present","response":"present","rt":"85.29999999702","correct":true,"confidence":1},{"trial_n":135,"span":2,"encoder":"12","distractor":"62","target":"absent","response":"present","rt":"123.20000000298","correct":false,"confidence":1},{"trial_n":136,"span":2,"encoder":"17","distractor":"57","target":"absent","response":"present","rt":"174.79999999702","correct":false,"confidence":1},{"trial_n":137,"span":2,"encoder":"16","distractor":"56","target":"present","response":"present","rt":"26","correct":true,"confidence":1},{"trial_n":138,"span":2,"encoder":"21","distractor":"24","target":"present","response":"present","rt":"84.899999991059","correct":true,"confidence":1},{"trial_n":139,"span":3,"encoder":"410","distractor":"210","target":"absent","response":"present","rt":"64.09999999404","correct":false,"confidence":1},{"trial_n":140,"span":2,"encoder":"88","distractor":"28","target":"absent","response":"present","rt":"170.69999998808","correct":false,"confidence":1}]