[{"trial_n":1,"min":25,"max":230,"target":"present","response":"absent","rt":1661.200000003,"correct":false,"confidence":-1},{"trial_n":2,"min":25,"max":230,"target":"present","response":"present","rt":820.59999999404,"correct":true,"confidence":-1},{"trial_n":3,"min":25,"max":230,"target":"absent","response":"present","rt":529.60000000894,"correct":false,"confidence":-1},{"trial_n":4,"min":9,"max":246,"target":"absent","response":"present","rt":113.20000000298,"correct":false,"confidence":-1},{"trial_n":5,"min":0,"max":255,"target":"present","response":"present","rt":131.40000000596,"correct":true,"confidence":-1},{"trial_n":6,"min":0,"max":255,"target":"present","response":"present","rt":123.70000000298,"correct":true,"confidence":-1},{"trial_n":7,"min":16,"max":239,"target":"absent","response":"present","rt":131.70000000298,"correct":false,"confidence":-1},{"trial_n":8,"min":0,"max":255,"target":"absent","response":"present","rt":206.90000000596,"correct":false,"confidence":-1},{"trial_n":9,"min":0,"max":255,"target":"present","response":"present","rt":231.29999999702,"correct":true,"confidence":-1},{"trial_n":10,"min":0,"max":255,"target":"absent","response":"present","rt":264.29999999702,"correct":false,"confidence":-1},{"trial_n":11,"min":0,"max":255,"target":"absent","response":"present","rt":195.5,"correct":false,"confidence":-1},{"trial_n":12,"min":0,"max":255,"target":"present","response":"present","rt":156.40000000596,"correct":true,"confidence":-1},{"trial_n":13,"min":0,"max":255,"target":"absent","response":"present","rt":199,"correct":false,"confidence":-1},{"trial_n":14,"min":0,"max":255,"target":"absent","response":"present","rt":677.09999999404,"correct":false,"confidence":-1},{"trial_n":15,"min":0,"max":255,"target":"absent","response":"present","rt":125,"correct":false,"confidence":-1},{"trial_n":16,"min":0,"max":255,"target":"absent","response":"present","rt":199.70000000298,"correct":false,"confidence":-1},{"trial_n":17,"min":0,"max":255,"target":"present","response":"present","rt":144.40000000596,"correct":true,"confidence":-1},{"trial_n":18,"min":0,"max":255,"target":"present","response":"present","rt":92.399999991059,"correct":true,"confidence":-1},{"trial_n":19,"min":8,"max":247,"target":"absent","response":"present","rt":77.199999988079,"correct":false,"confidence":-1},{"trial_n":20,"min":0,"max":255,"target":"present","response":"present","rt":55.5,"correct":true,"confidence":-1},{"trial_n":21,"min":0,"max":255,"target":"absent","response":"present","rt":157.10000000894,"correct":false,"confidence":4},{"trial_n":22,"min":0,"max":255,"target":"present","response":"absent","rt":1189,"correct":false,"confidence":1},{"trial_n":23,"min":0,"max":255,"target":"present","response":"absent","rt":846.39999999106,"correct":false,"confidence":1},{"trial_n":24,"min":0,"max":255,"target":"absent","response":"absent","rt":861.09999999404,"correct":true,"confidence":1},{"trial_n":25,"min":0,"max":255,"target":"present","response":"present","rt":892.40000000596,"correct":true,"confidence":1},{"trial_n":26,"min":4,"max":251,"target":"present","response":"present","rt":729.79999999702,"correct":true,"confidence":1},{"trial_n":27,"min":4,"max":251,"target":"absent","response":"present","rt":1154.700000003,"correct":false,"confidence":1},{"trial_n":28,"min":0,"max":255,"target":"absent","response":"present","rt":788,"correct":false,"confidence":1},{"trial_n":29,"min":0,"max":255,"target":"present","response":"present","rt":773.20000000298,"correct":true,"confidence":4},{"trial_n":30,"min":0,"max":255,"target":"present","response":"present","rt":834.5,"correct":true,"confidence":1},{"trial_n":31,"min":2,"max":253,"target":"present","response":"present","rt":859,"correct":true,"confidence":1},{"trial_n":32,"min":2,"max":253,"target":"present","response":"present","rt":3713.200000003,"correct":true,"confidence":1},{"trial_n":33,"min":4,"max":251,"target":"absent","response":"absent","rt":1076.599999994,"correct":true,"confidence":1},{"trial_n":34,"min":4,"max":251,"target":"present","response":"present","rt":811.90000000596,"correct":true,"confidence":1},{"trial_n":35,"min":6,"max":249,"target":"absent","response":"present","rt":738.19999998808,"correct":false,"confidence":1},{"trial_n":36,"min":4,"max":251,"target":"absent","response":"absent","rt":1020.700000003,"correct":true,"confidence":1},{"trial_n":37,"min":4,"max":251,"target":"present","response":"absent","rt":716.59999999404,"correct":false,"confidence":1},{"trial_n":38,"min":2,"max":253,"target":"absent","response":"absent","rt":1187.1000000089,"correct":true,"confidence":1},{"trial_n":39,"min":2,"max":253,"target":"absent","response":"absent","rt":2013.200000003,"correct":true,"confidence":1},{"trial_n":40,"min":4,"max":251,"target":"present","response":"present","rt":830.70000000298,"correct":true,"confidence":1},{"trial_n":41,"min":4,"max":251,"target":"present","response":"present","rt":711.20000000298,"correct":true,"confidence":1},{"trial_n":42,"min":5,"max":250,"target":"present","response":"present","rt":1250.700000003,"correct":true,"confidence":1},{"trial_n":43,"min":5,"max":250,"target":"present","response":"present","rt":2262.700000003,"correct":true,"confidence":1},{"trial_n":44,"min":6,"max":249,"target":"present","response":"present","rt":700.5,"correct":true,"confidence":1},{"trial_n":45,"min":6,"max":249,"target":"present","response":"present","rt":733.79999999702,"correct":true,"confidence":1},{"trial_n":46,"min":7,"max":248,"target":"absent","response":"absent","rt":836.10000000894,"correct":true,"confidence":1},{"trial_n":47,"min":7,"max":248,"target":"absent","response":"absent","rt":758.09999999404,"correct":true,"confidence":1},{"trial_n":48,"min":8,"max":247,"target":"present","response":"present","rt":724.70000000298,"correct":true,"confidence":1},{"trial_n":49,"min":8,"max":247,"target":"present","response":"present","rt":724.70000000298,"correct":true,"confidence":1},{"trial_n":50,"min":9,"max":246,"target":"absent","response":"absent","rt":1050.6000000089,"correct":true,"confidence":1},{"trial_n":51,"min":9,"max":246,"target":"present","response":"present","rt":667.10000000894,"correct":true,"confidence":1},{"trial_n":52,"min":10,"max":245,"target":"absent","response":"absent","rt":1529.700000003,"correct":true,"confidence":1},{"trial_n":53,"min":10,"max":245,"target":"absent","response":"absent","rt":668.59999999404,"correct":true,"confidence":1},{"trial_n":54,"min":11,"max":244,"target":"present","response":"present","rt":661.20000000298,"correct":true,"confidence":1},{"trial_n":55,"min":11,"max":244,"target":"absent","response":"absent","rt":949.5,"correct":true,"confidence":1},{"trial_n":56,"min":12,"max":243,"target":"present","response":"present","rt":1060.200000003,"correct":true,"confidence":1},{"trial_n":57,"min":12,"max":243,"target":"absent","response":"absent","rt":778.79999999702,"correct":true,"confidence":1},{"trial_n":58,"min":13,"max":242,"target":"present","response":"present","rt":898.79999999702,"correct":true,"confidence":1},{"trial_n":59,"min":13,"max":242,"target":"absent","response":"absent","rt":1648.700000003,"correct":true,"confidence":1},{"trial_n":60,"min":14,"max":241,"target":"absent","response":"absent","rt":887.60000000894,"correct":true,"confidence":1},{"trial_n":61,"min":14,"max":241,"target":"present","response":"present","rt":1610.599999994,"correct":true,"confidence":1},{"trial_n":62,"min":15,"max":240,"target":"present","response":"present","rt":1295.5,"correct":true,"confidence":1},{"trial_n":63,"min":15,"max":240,"target":"absent","response":"absent","rt":884.5,"correct":true,"confidence":1},{"trial_n":64,"min":16,"max":239,"target":"absent","response":"absent","rt":1088.1999999881,"correct":true,"confidence":1},{"trial_n":65,"min":16,"max":239,"target":"present","response":"present","rt":679.59999999404,"correct":true,"confidence":1},{"trial_n":66,"min":17,"max":238,"target":"absent","response":"absent","rt":736.90000000596,"correct":true,"confidence":1},{"trial_n":67,"min":17,"max":238,"target":"present","response":"present","rt":616.90000000596,"correct":true,"confidence":1},{"trial_n":68,"min":18,"max":237,"target":"absent","response":"absent","rt":585.5,"correct":true,"confidence":1},{"trial_n":69,"min":18,"max":237,"target":"present","response":"present","rt":662.20000000298,"correct":true,"confidence":1},{"trial_n":70,"min":19,"max":236,"target":"absent","response":"absent","rt":788,"correct":true,"confidence":1},{"trial_n":71,"min":41,"max":214,"target":"present","response":"present","rt":1333.900000006,"correct":true,"confidence":-1},{"trial_n":72,"min":41,"max":214,"target":"present","response":"present","rt":668.59999999404,"correct":true,"confidence":-1},{"trial_n":73,"min":57,"max":198,"target":"absent","response":"absent","rt":675.79999999702,"correct":true,"confidence":-1},{"trial_n":74,"min":57,"max":198,"target":"absent","response":"absent","rt":794.20000000298,"correct":true,"confidence":-1},{"trial_n":75,"min":73,"max":182,"target":"present","response":"present","rt":1490.299999997,"correct":true,"confidence":-1},{"trial_n":76,"min":73,"max":182,"target":"present","response":"present","rt":3254.3999999911,"correct":true,"confidence":-1},{"trial_n":77,"min":89,"max":166,"target":"present","response":"present","rt":981.20000000298,"correct":true,"confidence":-1},{"trial_n":78,"min":89,"max":166,"target":"absent","response":"present","rt":1066.700000003,"correct":false,"confidence":-1},{"trial_n":79,"min":73,"max":182,"target":"present","response":"absent","rt":817.29999999702,"correct":false,"confidence":-1},{"trial_n":80,"min":57,"max":198,"target":"absent","response":"present","rt":991.90000000596,"correct":false,"confidence":-1},{"trial_n":81,"min":49,"max":206,"target":"absent","response":"present","rt":1146.3000000119,"correct":false,"confidence":-1},{"trial_n":82,"min":41,"max":214,"target":"absent","response":"present","rt":529,"correct":false,"confidence":-1},{"trial_n":83,"min":33,"max":222,"target":"present","response":"present","rt":196.90000000596,"correct":true,"confidence":-1},{"trial_n":84,"min":33,"max":222,"target":"absent","response":"present","rt":90.29999999702,"correct":false,"confidence":-1},{"trial_n":85,"min":25,"max":230,"target":"present","response":"present","rt":112.20000000298,"correct":true,"confidence":-1},{"trial_n":86,"min":25,"max":230,"target":"present","response":"present","rt":168.29999999702,"correct":true,"confidence":-1},{"trial_n":87,"min":33,"max":222,"target":"absent","response":"present","rt":181.90000000596,"correct":false,"confidence":-1},{"trial_n":88,"min":25,"max":230,"target":"absent","response":"present","rt":175,"correct":false,"confidence":-1},{"trial_n":89,"min":17,"max":238,"target":"absent","response":"present","rt":194.80000001192,"correct":false,"confidence":-1},{"trial_n":90,"min":9,"max":246,"target":"absent","response":"present","rt":104.90000000596,"correct":false,"confidence":-1},{"trial_n":91,"min":5,"max":250,"target":"present","response":"present","rt":117.5,"correct":true,"confidence":1},{"trial_n":92,"min":5,"max":250,"target":"present","response":"absent","rt":1143.200000003,"correct":false,"confidence":1},{"trial_n":93,"min":1,"max":254,"target":"present","response":"present","rt":734.20000000298,"correct":true,"confidence":1},{"trial_n":94,"min":1,"max":254,"target":"absent","response":"absent","rt":1187.400000006,"correct":true,"confidence":1},{"trial_n":95,"min":5,"max":250,"target":"present","response":"present","rt":750.19999998808,"correct":true,"confidence":1},{"trial_n":96,"min":5,"max":250,"target":"absent","response":"present","rt":854.70000000298,"correct":false,"confidence":1},{"trial_n":97,"min":1,"max":254,"target":"present","response":"present","rt":2243.6000000089,"correct":true,"confidence":1},{"trial_n":98,"min":1,"max":254,"target":"absent","response":"present","rt":851.5,"correct":false,"confidence":1},{"trial_n":99,"min":0,"max":255,"target":"absent","response":"absent","rt":1118.3999999911,"correct":true,"confidence":1},{"trial_n":100,"min":0,"max":255,"target":"present","response":"present","rt":1163,"correct":true,"confidence":1},{"trial_n":101,"min":2,"max":253,"target":"present","response":"present","rt":1318.599999994,"correct":true,"confidence":1},{"trial_n":102,"min":2,"max":253,"target":"absent","response":"absent","rt":4077.700000003,"correct":true,"confidence":1},{"trial_n":103,"min":4,"max":251,"target":"present","response":"present","rt":652,"correct":true,"confidence":1},{"trial_n":104,"min":4,"max":251,"target":"present","response":"present","rt":498.59999999404,"correct":true,"confidence":1},{"trial_n":105,"min":6,"max":249,"target":"absent","response":"absent","rt":1013.5,"correct":true,"confidence":1},{"trial_n":106,"min":6,"max":249,"target":"present","response":"present","rt":1727.900000006,"correct":true,"confidence":1},{"trial_n":107,"min":8,"max":247,"target":"present","response":"present","rt":1157.200000003,"correct":true,"confidence":1},{"trial_n":108,"min":8,"max":247,"target":"present","response":"absent","rt":1869.6000000089,"correct":false,"confidence":1},{"trial_n":109,"min":6,"max":249,"target":"present","response":"present","rt":611.20000000298,"correct":true,"confidence":1},{"trial_n":110,"min":6,"max":249,"target":"present","response":"present","rt":538.20000000298,"correct":true,"confidence":1},{"trial_n":111,"min":7,"max":248,"target":"present","response":"present","rt":733.20000000298,"correct":true,"confidence":1},{"trial_n":112,"min":7,"max":248,"target":"absent","response":"present","rt":753.60000000894,"correct":false,"confidence":1},{"trial_n":113,"min":6,"max":249,"target":"present","response":"present","rt":1233.200000003,"correct":true,"confidence":1},{"trial_n":114,"min":6,"max":249,"target":"absent","response":"present","rt":1368.099999994,"correct":false,"confidence":1},{"trial_n":115,"min":5,"max":250,"target":"absent","response":"present","rt":742.89999999106,"correct":false,"confidence":1},{"trial_n":116,"min":4,"max":251,"target":"absent","response":"absent","rt":1219.200000003,"correct":true,"confidence":1},{"trial_n":117,"min":4,"max":251,"target":"absent","response":"present","rt":1024.6000000089,"correct":false,"confidence":1},{"trial_n":118,"min":3,"max":252,"target":"absent","response":"present","rt":1520.299999997,"correct":false,"confidence":1},{"trial_n":119,"min":2,"max":253,"target":"present","response":"present","rt":667.70000000298,"correct":true,"confidence":1},{"trial_n":120,"min":2,"max":253,"target":"present","response":"present","rt":1178,"correct":true,"confidence":1},{"trial_n":121,"min":3,"max":252,"target":"absent","response":"present","rt":683.29999999702,"correct":false,"confidence":1},{"trial_n":122,"min":2,"max":253,"target":"absent","response":"present","rt":1130.6999999881,"correct":false,"confidence":1},{"trial_n":123,"min":1,"max":254,"target":"present","response":"absent","rt":1119.200000003,"correct":false,"confidence":1},{"trial_n":124,"min":0,"max":255,"target":"present","response":"present","rt":1028.299999997,"correct":true,"confidence":1},{"trial_n":125,"min":0,"max":255,"target":"present","response":"present","rt":1513.200000003,"correct":true,"confidence":1},{"trial_n":126,"min":1,"max":254,"target":"absent","response":"absent","rt":1077.200000003,"correct":true,"confidence":1},{"trial_n":127,"min":1,"max":254,"target":"absent","response":"absent","rt":835.59999999404,"correct":true,"confidence":1},{"trial_n":128,"min":2,"max":253,"target":"absent","response":"absent","rt":1311.900000006,"correct":true,"confidence":1},{"trial_n":129,"min":2,"max":253,"target":"absent","response":"absent","rt":1623.3999999911,"correct":true,"confidence":1},{"trial_n":130,"min":3,"max":252,"target":"absent","response":"absent","rt":1081.900000006,"correct":true,"confidence":1},{"trial_n":131,"min":3,"max":252,"target":"present","response":"present","rt":650.5,"correct":true,"confidence":1},{"trial_n":132,"min":4,"max":251,"target":"present","response":"present","rt":1209.299999997,"correct":true,"confidence":1},{"trial_n":133,"min":4,"max":251,"target":"absent","response":"present","rt":1617.900000006,"correct":false,"confidence":1},{"trial_n":134,"min":3,"max":252,"target":"absent","response":"absent","rt":895.70000000298,"correct":true,"confidence":1},{"trial_n":135,"min":3,"max":252,"target":"present","response":"present","rt":750.29999999702,"correct":true,"confidence":1},{"trial_n":136,"min":4,"max":251,"target":"present","response":"present","rt":1025.700000003,"correct":true,"confidence":1},{"trial_n":137,"min":4,"max":251,"target":"present","response":"absent","rt":1368.700000003,"correct":false,"confidence":1},{"trial_n":138,"min":3,"max":252,"target":"absent","response":"absent","rt":1362.599999994,"correct":true,"confidence":1},{"trial_n":139,"min":3,"max":252,"target":"absent","response":"absent","rt":1052.099999994,"correct":true,"confidence":1},{"trial_n":140,"min":4,"max":251,"target":"present","response":"present","rt":701.10000000894,"correct":true,"confidence":1}]