[{"trial_n":1,"span":8,"encoder":"29427766","distractor":"29427761","target":"present","response":"present","rt":"14579","correct":true,"confidence":-1},{"trial_n":2,"span":8,"encoder":"27761407","distractor":"27721407","target":"present","response":"present","rt":"1800.1999999993","correct":true,"confidence":-1},{"trial_n":3,"span":10,"encoder":"4850285124","distractor":"4850285224","target":"absent","response":"absent","rt":"1762.8000000007","correct":true,"confidence":-1},{"trial_n":4,"span":10,"encoder":"2889721457","distractor":"2889781457","target":"absent","response":"present","rt":"1454.1000000015","correct":false,"confidence":-1},{"trial_n":5,"span":8,"encoder":"50182676","distractor":"50182476","target":"present","response":"present","rt":"1303.1999999993","correct":true,"confidence":-1},{"trial_n":6,"span":8,"encoder":"94888318","distractor":"94848318","target":"present","response":"present","rt":"1261.5999999996","correct":true,"confidence":-1},{"trial_n":7,"span":10,"encoder":"7051852141","distractor":"7751852141","target":"absent","response":"present","rt":"965.09999999963","correct":false,"confidence":-1},{"trial_n":8,"span":8,"encoder":"65423332","distractor":"65428332","target":"absent","response":"present","rt":"737.20000000112","correct":false,"confidence":-1},{"trial_n":9,"span":6,"encoder":"176096","distractor":"176086","target":"absent","response":"present","rt":"1039.3000000007","correct":false,"confidence":-1},{"trial_n":10,"span":4,"encoder":"3480","distractor":"6480","target":"present","response":"present","rt":"1118.5","correct":true,"confidence":-1},{"trial_n":11,"span":4,"encoder":"8346","distractor":"8376","target":"present","response":"present","rt":"614.80000000075","correct":true,"confidence":-1},{"trial_n":12,"span":5,"encoder":"42914","distractor":"42912","target":"present","response":"present","rt":"1616.0999999996","correct":true,"confidence":-1},{"trial_n":13,"span":5,"encoder":"46651","distractor":"46151","target":"absent","response":"absent","rt":"1158.3000000007","correct":true,"confidence":-1},{"trial_n":14,"span":6,"encoder":"080102","distractor":"080105","target":"present","response":"present","rt":"1553.1999999993","correct":true,"confidence":-1},{"trial_n":15,"span":6,"encoder":"841878","distractor":"881878","target":"absent","response":"present","rt":"3738.2999999989","correct":false,"confidence":-1},{"trial_n":16,"span":5,"encoder":"81225","distractor":"86225","target":"present","response":"present","rt":"895.59999999963","correct":true,"confidence":-1},{"trial_n":17,"span":5,"encoder":"92400","distractor":"91400","target":"present","response":"present","rt":"900.20000000112","correct":true,"confidence":-1},{"trial_n":18,"span":6,"encoder":"542007","distractor":"542607","target":"present","response":"present","rt":"739.70000000112","correct":true,"confidence":-1},{"trial_n":19,"span":6,"encoder":"874775","distractor":"874772","target":"present","response":"present","rt":"784.40000000037","correct":true,"confidence":-1},{"trial_n":20,"span":7,"encoder":"2866186","distractor":"2862186","target":"absent","response":"absent","rt":"1557.9000000004","correct":true,"confidence":-1},{"trial_n":21,"span":7,"encoder":"0332999","distractor":"0032999","target":"present","response":"present","rt":"1148.3999999985","correct":true,"confidence":4},{"trial_n":22,"span":8,"encoder":"19282722","distractor":"19288722","target":"present","response":"present","rt":"7780.3000000007","correct":true,"confidence":3},{"trial_n":23,"span":8,"encoder":"99546139","distractor":"99556139","target":"present","response":"present","rt":"3837.1999999993","correct":true,"confidence":3},{"trial_n":24,"span":9,"encoder":"495668487","distractor":"495668087","target":"absent","response":"absent","rt":"10301.899999999","correct":true,"confidence":2},{"trial_n":25,"span":9,"encoder":"902867545","distractor":"902967545","target":"present","response":"present","rt":"1277.5","correct":true,"confidence":3},{"trial_n":26,"span":10,"encoder":"2973869576","distractor":"2973869516","target":"absent","response":"present","rt":"3783.2000000011","correct":false,"confidence":3},{"trial_n":27,"span":9,"encoder":"536540270","distractor":"536560270","target":"present","response":"present","rt":"804.59999999963","correct":true,"confidence":3},{"trial_n":28,"span":9,"encoder":"375991213","distractor":"375991913","target":"absent","response":"present","rt":"1451.4000000004","correct":false,"confidence":4},{"trial_n":29,"span":8,"encoder":"76952598","distractor":"76952595","target":"present","response":"present","rt":"903.20000000112","correct":true,"confidence":3},{"trial_n":30,"span":8,"encoder":"77974187","distractor":"77574187","target":"present","response":"present","rt":"1349.0999999996","correct":true,"confidence":3},{"trial_n":31,"span":9,"encoder":"503992863","distractor":"503991863","target":"absent","response":"present","rt":"3163.1999999993","correct":false,"confidence":2},{"trial_n":32,"span":8,"encoder":"07721291","distractor":"07721791","target":"present","response":"present","rt":"1110.7000000011","correct":true,"confidence":3},{"trial_n":33,"span":8,"encoder":"28700970","distractor":"28700960","target":"present","response":"present","rt":"1838.9000000004","correct":true,"confidence":4},{"trial_n":34,"span":9,"encoder":"054547689","distractor":"054547679","target":"absent","response":"present","rt":"2479.9000000004","correct":false,"confidence":4},{"trial_n":35,"span":8,"encoder":"35091328","distractor":"35791328","target":"absent","response":"present","rt":"3215.5999999996","correct":false,"confidence":3},{"trial_n":36,"span":7,"encoder":"8564905","distractor":"8574905","target":"present","response":"present","rt":"1647.4000000004","correct":true,"confidence":5},{"trial_n":37,"span":7,"encoder":"4715225","distractor":"4015225","target":"absent","response":"present","rt":"2283.8000000007","correct":false,"confidence":5},{"trial_n":38,"span":6,"encoder":"676266","distractor":"676236","target":"present","response":"present","rt":"2086.2999999989","correct":true,"confidence":4},{"trial_n":39,"span":6,"encoder":"156505","distractor":"156575","target":"absent","response":"absent","rt":"2714.5999999996","correct":true,"confidence":5},{"trial_n":40,"span":7,"encoder":"4392752","distractor":"4392652","target":"absent","response":"present","rt":"1106.3000000007","correct":false,"confidence":3},{"trial_n":41,"span":6,"encoder":"781227","distractor":"785227","target":"present","response":"present","rt":"1242.2000000011","correct":true,"confidence":4},{"trial_n":42,"span":6,"encoder":"717514","distractor":"710514","target":"present","response":"present","rt":"944.90000000037","correct":true,"confidence":3},{"trial_n":43,"span":7,"encoder":"9815957","distractor":"9819957","target":"present","response":"present","rt":"2621","correct":true,"confidence":2},{"trial_n":44,"span":7,"encoder":"2082886","distractor":"2042886","target":"absent","response":"absent","rt":"1332.9000000004","correct":true,"confidence":5},{"trial_n":45,"span":8,"encoder":"87162367","distractor":"87662367","target":"absent","response":"absent","rt":"2631.1999999993","correct":true,"confidence":3},{"trial_n":46,"span":8,"encoder":"70332012","distractor":"70312012","target":"absent","response":"absent","rt":"1493","correct":true,"confidence":4},{"trial_n":47,"span":9,"encoder":"221971002","distractor":"221371002","target":"present","response":"present","rt":"1522.4000000004","correct":true,"confidence":4},{"trial_n":48,"span":9,"encoder":"536604686","distractor":"536604684","target":"absent","response":"present","rt":"1728.6999999993","correct":false,"confidence":3},{"trial_n":49,"span":8,"encoder":"90694313","distractor":"90694315","target":"absent","response":"absent","rt":"7992.5999999996","correct":true,"confidence":3},{"trial_n":50,"span":8,"encoder":"72536420","distractor":"72516420","target":"absent","response":"absent","rt":"7095.5","correct":true,"confidence":5},{"trial_n":51,"span":9,"encoder":"647899501","distractor":"649899501","target":"absent","response":"present","rt":"1045.3000000007","correct":false,"confidence":3},{"trial_n":52,"span":8,"encoder":"33004063","distractor":"93004063","target":"present","response":"present","rt":"3240.5999999996","correct":true,"confidence":3},{"trial_n":53,"span":8,"encoder":"99840277","distractor":"99240277","target":"absent","response":"absent","rt":"5511.9000000004","correct":true,"confidence":3},{"trial_n":54,"span":9,"encoder":"614294375","distractor":"674294375","target":"absent","response":"present","rt":"2934.9000000004","correct":false,"confidence":3},{"trial_n":55,"span":8,"encoder":"46885961","distractor":"46825961","target":"absent","response":"absent","rt":"996","correct":true,"confidence":3},{"trial_n":56,"span":8,"encoder":"08365632","distractor":"08365635","target":"present","response":"present","rt":"1052.7000000011","correct":true,"confidence":3},{"trial_n":57,"span":9,"encoder":"235895533","distractor":"235855533","target":"absent","response":"present","rt":"6461.1999999993","correct":false,"confidence":3},{"trial_n":58,"span":8,"encoder":"00090531","distractor":"00790531","target":"present","response":"present","rt":"2383.1999999993","correct":true,"confidence":3},{"trial_n":59,"span":8,"encoder":"42616162","distractor":"49616162","target":"absent","response":"present","rt":"3589.8999999985","correct":false,"confidence":4},{"trial_n":60,"span":7,"encoder":"4526045","distractor":"4526043","target":"absent","response":"absent","rt":"1275.1999999993","correct":true,"confidence":5},{"trial_n":61,"span":7,"encoder":"3678230","distractor":"3688230","target":"absent","response":"absent","rt":"2378.6999999993","correct":true,"confidence":4},{"trial_n":62,"span":8,"encoder":"72236654","distractor":"52236654","target":"present","response":"present","rt":"4277.5","correct":true,"confidence":3},{"trial_n":63,"span":8,"encoder":"12395898","distractor":"12395888","target":"present","response":"present","rt":"2090.1000000015","correct":true,"confidence":4},{"trial_n":64,"span":9,"encoder":"544350406","distractor":"544310406","target":"present","response":"present","rt":"1984.0999999996","correct":true,"confidence":3},{"trial_n":65,"span":9,"encoder":"411257639","distractor":"421257639","target":"absent","response":"absent","rt":"1183","correct":true,"confidence":3},{"trial_n":66,"span":10,"encoder":"2931292194","distractor":"2933292194","target":"absent","response":"present","rt":"2029.0999999996","correct":false,"confidence":2},{"trial_n":67,"span":9,"encoder":"067946382","distractor":"067946302","target":"absent","response":"present","rt":"2327.3000000007","correct":false,"confidence":2},{"trial_n":68,"span":8,"encoder":"80102361","distractor":"80132361","target":"present","response":"present","rt":"957.60000000149","correct":true,"confidence":3},{"trial_n":69,"span":8,"encoder":"78072242","distractor":"78072240","target":"present","response":"present","rt":"1990.2000000011","correct":true,"confidence":4},{"trial_n":70,"span":9,"encoder":"415764528","distractor":"415774528","target":"present","response":"present","rt":"729.80000000075","correct":true,"confidence":3},{"trial_n":71,"span":8,"encoder":"97974209","distractor":"97974709","target":"present","response":"present","rt":"4263.5","correct":true,"confidence":-1},{"trial_n":72,"span":8,"encoder":"50731451","distractor":"55731451","target":"present","response":"present","rt":"4795.6999999993","correct":true,"confidence":-1},{"trial_n":73,"span":9,"encoder":"410084806","distractor":"410088806","target":"absent","response":"present","rt":"8530.5","correct":false,"confidence":-1},{"trial_n":74,"span":8,"encoder":"75752206","distractor":"75792206","target":"absent","response":"absent","rt":"4888.7000000011","correct":true,"confidence":-1},{"trial_n":75,"span":8,"encoder":"07319693","distractor":"87319693","target":"present","response":"present","rt":"6439.2999999989","correct":true,"confidence":-1},{"trial_n":76,"span":9,"encoder":"610265432","distractor":"618265432","target":"absent","response":"absent","rt":"2790.5","correct":true,"confidence":-1},{"trial_n":77,"span":9,"encoder":"138266580","distractor":"138266588","target":"absent","response":"absent","rt":"1847.3999999985","correct":true,"confidence":-1},{"trial_n":78,"span":10,"encoder":"7625015242","distractor":"9625015242","target":"present","response":"present","rt":"4552.6999999993","correct":true,"confidence":-1},{"trial_n":79,"span":10,"encoder":"7385864636","distractor":"7385864616","target":"present","response":"absent","rt":"4877.4000000004","correct":false,"confidence":-1},{"trial_n":80,"span":9,"encoder":"212603114","distractor":"213603114","target":"absent","response":"present","rt":"4323.9000000004","correct":false,"confidence":-1},{"trial_n":81,"span":8,"encoder":"76314439","distractor":"76314499","target":"present","response":"present","rt":"1979.4000000004","correct":true,"confidence":-1},{"trial_n":82,"span":8,"encoder":"07389026","distractor":"07349026","target":"present","response":"present","rt":"2698.5999999996","correct":true,"confidence":-1},{"trial_n":83,"span":9,"encoder":"206422176","distractor":"206422376","target":"present","response":"present","rt":"1817.5999999996","correct":true,"confidence":-1},{"trial_n":84,"span":9,"encoder":"973119281","distractor":"973109281","target":"present","response":"present","rt":"2116","correct":true,"confidence":-1},{"trial_n":85,"span":10,"encoder":"4319863837","distractor":"4319863637","target":"absent","response":"absent","rt":"4260.8000000007","correct":true,"confidence":-1},{"trial_n":86,"span":10,"encoder":"6085189303","distractor":"6085189343","target":"absent","response":"absent","rt":"1342.2999999989","correct":true,"confidence":-1},{"trial_n":87,"span":11,"encoder":"69722584496","distractor":"69792584496","target":"absent","response":"absent","rt":"2672.5999999996","correct":true,"confidence":-1},{"trial_n":88,"span":11,"encoder":"99573491503","distractor":"99573491505","target":"present","response":"present","rt":"1721.4000000004","correct":true,"confidence":-1},{"trial_n":89,"span":12,"encoder":"748367013313","distractor":"748369013313","target":"absent","response":"absent","rt":"2684.8000000007","correct":true,"confidence":-1},{"trial_n":90,"span":12,"encoder":"837377572985","distractor":"737377572985","target":"present","response":"present","rt":"3359.4000000004","correct":true,"confidence":-1},{"trial_n":91,"span":13,"encoder":"2376408519501","distractor":"2376406519501","target":"absent","response":"absent","rt":"8592.5999999996","correct":true,"confidence":3},{"trial_n":92,"span":13,"encoder":"7546080053001","distractor":"7546080053031","target":"present","response":"absent","rt":"9780.4000000004","correct":false,"confidence":1},{"trial_n":93,"span":12,"encoder":"105357844733","distractor":"105337844733","target":"absent","response":"absent","rt":"4732.5","correct":true,"confidence":3},{"trial_n":94,"span":12,"encoder":"830065240728","distractor":"830065241728","target":"present","response":"absent","rt":"7337.2000000011","correct":false,"confidence":3},{"trial_n":95,"span":11,"encoder":"40625190478","distractor":"40629190478","target":"absent","response":"present","rt":"6762.8999999985","correct":false,"confidence":3},{"trial_n":96,"span":10,"encoder":"7362270487","distractor":"2362270487","target":"present","response":"present","rt":"4172.2999999989","correct":true,"confidence":3},{"trial_n":97,"span":10,"encoder":"9492297496","distractor":"9492297492","target":"present","response":"present","rt":"3608.8000000007","correct":true,"confidence":3},{"trial_n":98,"span":11,"encoder":"25101852899","distractor":"25161852899","target":"present","response":"absent","rt":"7550.6999999993","correct":false,"confidence":3},{"trial_n":99,"span":10,"encoder":"2146750916","distractor":"2146850916","target":"absent","response":"absent","rt":"12939.800000001","correct":true,"confidence":3},{"trial_n":100,"span":10,"encoder":"4046485638","distractor":"4046285638","target":"present","response":"present","rt":"4526.4000000004","correct":true,"confidence":5},{"trial_n":101,"span":11,"encoder":"17727552666","distractor":"17727559666","target":"present","response":"absent","rt":"21031.4","correct":false,"confidence":3},{"trial_n":102,"span":10,"encoder":"5562965930","distractor":"5562965936","target":"present","response":"present","rt":"4561.9000000004","correct":true,"confidence":3},{"trial_n":103,"span":10,"encoder":"9598856221","distractor":"4598856221","target":"absent","response":"absent","rt":"3328.3999999985","correct":true,"confidence":5},{"trial_n":104,"span":11,"encoder":"30342477380","distractor":"00342477380","target":"absent","response":"absent","rt":"9021.0999999996","correct":true,"confidence":3},{"trial_n":105,"span":11,"encoder":"63169686889","distractor":"63169686819","target":"absent","response":"absent","rt":"10375.799999999","correct":true,"confidence":3},{"trial_n":106,"span":12,"encoder":"167752987221","distractor":"167752987226","target":"present","response":"present","rt":"1850.7999999989","correct":true,"confidence":5},{"trial_n":107,"span":12,"encoder":"014619114162","distractor":"012619114162","target":"absent","response":"present","rt":"4724.4000000004","correct":false,"confidence":4},{"trial_n":108,"span":11,"encoder":"30860989333","distractor":"30860989343","target":"present","response":"present","rt":"4901.1999999993","correct":true,"confidence":5},{"trial_n":109,"span":11,"encoder":"35869070564","distractor":"35869079564","target":"present","response":"present","rt":"5809.9000000004","correct":true,"confidence":4},{"trial_n":110,"span":12,"encoder":"046883847771","distractor":"046883847701","target":"absent","response":"absent","rt":"2235.1999999993","correct":true,"confidence":5},{"trial_n":111,"span":12,"encoder":"068711134184","distractor":"068711134584","target":"present","response":"present","rt":"5823.5","correct":true,"confidence":3},{"trial_n":112,"span":13,"encoder":"0779284079026","distractor":"0779204079026","target":"present","response":"present","rt":"18304.899999999","correct":true,"confidence":2},{"trial_n":113,"span":13,"encoder":"7707780612274","distractor":"7709780612274","target":"present","response":"present","rt":"3302.4000000004","correct":true,"confidence":5},{"trial_n":114,"span":14,"encoder":"34324772348075","distractor":"34324779348075","target":"absent","response":"absent","rt":"6142.7999999989","correct":true,"confidence":3},{"trial_n":115,"span":14,"encoder":"86553072355007","distractor":"86553072315007","target":"present","response":"absent","rt":"10940.700000001","correct":false,"confidence":3},{"trial_n":116,"span":13,"encoder":"3699233988051","distractor":"3699230988051","target":"absent","response":"absent","rt":"9657.0999999996","correct":true,"confidence":3},{"trial_n":117,"span":13,"encoder":"9115833603478","distractor":"9115833303478","target":"present","response":"present","rt":"5737.1000000015","correct":true,"confidence":2},{"trial_n":118,"span":14,"encoder":"74121496721264","distractor":"71121496721264","target":"present","response":"present","rt":"3971.9000000004","correct":true,"confidence":3},{"trial_n":119,"span":14,"encoder":"56562616287652","distractor":"56562616217652","target":"absent","response":"absent","rt":"17594.800000001","correct":true,"confidence":3},{"trial_n":120,"span":15,"encoder":"274753098496997","distractor":"974753098496997","target":"present","response":"absent","rt":"4434.6999999993","correct":false,"confidence":3},{"trial_n":121,"span":14,"encoder":"67467105276309","distractor":"67467105276509","target":"present","response":"present","rt":"2007.6999999993","correct":true,"confidence":5},{"trial_n":122,"span":14,"encoder":"50191764528636","distractor":"50191764928636","target":"present","response":"absent","rt":"8528.8000000007","correct":false,"confidence":3},{"trial_n":123,"span":13,"encoder":"7071218924142","distractor":"7091218924142","target":"present","response":"absent","rt":"4442.4000000004","correct":false,"confidence":3},{"trial_n":124,"span":12,"encoder":"770458124837","distractor":"790458124837","target":"absent","response":"present","rt":"4430.3999999985","correct":false,"confidence":3},{"trial_n":125,"span":11,"encoder":"75505276626","distractor":"75405276626","target":"absent","response":"absent","rt":"4875.4000000004","correct":true,"confidence":3},{"trial_n":126,"span":11,"encoder":"80186265230","distractor":"80186265234","target":"absent","response":"absent","rt":"19564.399999999","correct":true,"confidence":5},{"trial_n":127,"span":12,"encoder":"442544232051","distractor":"442544232055","target":"absent","response":"absent","rt":"1969.4000000004","correct":true,"confidence":3},{"trial_n":128,"span":12,"encoder":"775848081686","distractor":"475848081686","target":"present","response":"present","rt":"4134.5999999996","correct":true,"confidence":4},{"trial_n":129,"span":13,"encoder":"3023553849222","distractor":"3023553809222","target":"absent","response":"absent","rt":"8394.5999999996","correct":true,"confidence":3},{"trial_n":130,"span":13,"encoder":"4378761509027","distractor":"4368761509027","target":"absent","response":"present","rt":"4818.6999999993","correct":false,"confidence":3},{"trial_n":131,"span":12,"encoder":"587886918395","distractor":"287886918395","target":"present","response":"present","rt":"3061.8000000007","correct":true,"confidence":3},{"trial_n":132,"span":12,"encoder":"294397540007","distractor":"294392540007","target":"present","response":"present","rt":"112","correct":true,"confidence":3},{"trial_n":133,"span":13,"encoder":"3453347389549","distractor":"3453347389449","target":"absent","response":"present","rt":"405.19999999925","correct":false,"confidence":3},{"trial_n":134,"span":12,"encoder":"356601119689","distractor":"359601119689","target":"present","response":"absent","rt":"7052.5","correct":false,"confidence":3},{"trial_n":135,"span":11,"encoder":"05585209322","distractor":"05585209372","target":"absent","response":"absent","rt":"3099.8000000007","correct":true,"confidence":3},{"trial_n":136,"span":11,"encoder":"27861393339","distractor":"22861393339","target":"absent","response":"absent","rt":"6157","correct":true,"confidence":5},{"trial_n":137,"span":12,"encoder":"934378249697","distractor":"934378209697","target":"absent","response":"absent","rt":"6273.4000000004","correct":true,"confidence":3},{"trial_n":138,"span":12,"encoder":"634889265428","distractor":"634889269428","target":"absent","response":"present","rt":"4510.0999999996","correct":false,"confidence":3},{"trial_n":139,"span":11,"encoder":"95516283872","distractor":"95516283875","target":"absent","response":"absent","rt":"71.5","correct":true,"confidence":3},{"trial_n":140,"span":11,"encoder":"56432949059","distractor":"56432949029","target":"absent","response":"absent","rt":"97641.600000001","correct":true,"confidence":3}]