[{"trial_n":1,"n_dots":4.25,"target":"right","response":"left","rt":4688.400000006,"correct":false,"confidence":-1},{"trial_n":2,"n_dots":4.25,"target":"left","response":"right","rt":2818.599999994,"correct":false,"confidence":-1},{"trial_n":3,"n_dots":4.65,"target":"right","response":"right","rt":83.899999976158,"correct":true,"confidence":-1},{"trial_n":4,"n_dots":4.65,"target":"left","response":"left","rt":1074.5,"correct":true,"confidence":-1},{"trial_n":5,"n_dots":4.25,"target":"right","response":"right","rt":153.69999998808,"correct":true,"confidence":-1},{"trial_n":6,"n_dots":4.25,"target":"right","response":"right","rt":528.09999999404,"correct":true,"confidence":-1},{"trial_n":7,"n_dots":3.85,"target":"left","response":"left","rt":617.30000001192,"correct":true,"confidence":-1},{"trial_n":8,"n_dots":3.85,"target":"right","response":"right","rt":302.09999999404,"correct":true,"confidence":-1},{"trial_n":9,"n_dots":3.65,"target":"right","response":"right","rt":437.5,"correct":true,"confidence":-1},{"trial_n":10,"n_dots":3.65,"target":"right","response":"right","rt":391.09999999404,"correct":true,"confidence":-1},{"trial_n":11,"n_dots":3.45,"target":"right","response":"right","rt":15.40000000596,"correct":true,"confidence":-1},{"trial_n":12,"n_dots":3.45,"target":"right","response":"right","rt":217.70000001788,"correct":true,"confidence":-1},{"trial_n":13,"n_dots":3.35,"target":"right","response":"right","rt":350.59999999404,"correct":true,"confidence":-1},{"trial_n":14,"n_dots":3.35,"target":"right","response":"right","rt":298.09999999404,"correct":true,"confidence":-1},{"trial_n":15,"n_dots":3.25,"target":"right","response":"right","rt":337.10000002384,"correct":true,"confidence":-1},{"trial_n":16,"n_dots":3.25,"target":"left","response":"right","rt":519,"correct":false,"confidence":-1},{"trial_n":17,"n_dots":3.35,"target":"left","response":"left","rt":701,"correct":true,"confidence":-1},{"trial_n":18,"n_dots":3.35,"target":"left","response":"left","rt":310.19999998808,"correct":true,"confidence":-1},{"trial_n":19,"n_dots":3.25,"target":"left","response":"right","rt":47.799999982119,"correct":false,"confidence":-1},{"trial_n":20,"n_dots":3.35,"target":"left","response":"left","rt":455,"correct":true,"confidence":-1},{"trial_n":21,"n_dots":3.35,"target":"left","response":"right","rt":388.90000000596,"correct":false,"confidence":3},{"trial_n":22,"n_dots":3.45,"target":"right","response":"right","rt":368.79999998212,"correct":true,"confidence":4},{"trial_n":23,"n_dots":3.45,"target":"left","response":"right","rt":1112.900000006,"correct":false,"confidence":4},{"trial_n":24,"n_dots":3.55,"target":"right","response":"right","rt":151.80000001192,"correct":true,"confidence":5},{"trial_n":25,"n_dots":3.55,"target":"left","response":"right","rt":1104.5,"correct":false,"confidence":4},{"trial_n":26,"n_dots":3.65,"target":"right","response":"right","rt":411.09999999404,"correct":true,"confidence":4},{"trial_n":27,"n_dots":3.65,"target":"right","response":"right","rt":407.69999998808,"correct":true,"confidence":5},{"trial_n":28,"n_dots":3.55,"target":"left","response":"right","rt":1336,"correct":false,"confidence":4},{"trial_n":29,"n_dots":3.65,"target":"right","response":"right","rt":681.09999999404,"correct":true,"confidence":5},{"trial_n":30,"n_dots":3.65,"target":"right","response":"right","rt":612.5,"correct":true,"confidence":5},{"trial_n":31,"n_dots":3.55,"target":"right","response":"right","rt":873.70000001788,"correct":true,"confidence":4},{"trial_n":32,"n_dots":3.55,"target":"left","response":"left","rt":690.40000000596,"correct":true,"confidence":4},{"trial_n":33,"n_dots":3.45,"target":"right","response":"right","rt":316.30000001192,"correct":true,"confidence":4},{"trial_n":34,"n_dots":3.45,"target":"left","response":"left","rt":325.10000002384,"correct":true,"confidence":4},{"trial_n":35,"n_dots":3.35,"target":"left","response":"left","rt":408.60000002384,"correct":true,"confidence":4},{"trial_n":36,"n_dots":3.35,"target":"right","response":"right","rt":486,"correct":true,"confidence":5},{"trial_n":37,"n_dots":3.25,"target":"left","response":"right","rt":380.90000000596,"correct":false,"confidence":5},{"trial_n":38,"n_dots":3.35,"target":"right","response":"right","rt":267.09999999404,"correct":true,"confidence":5},{"trial_n":39,"n_dots":3.35,"target":"right","response":"right","rt":292.79999998212,"correct":true,"confidence":5},{"trial_n":40,"n_dots":3.25,"target":"left","response":"left","rt":452.19999998808,"correct":true,"confidence":4},{"trial_n":41,"n_dots":3.25,"target":"right","response":"right","rt":440.10000002384,"correct":true,"confidence":4},{"trial_n":42,"n_dots":3.15,"target":"left","response":"left","rt":476.5,"correct":true,"confidence":2},{"trial_n":43,"n_dots":3.15,"target":"right","response":"right","rt":833.80000001192,"correct":true,"confidence":2},{"trial_n":44,"n_dots":3.05,"target":"left","response":"left","rt":241.80000001192,"correct":true,"confidence":4},{"trial_n":45,"n_dots":3.05,"target":"left","response":"left","rt":1224.5,"correct":true,"confidence":3},{"trial_n":46,"n_dots":2.95,"target":"right","response":"right","rt":403.80000001192,"correct":true,"confidence":3},{"trial_n":47,"n_dots":2.95,"target":"left","response":"left","rt":1745.7999999821,"correct":true,"confidence":2},{"trial_n":48,"n_dots":2.85,"target":"left","response":"left","rt":3788.1000000238,"correct":true,"confidence":1},{"trial_n":49,"n_dots":2.85,"target":"left","response":"left","rt":525.30000001192,"correct":true,"confidence":2},{"trial_n":50,"n_dots":2.75,"target":"left","response":"right","rt":1655.400000006,"correct":false,"confidence":2},{"trial_n":51,"n_dots":2.85,"target":"right","response":"right","rt":3188.900000006,"correct":true,"confidence":1},{"trial_n":52,"n_dots":2.85,"target":"right","response":"right","rt":1387.1999999881,"correct":true,"confidence":2},{"trial_n":53,"n_dots":2.75,"target":"right","response":"right","rt":1816.8000000119,"correct":true,"confidence":2},{"trial_n":54,"n_dots":2.75,"target":"left","response":"left","rt":630.40000000596,"correct":true,"confidence":2},{"trial_n":55,"n_dots":2.65,"target":"left","response":"right","rt":834.80000001192,"correct":false,"confidence":2},{"trial_n":56,"n_dots":2.75,"target":"left","response":"left","rt":316.39999997616,"correct":true,"confidence":5},{"trial_n":57,"n_dots":2.75,"target":"right","response":"right","rt":432.39999997616,"correct":true,"confidence":4},{"trial_n":58,"n_dots":2.65,"target":"left","response":"left","rt":2207.8000000119,"correct":true,"confidence":2},{"trial_n":59,"n_dots":2.65,"target":"right","response":"left","rt":780.40000000596,"correct":false,"confidence":4},{"trial_n":60,"n_dots":2.75,"target":"left","response":"left","rt":1196.3000000119,"correct":true,"confidence":3},{"trial_n":61,"n_dots":2.75,"target":"left","response":"left","rt":632.40000000596,"correct":true,"confidence":4},{"trial_n":62,"n_dots":2.65,"target":"left","response":"left","rt":1261.099999994,"correct":true,"confidence":4},{"trial_n":63,"n_dots":2.65,"target":"left","response":"left","rt":388.90000000596,"correct":true,"confidence":4},{"trial_n":64,"n_dots":2.55,"target":"right","response":"right","rt":587.09999999404,"correct":true,"confidence":4},{"trial_n":65,"n_dots":2.55,"target":"right","response":"left","rt":3312.400000006,"correct":false,"confidence":2},{"trial_n":66,"n_dots":2.65,"target":"left","response":"left","rt":738.90000000596,"correct":true,"confidence":4},{"trial_n":67,"n_dots":2.65,"target":"right","response":"right","rt":1670.6999999881,"correct":true,"confidence":3},{"trial_n":68,"n_dots":2.55,"target":"right","response":"right","rt":597.5,"correct":true,"confidence":3},{"trial_n":69,"n_dots":2.55,"target":"right","response":"right","rt":1225.6000000238,"correct":true,"confidence":3},{"trial_n":70,"n_dots":2.45,"target":"right","response":"right","rt":1274,"correct":true,"confidence":4},{"trial_n":71,"n_dots":2.45,"target":"left","response":"right","rt":867.5,"correct":false,"confidence":4},{"trial_n":72,"n_dots":2.55,"target":"right","response":"right","rt":660.19999998808,"correct":true,"confidence":4},{"trial_n":73,"n_dots":2.55,"target":"left","response":"left","rt":2992.099999994,"correct":true,"confidence":1},{"trial_n":74,"n_dots":2.45,"target":"left","response":"left","rt":931,"correct":true,"confidence":3},{"trial_n":75,"n_dots":2.45,"target":"left","response":"right","rt":521.40000000596,"correct":false,"confidence":3},{"trial_n":76,"n_dots":2.55,"target":"right","response":"right","rt":711.30000001192,"correct":true,"confidence":3},{"trial_n":77,"n_dots":2.55,"target":"left","response":"left","rt":590.19999998808,"correct":true,"confidence":3},{"trial_n":78,"n_dots":2.45,"target":"right","response":"right","rt":2057.8999999762,"correct":true,"confidence":2},{"trial_n":79,"n_dots":2.45,"target":"left","response":"right","rt":2511.5,"correct":false,"confidence":1},{"trial_n":80,"n_dots":2.55,"target":"right","response":"right","rt":630.19999998808,"correct":true,"confidence":3},{"trial_n":81,"n_dots":2.55,"target":"left","response":"right","rt":4343.6999999881,"correct":false,"confidence":1},{"trial_n":82,"n_dots":2.65,"target":"right","response":"right","rt":367.40000000596,"correct":true,"confidence":3},{"trial_n":83,"n_dots":2.65,"target":"right","response":"right","rt":627.09999999404,"correct":true,"confidence":4},{"trial_n":84,"n_dots":2.55,"target":"right","response":"left","rt":867.69999998808,"correct":false,"confidence":4},{"trial_n":85,"n_dots":2.65,"target":"left","response":"left","rt":1426.6000000238,"correct":true,"confidence":2},{"trial_n":86,"n_dots":2.65,"target":"left","response":"left","rt":653.5,"correct":true,"confidence":4},{"trial_n":87,"n_dots":2.55,"target":"right","response":"right","rt":3771.5,"correct":true,"confidence":2},{"trial_n":88,"n_dots":2.55,"target":"left","response":"left","rt":575.30000001192,"correct":true,"confidence":2},{"trial_n":89,"n_dots":2.45,"target":"left","response":"left","rt":414.30000001192,"correct":true,"confidence":4},{"trial_n":90,"n_dots":2.45,"target":"left","response":"left","rt":841.10000002384,"correct":true,"confidence":2},{"trial_n":91,"n_dots":2.35,"target":"right","response":"right","rt":4224,"correct":true,"confidence":1},{"trial_n":92,"n_dots":2.35,"target":"right","response":"right","rt":558.59999999404,"correct":true,"confidence":2},{"trial_n":93,"n_dots":2.25,"target":"right","response":"left","rt":299.40000000596,"correct":false,"confidence":4},{"trial_n":94,"n_dots":2.35,"target":"left","response":"left","rt":668.59999999404,"correct":true,"confidence":4},{"trial_n":95,"n_dots":2.35,"target":"right","response":"left","rt":488.5,"correct":false,"confidence":4},{"trial_n":96,"n_dots":2.45,"target":"left","response":"left","rt":1029.099999994,"correct":true,"confidence":3},{"trial_n":97,"n_dots":2.45,"target":"left","response":"left","rt":344.70000001788,"correct":true,"confidence":4},{"trial_n":98,"n_dots":2.35,"target":"left","response":"left","rt":602.59999999404,"correct":true,"confidence":3},{"trial_n":99,"n_dots":2.35,"target":"left","response":"right","rt":1666.400000006,"correct":false,"confidence":1},{"trial_n":100,"n_dots":2.45,"target":"right","response":"right","rt":2900.2999999821,"correct":true,"confidence":2},{"trial_n":101,"n_dots":2.45,"target":"left","response":"left","rt":572.20000001788,"correct":true,"confidence":4},{"trial_n":102,"n_dots":2.35,"target":"left","response":"right","rt":559.69999998808,"correct":false,"confidence":3},{"trial_n":103,"n_dots":2.45,"target":"right","response":"left","rt":1243.900000006,"correct":false,"confidence":2},{"trial_n":104,"n_dots":2.55,"target":"right","response":"right","rt":655.5,"correct":true,"confidence":3},{"trial_n":105,"n_dots":2.55,"target":"right","response":"right","rt":1609.900000006,"correct":true,"confidence":3},{"trial_n":106,"n_dots":2.45,"target":"left","response":"left","rt":495.79999998212,"correct":true,"confidence":4},{"trial_n":107,"n_dots":2.45,"target":"left","response":"right","rt":800.10000002384,"correct":false,"confidence":2},{"trial_n":108,"n_dots":2.55,"target":"right","response":"right","rt":65.700000017881,"correct":true,"confidence":4},{"trial_n":109,"n_dots":2.55,"target":"left","response":"right","rt":402.70000001788,"correct":false,"confidence":3},{"trial_n":110,"n_dots":2.65,"target":"right","response":"left","rt":741.19999998808,"correct":false,"confidence":2},{"trial_n":111,"n_dots":2.75,"target":"right","response":"right","rt":423.80000001192,"correct":true,"confidence":3},{"trial_n":112,"n_dots":2.75,"target":"left","response":"right","rt":296.19999998808,"correct":false,"confidence":3},{"trial_n":113,"n_dots":2.85,"target":"right","response":"right","rt":730.90000000596,"correct":true,"confidence":3},{"trial_n":114,"n_dots":2.85,"target":"left","response":"left","rt":1249.400000006,"correct":true,"confidence":2},{"trial_n":115,"n_dots":2.75,"target":"left","response":"right","rt":720.90000000596,"correct":false,"confidence":2},{"trial_n":116,"n_dots":2.85,"target":"left","response":"left","rt":3140.099999994,"correct":true,"confidence":1},{"trial_n":117,"n_dots":2.85,"target":"right","response":"right","rt":420.69999998808,"correct":true,"confidence":2},{"trial_n":118,"n_dots":2.75,"target":"right","response":"right","rt":647.10000002384,"correct":true,"confidence":4},{"trial_n":119,"n_dots":2.75,"target":"left","response":"left","rt":662.09999999404,"correct":true,"confidence":2},{"trial_n":120,"n_dots":2.65,"target":"right","response":"right","rt":762.70000001788,"correct":true,"confidence":3}]