[{"trial_n":1,"min":25,"max":230,"target":"present","response":"absent","rt":12805,"correct":false,"confidence":-1},{"trial_n":2,"min":25,"max":230,"target":"present","response":"present","rt":2476,"correct":true,"confidence":-1},{"trial_n":3,"min":25,"max":230,"target":"absent","response":"present","rt":802,"correct":false,"confidence":-1},{"trial_n":4,"min":9,"max":246,"target":"absent","response":"absent","rt":2056,"correct":true,"confidence":-1},{"trial_n":5,"min":9,"max":246,"target":"present","response":"present","rt":2659,"correct":true,"confidence":-1},{"trial_n":6,"min":25,"max":230,"target":"present","response":"present","rt":630,"correct":true,"confidence":-1},{"trial_n":7,"min":25,"max":230,"target":"present","response":"present","rt":996,"correct":true,"confidence":-1},{"trial_n":8,"min":41,"max":214,"target":"present","response":"present","rt":968,"correct":true,"confidence":-1},{"trial_n":9,"min":41,"max":214,"target":"absent","response":"absent","rt":666,"correct":true,"confidence":-1},{"trial_n":10,"min":57,"max":198,"target":"absent","response":"absent","rt":473,"correct":true,"confidence":-1},{"trial_n":11,"min":57,"max":198,"target":"present","response":"absent","rt":987,"correct":false,"confidence":-1},{"trial_n":12,"min":49,"max":206,"target":"absent","response":"absent","rt":570,"correct":true,"confidence":-1},{"trial_n":13,"min":49,"max":206,"target":"absent","response":"absent","rt":443,"correct":true,"confidence":-1},{"trial_n":14,"min":57,"max":198,"target":"absent","response":"absent","rt":491.99999999999,"correct":true,"confidence":-1},{"trial_n":15,"min":57,"max":198,"target":"absent","response":"absent","rt":444,"correct":true,"confidence":-1},{"trial_n":16,"min":65,"max":190,"target":"present","response":"present","rt":1198,"correct":true,"confidence":-1},{"trial_n":17,"min":65,"max":190,"target":"present","response":"present","rt":1065,"correct":true,"confidence":-1},{"trial_n":18,"min":73,"max":182,"target":"absent","response":"absent","rt":517,"correct":true,"confidence":-1},{"trial_n":19,"min":73,"max":182,"target":"present","response":"present","rt":832,"correct":true,"confidence":-1},{"trial_n":20,"min":81,"max":174,"target":"absent","response":"absent","rt":440,"correct":true,"confidence":-1},{"trial_n":21,"min":81,"max":174,"target":"absent","response":"present","rt":851,"correct":false,"confidence":3},{"trial_n":22,"min":77,"max":178,"target":"present","response":"present","rt":870.00000000001,"correct":true,"confidence":3},{"trial_n":23,"min":77,"max":178,"target":"absent","response":"absent","rt":753,"correct":true,"confidence":4},{"trial_n":24,"min":81,"max":174,"target":"present","response":"present","rt":746,"correct":true,"confidence":2},{"trial_n":25,"min":81,"max":174,"target":"present","response":"present","rt":1111,"correct":true,"confidence":3},{"trial_n":26,"min":85,"max":170,"target":"present","response":"present","rt":743,"correct":true,"confidence":5},{"trial_n":27,"min":85,"max":170,"target":"present","response":"present","rt":1694,"correct":true,"confidence":3},{"trial_n":28,"min":89,"max":166,"target":"present","response":"present","rt":816,"correct":true,"confidence":3},{"trial_n":29,"min":89,"max":166,"target":"present","response":"present","rt":804,"correct":true,"confidence":4},{"trial_n":30,"min":93,"max":162,"target":"absent","response":"absent","rt":650,"correct":true,"confidence":3},{"trial_n":31,"min":93,"max":162,"target":"absent","response":"present","rt":812,"correct":false,"confidence":2},{"trial_n":32,"min":91,"max":164,"target":"absent","response":"absent","rt":903,"correct":true,"confidence":3},{"trial_n":33,"min":91,"max":164,"target":"absent","response":"present","rt":702,"correct":false,"confidence":2},{"trial_n":34,"min":89,"max":166,"target":"present","response":"absent","rt":1525,"correct":false,"confidence":3},{"trial_n":35,"min":87,"max":168,"target":"present","response":"present","rt":575.99999999997,"correct":true,"confidence":3},{"trial_n":36,"min":87,"max":168,"target":"present","response":"present","rt":649,"correct":true,"confidence":3},{"trial_n":37,"min":89,"max":166,"target":"present","response":"absent","rt":1029,"correct":false,"confidence":4},{"trial_n":38,"min":87,"max":168,"target":"absent","response":"present","rt":512,"correct":false,"confidence":3},{"trial_n":39,"min":85,"max":170,"target":"present","response":"absent","rt":791,"correct":false,"confidence":4},{"trial_n":40,"min":83,"max":172,"target":"absent","response":"present","rt":685.00000000003,"correct":false,"confidence":3},{"trial_n":41,"min":82,"max":173,"target":"absent","response":"present","rt":578,"correct":false,"confidence":3},{"trial_n":42,"min":81,"max":174,"target":"present","response":"present","rt":637.99999999997,"correct":true,"confidence":3},{"trial_n":43,"min":81,"max":174,"target":"absent","response":"absent","rt":648,"correct":true,"confidence":4},{"trial_n":44,"min":82,"max":173,"target":"absent","response":"present","rt":598,"correct":false,"confidence":2},{"trial_n":45,"min":81,"max":174,"target":"absent","response":"absent","rt":776,"correct":true,"confidence":2},{"trial_n":46,"min":81,"max":174,"target":"absent","response":"absent","rt":931,"correct":true,"confidence":3},{"trial_n":47,"min":82,"max":173,"target":"absent","response":"present","rt":602.00000000003,"correct":false,"confidence":2},{"trial_n":48,"min":81,"max":174,"target":"absent","response":"present","rt":630,"correct":false,"confidence":3},{"trial_n":49,"min":80,"max":175,"target":"absent","response":"present","rt":700,"correct":false,"confidence":2},{"trial_n":50,"min":79,"max":176,"target":"present","response":"present","rt":638,"correct":true,"confidence":2},{"trial_n":51,"min":79,"max":176,"target":"present","response":"present","rt":984,"correct":true,"confidence":4},{"trial_n":52,"min":80,"max":175,"target":"absent","response":"present","rt":840,"correct":false,"confidence":3},{"trial_n":53,"min":79,"max":176,"target":"present","response":"present","rt":929,"correct":true,"confidence":3},{"trial_n":54,"min":79,"max":176,"target":"absent","response":"present","rt":568,"correct":false,"confidence":3},{"trial_n":55,"min":78,"max":177,"target":"present","response":"present","rt":1096,"correct":true,"confidence":4},{"trial_n":56,"min":78,"max":177,"target":"present","response":"present","rt":6273,"correct":true,"confidence":2},{"trial_n":57,"min":79,"max":176,"target":"absent","response":"present","rt":1064,"correct":false,"confidence":3},{"trial_n":58,"min":78,"max":177,"target":"present","response":"present","rt":553.99999999994,"correct":true,"confidence":4},{"trial_n":59,"min":78,"max":177,"target":"absent","response":"present","rt":1072.9999999999,"correct":false,"confidence":2},{"trial_n":60,"min":77,"max":178,"target":"present","response":"present","rt":9219,"correct":true,"confidence":4},{"trial_n":61,"min":77,"max":178,"target":"absent","response":"present","rt":1570,"correct":false,"confidence":3},{"trial_n":62,"min":76,"max":179,"target":"absent","response":"absent","rt":3700,"correct":true,"confidence":4},{"trial_n":63,"min":76,"max":179,"target":"present","response":"present","rt":574,"correct":true,"confidence":3},{"trial_n":64,"min":77,"max":178,"target":"absent","response":"present","rt":719,"correct":false,"confidence":3},{"trial_n":65,"min":76,"max":179,"target":"present","response":"present","rt":789,"correct":true,"confidence":4},{"trial_n":66,"min":76,"max":179,"target":"present","response":"absent","rt":861,"correct":false,"confidence":3},{"trial_n":67,"min":75,"max":180,"target":"present","response":"present","rt":1197,"correct":true,"confidence":5},{"trial_n":68,"min":75,"max":180,"target":"present","response":"present","rt":633,"correct":true,"confidence":3},{"trial_n":69,"min":76,"max":179,"target":"absent","response":"present","rt":844.00000000006,"correct":false,"confidence":4},{"trial_n":70,"min":75,"max":180,"target":"present","response":"present","rt":825,"correct":true,"confidence":3},{"trial_n":71,"min":41,"max":214,"target":"present","response":"absent","rt":26343,"correct":false,"confidence":-1},{"trial_n":72,"min":41,"max":214,"target":"present","response":"present","rt":150616,"correct":true,"confidence":-1},{"trial_n":73,"min":41,"max":214,"target":"absent","response":"absent","rt":859.00000000012,"correct":true,"confidence":-1},{"trial_n":74,"min":57,"max":198,"target":"absent","response":"present","rt":843,"correct":false,"confidence":-1},{"trial_n":75,"min":41,"max":214,"target":"present","response":"present","rt":431.00000000012,"correct":true,"confidence":-1},{"trial_n":76,"min":41,"max":214,"target":"absent","response":"absent","rt":401,"correct":true,"confidence":-1},{"trial_n":77,"min":57,"max":198,"target":"present","response":"absent","rt":412,"correct":false,"confidence":-1},{"trial_n":78,"min":41,"max":214,"target":"absent","response":"present","rt":1113.0000000001,"correct":false,"confidence":-1},{"trial_n":79,"min":25,"max":230,"target":"present","response":"present","rt":3192,"correct":true,"confidence":-1},{"trial_n":80,"min":25,"max":230,"target":"present","response":"present","rt":1154,"correct":true,"confidence":-1},{"trial_n":81,"min":33,"max":222,"target":"absent","response":"absent","rt":819,"correct":true,"confidence":-1},{"trial_n":82,"min":33,"max":222,"target":"absent","response":"absent","rt":524,"correct":true,"confidence":-1},{"trial_n":83,"min":41,"max":214,"target":"absent","response":"absent","rt":1254.0000000001,"correct":true,"confidence":-1},{"trial_n":84,"min":41,"max":214,"target":"absent","response":"absent","rt":385.00000000012,"correct":true,"confidence":-1},{"trial_n":85,"min":49,"max":206,"target":"absent","response":"absent","rt":803,"correct":true,"confidence":-1},{"trial_n":86,"min":49,"max":206,"target":"present","response":"absent","rt":1145,"correct":false,"confidence":-1},{"trial_n":87,"min":41,"max":214,"target":"absent","response":"absent","rt":518,"correct":true,"confidence":-1},{"trial_n":88,"min":41,"max":214,"target":"absent","response":"absent","rt":394,"correct":true,"confidence":-1},{"trial_n":89,"min":49,"max":206,"target":"present","response":"present","rt":744,"correct":true,"confidence":-1},{"trial_n":90,"min":49,"max":206,"target":"present","response":"present","rt":391,"correct":true,"confidence":-1},{"trial_n":91,"min":53,"max":202,"target":"present","response":"present","rt":616.99999999988,"correct":true,"confidence":5},{"trial_n":92,"min":53,"max":202,"target":"present","response":"present","rt":591.99999999988,"correct":true,"confidence":5},{"trial_n":93,"min":57,"max":198,"target":"present","response":"present","rt":1156.0000000001,"correct":true,"confidence":5},{"trial_n":94,"min":57,"max":198,"target":"present","response":"present","rt":655.99999999988,"correct":true,"confidence":5},{"trial_n":95,"min":61,"max":194,"target":"absent","response":"absent","rt":682,"correct":true,"confidence":5},{"trial_n":96,"min":61,"max":194,"target":"absent","response":"absent","rt":592,"correct":true,"confidence":4},{"trial_n":97,"min":65,"max":190,"target":"present","response":"present","rt":669,"correct":true,"confidence":4},{"trial_n":98,"min":65,"max":190,"target":"absent","response":"absent","rt":665,"correct":true,"confidence":5},{"trial_n":99,"min":69,"max":186,"target":"absent","response":"absent","rt":668.99999999977,"correct":true,"confidence":5},{"trial_n":100,"min":69,"max":186,"target":"absent","response":"absent","rt":520,"correct":true,"confidence":5},{"trial_n":101,"min":71,"max":184,"target":"present","response":"present","rt":488,"correct":true,"confidence":5},{"trial_n":102,"min":71,"max":184,"target":"present","response":"present","rt":484,"correct":true,"confidence":5},{"trial_n":103,"min":73,"max":182,"target":"absent","response":"absent","rt":559,"correct":true,"confidence":5},{"trial_n":104,"min":73,"max":182,"target":"present","response":"present","rt":1324,"correct":true,"confidence":5},{"trial_n":105,"min":75,"max":180,"target":"present","response":"present","rt":710,"correct":true,"confidence":5},{"trial_n":106,"min":75,"max":180,"target":"present","response":"absent","rt":847,"correct":false,"confidence":5},{"trial_n":107,"min":73,"max":182,"target":"present","response":"absent","rt":796,"correct":false,"confidence":3},{"trial_n":108,"min":71,"max":184,"target":"absent","response":"absent","rt":1038,"correct":true,"confidence":4},{"trial_n":109,"min":71,"max":184,"target":"absent","response":"absent","rt":593,"correct":true,"confidence":4},{"trial_n":110,"min":73,"max":182,"target":"absent","response":"present","rt":1072,"correct":false,"confidence":4},{"trial_n":111,"min":72,"max":183,"target":"absent","response":"absent","rt":782.00000000023,"correct":true,"confidence":4},{"trial_n":112,"min":72,"max":183,"target":"present","response":"absent","rt":489,"correct":false,"confidence":3},{"trial_n":113,"min":71,"max":184,"target":"present","response":"present","rt":809,"correct":true,"confidence":5},{"trial_n":114,"min":71,"max":184,"target":"present","response":"absent","rt":608,"correct":false,"confidence":3},{"trial_n":115,"min":70,"max":185,"target":"absent","response":"absent","rt":734,"correct":true,"confidence":3},{"trial_n":116,"min":70,"max":185,"target":"present","response":"present","rt":1024,"correct":true,"confidence":4},{"trial_n":117,"min":71,"max":184,"target":"absent","response":"absent","rt":580,"correct":true,"confidence":4},{"trial_n":118,"min":71,"max":184,"target":"present","response":"present","rt":452,"correct":true,"confidence":5},{"trial_n":119,"min":72,"max":183,"target":"present","response":"present","rt":894.00000000023,"correct":true,"confidence":4},{"trial_n":120,"min":72,"max":183,"target":"absent","response":"absent","rt":693.99999999977,"correct":true,"confidence":3},{"trial_n":121,"min":73,"max":182,"target":"absent","response":"absent","rt":563.99999999977,"correct":true,"confidence":4},{"trial_n":122,"min":73,"max":182,"target":"present","response":"absent","rt":937,"correct":false,"confidence":4},{"trial_n":123,"min":72,"max":183,"target":"absent","response":"absent","rt":529,"correct":true,"confidence":3},{"trial_n":124,"min":72,"max":183,"target":"present","response":"absent","rt":913,"correct":false,"confidence":3},{"trial_n":125,"min":71,"max":184,"target":"absent","response":"absent","rt":877,"correct":true,"confidence":3},{"trial_n":126,"min":71,"max":184,"target":"present","response":"present","rt":661.99999999977,"correct":true,"confidence":4},{"trial_n":127,"min":72,"max":183,"target":"absent","response":"absent","rt":715.00000000023,"correct":true,"confidence":4},{"trial_n":128,"min":72,"max":183,"target":"present","response":"present","rt":531,"correct":true,"confidence":4},{"trial_n":129,"min":73,"max":182,"target":"absent","response":"absent","rt":776,"correct":true,"confidence":4},{"trial_n":130,"min":73,"max":182,"target":"present","response":"absent","rt":648,"correct":false,"confidence":2},{"trial_n":131,"min":72,"max":183,"target":"absent","response":"absent","rt":780.99999999977,"correct":true,"confidence":3},{"trial_n":132,"min":72,"max":183,"target":"present","response":"absent","rt":950,"correct":false,"confidence":3},{"trial_n":133,"min":71,"max":184,"target":"present","response":"absent","rt":822,"correct":false,"confidence":3},{"trial_n":134,"min":70,"max":185,"target":"absent","response":"absent","rt":488,"correct":true,"confidence":3},{"trial_n":135,"min":70,"max":185,"target":"absent","response":"absent","rt":1059.0000000002,"correct":true,"confidence":4},{"trial_n":136,"min":71,"max":184,"target":"present","response":"present","rt":485,"correct":true,"confidence":4},{"trial_n":137,"min":71,"max":184,"target":"absent","response":"absent","rt":1081,"correct":true,"confidence":5},{"trial_n":138,"min":72,"max":183,"target":"present","response":"present","rt":597.99999999977,"correct":true,"confidence":4},{"trial_n":139,"min":72,"max":183,"target":"present","response":"present","rt":553,"correct":true,"confidence":4},{"trial_n":140,"min":73,"max":182,"target":"absent","response":"absent","rt":700,"correct":true,"confidence":3}]