[{"trial_n":1,"span":8,"encoder":"70500136","distractor":"70500176","target":"present","response":"present","rt":"4892.0999999046","correct":true,"confidence":-1},{"trial_n":2,"span":8,"encoder":"16614391","distractor":"16614398","target":"present","response":"present","rt":"2617.7999999523","correct":true,"confidence":-1},{"trial_n":3,"span":10,"encoder":"3873894193","distractor":"3873594193","target":"absent","response":"present","rt":"1573.2999999523","correct":false,"confidence":-1},{"trial_n":4,"span":8,"encoder":"55031520","distractor":"55031510","target":"absent","response":"absent","rt":"2857.5","correct":true,"confidence":-1},{"trial_n":5,"span":8,"encoder":"60532347","distractor":"60532346","target":"present","response":"present","rt":"3303.5","correct":true,"confidence":-1},{"trial_n":6,"span":10,"encoder":"3236999012","distractor":"3236999010","target":"present","response":"present","rt":"1936.1000001431","correct":true,"confidence":-1},{"trial_n":7,"span":10,"encoder":"6864883116","distractor":"6764883116","target":"absent","response":"absent","rt":"2288.5999999046","correct":true,"confidence":-1},{"trial_n":8,"span":12,"encoder":"552752674631","distractor":"522752674631","target":"absent","response":"present","rt":"1638.1000001431","correct":false,"confidence":-1},{"trial_n":9,"span":10,"encoder":"7270680797","distractor":"7270680787","target":"absent","response":"absent","rt":"1934.3000001907","correct":true,"confidence":-1},{"trial_n":10,"span":10,"encoder":"8108309695","distractor":"8108339695","target":"absent","response":"absent","rt":"2857.4000000954","correct":true,"confidence":-1},{"trial_n":11,"span":12,"encoder":"413299475337","distractor":"413299475637","target":"absent","response":"absent","rt":"2187.0999999046","correct":true,"confidence":-1},{"trial_n":12,"span":12,"encoder":"923569136652","distractor":"923569136654","target":"absent","response":"absent","rt":"2792.4000000954","correct":true,"confidence":-1},{"trial_n":13,"span":13,"encoder":"8082061759916","distractor":"8082065759916","target":"present","response":"absent","rt":"2594.3000001907","correct":false,"confidence":-1},{"trial_n":14,"span":12,"encoder":"585647367053","distractor":"585047367053","target":"absent","response":"present","rt":"3232.1000001431","correct":false,"confidence":-1},{"trial_n":15,"span":11,"encoder":"38395534557","distractor":"38395534157","target":"present","response":"absent","rt":"2435","correct":false,"confidence":-1},{"trial_n":16,"span":10,"encoder":"3738984869","distractor":"3738904869","target":"present","response":"present","rt":"1696.2000000477","correct":true,"confidence":-1},{"trial_n":17,"span":10,"encoder":"6507897815","distractor":"6907897815","target":"present","response":"present","rt":"1175.6000001431","correct":true,"confidence":-1},{"trial_n":18,"span":11,"encoder":"69107483846","distractor":"69107403846","target":"absent","response":"present","rt":"1470.7000000477","correct":false,"confidence":-1},{"trial_n":19,"span":10,"encoder":"3608124581","distractor":"3608128581","target":"absent","response":"present","rt":"1544.6000001431","correct":false,"confidence":-1},{"trial_n":20,"span":9,"encoder":"685566605","distractor":"685566685","target":"present","response":"absent","rt":"1905.7999999523","correct":false,"confidence":-1},{"trial_n":21,"span":8,"encoder":"11471577","distractor":"81471577","target":"present","response":"absent","rt":"3955.5999999046","correct":false,"confidence":4},{"trial_n":22,"span":7,"encoder":"5174021","distractor":"8174021","target":"present","response":"present","rt":"3814.0999999046","correct":true,"confidence":5},{"trial_n":23,"span":7,"encoder":"7327462","distractor":"7367462","target":"present","response":"present","rt":"3375","correct":true,"confidence":4},{"trial_n":24,"span":8,"encoder":"37564877","distractor":"37594877","target":"absent","response":"present","rt":"4653.8999998569","correct":false,"confidence":2},{"trial_n":25,"span":7,"encoder":"2917880","distractor":"2917980","target":"absent","response":"absent","rt":"2996.8999998569","correct":true,"confidence":4},{"trial_n":26,"span":7,"encoder":"7683291","distractor":"7683292","target":"absent","response":"absent","rt":"2722.7000000477","correct":true,"confidence":5},{"trial_n":27,"span":8,"encoder":"31563684","distractor":"31563688","target":"absent","response":"absent","rt":"2256.7000000477","correct":true,"confidence":5},{"trial_n":28,"span":8,"encoder":"45192914","distractor":"45192913","target":"present","response":"present","rt":"3786","correct":true,"confidence":4},{"trial_n":29,"span":9,"encoder":"057719069","distractor":"057719067","target":"present","response":"absent","rt":"2155.5999999046","correct":false,"confidence":3},{"trial_n":30,"span":8,"encoder":"16526616","distractor":"16526646","target":"present","response":"present","rt":"1684.2000000477","correct":true,"confidence":3},{"trial_n":31,"span":8,"encoder":"02829634","distractor":"22829634","target":"present","response":"present","rt":"2888","correct":true,"confidence":3},{"trial_n":32,"span":9,"encoder":"675956581","distractor":"675956588","target":"absent","response":"absent","rt":"1734.2000000477","correct":true,"confidence":5},{"trial_n":33,"span":9,"encoder":"241386014","distractor":"941386014","target":"present","response":"present","rt":"5169.7999999523","correct":true,"confidence":3},{"trial_n":34,"span":10,"encoder":"6265492001","distractor":"6261492001","target":"absent","response":"present","rt":"5461.5","correct":false,"confidence":2},{"trial_n":35,"span":9,"encoder":"680536441","distractor":"680533441","target":"absent","response":"absent","rt":"1407.4000000954","correct":true,"confidence":4},{"trial_n":36,"span":9,"encoder":"404839352","distractor":"403839352","target":"absent","response":"absent","rt":"5056.6000001431","correct":true,"confidence":3},{"trial_n":37,"span":10,"encoder":"0019553057","distractor":"0719553057","target":"present","response":"present","rt":"2172.5","correct":true,"confidence":4},{"trial_n":38,"span":10,"encoder":"6992390362","distractor":"6992350362","target":"absent","response":"present","rt":"4167.5999999046","correct":false,"confidence":3},{"trial_n":39,"span":9,"encoder":"374898044","distractor":"174898044","target":"present","response":"absent","rt":"1909.0999999046","correct":false,"confidence":5},{"trial_n":40,"span":8,"encoder":"78013125","distractor":"78073125","target":"present","response":"present","rt":"2751","correct":true,"confidence":3},{"trial_n":41,"span":8,"encoder":"45017324","distractor":"45017327","target":"absent","response":"absent","rt":"1718","correct":true,"confidence":5},{"trial_n":42,"span":9,"encoder":"448251582","distractor":"468251582","target":"present","response":"present","rt":"7152.2999999523","correct":true,"confidence":3},{"trial_n":43,"span":9,"encoder":"648763138","distractor":"648723138","target":"absent","response":"present","rt":"2650.7999999523","correct":false,"confidence":3},{"trial_n":44,"span":8,"encoder":"41607099","distractor":"51607099","target":"absent","response":"present","rt":"2173.2000000477","correct":false,"confidence":3},{"trial_n":45,"span":7,"encoder":"5026139","distractor":"5826139","target":"absent","response":"absent","rt":"2871","correct":true,"confidence":4},{"trial_n":46,"span":7,"encoder":"8927604","distractor":"8927304","target":"present","response":"present","rt":"2738.2000000477","correct":true,"confidence":4},{"trial_n":47,"span":8,"encoder":"42791983","distractor":"43791983","target":"present","response":"present","rt":"3434.2000000477","correct":true,"confidence":3},{"trial_n":48,"span":8,"encoder":"43367546","distractor":"83367546","target":"absent","response":"absent","rt":"2083.3000001907","correct":true,"confidence":4},{"trial_n":49,"span":9,"encoder":"648300580","distractor":"648300587","target":"absent","response":"absent","rt":"2506.7000000477","correct":true,"confidence":5},{"trial_n":50,"span":9,"encoder":"793652647","distractor":"993652647","target":"present","response":"absent","rt":"4913.7000000477","correct":false,"confidence":3},{"trial_n":51,"span":8,"encoder":"85168862","distractor":"83168862","target":"present","response":"present","rt":"2944.7000000477","correct":true,"confidence":3},{"trial_n":52,"span":8,"encoder":"98968460","distractor":"98998460","target":"present","response":"present","rt":"4776.7000000477","correct":true,"confidence":3},{"trial_n":53,"span":9,"encoder":"890111683","distractor":"890211683","target":"present","response":"absent","rt":"2553.8999998569","correct":false,"confidence":3},{"trial_n":54,"span":8,"encoder":"05652125","distractor":"05622125","target":"present","response":"present","rt":"2725.8999998569","correct":true,"confidence":3},{"trial_n":55,"span":8,"encoder":"37158248","distractor":"37148248","target":"absent","response":"absent","rt":"4244.7999999523","correct":true,"confidence":3},{"trial_n":56,"span":9,"encoder":"081804618","distractor":"781804618","target":"absent","response":"absent","rt":"6134.8999998569","correct":true,"confidence":2},{"trial_n":57,"span":9,"encoder":"794855904","distractor":"994855904","target":"present","response":"present","rt":"1969.2999999523","correct":true,"confidence":3},{"trial_n":58,"span":10,"encoder":"6662516070","distractor":"6662506070","target":"present","response":"absent","rt":"1501","correct":false,"confidence":3},{"trial_n":59,"span":9,"encoder":"559159925","distractor":"559159325","target":"present","response":"present","rt":"2111.8000001907","correct":true,"confidence":3},{"trial_n":60,"span":9,"encoder":"755766699","distractor":"755736699","target":"present","response":"absent","rt":"1868.3999998569","correct":false,"confidence":3},{"trial_n":61,"span":8,"encoder":"48204225","distractor":"48205225","target":"absent","response":"present","rt":"1483.4000000954","correct":false,"confidence":3},{"trial_n":62,"span":7,"encoder":"6369358","distractor":"6365358","target":"present","response":"present","rt":"1737","correct":true,"confidence":3},{"trial_n":63,"span":7,"encoder":"1672943","distractor":"1642943","target":"absent","response":"absent","rt":"4797","correct":true,"confidence":3},{"trial_n":64,"span":8,"encoder":"16394768","distractor":"36394768","target":"present","response":"present","rt":"3171.5999999046","correct":true,"confidence":3},{"trial_n":65,"span":8,"encoder":"68015204","distractor":"68015404","target":"absent","response":"absent","rt":"2612.7000000477","correct":true,"confidence":4},{"trial_n":66,"span":9,"encoder":"133160790","distractor":"163160790","target":"present","response":"absent","rt":"2495.9000000954","correct":false,"confidence":3},{"trial_n":67,"span":8,"encoder":"49733944","distractor":"49736944","target":"absent","response":"absent","rt":"2101.7000000477","correct":true,"confidence":3},{"trial_n":68,"span":8,"encoder":"94360317","distractor":"94160317","target":"present","response":"present","rt":"2709.8999998569","correct":true,"confidence":3},{"trial_n":69,"span":9,"encoder":"581245667","distractor":"581245662","target":"absent","response":"absent","rt":"1848.0999999046","correct":true,"confidence":5},{"trial_n":70,"span":9,"encoder":"425894869","distractor":"425896869","target":"absent","response":"absent","rt":"5231","correct":true,"confidence":4},{"trial_n":71,"span":8,"encoder":"17026355","distractor":"17026555","target":"present","response":"present","rt":"5911.8999998569","correct":true,"confidence":-1},{"trial_n":72,"span":8,"encoder":"30770335","distractor":"30776335","target":"present","response":"present","rt":"5081.8999998569","correct":true,"confidence":-1},{"trial_n":73,"span":9,"encoder":"592062676","distractor":"592762676","target":"absent","response":"absent","rt":"2253.2000000477","correct":true,"confidence":-1},{"trial_n":74,"span":9,"encoder":"211234252","distractor":"210234252","target":"absent","response":"present","rt":"2240.5","correct":false,"confidence":-1},{"trial_n":75,"span":8,"encoder":"38181813","distractor":"38181815","target":"present","response":"present","rt":"1949.1000001431","correct":true,"confidence":-1},{"trial_n":76,"span":8,"encoder":"27232679","distractor":"27232649","target":"absent","response":"absent","rt":"1561.6000001431","correct":true,"confidence":-1},{"trial_n":77,"span":9,"encoder":"642072306","distractor":"640072306","target":"present","response":"present","rt":"3992.7999999523","correct":true,"confidence":-1},{"trial_n":78,"span":9,"encoder":"047811036","distractor":"047211036","target":"present","response":"present","rt":"2723.7000000477","correct":true,"confidence":-1},{"trial_n":79,"span":10,"encoder":"0126981694","distractor":"0326981694","target":"absent","response":"absent","rt":"1517.2000000477","correct":true,"confidence":-1},{"trial_n":80,"span":10,"encoder":"5415949933","distractor":"5415949934","target":"present","response":"present","rt":"1813.5","correct":true,"confidence":-1},{"trial_n":81,"span":11,"encoder":"57779012758","distractor":"57779052758","target":"present","response":"present","rt":"5456.9000000954","correct":true,"confidence":-1},{"trial_n":82,"span":11,"encoder":"75142001130","distractor":"75143001130","target":"present","response":"present","rt":"7431.7000000477","correct":true,"confidence":-1},{"trial_n":83,"span":12,"encoder":"847024862830","distractor":"847224862830","target":"absent","response":"present","rt":"8047.7000000477","correct":false,"confidence":-1},{"trial_n":84,"span":11,"encoder":"78527356618","distractor":"78527356617","target":"absent","response":"absent","rt":"8092.8000001907","correct":true,"confidence":-1},{"trial_n":85,"span":11,"encoder":"91678438551","distractor":"91378438551","target":"absent","response":"present","rt":"2006.5999999046","correct":false,"confidence":-1},{"trial_n":86,"span":10,"encoder":"8019674925","distractor":"8019674525","target":"present","response":"present","rt":"1075.7999999523","correct":true,"confidence":-1},{"trial_n":87,"span":10,"encoder":"8529442952","distractor":"8529449952","target":"absent","response":"present","rt":"44659.299999952","correct":false,"confidence":-1},{"trial_n":88,"span":9,"encoder":"309823031","distractor":"309823033","target":"absent","response":"absent","rt":"4378.7999999523","correct":true,"confidence":-1},{"trial_n":89,"span":9,"encoder":"115773427","distractor":"115773467","target":"present","response":"absent","rt":"10524.100000143","correct":false,"confidence":-1},{"trial_n":90,"span":8,"encoder":"17334506","distractor":"17332506","target":"absent","response":"absent","rt":"5710.9000000954","correct":true,"confidence":-1},{"trial_n":91,"span":8,"encoder":"88284129","distractor":"86284129","target":"absent","response":"absent","rt":"3510.8000001907","correct":true,"confidence":4},{"trial_n":92,"span":9,"encoder":"166342061","distractor":"166342011","target":"present","response":"present","rt":"4754.4000000954","correct":true,"confidence":5},{"trial_n":93,"span":9,"encoder":"460070105","distractor":"460070104","target":"absent","response":"absent","rt":"1829","correct":true,"confidence":4},{"trial_n":94,"span":10,"encoder":"0915620415","distractor":"0915620419","target":"present","response":"present","rt":"1626.2000000477","correct":true,"confidence":5},{"trial_n":95,"span":10,"encoder":"1734559664","distractor":"0734559664","target":"absent","response":"present","rt":"2338.7999999523","correct":false,"confidence":2},{"trial_n":96,"span":9,"encoder":"351938686","distractor":"350938686","target":"absent","response":"present","rt":"1610","correct":false,"confidence":2},{"trial_n":97,"span":8,"encoder":"39829388","distractor":"39829358","target":"present","response":"present","rt":"1186.2000000477","correct":true,"confidence":2},{"trial_n":98,"span":8,"encoder":"75815454","distractor":"75815444","target":"absent","response":"absent","rt":"1845.7000000477","correct":true,"confidence":5},{"trial_n":99,"span":9,"encoder":"099709761","distractor":"099799761","target":"absent","response":"absent","rt":"2801.9000000954","correct":true,"confidence":4},{"trial_n":100,"span":9,"encoder":"060438969","distractor":"460438969","target":"absent","response":"absent","rt":"2595","correct":true,"confidence":2},{"trial_n":101,"span":10,"encoder":"2306472119","distractor":"2326472119","target":"absent","response":"absent","rt":"4456.5","correct":true,"confidence":2},{"trial_n":102,"span":10,"encoder":"3504168201","distractor":"3704168201","target":"present","response":"present","rt":"3270.0999999046","correct":true,"confidence":3},{"trial_n":103,"span":11,"encoder":"92929187144","distractor":"92929187174","target":"present","response":"present","rt":"1206","correct":true,"confidence":4},{"trial_n":104,"span":11,"encoder":"76061820631","distractor":"76061220631","target":"present","response":"present","rt":"3249.5999999046","correct":true,"confidence":2},{"trial_n":105,"span":12,"encoder":"508144305534","distractor":"508144405534","target":"absent","response":"absent","rt":"3722.0999999046","correct":true,"confidence":2},{"trial_n":106,"span":12,"encoder":"811997744821","distractor":"811197744821","target":"absent","response":"absent","rt":"2250.5999999046","correct":true,"confidence":2},{"trial_n":107,"span":13,"encoder":"3554965828628","distractor":"3354965828628","target":"present","response":"present","rt":"2420.2000000477","correct":true,"confidence":2},{"trial_n":108,"span":13,"encoder":"4498813768068","distractor":"4495813768068","target":"present","response":"present","rt":"9476.5","correct":true,"confidence":1},{"trial_n":109,"span":14,"encoder":"96412288859516","distractor":"96412288859512","target":"present","response":"present","rt":"36280","correct":true,"confidence":2},{"trial_n":110,"span":14,"encoder":"95067859417579","distractor":"95065859417579","target":"present","response":"present","rt":"1523.2999999523","correct":true,"confidence":2},{"trial_n":111,"span":15,"encoder":"289097177213164","distractor":"289097177273164","target":"absent","response":"absent","rt":"4046.5","correct":true,"confidence":3},{"trial_n":112,"span":15,"encoder":"199501086070085","distractor":"199501086070385","target":"present","response":"present","rt":"1034","correct":true,"confidence":2},{"trial_n":113,"span":16,"encoder":"7778388327066430","distractor":"7778387327066430","target":"absent","response":"present","rt":"4153.4000000954","correct":false,"confidence":3},{"trial_n":114,"span":15,"encoder":"916284443063123","distractor":"916284443963123","target":"absent","response":"present","rt":"1362.5999999046","correct":false,"confidence":2},{"trial_n":115,"span":14,"encoder":"11922632516025","distractor":"11922132516025","target":"absent","response":"absent","rt":"11743.200000048","correct":true,"confidence":2},{"trial_n":116,"span":14,"encoder":"49958727733230","distractor":"49918727733230","target":"present","response":"absent","rt":"1410.2999999523","correct":false,"confidence":3},{"trial_n":117,"span":13,"encoder":"9521607559709","distractor":"9521667559709","target":"absent","response":"absent","rt":"16269.700000048","correct":true,"confidence":1},{"trial_n":118,"span":13,"encoder":"2327329819126","distractor":"2327429819126","target":"absent","response":"absent","rt":"7412","correct":true,"confidence":2},{"trial_n":119,"span":14,"encoder":"33995618440007","distractor":"33995618440207","target":"absent","response":"present","rt":"19708.200000048","correct":false,"confidence":2},{"trial_n":120,"span":13,"encoder":"6515355401494","distractor":"6515355408494","target":"absent","response":"absent","rt":"5055.0999999046","correct":true,"confidence":2},{"trial_n":121,"span":13,"encoder":"3445049825282","distractor":"3445049820282","target":"present","response":"present","rt":"2625.6000001431","correct":true,"confidence":4},{"trial_n":122,"span":14,"encoder":"53155843592795","distractor":"53455843592795","target":"present","response":"present","rt":"2091.7000000477","correct":true,"confidence":2},{"trial_n":123,"span":14,"encoder":"04731369863351","distractor":"04731369863551","target":"absent","response":"absent","rt":"1525.5999999046","correct":true,"confidence":4},{"trial_n":124,"span":15,"encoder":"018174778064541","distractor":"018174778064549","target":"present","response":"absent","rt":"2000.3999998569","correct":false,"confidence":2},{"trial_n":125,"span":14,"encoder":"00876789393139","distractor":"02876789393139","target":"present","response":"absent","rt":"2025.8000001907","correct":false,"confidence":2},{"trial_n":126,"span":13,"encoder":"7449915753077","distractor":"7449915753037","target":"present","response":"absent","rt":"38081.399999857","correct":false,"confidence":2},{"trial_n":127,"span":12,"encoder":"463630327235","distractor":"463630227235","target":"present","response":"absent","rt":"16004.299999952","correct":false,"confidence":2},{"trial_n":128,"span":11,"encoder":"73219382406","distractor":"73219682406","target":"absent","response":"present","rt":"8120.5","correct":false,"confidence":3},{"trial_n":129,"span":10,"encoder":"3888214821","distractor":"3848214821","target":"present","response":"absent","rt":"20508.799999952","correct":false,"confidence":2},{"trial_n":130,"span":9,"encoder":"786030822","distractor":"786090822","target":"absent","response":"absent","rt":"4229","correct":true,"confidence":4},{"trial_n":131,"span":9,"encoder":"308573783","distractor":"308573763","target":"absent","response":"absent","rt":"1783.2999999523","correct":true,"confidence":4},{"trial_n":132,"span":10,"encoder":"2329656663","distractor":"2329156663","target":"present","response":"absent","rt":"1593.9000000954","correct":false,"confidence":3},{"trial_n":133,"span":9,"encoder":"637214561","distractor":"837214561","target":"present","response":"absent","rt":"10189.299999952","correct":false,"confidence":2},{"trial_n":134,"span":8,"encoder":"83433529","distractor":"83433579","target":"present","response":"absent","rt":"1919","correct":false,"confidence":4},{"trial_n":135,"span":7,"encoder":"0870876","distractor":"0870878","target":"present","response":"present","rt":"61473.700000048","correct":true,"confidence":2},{"trial_n":136,"span":7,"encoder":"7015287","distractor":"7015283","target":"absent","response":"absent","rt":"836.80000019073","correct":true,"confidence":2},{"trial_n":137,"span":8,"encoder":"34127808","distractor":"34127809","target":"present","response":"present","rt":"1261.1999998093","correct":true,"confidence":5},{"trial_n":138,"span":8,"encoder":"03614669","distractor":"03614469","target":"present","response":"absent","rt":"3389.9000000954","correct":false,"confidence":2},{"trial_n":139,"span":7,"encoder":"5543928","distractor":"5543328","target":"present","response":"present","rt":"2015.9000000954","correct":true,"confidence":5},{"trial_n":140,"span":7,"encoder":"7493120","distractor":"2493120","target":"absent","response":"absent","rt":"3613.5","correct":true,"confidence":2}]