[{"trial_n":1,"n_dots":4.25,"target":"left","response":"left","rt":12953.900000095,"correct":true,"confidence":-1},{"trial_n":2,"n_dots":4.25,"target":"right","response":"right","rt":7066.7999999523,"correct":true,"confidence":-1},{"trial_n":3,"n_dots":3.85,"target":"left","response":"left","rt":1403.2000000477,"correct":true,"confidence":-1},{"trial_n":4,"n_dots":3.85,"target":"right","response":"left","rt":563.39999985695,"correct":false,"confidence":-1},{"trial_n":5,"n_dots":4.25,"target":"right","response":"left","rt":1297.7000000477,"correct":false,"confidence":-1},{"trial_n":6,"n_dots":4.65,"target":"right","response":"left","rt":3985.5,"correct":false,"confidence":-1},{"trial_n":7,"n_dots":5.05,"target":"right","response":"left","rt":1007.3000001907,"correct":false,"confidence":-1},{"trial_n":8,"n_dots":5.25,"target":"right","response":"right","rt":5557.6000001431,"correct":true,"confidence":-1},{"trial_n":9,"n_dots":5.25,"target":"left","response":"right","rt":655.60000014305,"correct":false,"confidence":-1},{"trial_n":10,"n_dots":5.45,"target":"left","response":"right","rt":1863.4000000954,"correct":false,"confidence":-1},{"trial_n":11,"n_dots":5.65,"target":"left","response":"right","rt":245.69999980927,"correct":false,"confidence":-1},{"trial_n":12,"n_dots":5.743,"target":"left","response":"right","rt":1630.7000000477,"correct":false,"confidence":-1},{"trial_n":13,"n_dots":5.743,"target":"right","response":"left","rt":938.5,"correct":false,"confidence":-1},{"trial_n":14,"n_dots":5.743,"target":"left","response":"right","rt":925.39999985695,"correct":false,"confidence":-1},{"trial_n":15,"n_dots":5.743,"target":"right","response":"left","rt":226.29999995232,"correct":false,"confidence":-1},{"trial_n":16,"n_dots":5.743,"target":"right","response":"left","rt":20.800000190735,"correct":false,"confidence":-1},{"trial_n":17,"n_dots":5.743,"target":"left","response":"left","rt":6256.1999998093,"correct":true,"confidence":-1},{"trial_n":18,"n_dots":5.743,"target":"left","response":"right","rt":2334.4000000954,"correct":false,"confidence":-1},{"trial_n":19,"n_dots":5.743,"target":"left","response":"right","rt":450.20000004768,"correct":false,"confidence":-1},{"trial_n":20,"n_dots":5.743,"target":"right","response":"left","rt":706.09999990463,"correct":false,"confidence":-1},{"trial_n":21,"n_dots":5.743,"target":"left","response":"right","rt":2197.1999998093,"correct":false,"confidence":2},{"trial_n":22,"n_dots":5.743,"target":"right","response":"left","rt":870.5,"correct":false,"confidence":4},{"trial_n":23,"n_dots":5.743,"target":"left","response":"right","rt":12644.600000143,"correct":false,"confidence":2},{"trial_n":24,"n_dots":5.743,"target":"right","response":"left","rt":2533,"correct":false,"confidence":2},{"trial_n":25,"n_dots":5.743,"target":"right","response":"right","rt":7145.7000000477,"correct":true,"confidence":1},{"trial_n":26,"n_dots":5.743,"target":"right","response":"left","rt":1377.5,"correct":false,"confidence":3},{"trial_n":27,"n_dots":5.743,"target":"left","response":"right","rt":1681,"correct":false,"confidence":3},{"trial_n":28,"n_dots":5.743,"target":"left","response":"right","rt":695.79999995232,"correct":false,"confidence":3},{"trial_n":29,"n_dots":5.743,"target":"right","response":"left","rt":2185.9000000954,"correct":false,"confidence":3},{"trial_n":30,"n_dots":5.743,"target":"right","response":"left","rt":631.79999995232,"correct":false,"confidence":3},{"trial_n":31,"n_dots":5.743,"target":"left","response":"right","rt":739.29999995232,"correct":false,"confidence":3},{"trial_n":32,"n_dots":5.743,"target":"right","response":"left","rt":560.70000004768,"correct":false,"confidence":3},{"trial_n":33,"n_dots":5.743,"target":"right","response":"left","rt":201.79999995232,"correct":false,"confidence":3},{"trial_n":34,"n_dots":5.743,"target":"left","response":"right","rt":136.20000004768,"correct":false,"confidence":3},{"trial_n":35,"n_dots":5.743,"target":"left","response":"right","rt":406.79999995232,"correct":false,"confidence":3},{"trial_n":36,"n_dots":5.743,"target":"left","response":"right","rt":546.40000009537,"correct":false,"confidence":3},{"trial_n":37,"n_dots":5.743,"target":"right","response":"left","rt":1059.4000000954,"correct":false,"confidence":3},{"trial_n":38,"n_dots":5.743,"target":"left","response":"right","rt":154.60000014305,"correct":false,"confidence":3},{"trial_n":39,"n_dots":5.743,"target":"left","response":"right","rt":299.09999990463,"correct":false,"confidence":3},{"trial_n":40,"n_dots":5.743,"target":"right","response":"left","rt":1341.9000000954,"correct":false,"confidence":2},{"trial_n":41,"n_dots":5.743,"target":"right","response":"left","rt":1177.7000000477,"correct":false,"confidence":3},{"trial_n":42,"n_dots":5.743,"target":"right","response":"left","rt":41.200000047684,"correct":false,"confidence":3},{"trial_n":43,"n_dots":5.743,"target":"left","response":"right","rt":290.09999990463,"correct":false,"confidence":3},{"trial_n":44,"n_dots":5.743,"target":"right","response":"left","rt":254.5,"correct":false,"confidence":3},{"trial_n":45,"n_dots":5.743,"target":"right","response":"left","rt":653.10000014305,"correct":false,"confidence":3},{"trial_n":46,"n_dots":5.743,"target":"left","response":"right","rt":113.40000009537,"correct":false,"confidence":3},{"trial_n":47,"n_dots":5.743,"target":"left","response":"right","rt":965.40000009537,"correct":false,"confidence":3},{"trial_n":48,"n_dots":5.743,"target":"right","response":"left","rt":626.40000009537,"correct":false,"confidence":3},{"trial_n":49,"n_dots":5.743,"target":"right","response":"left","rt":343,"correct":false,"confidence":3},{"trial_n":50,"n_dots":5.743,"target":"left","response":"right","rt":159.60000014305,"correct":false,"confidence":3},{"trial_n":51,"n_dots":5.743,"target":"right","response":"left","rt":244.70000004768,"correct":false,"confidence":3},{"trial_n":52,"n_dots":5.743,"target":"right","response":"left","rt":7.2000000476837,"correct":false,"confidence":3},{"trial_n":53,"n_dots":5.743,"target":"left","response":"right","rt":982.39999985695,"correct":false,"confidence":3},{"trial_n":54,"n_dots":5.743,"target":"left","response":"right","rt":3570.0999999046,"correct":false,"confidence":1},{"trial_n":55,"n_dots":5.743,"target":"left","response":"right","rt":522.40000009537,"correct":false,"confidence":3},{"trial_n":56,"n_dots":5.743,"target":"right","response":"left","rt":165.5,"correct":false,"confidence":3},{"trial_n":57,"n_dots":5.743,"target":"right","response":"left","rt":100,"correct":false,"confidence":3},{"trial_n":58,"n_dots":5.743,"target":"right","response":"left","rt":48,"correct":false,"confidence":3},{"trial_n":59,"n_dots":5.743,"target":"right","response":"left","rt":52.799999952316,"correct":false,"confidence":4},{"trial_n":60,"n_dots":5.743,"target":"left","response":"right","rt":183,"correct":false,"confidence":3},{"trial_n":61,"n_dots":5.743,"target":"right","response":"left","rt":440.39999985695,"correct":false,"confidence":3},{"trial_n":62,"n_dots":5.743,"target":"right","response":"left","rt":118.60000014305,"correct":false,"confidence":3},{"trial_n":63,"n_dots":5.743,"target":"left","response":"right","rt":729.79999995232,"correct":false,"confidence":4},{"trial_n":64,"n_dots":5.743,"target":"left","response":"right","rt":642.59999990463,"correct":false,"confidence":4},{"trial_n":65,"n_dots":5.743,"target":"right","response":"left","rt":501.70000004768,"correct":false,"confidence":4},{"trial_n":66,"n_dots":5.743,"target":"right","response":"left","rt":473.59999990463,"correct":false,"confidence":3},{"trial_n":67,"n_dots":5.743,"target":"left","response":"right","rt":490,"correct":false,"confidence":3},{"trial_n":68,"n_dots":5.743,"target":"right","response":"left","rt":561.10000014305,"correct":false,"confidence":3},{"trial_n":69,"n_dots":5.743,"target":"right","response":"left","rt":482.39999985695,"correct":false,"confidence":4},{"trial_n":70,"n_dots":5.743,"target":"right","response":"left","rt":248.5,"correct":false,"confidence":4},{"trial_n":71,"n_dots":5.743,"target":"right","response":"left","rt":1282.5,"correct":false,"confidence":3},{"trial_n":72,"n_dots":5.743,"target":"right","response":"left","rt":218.20000004768,"correct":false,"confidence":3},{"trial_n":73,"n_dots":5.743,"target":"right","response":"left","rt":251.29999995232,"correct":false,"confidence":3},{"trial_n":74,"n_dots":5.743,"target":"left","response":"right","rt":646.5,"correct":false,"confidence":3},{"trial_n":75,"n_dots":5.743,"target":"left","response":"right","rt":667.70000004768,"correct":false,"confidence":3},{"trial_n":76,"n_dots":5.743,"target":"left","response":"right","rt":1372.2999999523,"correct":false,"confidence":3},{"trial_n":77,"n_dots":5.743,"target":"left","response":"right","rt":441.29999995232,"correct":false,"confidence":3},{"trial_n":78,"n_dots":5.743,"target":"right","response":"left","rt":532.30000019073,"correct":false,"confidence":3},{"trial_n":79,"n_dots":5.743,"target":"left","response":"right","rt":293.10000014305,"correct":false,"confidence":3},{"trial_n":80,"n_dots":5.743,"target":"right","response":"left","rt":442.5,"correct":false,"confidence":3},{"trial_n":81,"n_dots":5.743,"target":"right","response":"left","rt":1229.1000001431,"correct":false,"confidence":3},{"trial_n":82,"n_dots":5.743,"target":"left","response":"right","rt":60.700000047684,"correct":false,"confidence":3},{"trial_n":83,"n_dots":5.743,"target":"right","response":"left","rt":378.09999990463,"correct":false,"confidence":3},{"trial_n":84,"n_dots":5.743,"target":"left","response":"right","rt":424.40000009537,"correct":false,"confidence":3},{"trial_n":85,"n_dots":5.743,"target":"right","response":"left","rt":134.5,"correct":false,"confidence":3},{"trial_n":86,"n_dots":5.743,"target":"left","response":"right","rt":625.09999990463,"correct":false,"confidence":3},{"trial_n":87,"n_dots":5.743,"target":"left","response":"right","rt":341.60000014305,"correct":false,"confidence":3},{"trial_n":88,"n_dots":5.743,"target":"right","response":"left","rt":296.90000009537,"correct":false,"confidence":3},{"trial_n":89,"n_dots":5.743,"target":"right","response":"left","rt":26.600000143051,"correct":false,"confidence":3},{"trial_n":90,"n_dots":5.743,"target":"left","response":"right","rt":243.60000014305,"correct":false,"confidence":3},{"trial_n":91,"n_dots":5.743,"target":"right","response":"left","rt":191.5,"correct":false,"confidence":3},{"trial_n":92,"n_dots":5.743,"target":"right","response":"left","rt":241.09999990463,"correct":false,"confidence":3},{"trial_n":93,"n_dots":5.743,"target":"left","response":"right","rt":583.09999990463,"correct":false,"confidence":3},{"trial_n":94,"n_dots":5.743,"target":"left","response":"right","rt":465.69999980927,"correct":false,"confidence":3},{"trial_n":95,"n_dots":5.743,"target":"left","response":"right","rt":337.29999995232,"correct":false,"confidence":3},{"trial_n":96,"n_dots":5.743,"target":"left","response":"right","rt":542,"correct":false,"confidence":3},{"trial_n":97,"n_dots":5.743,"target":"right","response":"left","rt":-0.79999995231628,"correct":false,"confidence":3},{"trial_n":98,"n_dots":5.743,"target":"right","response":"left","rt":477.79999995232,"correct":false,"confidence":3},{"trial_n":99,"n_dots":5.743,"target":"right","response":"left","rt":696.10000014305,"correct":false,"confidence":3},{"trial_n":100,"n_dots":5.743,"target":"left","response":"right","rt":260.70000004768,"correct":false,"confidence":3},{"trial_n":101,"n_dots":5.743,"target":"left","response":"right","rt":845.60000014305,"correct":false,"confidence":2},{"trial_n":102,"n_dots":5.743,"target":"right","response":"left","rt":786.69999980927,"correct":false,"confidence":3},{"trial_n":103,"n_dots":5.743,"target":"right","response":"left","rt":817.90000009537,"correct":false,"confidence":3},{"trial_n":104,"n_dots":5.743,"target":"left","response":"right","rt":352.40000009537,"correct":false,"confidence":3},{"trial_n":105,"n_dots":5.743,"target":"left","response":"right","rt":688.60000014305,"correct":false,"confidence":3},{"trial_n":106,"n_dots":5.743,"target":"left","response":"right","rt":529.70000004768,"correct":false,"confidence":3},{"trial_n":107,"n_dots":5.743,"target":"left","response":"right","rt":312.29999995232,"correct":false,"confidence":3},{"trial_n":108,"n_dots":5.743,"target":"left","response":"right","rt":502.09999990463,"correct":false,"confidence":3},{"trial_n":109,"n_dots":5.743,"target":"left","response":"right","rt":273.59999990463,"correct":false,"confidence":4},{"trial_n":110,"n_dots":5.743,"target":"left","response":"right","rt":227.39999985695,"correct":false,"confidence":3},{"trial_n":111,"n_dots":5.743,"target":"left","response":"right","rt":350.20000004768,"correct":false,"confidence":3},{"trial_n":112,"n_dots":5.743,"target":"right","response":"left","rt":454,"correct":false,"confidence":3},{"trial_n":113,"n_dots":5.743,"target":"right","response":"left","rt":363.60000014305,"correct":false,"confidence":3},{"trial_n":114,"n_dots":5.743,"target":"right","response":"left","rt":254.90000009537,"correct":false,"confidence":3},{"trial_n":115,"n_dots":5.743,"target":"left","response":"right","rt":226.59999990463,"correct":false,"confidence":3},{"trial_n":116,"n_dots":5.743,"target":"left","response":"right","rt":883.70000004768,"correct":false,"confidence":3},{"trial_n":117,"n_dots":5.743,"target":"left","response":"right","rt":135.29999995232,"correct":false,"confidence":3},{"trial_n":118,"n_dots":5.743,"target":"left","response":"right","rt":35.5,"correct":false,"confidence":3},{"trial_n":119,"n_dots":5.743,"target":"right","response":"left","rt":78.599999904633,"correct":false,"confidence":4},{"trial_n":120,"n_dots":5.743,"target":"left","response":"right","rt":391.90000009537,"correct":false,"confidence":3}]