[{"trial_n":1,"n_dots":4.25,"target":"left","response":"left","rt":5425,"correct":true,"confidence":-1},{"trial_n":2,"n_dots":4.25,"target":"left","response":"left","rt":333.10000000894,"correct":true,"confidence":-1},{"trial_n":3,"n_dots":3.85,"target":"left","response":"left","rt":214.70000000298,"correct":true,"confidence":-1},{"trial_n":4,"n_dots":3.85,"target":"left","response":"left","rt":134.89999999106,"correct":true,"confidence":-1},{"trial_n":5,"n_dots":3.45,"target":"right","response":"right","rt":500.89999999106,"correct":true,"confidence":-1},{"trial_n":6,"n_dots":3.45,"target":"left","response":"left","rt":440.89999999106,"correct":true,"confidence":-1},{"trial_n":7,"n_dots":3.05,"target":"left","response":"left","rt":555.39999999106,"correct":true,"confidence":-1},{"trial_n":8,"n_dots":3.05,"target":"left","response":"left","rt":224.70000000298,"correct":true,"confidence":-1},{"trial_n":9,"n_dots":2.85,"target":"right","response":"right","rt":488.5,"correct":true,"confidence":-1},{"trial_n":10,"n_dots":2.85,"target":"left","response":"left","rt":268.30000001192,"correct":true,"confidence":-1},{"trial_n":11,"n_dots":2.65,"target":"right","response":"left","rt":4122.8999999911,"correct":false,"confidence":-1},{"trial_n":12,"n_dots":2.85,"target":"right","response":"left","rt":545.90000000596,"correct":false,"confidence":-1},{"trial_n":13,"n_dots":2.95,"target":"left","response":"right","rt":3300.8999999911,"correct":false,"confidence":-1},{"trial_n":14,"n_dots":3.05,"target":"left","response":"left","rt":54.70000000298,"correct":true,"confidence":-1},{"trial_n":15,"n_dots":3.05,"target":"left","response":"left","rt":572.89999999106,"correct":true,"confidence":-1},{"trial_n":16,"n_dots":2.95,"target":"left","response":"right","rt":513.79999999702,"correct":false,"confidence":-1},{"trial_n":17,"n_dots":3.05,"target":"right","response":"right","rt":132.89999999106,"correct":true,"confidence":-1},{"trial_n":18,"n_dots":3.05,"target":"right","response":"right","rt":79,"correct":true,"confidence":-1},{"trial_n":19,"n_dots":2.95,"target":"left","response":"left","rt":52.09999999404,"correct":true,"confidence":-1},{"trial_n":20,"n_dots":2.95,"target":"right","response":"right","rt":32.59999999404,"correct":true,"confidence":-1},{"trial_n":21,"n_dots":2.85,"target":"right","response":"left","rt":1663,"correct":false,"confidence":1},{"trial_n":22,"n_dots":2.95,"target":"right","response":"left","rt":825.40000000596,"correct":false,"confidence":1},{"trial_n":23,"n_dots":3.05,"target":"left","response":"left","rt":337.5,"correct":true,"confidence":1},{"trial_n":24,"n_dots":3.05,"target":"right","response":"left","rt":182.5,"correct":false,"confidence":1},{"trial_n":25,"n_dots":3.15,"target":"right","response":"left","rt":489.60000000894,"correct":false,"confidence":1},{"trial_n":26,"n_dots":3.25,"target":"right","response":"left","rt":87.800000011921,"correct":false,"confidence":1},{"trial_n":27,"n_dots":3.35,"target":"left","response":"left","rt":338.70000000298,"correct":true,"confidence":1},{"trial_n":28,"n_dots":3.35,"target":"left","response":"left","rt":110.39999999106,"correct":true,"confidence":1},{"trial_n":29,"n_dots":3.25,"target":"right","response":"left","rt":205.30000001192,"correct":false,"confidence":1},{"trial_n":30,"n_dots":3.35,"target":"right","response":"left","rt":5,"correct":false,"confidence":1},{"trial_n":31,"n_dots":3.45,"target":"right","response":"left","rt":1120.599999994,"correct":false,"confidence":1},{"trial_n":32,"n_dots":3.55,"target":"left","response":"right","rt":142.20000000298,"correct":false,"confidence":1},{"trial_n":33,"n_dots":3.65,"target":"left","response":"left","rt":70.20000000298,"correct":true,"confidence":1},{"trial_n":34,"n_dots":3.65,"target":"left","response":"left","rt":116.29999999702,"correct":true,"confidence":1},{"trial_n":35,"n_dots":3.55,"target":"left","response":"right","rt":80.5,"correct":false,"confidence":1},{"trial_n":36,"n_dots":3.65,"target":"left","response":"left","rt":72.09999999404,"correct":true,"confidence":1},{"trial_n":37,"n_dots":3.65,"target":"left","response":"left","rt":62.300000011921,"correct":true,"confidence":1},{"trial_n":38,"n_dots":3.55,"target":"left","response":"right","rt":51.59999999404,"correct":false,"confidence":1},{"trial_n":39,"n_dots":3.65,"target":"left","response":"left","rt":187.29999999702,"correct":true,"confidence":1},{"trial_n":40,"n_dots":3.65,"target":"left","response":"right","rt":107.30000001192,"correct":false,"confidence":1},{"trial_n":41,"n_dots":3.75,"target":"left","response":"left","rt":17.5,"correct":true,"confidence":1},{"trial_n":42,"n_dots":3.75,"target":"right","response":"right","rt":106.90000000596,"correct":true,"confidence":1},{"trial_n":43,"n_dots":3.65,"target":"right","response":"left","rt":72,"correct":false,"confidence":1},{"trial_n":44,"n_dots":3.75,"target":"left","response":"left","rt":0.20000000298023,"correct":true,"confidence":1},{"trial_n":45,"n_dots":3.75,"target":"left","response":"right","rt":17.20000000298,"correct":false,"confidence":1},{"trial_n":46,"n_dots":3.85,"target":"right","response":"left","rt":192,"correct":false,"confidence":1},{"trial_n":47,"n_dots":3.95,"target":"left","response":"left","rt":173.60000000894,"correct":true,"confidence":1},{"trial_n":48,"n_dots":3.95,"target":"left","response":"right","rt":60.29999999702,"correct":false,"confidence":1},{"trial_n":49,"n_dots":4.05,"target":"left","response":"right","rt":77.5,"correct":false,"confidence":1},{"trial_n":50,"n_dots":4.15,"target":"right","response":"left","rt":9.4000000059605,"correct":false,"confidence":1},{"trial_n":51,"n_dots":4.25,"target":"left","response":"right","rt":72.70000000298,"correct":false,"confidence":1},{"trial_n":52,"n_dots":4.35,"target":"right","response":"right","rt":113.5,"correct":true,"confidence":1},{"trial_n":53,"n_dots":4.35,"target":"right","response":"left","rt":67.70000000298,"correct":false,"confidence":1},{"trial_n":54,"n_dots":4.45,"target":"right","response":"left","rt":184.10000000894,"correct":false,"confidence":1},{"trial_n":55,"n_dots":4.55,"target":"right","response":"right","rt":3.5999999940395,"correct":true,"confidence":1},{"trial_n":56,"n_dots":4.55,"target":"right","response":"right","rt":88,"correct":true,"confidence":1},{"trial_n":57,"n_dots":4.45,"target":"right","response":"left","rt":69.09999999404,"correct":false,"confidence":1},{"trial_n":58,"n_dots":4.55,"target":"right","response":"left","rt":28.70000000298,"correct":false,"confidence":1},{"trial_n":59,"n_dots":4.65,"target":"left","response":"left","rt":78.79999999702,"correct":true,"confidence":1},{"trial_n":60,"n_dots":4.65,"target":"left","response":"right","rt":142.5,"correct":false,"confidence":1},{"trial_n":61,"n_dots":4.75,"target":"left","response":"left","rt":241.29999999702,"correct":true,"confidence":1},{"trial_n":62,"n_dots":4.75,"target":"left","response":"right","rt":414.40000000596,"correct":false,"confidence":1},{"trial_n":63,"n_dots":4.85,"target":"right","response":"left","rt":210.20000000298,"correct":false,"confidence":1},{"trial_n":64,"n_dots":4.95,"target":"left","response":"left","rt":747.70000000298,"correct":true,"confidence":1},{"trial_n":65,"n_dots":4.95,"target":"right","response":"left","rt":90.09999999404,"correct":false,"confidence":1},{"trial_n":66,"n_dots":5.05,"target":"left","response":"left","rt":812.59999999404,"correct":true,"confidence":1},{"trial_n":67,"n_dots":5.05,"target":"left","response":"left","rt":182.5,"correct":true,"confidence":1},{"trial_n":68,"n_dots":4.95,"target":"left","response":"left","rt":96.90000000596,"correct":true,"confidence":1},{"trial_n":69,"n_dots":4.95,"target":"left","response":"right","rt":85.5,"correct":false,"confidence":1},{"trial_n":70,"n_dots":5.05,"target":"right","response":"left","rt":76.199999988079,"correct":false,"confidence":1},{"trial_n":71,"n_dots":5.15,"target":"right","response":"left","rt":47.70000000298,"correct":false,"confidence":1},{"trial_n":72,"n_dots":5.25,"target":"left","response":"left","rt":277.09999999404,"correct":true,"confidence":1},{"trial_n":73,"n_dots":5.25,"target":"right","response":"right","rt":119,"correct":true,"confidence":1},{"trial_n":74,"n_dots":5.15,"target":"left","response":"left","rt":49.600000008941,"correct":true,"confidence":1},{"trial_n":75,"n_dots":5.15,"target":"left","response":"left","rt":110.20000000298,"correct":true,"confidence":1},{"trial_n":76,"n_dots":5.05,"target":"right","response":"right","rt":193.10000000894,"correct":true,"confidence":1},{"trial_n":77,"n_dots":5.05,"target":"right","response":"right","rt":1133.3000000119,"correct":true,"confidence":1},{"trial_n":78,"n_dots":4.95,"target":"right","response":"right","rt":125.59999999404,"correct":true,"confidence":1},{"trial_n":79,"n_dots":4.95,"target":"right","response":"right","rt":44.40000000596,"correct":true,"confidence":1},{"trial_n":80,"n_dots":4.85,"target":"right","response":"right","rt":16.70000000298,"correct":true,"confidence":1},{"trial_n":81,"n_dots":4.85,"target":"right","response":"right","rt":201.80000001192,"correct":true,"confidence":1},{"trial_n":82,"n_dots":4.75,"target":"left","response":"left","rt":79.5,"correct":true,"confidence":1},{"trial_n":83,"n_dots":4.75,"target":"right","response":"right","rt":13,"correct":true,"confidence":1},{"trial_n":84,"n_dots":4.65,"target":"right","response":"right","rt":110.20000000298,"correct":true,"confidence":1},{"trial_n":85,"n_dots":4.65,"target":"right","response":"right","rt":11.40000000596,"correct":true,"confidence":1},{"trial_n":86,"n_dots":4.55,"target":"right","response":"right","rt":143,"correct":true,"confidence":1},{"trial_n":87,"n_dots":4.55,"target":"right","response":"right","rt":57.899999991059,"correct":true,"confidence":1},{"trial_n":88,"n_dots":4.45,"target":"right","response":"right","rt":114,"correct":true,"confidence":1},{"trial_n":89,"n_dots":4.45,"target":"right","response":"right","rt":173.09999999404,"correct":true,"confidence":1},{"trial_n":90,"n_dots":4.35,"target":"right","response":"right","rt":27.59999999404,"correct":true,"confidence":1},{"trial_n":91,"n_dots":4.35,"target":"left","response":"left","rt":155.29999999702,"correct":true,"confidence":1},{"trial_n":92,"n_dots":4.25,"target":"right","response":"right","rt":551.19999998808,"correct":true,"confidence":1},{"trial_n":93,"n_dots":4.25,"target":"right","response":"left","rt":152.60000000894,"correct":false,"confidence":1},{"trial_n":94,"n_dots":4.35,"target":"right","response":"right","rt":87.09999999404,"correct":true,"confidence":1},{"trial_n":95,"n_dots":4.35,"target":"left","response":"left","rt":383.39999999106,"correct":true,"confidence":1},{"trial_n":96,"n_dots":4.25,"target":"left","response":"left","rt":45.09999999404,"correct":true,"confidence":1},{"trial_n":97,"n_dots":4.25,"target":"left","response":"left","rt":79.300000011921,"correct":true,"confidence":1},{"trial_n":98,"n_dots":4.15,"target":"left","response":"left","rt":25.5,"correct":true,"confidence":1},{"trial_n":99,"n_dots":4.15,"target":"right","response":"right","rt":266.59999999404,"correct":true,"confidence":1},{"trial_n":100,"n_dots":4.05,"target":"right","response":"left","rt":-2.7999999970198,"correct":false,"confidence":1},{"trial_n":101,"n_dots":4.15,"target":"right","response":"right","rt":75,"correct":true,"confidence":1},{"trial_n":102,"n_dots":4.15,"target":"right","response":"right","rt":85.20000000298,"correct":true,"confidence":1},{"trial_n":103,"n_dots":4.05,"target":"left","response":"left","rt":136,"correct":true,"confidence":1},{"trial_n":104,"n_dots":4.05,"target":"right","response":"left","rt":-1.0999999940395,"correct":false,"confidence":1},{"trial_n":105,"n_dots":4.15,"target":"left","response":"left","rt":25.5,"correct":true,"confidence":1},{"trial_n":106,"n_dots":4.15,"target":"right","response":"left","rt":109.09999999404,"correct":false,"confidence":1},{"trial_n":107,"n_dots":4.25,"target":"left","response":"left","rt":155.20000000298,"correct":true,"confidence":1},{"trial_n":108,"n_dots":4.25,"target":"right","response":"left","rt":136.20000000298,"correct":false,"confidence":1},{"trial_n":109,"n_dots":4.35,"target":"left","response":"left","rt":162,"correct":true,"confidence":1},{"trial_n":110,"n_dots":4.35,"target":"right","response":"left","rt":81.79999999702,"correct":false,"confidence":1},{"trial_n":111,"n_dots":4.45,"target":"left","response":"left","rt":186.10000000894,"correct":true,"confidence":1},{"trial_n":112,"n_dots":4.45,"target":"right","response":"left","rt":59.5,"correct":false,"confidence":1},{"trial_n":113,"n_dots":4.55,"target":"left","response":"right","rt":30.300000011921,"correct":false,"confidence":1},{"trial_n":114,"n_dots":4.65,"target":"left","response":"right","rt":543.5,"correct":false,"confidence":1},{"trial_n":115,"n_dots":4.75,"target":"left","response":"left","rt":25.5,"correct":true,"confidence":1},{"trial_n":116,"n_dots":4.75,"target":"right","response":"left","rt":146.30000001192,"correct":false,"confidence":1},{"trial_n":117,"n_dots":4.85,"target":"left","response":"left","rt":102.80000001192,"correct":true,"confidence":1},{"trial_n":118,"n_dots":4.85,"target":"right","response":"right","rt":11,"correct":true,"confidence":1},{"trial_n":119,"n_dots":4.75,"target":"right","response":"right","rt":128.20000000298,"correct":true,"confidence":1},{"trial_n":120,"n_dots":4.75,"target":"left","response":"left","rt":103.20000000298,"correct":true,"confidence":1}]