[{"trial_n":1,"min":25,"max":230,"target":"present","response":"present","rt":5828.8000000119,"correct":true,"confidence":-1},{"trial_n":2,"min":25,"max":230,"target":"present","response":"present","rt":2309.8000000119,"correct":true,"confidence":-1},{"trial_n":3,"min":41,"max":214,"target":"absent","response":"absent","rt":755.90000000596,"correct":true,"confidence":-1},{"trial_n":4,"min":41,"max":214,"target":"absent","response":"absent","rt":423.5,"correct":true,"confidence":-1},{"trial_n":5,"min":57,"max":198,"target":"present","response":"present","rt":1037.3999999762,"correct":true,"confidence":-1},{"trial_n":6,"min":57,"max":198,"target":"absent","response":"absent","rt":509.30000001192,"correct":true,"confidence":-1},{"trial_n":7,"min":73,"max":182,"target":"absent","response":"absent","rt":424.09999999404,"correct":true,"confidence":-1},{"trial_n":8,"min":73,"max":182,"target":"present","response":"absent","rt":570.69999998808,"correct":false,"confidence":-1},{"trial_n":9,"min":57,"max":198,"target":"present","response":"present","rt":355.19999998808,"correct":true,"confidence":-1},{"trial_n":10,"min":57,"max":198,"target":"absent","response":"present","rt":441.59999999404,"correct":false,"confidence":-1},{"trial_n":11,"min":49,"max":206,"target":"present","response":"present","rt":460.09999999404,"correct":true,"confidence":-1},{"trial_n":12,"min":49,"max":206,"target":"absent","response":"absent","rt":412.70000001788,"correct":true,"confidence":-1},{"trial_n":13,"min":57,"max":198,"target":"present","response":"present","rt":453.19999998808,"correct":true,"confidence":-1},{"trial_n":14,"min":57,"max":198,"target":"absent","response":"absent","rt":310.90000000596,"correct":true,"confidence":-1},{"trial_n":15,"min":65,"max":190,"target":"present","response":"present","rt":778.79999998212,"correct":true,"confidence":-1},{"trial_n":16,"min":65,"max":190,"target":"present","response":"absent","rt":219.5,"correct":false,"confidence":-1},{"trial_n":17,"min":57,"max":198,"target":"present","response":"present","rt":1239.8999999762,"correct":true,"confidence":-1},{"trial_n":18,"min":57,"max":198,"target":"absent","response":"absent","rt":351.29999998212,"correct":true,"confidence":-1},{"trial_n":19,"min":65,"max":190,"target":"absent","response":"absent","rt":437.40000000596,"correct":true,"confidence":-1},{"trial_n":20,"min":65,"max":190,"target":"present","response":"present","rt":364,"correct":true,"confidence":-1},{"trial_n":21,"min":69,"max":186,"target":"present","response":"absent","rt":512.40000000596,"correct":false,"confidence":5},{"trial_n":22,"min":65,"max":190,"target":"present","response":"present","rt":553.40000000596,"correct":true,"confidence":5},{"trial_n":23,"min":65,"max":190,"target":"present","response":"present","rt":700.80000001192,"correct":true,"confidence":5},{"trial_n":24,"min":69,"max":186,"target":"present","response":"present","rt":736.09999999404,"correct":true,"confidence":5},{"trial_n":25,"min":69,"max":186,"target":"absent","response":"absent","rt":604.40000000596,"correct":true,"confidence":4},{"trial_n":26,"min":73,"max":182,"target":"absent","response":"present","rt":1045.8000000119,"correct":false,"confidence":4},{"trial_n":27,"min":69,"max":186,"target":"absent","response":"present","rt":1128.3000000119,"correct":false,"confidence":4},{"trial_n":28,"min":65,"max":190,"target":"absent","response":"present","rt":1232.3000000119,"correct":false,"confidence":3},{"trial_n":29,"min":61,"max":194,"target":"present","response":"present","rt":677.69999998808,"correct":true,"confidence":5},{"trial_n":30,"min":61,"max":194,"target":"present","response":"present","rt":924.19999998808,"correct":true,"confidence":5},{"trial_n":31,"min":63,"max":192,"target":"absent","response":"absent","rt":748.80000001192,"correct":true,"confidence":4},{"trial_n":32,"min":63,"max":192,"target":"absent","response":"absent","rt":1830.3000000119,"correct":true,"confidence":2},{"trial_n":33,"min":65,"max":190,"target":"present","response":"present","rt":863.5,"correct":true,"confidence":5},{"trial_n":34,"min":65,"max":190,"target":"absent","response":"present","rt":1754.2000000179,"correct":false,"confidence":3},{"trial_n":35,"min":63,"max":192,"target":"absent","response":"present","rt":969.09999999404,"correct":false,"confidence":4},{"trial_n":36,"min":61,"max":194,"target":"present","response":"present","rt":728.40000000596,"correct":true,"confidence":5},{"trial_n":37,"min":61,"max":194,"target":"absent","response":"present","rt":1192.5,"correct":false,"confidence":3},{"trial_n":38,"min":59,"max":196,"target":"present","response":"present","rt":578.80000001192,"correct":true,"confidence":5},{"trial_n":39,"min":59,"max":196,"target":"absent","response":"absent","rt":1012,"correct":true,"confidence":3},{"trial_n":40,"min":61,"max":194,"target":"present","response":"present","rt":834.40000000596,"correct":true,"confidence":5},{"trial_n":41,"min":61,"max":194,"target":"absent","response":"absent","rt":813.59999999404,"correct":true,"confidence":3},{"trial_n":42,"min":62,"max":193,"target":"present","response":"present","rt":889.59999999404,"correct":true,"confidence":5},{"trial_n":43,"min":62,"max":193,"target":"present","response":"present","rt":752.59999999404,"correct":true,"confidence":5},{"trial_n":44,"min":63,"max":192,"target":"present","response":"present","rt":583.30000001192,"correct":true,"confidence":5},{"trial_n":45,"min":63,"max":192,"target":"present","response":"present","rt":491.30000001192,"correct":true,"confidence":5},{"trial_n":46,"min":64,"max":191,"target":"present","response":"present","rt":699.30000001192,"correct":true,"confidence":5},{"trial_n":47,"min":64,"max":191,"target":"absent","response":"absent","rt":683,"correct":true,"confidence":5},{"trial_n":48,"min":65,"max":190,"target":"present","response":"present","rt":798.5,"correct":true,"confidence":5},{"trial_n":49,"min":65,"max":190,"target":"absent","response":"absent","rt":743.19999998808,"correct":true,"confidence":4},{"trial_n":50,"min":66,"max":189,"target":"absent","response":"absent","rt":378.5,"correct":true,"confidence":5},{"trial_n":51,"min":66,"max":189,"target":"present","response":"present","rt":667.5,"correct":true,"confidence":5},{"trial_n":52,"min":67,"max":188,"target":"absent","response":"absent","rt":1547.8000000119,"correct":true,"confidence":5},{"trial_n":53,"min":67,"max":188,"target":"absent","response":"present","rt":1442.099999994,"correct":false,"confidence":3},{"trial_n":54,"min":66,"max":189,"target":"present","response":"present","rt":978.59999999404,"correct":true,"confidence":4},{"trial_n":55,"min":66,"max":189,"target":"present","response":"present","rt":633.39999997616,"correct":true,"confidence":5},{"trial_n":56,"min":67,"max":188,"target":"absent","response":"absent","rt":781.39999997616,"correct":true,"confidence":4},{"trial_n":57,"min":67,"max":188,"target":"absent","response":"absent","rt":927.89999997616,"correct":true,"confidence":5},{"trial_n":58,"min":68,"max":187,"target":"absent","response":"present","rt":2414.3000000119,"correct":false,"confidence":2},{"trial_n":59,"min":67,"max":188,"target":"absent","response":"present","rt":2724.400000006,"correct":false,"confidence":2},{"trial_n":60,"min":66,"max":189,"target":"present","response":"present","rt":643.5,"correct":true,"confidence":5},{"trial_n":61,"min":66,"max":189,"target":"present","response":"present","rt":922.80000001192,"correct":true,"confidence":5},{"trial_n":62,"min":67,"max":188,"target":"absent","response":"absent","rt":721.79999998212,"correct":true,"confidence":5},{"trial_n":63,"min":67,"max":188,"target":"present","response":"present","rt":635.5,"correct":true,"confidence":5},{"trial_n":64,"min":68,"max":187,"target":"present","response":"present","rt":652.19999998808,"correct":true,"confidence":5},{"trial_n":65,"min":68,"max":187,"target":"absent","response":"absent","rt":503.09999999404,"correct":true,"confidence":5},{"trial_n":66,"min":69,"max":186,"target":"present","response":"present","rt":826.40000000596,"correct":true,"confidence":5},{"trial_n":67,"min":69,"max":186,"target":"absent","response":"absent","rt":535.59999999404,"correct":true,"confidence":5},{"trial_n":68,"min":70,"max":185,"target":"absent","response":"absent","rt":644.69999998808,"correct":true,"confidence":5},{"trial_n":69,"min":70,"max":185,"target":"present","response":"present","rt":630.5,"correct":true,"confidence":5},{"trial_n":70,"min":71,"max":184,"target":"absent","response":"absent","rt":431.69999998808,"correct":true,"confidence":5},{"trial_n":71,"min":41,"max":214,"target":"present","response":"present","rt":3927.5,"correct":true,"confidence":-1},{"trial_n":72,"min":41,"max":214,"target":"present","response":"present","rt":597.80000001192,"correct":true,"confidence":-1},{"trial_n":73,"min":57,"max":198,"target":"absent","response":"absent","rt":528.20000001788,"correct":true,"confidence":-1},{"trial_n":74,"min":57,"max":198,"target":"absent","response":"absent","rt":478.90000000596,"correct":true,"confidence":-1},{"trial_n":75,"min":73,"max":182,"target":"present","response":"present","rt":512.5,"correct":true,"confidence":-1},{"trial_n":76,"min":73,"max":182,"target":"present","response":"present","rt":435.5,"correct":true,"confidence":-1},{"trial_n":77,"min":89,"max":166,"target":"absent","response":"absent","rt":722.70000001788,"correct":true,"confidence":-1},{"trial_n":78,"min":89,"max":166,"target":"absent","response":"absent","rt":772.19999998808,"correct":true,"confidence":-1},{"trial_n":79,"min":105,"max":150,"target":"absent","response":"absent","rt":1127.599999994,"correct":true,"confidence":-1},{"trial_n":80,"min":105,"max":150,"target":"absent","response":"absent","rt":508.90000000596,"correct":true,"confidence":-1},{"trial_n":81,"min":113,"max":142,"target":"present","response":"present","rt":807.59999999404,"correct":true,"confidence":-1},{"trial_n":82,"min":113,"max":142,"target":"absent","response":"present","rt":549.40000000596,"correct":false,"confidence":-1},{"trial_n":83,"min":105,"max":150,"target":"present","response":"present","rt":996.30000001192,"correct":true,"confidence":-1},{"trial_n":84,"min":105,"max":150,"target":"absent","response":"present","rt":462.5,"correct":false,"confidence":-1},{"trial_n":85,"min":97,"max":158,"target":"present","response":"absent","rt":1166.7000000179,"correct":false,"confidence":-1},{"trial_n":86,"min":89,"max":166,"target":"absent","response":"present","rt":874.69999998808,"correct":false,"confidence":-1},{"trial_n":87,"min":81,"max":174,"target":"present","response":"present","rt":534.90000000596,"correct":true,"confidence":-1},{"trial_n":88,"min":81,"max":174,"target":"present","response":"present","rt":741.29999998212,"correct":true,"confidence":-1},{"trial_n":89,"min":89,"max":166,"target":"absent","response":"absent","rt":481.40000000596,"correct":true,"confidence":-1},{"trial_n":90,"min":89,"max":166,"target":"absent","response":"absent","rt":874.29999998212,"correct":true,"confidence":-1},{"trial_n":91,"min":93,"max":162,"target":"present","response":"present","rt":2158.1999999881,"correct":true,"confidence":1},{"trial_n":92,"min":93,"max":162,"target":"absent","response":"absent","rt":739.80000001192,"correct":true,"confidence":4},{"trial_n":93,"min":97,"max":158,"target":"present","response":"absent","rt":925.19999998808,"correct":false,"confidence":3},{"trial_n":94,"min":93,"max":162,"target":"present","response":"absent","rt":1874.599999994,"correct":false,"confidence":1},{"trial_n":95,"min":89,"max":166,"target":"absent","response":"absent","rt":1011.2999999821,"correct":true,"confidence":3},{"trial_n":96,"min":89,"max":166,"target":"present","response":"absent","rt":992.40000000596,"correct":false,"confidence":3},{"trial_n":97,"min":85,"max":170,"target":"absent","response":"present","rt":1326.400000006,"correct":false,"confidence":1},{"trial_n":98,"min":81,"max":174,"target":"present","response":"present","rt":402,"correct":true,"confidence":4},{"trial_n":99,"min":81,"max":174,"target":"present","response":"present","rt":458.90000000596,"correct":true,"confidence":3},{"trial_n":100,"min":85,"max":170,"target":"absent","response":"absent","rt":920.09999999404,"correct":true,"confidence":3},{"trial_n":101,"min":85,"max":170,"target":"present","response":"present","rt":433.29999998212,"correct":true,"confidence":5},{"trial_n":102,"min":87,"max":168,"target":"absent","response":"absent","rt":798.80000001192,"correct":true,"confidence":4},{"trial_n":103,"min":87,"max":168,"target":"present","response":"present","rt":537.20000001788,"correct":true,"confidence":4},{"trial_n":104,"min":89,"max":166,"target":"absent","response":"absent","rt":872.19999998808,"correct":true,"confidence":4},{"trial_n":105,"min":89,"max":166,"target":"present","response":"present","rt":334.30000001192,"correct":true,"confidence":5},{"trial_n":106,"min":91,"max":164,"target":"absent","response":"absent","rt":2590.5,"correct":true,"confidence":1},{"trial_n":107,"min":91,"max":164,"target":"absent","response":"present","rt":587.90000000596,"correct":false,"confidence":2},{"trial_n":108,"min":89,"max":166,"target":"absent","response":"present","rt":590.90000000596,"correct":false,"confidence":2},{"trial_n":109,"min":87,"max":168,"target":"absent","response":"present","rt":641.70000001788,"correct":false,"confidence":2},{"trial_n":110,"min":85,"max":170,"target":"absent","response":"absent","rt":2479.400000006,"correct":true,"confidence":1},{"trial_n":111,"min":85,"max":170,"target":"absent","response":"absent","rt":841.69999998808,"correct":true,"confidence":5},{"trial_n":112,"min":86,"max":169,"target":"absent","response":"absent","rt":1763.6999999881,"correct":true,"confidence":5},{"trial_n":113,"min":86,"max":169,"target":"present","response":"present","rt":420.90000000596,"correct":true,"confidence":4},{"trial_n":114,"min":87,"max":168,"target":"absent","response":"present","rt":1504.2999999821,"correct":false,"confidence":2},{"trial_n":115,"min":86,"max":169,"target":"absent","response":"absent","rt":1009.8000000119,"correct":true,"confidence":3},{"trial_n":116,"min":86,"max":169,"target":"absent","response":"absent","rt":940.80000001192,"correct":true,"confidence":3},{"trial_n":117,"min":87,"max":168,"target":"present","response":"present","rt":386.20000001788,"correct":true,"confidence":5},{"trial_n":118,"min":87,"max":168,"target":"present","response":"present","rt":525.19999998808,"correct":true,"confidence":5},{"trial_n":119,"min":88,"max":167,"target":"absent","response":"present","rt":535.90000000596,"correct":false,"confidence":4},{"trial_n":120,"min":87,"max":168,"target":"present","response":"present","rt":3240.599999994,"correct":true,"confidence":2},{"trial_n":121,"min":87,"max":168,"target":"present","response":"present","rt":357.59999999404,"correct":true,"confidence":5},{"trial_n":122,"min":88,"max":167,"target":"absent","response":"present","rt":1082.1999999881,"correct":false,"confidence":2},{"trial_n":123,"min":87,"max":168,"target":"present","response":"present","rt":400.5,"correct":true,"confidence":5},{"trial_n":124,"min":87,"max":168,"target":"present","response":"present","rt":354.69999998808,"correct":true,"confidence":5},{"trial_n":125,"min":88,"max":167,"target":"present","response":"present","rt":618.89999997616,"correct":true,"confidence":4},{"trial_n":126,"min":88,"max":167,"target":"present","response":"present","rt":730.80000001192,"correct":true,"confidence":3},{"trial_n":127,"min":89,"max":166,"target":"present","response":"present","rt":384.70000001788,"correct":true,"confidence":4},{"trial_n":128,"min":89,"max":166,"target":"absent","response":"absent","rt":1625.8999999762,"correct":true,"confidence":2},{"trial_n":129,"min":90,"max":165,"target":"absent","response":"absent","rt":853.5,"correct":true,"confidence":3},{"trial_n":130,"min":90,"max":165,"target":"present","response":"present","rt":493.40000000596,"correct":true,"confidence":4},{"trial_n":131,"min":91,"max":164,"target":"present","response":"present","rt":377.59999999404,"correct":true,"confidence":4},{"trial_n":132,"min":91,"max":164,"target":"present","response":"present","rt":1645.099999994,"correct":true,"confidence":2},{"trial_n":133,"min":92,"max":163,"target":"absent","response":"absent","rt":623.09999999404,"correct":true,"confidence":1},{"trial_n":134,"min":92,"max":163,"target":"absent","response":"present","rt":1309.5,"correct":false,"confidence":2},{"trial_n":135,"min":91,"max":164,"target":"present","response":"present","rt":331.80000001192,"correct":true,"confidence":5},{"trial_n":136,"min":91,"max":164,"target":"present","response":"present","rt":1687.3999999762,"correct":true,"confidence":1},{"trial_n":137,"min":92,"max":163,"target":"present","response":"present","rt":556.19999998808,"correct":true,"confidence":3},{"trial_n":138,"min":92,"max":163,"target":"absent","response":"absent","rt":976.09999999404,"correct":true,"confidence":3},{"trial_n":139,"min":93,"max":162,"target":"present","response":"present","rt":811.70000001788,"correct":true,"confidence":2},{"trial_n":140,"min":93,"max":162,"target":"present","response":"present","rt":540.09999999404,"correct":true,"confidence":3}]