[{"trial_n":1,"n_dots":4.25,"target":"left","response":"right","rt":1132,"correct":false,"confidence":-1},{"trial_n":2,"n_dots":4.25,"target":"right","response":"right","rt":903,"correct":true,"confidence":-1},{"trial_n":3,"n_dots":4.25,"target":"right","response":"right","rt":599,"correct":true,"confidence":-1},{"trial_n":4,"n_dots":3.85,"target":"right","response":"left","rt":1131,"correct":false,"confidence":-1},{"trial_n":5,"n_dots":4.25,"target":"left","response":"left","rt":309,"correct":true,"confidence":-1},{"trial_n":6,"n_dots":4.25,"target":"left","response":"right","rt":552,"correct":false,"confidence":-1},{"trial_n":7,"n_dots":4.65,"target":"left","response":"left","rt":424,"correct":true,"confidence":-1},{"trial_n":8,"n_dots":4.65,"target":"left","response":"left","rt":498.00000000001,"correct":true,"confidence":-1},{"trial_n":9,"n_dots":4.45,"target":"left","response":"left","rt":539.99999999999,"correct":true,"confidence":-1},{"trial_n":10,"n_dots":4.45,"target":"left","response":"left","rt":615,"correct":true,"confidence":-1},{"trial_n":11,"n_dots":4.25,"target":"left","response":"left","rt":402,"correct":true,"confidence":-1},{"trial_n":12,"n_dots":4.25,"target":"right","response":"right","rt":480,"correct":true,"confidence":-1},{"trial_n":13,"n_dots":4.15,"target":"left","response":"left","rt":822,"correct":true,"confidence":-1},{"trial_n":14,"n_dots":4.15,"target":"right","response":"right","rt":759,"correct":true,"confidence":-1},{"trial_n":15,"n_dots":4.05,"target":"right","response":"right","rt":480.99999999999,"correct":true,"confidence":-1},{"trial_n":16,"n_dots":4.05,"target":"right","response":"right","rt":564,"correct":true,"confidence":-1},{"trial_n":17,"n_dots":3.95,"target":"left","response":"left","rt":1595,"correct":true,"confidence":-1},{"trial_n":18,"n_dots":3.95,"target":"right","response":"left","rt":1278,"correct":false,"confidence":-1},{"trial_n":19,"n_dots":4.05,"target":"left","response":"left","rt":683,"correct":true,"confidence":-1},{"trial_n":20,"n_dots":4.05,"target":"right","response":"right","rt":862,"correct":true,"confidence":-1},{"trial_n":21,"n_dots":3.95,"target":"right","response":"right","rt":472.99999999997,"correct":true,"confidence":3},{"trial_n":22,"n_dots":3.95,"target":"left","response":"right","rt":533,"correct":false,"confidence":4},{"trial_n":23,"n_dots":4.05,"target":"left","response":"left","rt":716,"correct":true,"confidence":3},{"trial_n":24,"n_dots":4.05,"target":"right","response":"right","rt":481,"correct":true,"confidence":4},{"trial_n":25,"n_dots":3.95,"target":"left","response":"left","rt":1181,"correct":true,"confidence":3},{"trial_n":26,"n_dots":3.95,"target":"left","response":"right","rt":5677,"correct":false,"confidence":3},{"trial_n":27,"n_dots":4.05,"target":"left","response":"right","rt":425,"correct":false,"confidence":3},{"trial_n":28,"n_dots":4.15,"target":"left","response":"left","rt":448,"correct":true,"confidence":4},{"trial_n":29,"n_dots":4.15,"target":"right","response":"right","rt":432,"correct":true,"confidence":4},{"trial_n":30,"n_dots":4.05,"target":"left","response":"left","rt":563,"correct":true,"confidence":3},{"trial_n":31,"n_dots":4.05,"target":"right","response":"right","rt":1034,"correct":true,"confidence":4},{"trial_n":32,"n_dots":3.95,"target":"left","response":"left","rt":969.00000000003,"correct":true,"confidence":3},{"trial_n":33,"n_dots":3.95,"target":"left","response":"left","rt":662,"correct":true,"confidence":4},{"trial_n":34,"n_dots":3.85,"target":"right","response":"right","rt":605,"correct":true,"confidence":3},{"trial_n":35,"n_dots":3.85,"target":"right","response":"right","rt":779,"correct":true,"confidence":3},{"trial_n":36,"n_dots":3.75,"target":"right","response":"right","rt":1109,"correct":true,"confidence":2},{"trial_n":37,"n_dots":3.75,"target":"left","response":"left","rt":527.99999999997,"correct":true,"confidence":3},{"trial_n":38,"n_dots":3.65,"target":"right","response":"right","rt":564.99999999997,"correct":true,"confidence":4},{"trial_n":39,"n_dots":3.65,"target":"right","response":"left","rt":1692,"correct":false,"confidence":3},{"trial_n":40,"n_dots":3.75,"target":"right","response":"right","rt":237.00000000003,"correct":true,"confidence":4},{"trial_n":41,"n_dots":3.75,"target":"left","response":"right","rt":372,"correct":false,"confidence":2},{"trial_n":42,"n_dots":3.85,"target":"left","response":"left","rt":356,"correct":true,"confidence":3},{"trial_n":43,"n_dots":3.85,"target":"right","response":"right","rt":1003,"correct":true,"confidence":4},{"trial_n":44,"n_dots":3.75,"target":"left","response":"left","rt":17534,"correct":true,"confidence":2},{"trial_n":45,"n_dots":3.75,"target":"right","response":"right","rt":96.000000000058,"correct":true,"confidence":4},{"trial_n":46,"n_dots":3.65,"target":"right","response":"right","rt":671,"correct":true,"confidence":3},{"trial_n":47,"n_dots":3.65,"target":"right","response":"right","rt":450.00000000006,"correct":true,"confidence":4},{"trial_n":48,"n_dots":3.55,"target":"right","response":"right","rt":864,"correct":true,"confidence":2},{"trial_n":49,"n_dots":3.55,"target":"left","response":"left","rt":550,"correct":true,"confidence":3},{"trial_n":50,"n_dots":3.45,"target":"left","response":"right","rt":995.00000000006,"correct":false,"confidence":2},{"trial_n":51,"n_dots":3.55,"target":"left","response":"right","rt":457.00000000006,"correct":false,"confidence":4},{"trial_n":52,"n_dots":3.65,"target":"left","response":"left","rt":509,"correct":true,"confidence":3},{"trial_n":53,"n_dots":3.65,"target":"left","response":"right","rt":1097.0000000001,"correct":false,"confidence":3},{"trial_n":54,"n_dots":3.75,"target":"right","response":"right","rt":821,"correct":true,"confidence":3},{"trial_n":55,"n_dots":3.75,"target":"left","response":"left","rt":612,"correct":true,"confidence":2},{"trial_n":56,"n_dots":3.65,"target":"right","response":"right","rt":722,"correct":true,"confidence":4},{"trial_n":57,"n_dots":3.65,"target":"right","response":"right","rt":599,"correct":true,"confidence":3},{"trial_n":58,"n_dots":3.55,"target":"right","response":"right","rt":535,"correct":true,"confidence":3},{"trial_n":59,"n_dots":3.55,"target":"right","response":"right","rt":3918.9999999999,"correct":true,"confidence":3},{"trial_n":60,"n_dots":3.45,"target":"right","response":"left","rt":4201,"correct":false,"confidence":4},{"trial_n":61,"n_dots":3.55,"target":"right","response":"right","rt":785,"correct":true,"confidence":3},{"trial_n":62,"n_dots":3.55,"target":"right","response":"right","rt":673,"correct":true,"confidence":4},{"trial_n":63,"n_dots":3.45,"target":"left","response":"right","rt":409.99999999988,"correct":false,"confidence":3},{"trial_n":64,"n_dots":3.55,"target":"left","response":"left","rt":556,"correct":true,"confidence":3},{"trial_n":65,"n_dots":3.55,"target":"left","response":"right","rt":597,"correct":false,"confidence":4},{"trial_n":66,"n_dots":3.65,"target":"right","response":"right","rt":393,"correct":true,"confidence":3},{"trial_n":67,"n_dots":3.65,"target":"left","response":"right","rt":462,"correct":false,"confidence":4},{"trial_n":68,"n_dots":3.75,"target":"left","response":"right","rt":461,"correct":false,"confidence":3},{"trial_n":69,"n_dots":3.85,"target":"right","response":"right","rt":322,"correct":true,"confidence":4},{"trial_n":70,"n_dots":3.85,"target":"left","response":"right","rt":478,"correct":false,"confidence":3},{"trial_n":71,"n_dots":3.95,"target":"left","response":"right","rt":782.99999999988,"correct":false,"confidence":2},{"trial_n":72,"n_dots":4.05,"target":"left","response":"left","rt":519,"correct":true,"confidence":3},{"trial_n":73,"n_dots":4.05,"target":"right","response":"right","rt":566,"correct":true,"confidence":4},{"trial_n":74,"n_dots":3.95,"target":"left","response":"left","rt":448,"correct":true,"confidence":3},{"trial_n":75,"n_dots":3.95,"target":"left","response":"left","rt":521,"correct":true,"confidence":4},{"trial_n":76,"n_dots":3.85,"target":"right","response":"right","rt":684,"correct":true,"confidence":3},{"trial_n":77,"n_dots":3.85,"target":"left","response":"right","rt":303,"correct":false,"confidence":3},{"trial_n":78,"n_dots":3.95,"target":"left","response":"left","rt":2477.9999999999,"correct":true,"confidence":4},{"trial_n":79,"n_dots":3.95,"target":"right","response":"right","rt":2849,"correct":true,"confidence":2},{"trial_n":80,"n_dots":3.85,"target":"right","response":"right","rt":488,"correct":true,"confidence":4},{"trial_n":81,"n_dots":3.85,"target":"right","response":"right","rt":454,"correct":true,"confidence":5},{"trial_n":82,"n_dots":3.75,"target":"right","response":"right","rt":1187,"correct":true,"confidence":3},{"trial_n":83,"n_dots":3.75,"target":"right","response":"right","rt":496.99999999988,"correct":true,"confidence":4},{"trial_n":84,"n_dots":3.65,"target":"left","response":"right","rt":427,"correct":false,"confidence":4},{"trial_n":85,"n_dots":3.75,"target":"left","response":"left","rt":411,"correct":true,"confidence":3},{"trial_n":86,"n_dots":3.75,"target":"right","response":"right","rt":447,"correct":true,"confidence":4},{"trial_n":87,"n_dots":3.65,"target":"left","response":"left","rt":485,"correct":true,"confidence":2},{"trial_n":88,"n_dots":3.65,"target":"right","response":"right","rt":442.99999999988,"correct":true,"confidence":3},{"trial_n":89,"n_dots":3.55,"target":"left","response":"right","rt":2528.0000000001,"correct":false,"confidence":4},{"trial_n":90,"n_dots":3.65,"target":"right","response":"right","rt":424,"correct":true,"confidence":3},{"trial_n":91,"n_dots":3.65,"target":"right","response":"right","rt":462,"correct":true,"confidence":4},{"trial_n":92,"n_dots":3.55,"target":"right","response":"right","rt":440.99999999988,"correct":true,"confidence":3},{"trial_n":93,"n_dots":3.55,"target":"right","response":"right","rt":468,"correct":true,"confidence":4},{"trial_n":94,"n_dots":3.45,"target":"right","response":"right","rt":484,"correct":true,"confidence":3},{"trial_n":95,"n_dots":3.45,"target":"right","response":"right","rt":633,"correct":true,"confidence":4},{"trial_n":96,"n_dots":3.35,"target":"right","response":"right","rt":445,"correct":true,"confidence":4},{"trial_n":97,"n_dots":3.35,"target":"left","response":"right","rt":467,"correct":false,"confidence":4},{"trial_n":98,"n_dots":3.45,"target":"left","response":"left","rt":516,"correct":true,"confidence":3},{"trial_n":99,"n_dots":3.45,"target":"left","response":"left","rt":631,"correct":true,"confidence":3},{"trial_n":100,"n_dots":3.35,"target":"right","response":"right","rt":474.99999999988,"correct":true,"confidence":4},{"trial_n":101,"n_dots":3.35,"target":"left","response":"right","rt":405.00000000023,"correct":false,"confidence":4},{"trial_n":102,"n_dots":3.45,"target":"left","response":"right","rt":694.99999999988,"correct":false,"confidence":2},{"trial_n":103,"n_dots":3.55,"target":"right","response":"right","rt":472,"correct":true,"confidence":3},{"trial_n":104,"n_dots":3.55,"target":"left","response":"right","rt":1176,"correct":false,"confidence":4},{"trial_n":105,"n_dots":3.65,"target":"left","response":"right","rt":667,"correct":false,"confidence":2},{"trial_n":106,"n_dots":3.75,"target":"right","response":"right","rt":503,"correct":true,"confidence":4},{"trial_n":107,"n_dots":3.75,"target":"right","response":"right","rt":412,"correct":true,"confidence":4},{"trial_n":108,"n_dots":3.65,"target":"left","response":"left","rt":404.99999999977,"correct":true,"confidence":4},{"trial_n":109,"n_dots":3.65,"target":"right","response":"left","rt":470,"correct":false,"confidence":3},{"trial_n":110,"n_dots":3.75,"target":"left","response":"right","rt":532,"correct":false,"confidence":4},{"trial_n":111,"n_dots":3.85,"target":"left","response":"right","rt":627,"correct":false,"confidence":4},{"trial_n":112,"n_dots":3.95,"target":"right","response":"right","rt":252.00000000023,"correct":true,"confidence":3},{"trial_n":113,"n_dots":3.95,"target":"right","response":"right","rt":468,"correct":true,"confidence":4},{"trial_n":114,"n_dots":3.85,"target":"left","response":"left","rt":449,"correct":true,"confidence":4},{"trial_n":115,"n_dots":3.85,"target":"left","response":"left","rt":423,"correct":true,"confidence":4},{"trial_n":116,"n_dots":3.75,"target":"right","response":"right","rt":464.00000000023,"correct":true,"confidence":3},{"trial_n":117,"n_dots":3.75,"target":"left","response":"left","rt":402,"correct":true,"confidence":3},{"trial_n":118,"n_dots":3.65,"target":"left","response":"left","rt":455,"correct":true,"confidence":4},{"trial_n":119,"n_dots":3.65,"target":"right","response":"right","rt":374,"correct":true,"confidence":3},{"trial_n":120,"n_dots":3.55,"target":"right","response":"right","rt":250,"correct":true,"confidence":3}]