[{"trial_n":1,"min":25,"max":230,"target":"present","response":"absent","rt":9414.2000000477,"correct":false,"confidence":-1},{"trial_n":2,"min":25,"max":230,"target":"present","response":"absent","rt":6285,"correct":false,"confidence":-1},{"trial_n":3,"min":9,"max":246,"target":"absent","response":"present","rt":1779.5,"correct":false,"confidence":-1},{"trial_n":4,"min":0,"max":255,"target":"absent","response":"absent","rt":1190.6000001431,"correct":true,"confidence":-1},{"trial_n":5,"min":0,"max":255,"target":"present","response":"present","rt":1638.2999999523,"correct":true,"confidence":-1},{"trial_n":6,"min":16,"max":239,"target":"present","response":"present","rt":739.20000004768,"correct":true,"confidence":-1},{"trial_n":7,"min":16,"max":239,"target":"present","response":"present","rt":502.40000009537,"correct":true,"confidence":-1},{"trial_n":8,"min":32,"max":223,"target":"absent","response":"absent","rt":994.89999985695,"correct":true,"confidence":-1},{"trial_n":9,"min":32,"max":223,"target":"present","response":"present","rt":661,"correct":true,"confidence":-1},{"trial_n":10,"min":48,"max":207,"target":"absent","response":"absent","rt":746.09999990463,"correct":true,"confidence":-1},{"trial_n":11,"min":48,"max":207,"target":"present","response":"present","rt":906,"correct":true,"confidence":-1},{"trial_n":12,"min":56,"max":199,"target":"absent","response":"absent","rt":762.70000004768,"correct":true,"confidence":-1},{"trial_n":13,"min":56,"max":199,"target":"present","response":"present","rt":660.79999995232,"correct":true,"confidence":-1},{"trial_n":14,"min":64,"max":191,"target":"absent","response":"absent","rt":719.5,"correct":true,"confidence":-1},{"trial_n":15,"min":64,"max":191,"target":"absent","response":"absent","rt":703.79999995232,"correct":true,"confidence":-1},{"trial_n":16,"min":72,"max":183,"target":"absent","response":"absent","rt":645.29999995232,"correct":true,"confidence":-1},{"trial_n":17,"min":72,"max":183,"target":"present","response":"present","rt":1051.6999998093,"correct":true,"confidence":-1},{"trial_n":18,"min":80,"max":175,"target":"present","response":"present","rt":1046.2000000477,"correct":true,"confidence":-1},{"trial_n":19,"min":80,"max":175,"target":"absent","response":"absent","rt":595.69999980927,"correct":true,"confidence":-1},{"trial_n":20,"min":88,"max":167,"target":"present","response":"absent","rt":941.70000004768,"correct":false,"confidence":-1},{"trial_n":21,"min":84,"max":171,"target":"present","response":"present","rt":2245.6000001431,"correct":true,"confidence":2},{"trial_n":22,"min":84,"max":171,"target":"present","response":"present","rt":746.79999995232,"correct":true,"confidence":4},{"trial_n":23,"min":88,"max":167,"target":"absent","response":"absent","rt":854.20000004768,"correct":true,"confidence":4},{"trial_n":24,"min":88,"max":167,"target":"present","response":"absent","rt":977.10000014305,"correct":false,"confidence":3},{"trial_n":25,"min":84,"max":171,"target":"present","response":"absent","rt":1133.2999999523,"correct":false,"confidence":2},{"trial_n":26,"min":80,"max":175,"target":"present","response":"present","rt":2686.5,"correct":true,"confidence":2},{"trial_n":27,"min":80,"max":175,"target":"absent","response":"absent","rt":636.80000019073,"correct":true,"confidence":3},{"trial_n":28,"min":84,"max":171,"target":"present","response":"absent","rt":767.5,"correct":false,"confidence":3},{"trial_n":29,"min":80,"max":175,"target":"present","response":"present","rt":815.89999985695,"correct":true,"confidence":3},{"trial_n":30,"min":80,"max":175,"target":"present","response":"present","rt":652.80000019073,"correct":true,"confidence":4},{"trial_n":31,"min":82,"max":173,"target":"present","response":"present","rt":3216.2000000477,"correct":true,"confidence":1},{"trial_n":32,"min":82,"max":173,"target":"absent","response":"absent","rt":1300,"correct":true,"confidence":1},{"trial_n":33,"min":84,"max":171,"target":"present","response":"present","rt":746.79999995232,"correct":true,"confidence":3},{"trial_n":34,"min":84,"max":171,"target":"absent","response":"absent","rt":854.5,"correct":true,"confidence":3},{"trial_n":35,"min":86,"max":169,"target":"present","response":"absent","rt":1207.7000000477,"correct":false,"confidence":2},{"trial_n":36,"min":84,"max":171,"target":"present","response":"present","rt":751.29999995232,"correct":true,"confidence":2},{"trial_n":37,"min":84,"max":171,"target":"absent","response":"absent","rt":808.70000004768,"correct":true,"confidence":4},{"trial_n":38,"min":86,"max":169,"target":"absent","response":"absent","rt":968.29999995232,"correct":true,"confidence":3},{"trial_n":39,"min":86,"max":169,"target":"absent","response":"absent","rt":808.09999990463,"correct":true,"confidence":2},{"trial_n":40,"min":88,"max":167,"target":"present","response":"absent","rt":993.90000009537,"correct":false,"confidence":2},{"trial_n":41,"min":87,"max":168,"target":"absent","response":"absent","rt":1334.1999998093,"correct":true,"confidence":1},{"trial_n":42,"min":87,"max":168,"target":"absent","response":"absent","rt":3001.2999999523,"correct":true,"confidence":2},{"trial_n":43,"min":88,"max":167,"target":"present","response":"present","rt":793.59999990463,"correct":true,"confidence":2},{"trial_n":44,"min":88,"max":167,"target":"absent","response":"absent","rt":872.19999980927,"correct":true,"confidence":3},{"trial_n":45,"min":89,"max":166,"target":"present","response":"absent","rt":1263.2000000477,"correct":false,"confidence":2},{"trial_n":46,"min":88,"max":167,"target":"absent","response":"absent","rt":1635.7000000477,"correct":true,"confidence":2},{"trial_n":47,"min":88,"max":167,"target":"absent","response":"absent","rt":733,"correct":true,"confidence":2},{"trial_n":48,"min":89,"max":166,"target":"absent","response":"present","rt":2440.6999998093,"correct":false,"confidence":2},{"trial_n":49,"min":88,"max":167,"target":"present","response":"absent","rt":1684.7999999523,"correct":false,"confidence":2},{"trial_n":50,"min":87,"max":168,"target":"present","response":"absent","rt":1238,"correct":false,"confidence":2},{"trial_n":51,"min":86,"max":169,"target":"absent","response":"absent","rt":1614.4000000954,"correct":true,"confidence":2},{"trial_n":52,"min":86,"max":169,"target":"absent","response":"absent","rt":923.09999990463,"correct":true,"confidence":2},{"trial_n":53,"min":87,"max":168,"target":"present","response":"absent","rt":2496.1000001431,"correct":false,"confidence":2},{"trial_n":54,"min":86,"max":169,"target":"absent","response":"absent","rt":1350.9000000954,"correct":true,"confidence":2},{"trial_n":55,"min":86,"max":169,"target":"absent","response":"absent","rt":1075.3000001907,"correct":true,"confidence":2},{"trial_n":56,"min":87,"max":168,"target":"absent","response":"absent","rt":1066.2999999523,"correct":true,"confidence":2},{"trial_n":57,"min":87,"max":168,"target":"absent","response":"absent","rt":778.70000004768,"correct":true,"confidence":2},{"trial_n":58,"min":88,"max":167,"target":"present","response":"present","rt":972.90000009537,"correct":true,"confidence":3},{"trial_n":59,"min":88,"max":167,"target":"present","response":"absent","rt":5527.7999999523,"correct":false,"confidence":1},{"trial_n":60,"min":87,"max":168,"target":"absent","response":"present","rt":1004.2999999523,"correct":false,"confidence":3},{"trial_n":61,"min":86,"max":169,"target":"absent","response":"absent","rt":1166,"correct":true,"confidence":1},{"trial_n":62,"min":86,"max":169,"target":"absent","response":"absent","rt":5489.9000000954,"correct":true,"confidence":1},{"trial_n":63,"min":87,"max":168,"target":"present","response":"present","rt":2436.7000000477,"correct":true,"confidence":1},{"trial_n":64,"min":87,"max":168,"target":"present","response":"present","rt":1131.7000000477,"correct":true,"confidence":4},{"trial_n":65,"min":88,"max":167,"target":"absent","response":"absent","rt":870.89999985695,"correct":true,"confidence":2},{"trial_n":66,"min":88,"max":167,"target":"absent","response":"absent","rt":1006.2000000477,"correct":true,"confidence":3},{"trial_n":67,"min":89,"max":166,"target":"absent","response":"absent","rt":840.89999985695,"correct":true,"confidence":2},{"trial_n":68,"min":89,"max":166,"target":"present","response":"present","rt":1064.8000001907,"correct":true,"confidence":3},{"trial_n":69,"min":90,"max":165,"target":"present","response":"absent","rt":1876.2999999523,"correct":false,"confidence":2},{"trial_n":70,"min":89,"max":166,"target":"present","response":"absent","rt":894.79999995232,"correct":false,"confidence":2},{"trial_n":71,"min":41,"max":214,"target":"present","response":"present","rt":5717.5999999046,"correct":true,"confidence":-1},{"trial_n":72,"min":41,"max":214,"target":"present","response":"absent","rt":7587.8999998569,"correct":false,"confidence":-1},{"trial_n":73,"min":25,"max":230,"target":"absent","response":"absent","rt":2293.2000000477,"correct":true,"confidence":-1},{"trial_n":74,"min":25,"max":230,"target":"absent","response":"absent","rt":991.20000004768,"correct":true,"confidence":-1},{"trial_n":75,"min":41,"max":214,"target":"present","response":"present","rt":1294.6999998093,"correct":true,"confidence":-1},{"trial_n":76,"min":41,"max":214,"target":"absent","response":"absent","rt":760.90000009537,"correct":true,"confidence":-1},{"trial_n":77,"min":57,"max":198,"target":"absent","response":"absent","rt":857.59999990463,"correct":true,"confidence":-1},{"trial_n":78,"min":57,"max":198,"target":"present","response":"present","rt":810.79999995232,"correct":true,"confidence":-1},{"trial_n":79,"min":73,"max":182,"target":"present","response":"absent","rt":1993.7999999523,"correct":false,"confidence":-1},{"trial_n":80,"min":57,"max":198,"target":"absent","response":"absent","rt":1071.9000000954,"correct":true,"confidence":-1},{"trial_n":81,"min":57,"max":198,"target":"present","response":"present","rt":926.40000009537,"correct":true,"confidence":-1},{"trial_n":82,"min":65,"max":190,"target":"present","response":"present","rt":777.79999995232,"correct":true,"confidence":-1},{"trial_n":83,"min":65,"max":190,"target":"absent","response":"absent","rt":419.40000009537,"correct":true,"confidence":-1},{"trial_n":84,"min":73,"max":182,"target":"absent","response":"present","rt":1524.2999999523,"correct":false,"confidence":-1},{"trial_n":85,"min":65,"max":190,"target":"present","response":"present","rt":626.29999995232,"correct":true,"confidence":-1},{"trial_n":86,"min":65,"max":190,"target":"present","response":"present","rt":380.5,"correct":true,"confidence":-1},{"trial_n":87,"min":73,"max":182,"target":"absent","response":"absent","rt":646.70000004768,"correct":true,"confidence":-1},{"trial_n":88,"min":73,"max":182,"target":"present","response":"present","rt":658.09999990463,"correct":true,"confidence":-1},{"trial_n":89,"min":81,"max":174,"target":"present","response":"present","rt":631.30000019073,"correct":true,"confidence":-1},{"trial_n":90,"min":81,"max":174,"target":"absent","response":"absent","rt":736.70000004768,"correct":true,"confidence":-1},{"trial_n":91,"min":85,"max":170,"target":"absent","response":"present","rt":1013.6000001431,"correct":false,"confidence":4},{"trial_n":92,"min":81,"max":174,"target":"present","response":"absent","rt":6022.3999998569,"correct":false,"confidence":2},{"trial_n":93,"min":77,"max":178,"target":"absent","response":"absent","rt":811,"correct":true,"confidence":3},{"trial_n":94,"min":77,"max":178,"target":"present","response":"present","rt":1017.4000000954,"correct":true,"confidence":5},{"trial_n":95,"min":81,"max":174,"target":"absent","response":"absent","rt":993.5,"correct":true,"confidence":3},{"trial_n":96,"min":81,"max":174,"target":"present","response":"present","rt":1971.2000000477,"correct":true,"confidence":2},{"trial_n":97,"min":85,"max":170,"target":"present","response":"present","rt":1049.6999998093,"correct":true,"confidence":5},{"trial_n":98,"min":85,"max":170,"target":"absent","response":"present","rt":2084.7000000477,"correct":false,"confidence":2},{"trial_n":99,"min":81,"max":174,"target":"present","response":"present","rt":827.70000004768,"correct":true,"confidence":5},{"trial_n":100,"min":81,"max":174,"target":"absent","response":"present","rt":1997.5,"correct":false,"confidence":2},{"trial_n":101,"min":79,"max":176,"target":"present","response":"present","rt":1066,"correct":true,"confidence":3},{"trial_n":102,"min":79,"max":176,"target":"absent","response":"absent","rt":1254,"correct":true,"confidence":3},{"trial_n":103,"min":81,"max":174,"target":"absent","response":"present","rt":871.5,"correct":false,"confidence":3},{"trial_n":104,"min":79,"max":176,"target":"present","response":"absent","rt":1968.2999999523,"correct":false,"confidence":2},{"trial_n":105,"min":77,"max":178,"target":"present","response":"present","rt":977.5,"correct":true,"confidence":5},{"trial_n":106,"min":77,"max":178,"target":"present","response":"present","rt":1008.5999999046,"correct":true,"confidence":4},{"trial_n":107,"min":79,"max":176,"target":"present","response":"present","rt":3769.8999998569,"correct":true,"confidence":1},{"trial_n":108,"min":79,"max":176,"target":"absent","response":"absent","rt":1132.7000000477,"correct":true,"confidence":2},{"trial_n":109,"min":81,"max":174,"target":"absent","response":"absent","rt":1375.7999999523,"correct":true,"confidence":3},{"trial_n":110,"min":81,"max":174,"target":"present","response":"present","rt":1410.0999999046,"correct":true,"confidence":4},{"trial_n":111,"min":82,"max":173,"target":"present","response":"present","rt":1253.2000000477,"correct":true,"confidence":2},{"trial_n":112,"min":82,"max":173,"target":"present","response":"present","rt":909.79999995232,"correct":true,"confidence":5},{"trial_n":113,"min":83,"max":172,"target":"absent","response":"present","rt":1614.1999998093,"correct":false,"confidence":2},{"trial_n":114,"min":82,"max":173,"target":"present","response":"present","rt":903.20000004768,"correct":true,"confidence":4},{"trial_n":115,"min":82,"max":173,"target":"absent","response":"absent","rt":1279.9000000954,"correct":true,"confidence":4},{"trial_n":116,"min":83,"max":172,"target":"absent","response":"present","rt":1773,"correct":false,"confidence":2},{"trial_n":117,"min":82,"max":173,"target":"present","response":"present","rt":847.20000004768,"correct":true,"confidence":4},{"trial_n":118,"min":82,"max":173,"target":"present","response":"present","rt":937.40000009537,"correct":true,"confidence":3},{"trial_n":119,"min":83,"max":172,"target":"absent","response":"present","rt":1296,"correct":false,"confidence":2},{"trial_n":120,"min":82,"max":173,"target":"absent","response":"present","rt":1036.0999999046,"correct":false,"confidence":3},{"trial_n":121,"min":81,"max":174,"target":"present","response":"present","rt":1573.2999999523,"correct":true,"confidence":4},{"trial_n":122,"min":81,"max":174,"target":"present","response":"present","rt":1643.7000000477,"correct":true,"confidence":4},{"trial_n":123,"min":82,"max":173,"target":"present","response":"present","rt":891.89999985695,"correct":true,"confidence":5},{"trial_n":124,"min":82,"max":173,"target":"absent","response":"present","rt":1669.7999999523,"correct":false,"confidence":2},{"trial_n":125,"min":81,"max":174,"target":"absent","response":"absent","rt":1734.2000000477,"correct":true,"confidence":2},{"trial_n":126,"min":81,"max":174,"target":"absent","response":"present","rt":2525.5,"correct":false,"confidence":2},{"trial_n":127,"min":80,"max":175,"target":"absent","response":"absent","rt":1308.4000000954,"correct":true,"confidence":2},{"trial_n":128,"min":80,"max":175,"target":"absent","response":"present","rt":1573.4000000954,"correct":false,"confidence":2},{"trial_n":129,"min":79,"max":176,"target":"absent","response":"absent","rt":1425.7000000477,"correct":true,"confidence":2},{"trial_n":130,"min":79,"max":176,"target":"present","response":"present","rt":864.30000019073,"correct":true,"confidence":5},{"trial_n":131,"min":80,"max":175,"target":"present","response":"present","rt":1224.3999998569,"correct":true,"confidence":2},{"trial_n":132,"min":80,"max":175,"target":"present","response":"present","rt":912.20000004768,"correct":true,"confidence":5},{"trial_n":133,"min":81,"max":174,"target":"present","response":"present","rt":806.59999990463,"correct":true,"confidence":5},{"trial_n":134,"min":81,"max":174,"target":"present","response":"present","rt":1030.5,"correct":true,"confidence":4},{"trial_n":135,"min":82,"max":173,"target":"absent","response":"absent","rt":2428,"correct":true,"confidence":2},{"trial_n":136,"min":82,"max":173,"target":"absent","response":"present","rt":881.39999985695,"correct":false,"confidence":3},{"trial_n":137,"min":81,"max":174,"target":"absent","response":"present","rt":1002.0999999046,"correct":false,"confidence":1},{"trial_n":138,"min":80,"max":175,"target":"absent","response":"absent","rt":1188.8000001907,"correct":true,"confidence":3},{"trial_n":139,"min":80,"max":175,"target":"present","response":"present","rt":1254.1000001431,"correct":true,"confidence":1},{"trial_n":140,"min":81,"max":174,"target":"absent","response":"absent","rt":926.39999985695,"correct":true,"confidence":2}]