[{"trial_n":1,"span":8,"encoder":"35886703","distractor":"35886903","target":"present","response":"present","rt":"4960","correct":true,"confidence":-1},{"trial_n":2,"span":8,"encoder":"13948773","distractor":"13048773","target":"present","response":"present","rt":"3450","correct":true,"confidence":-1},{"trial_n":3,"span":10,"encoder":"8958520934","distractor":"8958520924","target":"absent","response":"absent","rt":"3133","correct":true,"confidence":-1},{"trial_n":4,"span":10,"encoder":"6109111156","distractor":"6109114156","target":"absent","response":"absent","rt":"2528","correct":true,"confidence":-1},{"trial_n":5,"span":12,"encoder":"029050253844","distractor":"029050253848","target":"present","response":"absent","rt":"3686","correct":false,"confidence":-1},{"trial_n":6,"span":10,"encoder":"7194340444","distractor":"7194540444","target":"absent","response":"absent","rt":"1891","correct":true,"confidence":-1},{"trial_n":7,"span":10,"encoder":"9510946603","distractor":"9513946603","target":"present","response":"present","rt":"3128","correct":true,"confidence":-1},{"trial_n":8,"span":12,"encoder":"235783388794","distractor":"135783388794","target":"present","response":"present","rt":"2973","correct":true,"confidence":-1},{"trial_n":9,"span":12,"encoder":"689893916964","distractor":"689893986964","target":"absent","response":"present","rt":"3240","correct":false,"confidence":-1},{"trial_n":10,"span":10,"encoder":"1663429403","distractor":"1663229403","target":"absent","response":"absent","rt":"1774","correct":true,"confidence":-1},{"trial_n":11,"span":10,"encoder":"7698677225","distractor":"7698617225","target":"absent","response":"present","rt":"2467","correct":false,"confidence":-1},{"trial_n":12,"span":9,"encoder":"065785007","distractor":"065785507","target":"present","response":"present","rt":"3661","correct":true,"confidence":-1},{"trial_n":13,"span":9,"encoder":"957858791","distractor":"957858691","target":"absent","response":"present","rt":"2325","correct":false,"confidence":-1},{"trial_n":14,"span":8,"encoder":"12978724","distractor":"12878724","target":"absent","response":"absent","rt":"1902","correct":true,"confidence":-1},{"trial_n":15,"span":8,"encoder":"58682162","distractor":"58482162","target":"present","response":"present","rt":"2319","correct":true,"confidence":-1},{"trial_n":16,"span":9,"encoder":"096796106","distractor":"096792106","target":"absent","response":"present","rt":"1855","correct":false,"confidence":-1},{"trial_n":17,"span":8,"encoder":"91897992","distractor":"91897892","target":"absent","response":"absent","rt":"2337","correct":true,"confidence":-1},{"trial_n":18,"span":8,"encoder":"52282000","distractor":"52982000","target":"absent","response":"absent","rt":"1581","correct":true,"confidence":-1},{"trial_n":19,"span":9,"encoder":"930945509","distractor":"938945509","target":"present","response":"absent","rt":"3550","correct":false,"confidence":-1},{"trial_n":20,"span":8,"encoder":"72157261","distractor":"75157261","target":"absent","response":"absent","rt":"1770","correct":true,"confidence":-1},{"trial_n":21,"span":8,"encoder":"20070668","distractor":"30070668","target":"present","response":"present","rt":"1918","correct":true,"confidence":5},{"trial_n":22,"span":9,"encoder":"933799932","distractor":"933709932","target":"absent","response":"absent","rt":"2033","correct":true,"confidence":5},{"trial_n":23,"span":9,"encoder":"203481688","distractor":"203401688","target":"present","response":"absent","rt":"2199","correct":false,"confidence":2},{"trial_n":24,"span":8,"encoder":"54828430","distractor":"54878430","target":"present","response":"absent","rt":"2899","correct":false,"confidence":3},{"trial_n":25,"span":7,"encoder":"6584803","distractor":"6584833","target":"absent","response":"absent","rt":"3747","correct":true,"confidence":4},{"trial_n":26,"span":7,"encoder":"4239824","distractor":"4233824","target":"present","response":"present","rt":"2711","correct":true,"confidence":5},{"trial_n":27,"span":8,"encoder":"21279982","distractor":"21279782","target":"absent","response":"absent","rt":"4866","correct":true,"confidence":5},{"trial_n":28,"span":8,"encoder":"23088850","distractor":"03088850","target":"absent","response":"absent","rt":"2177","correct":true,"confidence":5},{"trial_n":29,"span":9,"encoder":"192269177","distractor":"192239177","target":"present","response":"absent","rt":"2816","correct":false,"confidence":5},{"trial_n":30,"span":8,"encoder":"18971942","distractor":"18971947","target":"present","response":"present","rt":"3514.0000000001","correct":true,"confidence":3},{"trial_n":31,"span":8,"encoder":"79152217","distractor":"09152217","target":"absent","response":"absent","rt":"1790","correct":true,"confidence":4},{"trial_n":32,"span":9,"encoder":"785077345","distractor":"785077745","target":"present","response":"absent","rt":"9180","correct":false,"confidence":2},{"trial_n":33,"span":8,"encoder":"50911427","distractor":"20911427","target":"absent","response":"absent","rt":"1549","correct":true,"confidence":5},{"trial_n":34,"span":8,"encoder":"41987129","distractor":"41987128","target":"absent","response":"absent","rt":"3149","correct":true,"confidence":4},{"trial_n":35,"span":9,"encoder":"883168906","distractor":"887168906","target":"absent","response":"present","rt":"3641.0000000001","correct":false,"confidence":4},{"trial_n":36,"span":8,"encoder":"21727104","distractor":"21727174","target":"present","response":"present","rt":"3305","correct":true,"confidence":4},{"trial_n":37,"span":8,"encoder":"66953055","distractor":"66953075","target":"absent","response":"present","rt":"2377","correct":false,"confidence":5},{"trial_n":38,"span":7,"encoder":"6475411","distractor":"5475411","target":"absent","response":"absent","rt":"2604.9999999999","correct":true,"confidence":2},{"trial_n":39,"span":7,"encoder":"5183830","distractor":"5183870","target":"present","response":"present","rt":"7286.0000000001","correct":true,"confidence":4},{"trial_n":40,"span":8,"encoder":"91092974","distractor":"91092954","target":"absent","response":"present","rt":"5072","correct":false,"confidence":3},{"trial_n":41,"span":7,"encoder":"7897871","distractor":"7895871","target":"absent","response":"absent","rt":"3570.0000000001","correct":true,"confidence":4},{"trial_n":42,"span":7,"encoder":"4946233","distractor":"4946933","target":"absent","response":"absent","rt":"3125","correct":true,"confidence":4},{"trial_n":43,"span":8,"encoder":"86286854","distractor":"66286854","target":"present","response":"present","rt":"3257.0000000001","correct":true,"confidence":5},{"trial_n":44,"span":8,"encoder":"29474939","distractor":"29174939","target":"present","response":"absent","rt":"3891","correct":false,"confidence":4},{"trial_n":45,"span":7,"encoder":"9602207","distractor":"8602207","target":"present","response":"present","rt":"2939","correct":true,"confidence":3},{"trial_n":46,"span":7,"encoder":"9653302","distractor":"9693302","target":"absent","response":"present","rt":"3482","correct":false,"confidence":3},{"trial_n":47,"span":6,"encoder":"365651","distractor":"355651","target":"present","response":"present","rt":"2479.9999999999","correct":true,"confidence":5},{"trial_n":48,"span":6,"encoder":"647401","distractor":"647901","target":"present","response":"present","rt":"1648","correct":true,"confidence":4},{"trial_n":49,"span":7,"encoder":"6605399","distractor":"6605379","target":"absent","response":"absent","rt":"2202","correct":true,"confidence":2},{"trial_n":50,"span":7,"encoder":"3756459","distractor":"3756452","target":"present","response":"present","rt":"3944","correct":true,"confidence":2},{"trial_n":51,"span":8,"encoder":"18958543","distractor":"18953543","target":"present","response":"present","rt":"3113","correct":true,"confidence":3},{"trial_n":52,"span":8,"encoder":"98468970","distractor":"94468970","target":"present","response":"present","rt":"1743","correct":true,"confidence":3},{"trial_n":53,"span":9,"encoder":"261720399","distractor":"261720199","target":"present","response":"absent","rt":"2246","correct":false,"confidence":2},{"trial_n":54,"span":8,"encoder":"06053019","distractor":"26053019","target":"present","response":"present","rt":"3129","correct":true,"confidence":3},{"trial_n":55,"span":8,"encoder":"17225001","distractor":"13225001","target":"present","response":"absent","rt":"2793","correct":false,"confidence":5},{"trial_n":56,"span":7,"encoder":"5264528","distractor":"5267528","target":"absent","response":"absent","rt":"9182","correct":true,"confidence":2},{"trial_n":57,"span":7,"encoder":"5368744","distractor":"5368734","target":"present","response":"present","rt":"4371","correct":true,"confidence":5},{"trial_n":58,"span":8,"encoder":"22846184","distractor":"62846184","target":"absent","response":"absent","rt":"6832","correct":true,"confidence":5},{"trial_n":59,"span":8,"encoder":"16703657","distractor":"11703657","target":"present","response":"absent","rt":"3009","correct":false,"confidence":1},{"trial_n":60,"span":7,"encoder":"9744495","distractor":"9714495","target":"present","response":"absent","rt":"2134","correct":false,"confidence":5},{"trial_n":61,"span":6,"encoder":"927725","distractor":"927825","target":"present","response":"absent","rt":"3392","correct":false,"confidence":3},{"trial_n":62,"span":5,"encoder":"45293","distractor":"45993","target":"absent","response":"absent","rt":"2488","correct":true,"confidence":5},{"trial_n":63,"span":5,"encoder":"71405","distractor":"71005","target":"present","response":"present","rt":"1575","correct":true,"confidence":5},{"trial_n":64,"span":6,"encoder":"453337","distractor":"453367","target":"absent","response":"absent","rt":"2359","correct":true,"confidence":5},{"trial_n":65,"span":6,"encoder":"018512","distractor":"518512","target":"present","response":"present","rt":"2848","correct":true,"confidence":4},{"trial_n":66,"span":7,"encoder":"1490212","distractor":"7490212","target":"present","response":"present","rt":"3790","correct":true,"confidence":5},{"trial_n":67,"span":7,"encoder":"3957970","distractor":"3057970","target":"absent","response":"absent","rt":"2007.9999999999","correct":true,"confidence":3},{"trial_n":68,"span":8,"encoder":"11768411","distractor":"11768431","target":"absent","response":"absent","rt":"1796","correct":true,"confidence":5},{"trial_n":69,"span":8,"encoder":"09284600","distractor":"09204600","target":"present","response":"absent","rt":"2491","correct":false,"confidence":3},{"trial_n":70,"span":7,"encoder":"4849309","distractor":"4849308","target":"absent","response":"absent","rt":"4080","correct":true,"confidence":5},{"trial_n":71,"span":8,"encoder":"75719457","distractor":"75719057","target":"present","response":"absent","rt":"3380.9999999998","correct":false,"confidence":-1},{"trial_n":72,"span":7,"encoder":"9997164","distractor":"5997164","target":"present","response":"present","rt":"6222","correct":true,"confidence":-1},{"trial_n":73,"span":7,"encoder":"7189009","distractor":"7182009","target":"absent","response":"absent","rt":"1081","correct":true,"confidence":-1},{"trial_n":74,"span":8,"encoder":"80301567","distractor":"80301547","target":"absent","response":"absent","rt":"707","correct":true,"confidence":-1},{"trial_n":75,"span":8,"encoder":"34787944","distractor":"33787944","target":"present","response":"present","rt":"1126","correct":true,"confidence":-1},{"trial_n":76,"span":9,"encoder":"497513764","distractor":"497513724","target":"present","response":"absent","rt":"620","correct":false,"confidence":-1},{"trial_n":77,"span":8,"encoder":"50346649","distractor":"50346647","target":"absent","response":"present","rt":"2275.0000000002","correct":false,"confidence":-1},{"trial_n":78,"span":7,"encoder":"1978857","distractor":"1908857","target":"absent","response":"absent","rt":"905","correct":true,"confidence":-1},{"trial_n":79,"span":7,"encoder":"7219720","distractor":"7219727","target":"present","response":"present","rt":"5626.9999999998","correct":true,"confidence":-1},{"trial_n":80,"span":8,"encoder":"16062792","distractor":"16062702","target":"present","response":"absent","rt":"1298","correct":false,"confidence":-1},{"trial_n":81,"span":7,"encoder":"1681565","distractor":"1281565","target":"present","response":"absent","rt":"2177","correct":false,"confidence":-1},{"trial_n":82,"span":6,"encoder":"268383","distractor":"218383","target":"present","response":"present","rt":"1823","correct":true,"confidence":-1},{"trial_n":83,"span":6,"encoder":"920545","distractor":"920505","target":"present","response":"present","rt":"954","correct":true,"confidence":-1},{"trial_n":84,"span":7,"encoder":"7839247","distractor":"7039247","target":"present","response":"absent","rt":"978","correct":false,"confidence":-1},{"trial_n":85,"span":6,"encoder":"259503","distractor":"249503","target":"present","response":"absent","rt":"628","correct":false,"confidence":-1},{"trial_n":86,"span":5,"encoder":"08365","distractor":"04365","target":"absent","response":"absent","rt":"472.00000000023","correct":true,"confidence":-1},{"trial_n":87,"span":5,"encoder":"27454","distractor":"47454","target":"present","response":"present","rt":"560.99999999977","correct":true,"confidence":-1},{"trial_n":88,"span":6,"encoder":"411188","distractor":"411187","target":"absent","response":"absent","rt":"913","correct":true,"confidence":-1},{"trial_n":89,"span":6,"encoder":"800534","distractor":"800530","target":"present","response":"present","rt":"4184.9999999998","correct":true,"confidence":-1},{"trial_n":90,"span":7,"encoder":"9034897","distractor":"9734897","target":"present","response":"absent","rt":"6288","correct":false,"confidence":-1},{"trial_n":91,"span":6,"encoder":"263876","distractor":"263826","target":"absent","response":"present","rt":"3159.9999999998","correct":false,"confidence":2},{"trial_n":92,"span":5,"encoder":"48672","distractor":"88672","target":"absent","response":"absent","rt":"2588","correct":true,"confidence":5},{"trial_n":93,"span":5,"encoder":"92271","distractor":"62271","target":"present","response":"present","rt":"1958","correct":true,"confidence":5},{"trial_n":94,"span":6,"encoder":"015079","distractor":"715079","target":"absent","response":"absent","rt":"2900","correct":true,"confidence":5},{"trial_n":95,"span":6,"encoder":"643882","distractor":"663882","target":"present","response":"present","rt":"4039","correct":true,"confidence":4},{"trial_n":96,"span":7,"encoder":"2561773","distractor":"2361773","target":"absent","response":"absent","rt":"2421.9999999998","correct":true,"confidence":4},{"trial_n":97,"span":7,"encoder":"7868417","distractor":"7808417","target":"present","response":"present","rt":"2423","correct":true,"confidence":5},{"trial_n":98,"span":8,"encoder":"49002539","distractor":"49002599","target":"absent","response":"absent","rt":"4302","correct":true,"confidence":5},{"trial_n":99,"span":8,"encoder":"22895080","distractor":"22895680","target":"absent","response":"absent","rt":"3058","correct":true,"confidence":5},{"trial_n":100,"span":9,"encoder":"698747039","distractor":"698647039","target":"present","response":"absent","rt":"3143","correct":false,"confidence":4},{"trial_n":101,"span":8,"encoder":"68308391","distractor":"68318391","target":"absent","response":"absent","rt":"5009","correct":true,"confidence":4},{"trial_n":102,"span":8,"encoder":"69497110","distractor":"69497190","target":"absent","response":"absent","rt":"3062","correct":true,"confidence":3},{"trial_n":103,"span":9,"encoder":"607478887","distractor":"407478887","target":"absent","response":"present","rt":"7731","correct":false,"confidence":2},{"trial_n":104,"span":8,"encoder":"68567326","distractor":"68567926","target":"present","response":"present","rt":"4108","correct":true,"confidence":4},{"trial_n":105,"span":8,"encoder":"02366124","distractor":"02360124","target":"absent","response":"present","rt":"3798","correct":false,"confidence":3},{"trial_n":106,"span":7,"encoder":"3317544","distractor":"3017544","target":"absent","response":"present","rt":"2291.9999999998","correct":false,"confidence":5},{"trial_n":107,"span":6,"encoder":"661744","distractor":"662744","target":"absent","response":"absent","rt":"1637","correct":true,"confidence":5},{"trial_n":108,"span":6,"encoder":"689846","distractor":"689840","target":"absent","response":"absent","rt":"11584","correct":true,"confidence":3},{"trial_n":109,"span":7,"encoder":"9980419","distractor":"9680419","target":"present","response":"present","rt":"17930","correct":true,"confidence":2},{"trial_n":110,"span":7,"encoder":"2630278","distractor":"1630278","target":"present","response":"present","rt":"5064","correct":true,"confidence":4},{"trial_n":111,"span":8,"encoder":"51714735","distractor":"56714735","target":"present","response":"present","rt":"6199","correct":true,"confidence":4},{"trial_n":112,"span":8,"encoder":"12127066","distractor":"12127036","target":"absent","response":"present","rt":"3773","correct":false,"confidence":3},{"trial_n":113,"span":7,"encoder":"9532783","distractor":"8532783","target":"present","response":"present","rt":"2140","correct":true,"confidence":3},{"trial_n":114,"span":7,"encoder":"8084847","distractor":"8684847","target":"present","response":"absent","rt":"2636","correct":false,"confidence":4},{"trial_n":115,"span":6,"encoder":"032612","distractor":"032212","target":"absent","response":"absent","rt":"2402.0000000002","correct":true,"confidence":5},{"trial_n":116,"span":6,"encoder":"379780","distractor":"379580","target":"present","response":"absent","rt":"1785.0000000002","correct":false,"confidence":2},{"trial_n":117,"span":5,"encoder":"82640","distractor":"87640","target":"absent","response":"present","rt":"1757.0000000002","correct":false,"confidence":2},{"trial_n":118,"span":4,"encoder":"7653","distractor":"4653","target":"present","response":"present","rt":"1616","correct":true,"confidence":5},{"trial_n":119,"span":4,"encoder":"5351","distractor":"5391","target":"present","response":"present","rt":"1849","correct":true,"confidence":5},{"trial_n":120,"span":5,"encoder":"26048","distractor":"26098","target":"present","response":"present","rt":"1498.0000000002","correct":true,"confidence":5},{"trial_n":121,"span":5,"encoder":"07104","distractor":"00104","target":"present","response":"present","rt":"1801","correct":true,"confidence":5},{"trial_n":122,"span":6,"encoder":"491201","distractor":"499201","target":"absent","response":"absent","rt":"2183","correct":true,"confidence":4},{"trial_n":123,"span":6,"encoder":"051062","distractor":"051064","target":"present","response":"present","rt":"2435.0000000002","correct":true,"confidence":4},{"trial_n":124,"span":7,"encoder":"4044846","distractor":"4044546","target":"present","response":"present","rt":"2396.9999999998","correct":true,"confidence":4},{"trial_n":125,"span":7,"encoder":"7870436","distractor":"7870236","target":"present","response":"present","rt":"2578.9999999998","correct":true,"confidence":4},{"trial_n":126,"span":8,"encoder":"10429323","distractor":"10429324","target":"absent","response":"present","rt":"2160","correct":false,"confidence":2},{"trial_n":127,"span":7,"encoder":"8654781","distractor":"9654781","target":"absent","response":"present","rt":"1882.9999999998","correct":false,"confidence":2},{"trial_n":128,"span":6,"encoder":"273886","distractor":"273586","target":"absent","response":"absent","rt":"2594","correct":true,"confidence":5},{"trial_n":129,"span":6,"encoder":"106044","distractor":"106014","target":"absent","response":"absent","rt":"3955.0000000002","correct":true,"confidence":3},{"trial_n":130,"span":7,"encoder":"7265898","distractor":"7265398","target":"absent","response":"absent","rt":"2028","correct":true,"confidence":5},{"trial_n":131,"span":7,"encoder":"9128224","distractor":"9128274","target":"absent","response":"present","rt":"714","correct":false,"confidence":1},{"trial_n":132,"span":6,"encoder":"940632","distractor":"900632","target":"present","response":"present","rt":"1721","correct":true,"confidence":5},{"trial_n":133,"span":6,"encoder":"009287","distractor":"909287","target":"absent","response":"absent","rt":"1178","correct":true,"confidence":5},{"trial_n":134,"span":7,"encoder":"6612744","distractor":"6612044","target":"present","response":"present","rt":"3328.9999999998","correct":true,"confidence":3},{"trial_n":135,"span":7,"encoder":"2525257","distractor":"2515257","target":"present","response":"present","rt":"2302","correct":true,"confidence":5},{"trial_n":136,"span":8,"encoder":"63591199","distractor":"63591699","target":"absent","response":"absent","rt":"4056.0000000002","correct":true,"confidence":5},{"trial_n":137,"span":8,"encoder":"45641766","distractor":"45841766","target":"present","response":"present","rt":"5508","correct":true,"confidence":2},{"trial_n":138,"span":9,"encoder":"288906705","distractor":"288906305","target":"absent","response":"absent","rt":"3763.0000000002","correct":true,"confidence":3},{"trial_n":139,"span":9,"encoder":"659174274","distractor":"659179274","target":"absent","response":"absent","rt":"2620","correct":true,"confidence":4},{"trial_n":140,"span":10,"encoder":"3728103085","distractor":"3718103085","target":"absent","response":"absent","rt":"2601.9999999998","correct":true,"confidence":1}]