[{"trial_n":1,"min":25,"max":230,"target":"present","response":"absent","rt":9109.5,"correct":false,"confidence":-1},{"trial_n":2,"min":25,"max":230,"target":"present","response":"absent","rt":3131.3999998569,"correct":false,"confidence":-1},{"trial_n":3,"min":9,"max":246,"target":"absent","response":"absent","rt":2647,"correct":true,"confidence":-1},{"trial_n":4,"min":9,"max":246,"target":"absent","response":"absent","rt":1542.0999999046,"correct":true,"confidence":-1},{"trial_n":5,"min":25,"max":230,"target":"present","response":"present","rt":3516.7999999523,"correct":true,"confidence":-1},{"trial_n":6,"min":25,"max":230,"target":"present","response":"present","rt":621,"correct":true,"confidence":-1},{"trial_n":7,"min":41,"max":214,"target":"present","response":"present","rt":422.39999985695,"correct":true,"confidence":-1},{"trial_n":8,"min":41,"max":214,"target":"present","response":"present","rt":366.29999995232,"correct":true,"confidence":-1},{"trial_n":9,"min":57,"max":198,"target":"absent","response":"absent","rt":467.30000019073,"correct":true,"confidence":-1},{"trial_n":10,"min":57,"max":198,"target":"present","response":"present","rt":126.29999995232,"correct":true,"confidence":-1},{"trial_n":11,"min":65,"max":190,"target":"absent","response":"absent","rt":607.09999990463,"correct":true,"confidence":-1},{"trial_n":12,"min":65,"max":190,"target":"present","response":"present","rt":916.20000004768,"correct":true,"confidence":-1},{"trial_n":13,"min":73,"max":182,"target":"absent","response":"absent","rt":583.90000009537,"correct":true,"confidence":-1},{"trial_n":14,"min":73,"max":182,"target":"present","response":"present","rt":463.39999985695,"correct":true,"confidence":-1},{"trial_n":15,"min":81,"max":174,"target":"present","response":"absent","rt":1434.5,"correct":false,"confidence":-1},{"trial_n":16,"min":73,"max":182,"target":"present","response":"absent","rt":655.60000014305,"correct":false,"confidence":-1},{"trial_n":17,"min":65,"max":190,"target":"present","response":"present","rt":438.40000009537,"correct":true,"confidence":-1},{"trial_n":18,"min":65,"max":190,"target":"present","response":"present","rt":417,"correct":true,"confidence":-1},{"trial_n":19,"min":73,"max":182,"target":"absent","response":"absent","rt":626.29999995232,"correct":true,"confidence":-1},{"trial_n":20,"min":73,"max":182,"target":"present","response":"absent","rt":586.70000004768,"correct":false,"confidence":-1},{"trial_n":21,"min":69,"max":186,"target":"present","response":"absent","rt":2497.1999998093,"correct":false,"confidence":2},{"trial_n":22,"min":65,"max":190,"target":"present","response":"present","rt":1481.1000001431,"correct":true,"confidence":5},{"trial_n":23,"min":65,"max":190,"target":"absent","response":"absent","rt":1781.6000001431,"correct":true,"confidence":4},{"trial_n":24,"min":69,"max":186,"target":"absent","response":"absent","rt":1252.5,"correct":true,"confidence":4},{"trial_n":25,"min":69,"max":186,"target":"present","response":"present","rt":1536.5,"correct":true,"confidence":4},{"trial_n":26,"min":73,"max":182,"target":"absent","response":"absent","rt":1400.5,"correct":true,"confidence":4},{"trial_n":27,"min":73,"max":182,"target":"absent","response":"present","rt":1033.4000000954,"correct":false,"confidence":3},{"trial_n":28,"min":69,"max":186,"target":"absent","response":"absent","rt":1263.5,"correct":true,"confidence":4},{"trial_n":29,"min":69,"max":186,"target":"present","response":"absent","rt":1566,"correct":false,"confidence":2},{"trial_n":30,"min":65,"max":190,"target":"absent","response":"absent","rt":1123.2999999523,"correct":true,"confidence":3},{"trial_n":31,"min":65,"max":190,"target":"absent","response":"absent","rt":1487.8999998569,"correct":true,"confidence":2},{"trial_n":32,"min":67,"max":188,"target":"absent","response":"absent","rt":1127.2999999523,"correct":true,"confidence":3},{"trial_n":33,"min":67,"max":188,"target":"present","response":"present","rt":1378.5999999046,"correct":true,"confidence":3},{"trial_n":34,"min":69,"max":186,"target":"present","response":"absent","rt":988.40000009537,"correct":false,"confidence":3},{"trial_n":35,"min":67,"max":188,"target":"absent","response":"absent","rt":1455.6000001431,"correct":true,"confidence":3},{"trial_n":36,"min":67,"max":188,"target":"absent","response":"absent","rt":1101.5999999046,"correct":true,"confidence":3},{"trial_n":37,"min":69,"max":186,"target":"absent","response":"absent","rt":1043.2000000477,"correct":true,"confidence":4},{"trial_n":38,"min":69,"max":186,"target":"present","response":"present","rt":1013,"correct":true,"confidence":4},{"trial_n":39,"min":71,"max":184,"target":"present","response":"present","rt":1032.1000001431,"correct":true,"confidence":4},{"trial_n":40,"min":71,"max":184,"target":"present","response":"absent","rt":1189.5999999046,"correct":false,"confidence":4},{"trial_n":41,"min":70,"max":185,"target":"absent","response":"absent","rt":1073.5,"correct":true,"confidence":2},{"trial_n":42,"min":70,"max":185,"target":"absent","response":"present","rt":1908.6999998093,"correct":false,"confidence":2},{"trial_n":43,"min":69,"max":186,"target":"present","response":"present","rt":877.20000004768,"correct":true,"confidence":4},{"trial_n":44,"min":69,"max":186,"target":"present","response":"present","rt":2160.0999999046,"correct":true,"confidence":5},{"trial_n":45,"min":70,"max":185,"target":"absent","response":"absent","rt":1913.0999999046,"correct":true,"confidence":3},{"trial_n":46,"min":70,"max":185,"target":"present","response":"present","rt":955.29999995232,"correct":true,"confidence":4},{"trial_n":47,"min":71,"max":184,"target":"absent","response":"absent","rt":1028.2000000477,"correct":true,"confidence":2},{"trial_n":48,"min":71,"max":184,"target":"present","response":"present","rt":1156.2999999523,"correct":true,"confidence":5},{"trial_n":49,"min":72,"max":183,"target":"present","response":"present","rt":1138.6000001431,"correct":true,"confidence":5},{"trial_n":50,"min":72,"max":183,"target":"absent","response":"absent","rt":917.5,"correct":true,"confidence":3},{"trial_n":51,"min":73,"max":182,"target":"present","response":"present","rt":980.90000009537,"correct":true,"confidence":4},{"trial_n":52,"min":73,"max":182,"target":"absent","response":"absent","rt":1099,"correct":true,"confidence":4},{"trial_n":53,"min":74,"max":181,"target":"present","response":"absent","rt":1117.0999999046,"correct":false,"confidence":4},{"trial_n":54,"min":73,"max":182,"target":"present","response":"present","rt":1142.5,"correct":true,"confidence":5},{"trial_n":55,"min":73,"max":182,"target":"absent","response":"absent","rt":1000.2999999523,"correct":true,"confidence":5},{"trial_n":56,"min":74,"max":181,"target":"absent","response":"present","rt":2262.8999998569,"correct":false,"confidence":2},{"trial_n":57,"min":73,"max":182,"target":"absent","response":"absent","rt":1995.8999998569,"correct":true,"confidence":3},{"trial_n":58,"min":73,"max":182,"target":"absent","response":"absent","rt":2472.1000001431,"correct":true,"confidence":2},{"trial_n":59,"min":74,"max":181,"target":"absent","response":"absent","rt":1270.0999999046,"correct":true,"confidence":3},{"trial_n":60,"min":74,"max":181,"target":"absent","response":"absent","rt":1345.7999999523,"correct":true,"confidence":3},{"trial_n":61,"min":75,"max":180,"target":"present","response":"absent","rt":2360,"correct":false,"confidence":3},{"trial_n":62,"min":74,"max":181,"target":"absent","response":"absent","rt":1115.9000000954,"correct":true,"confidence":2},{"trial_n":63,"min":74,"max":181,"target":"absent","response":"absent","rt":876.60000014305,"correct":true,"confidence":5},{"trial_n":64,"min":75,"max":180,"target":"absent","response":"absent","rt":973.80000019073,"correct":true,"confidence":5},{"trial_n":65,"min":75,"max":180,"target":"absent","response":"absent","rt":988.40000009537,"correct":true,"confidence":5},{"trial_n":66,"min":76,"max":179,"target":"present","response":"present","rt":1090.7000000477,"correct":true,"confidence":5},{"trial_n":67,"min":76,"max":179,"target":"present","response":"absent","rt":1496.3999998569,"correct":false,"confidence":2},{"trial_n":68,"min":75,"max":180,"target":"absent","response":"absent","rt":1491.7999999523,"correct":true,"confidence":4},{"trial_n":69,"min":75,"max":180,"target":"present","response":"present","rt":1177.2999999523,"correct":true,"confidence":5},{"trial_n":70,"min":76,"max":179,"target":"present","response":"present","rt":1324.3999998569,"correct":true,"confidence":5},{"trial_n":71,"min":41,"max":214,"target":"present","response":"present","rt":10000.099999905,"correct":true,"confidence":-1},{"trial_n":72,"min":41,"max":214,"target":"present","response":"present","rt":4511.8000001907,"correct":true,"confidence":-1},{"trial_n":73,"min":57,"max":198,"target":"absent","response":"absent","rt":1411.5,"correct":true,"confidence":-1},{"trial_n":74,"min":57,"max":198,"target":"absent","response":"absent","rt":552.5,"correct":true,"confidence":-1},{"trial_n":75,"min":73,"max":182,"target":"present","response":"present","rt":1564.8999998569,"correct":true,"confidence":-1},{"trial_n":76,"min":73,"max":182,"target":"present","response":"present","rt":868.90000009537,"correct":true,"confidence":-1},{"trial_n":77,"min":89,"max":166,"target":"absent","response":"absent","rt":525.70000004768,"correct":true,"confidence":-1},{"trial_n":78,"min":89,"max":166,"target":"absent","response":"present","rt":871.69999980927,"correct":false,"confidence":-1},{"trial_n":79,"min":73,"max":182,"target":"present","response":"present","rt":562.59999990463,"correct":true,"confidence":-1},{"trial_n":80,"min":73,"max":182,"target":"absent","response":"absent","rt":529.89999985695,"correct":true,"confidence":-1},{"trial_n":81,"min":81,"max":174,"target":"present","response":"present","rt":997.70000004768,"correct":true,"confidence":-1},{"trial_n":82,"min":81,"max":174,"target":"present","response":"present","rt":834.5,"correct":true,"confidence":-1},{"trial_n":83,"min":89,"max":166,"target":"absent","response":"present","rt":612.39999985695,"correct":false,"confidence":-1},{"trial_n":84,"min":81,"max":174,"target":"absent","response":"present","rt":534.90000009537,"correct":false,"confidence":-1},{"trial_n":85,"min":73,"max":182,"target":"absent","response":"absent","rt":649.90000009537,"correct":true,"confidence":-1},{"trial_n":86,"min":73,"max":182,"target":"present","response":"present","rt":256.20000004768,"correct":true,"confidence":-1},{"trial_n":87,"min":81,"max":174,"target":"present","response":"present","rt":565.29999995232,"correct":true,"confidence":-1},{"trial_n":88,"min":81,"max":174,"target":"absent","response":"present","rt":424.39999985695,"correct":false,"confidence":-1},{"trial_n":89,"min":73,"max":182,"target":"present","response":"present","rt":606.90000009537,"correct":true,"confidence":-1},{"trial_n":90,"min":73,"max":182,"target":"present","response":"present","rt":281.19999980927,"correct":true,"confidence":-1},{"trial_n":91,"min":77,"max":178,"target":"present","response":"present","rt":470.70000004768,"correct":true,"confidence":5},{"trial_n":92,"min":77,"max":178,"target":"present","response":"present","rt":662.29999995232,"correct":true,"confidence":5},{"trial_n":93,"min":81,"max":174,"target":"absent","response":"present","rt":2505.2000000477,"correct":false,"confidence":3},{"trial_n":94,"min":77,"max":178,"target":"absent","response":"present","rt":711.79999995232,"correct":false,"confidence":5},{"trial_n":95,"min":73,"max":182,"target":"absent","response":"absent","rt":524.09999990463,"correct":true,"confidence":5},{"trial_n":96,"min":73,"max":182,"target":"present","response":"present","rt":434.40000009537,"correct":true,"confidence":5},{"trial_n":97,"min":77,"max":178,"target":"absent","response":"absent","rt":518.79999995232,"correct":true,"confidence":5},{"trial_n":98,"min":77,"max":178,"target":"absent","response":"absent","rt":444.90000009537,"correct":true,"confidence":4},{"trial_n":99,"min":81,"max":174,"target":"absent","response":"present","rt":440,"correct":false,"confidence":2},{"trial_n":100,"min":77,"max":178,"target":"absent","response":"present","rt":889.29999995232,"correct":false,"confidence":1},{"trial_n":101,"min":75,"max":180,"target":"absent","response":"absent","rt":494.79999995232,"correct":true,"confidence":4},{"trial_n":102,"min":75,"max":180,"target":"present","response":"present","rt":331.09999990463,"correct":true,"confidence":5},{"trial_n":103,"min":77,"max":178,"target":"present","response":"present","rt":285.5,"correct":true,"confidence":5},{"trial_n":104,"min":77,"max":178,"target":"present","response":"present","rt":556.60000014305,"correct":true,"confidence":5},{"trial_n":105,"min":79,"max":176,"target":"present","response":"present","rt":505.5,"correct":true,"confidence":5},{"trial_n":106,"min":79,"max":176,"target":"absent","response":"present","rt":546.20000004768,"correct":false,"confidence":1},{"trial_n":107,"min":77,"max":178,"target":"absent","response":"absent","rt":580.09999990463,"correct":true,"confidence":5},{"trial_n":108,"min":77,"max":178,"target":"present","response":"present","rt":409.79999995232,"correct":true,"confidence":5},{"trial_n":109,"min":79,"max":176,"target":"present","response":"present","rt":466.19999980927,"correct":true,"confidence":5},{"trial_n":110,"min":79,"max":176,"target":"present","response":"absent","rt":779.09999990463,"correct":false,"confidence":1},{"trial_n":111,"min":78,"max":177,"target":"present","response":"present","rt":780.09999990463,"correct":true,"confidence":5},{"trial_n":112,"min":78,"max":177,"target":"present","response":"absent","rt":3274.9000000954,"correct":false,"confidence":1},{"trial_n":113,"min":77,"max":178,"target":"absent","response":"absent","rt":593.59999990463,"correct":true,"confidence":5},{"trial_n":114,"min":77,"max":178,"target":"absent","response":"absent","rt":730,"correct":true,"confidence":5},{"trial_n":115,"min":78,"max":177,"target":"absent","response":"present","rt":1999.5,"correct":false,"confidence":1},{"trial_n":116,"min":77,"max":178,"target":"present","response":"present","rt":2789.1000001431,"correct":true,"confidence":1},{"trial_n":117,"min":77,"max":178,"target":"absent","response":"present","rt":702.90000009537,"correct":false,"confidence":1},{"trial_n":118,"min":76,"max":179,"target":"absent","response":"absent","rt":1111.7000000477,"correct":true,"confidence":3},{"trial_n":119,"min":76,"max":179,"target":"absent","response":"present","rt":1180.2999999523,"correct":false,"confidence":1},{"trial_n":120,"min":75,"max":180,"target":"absent","response":"absent","rt":452.40000009537,"correct":true,"confidence":5},{"trial_n":121,"min":75,"max":180,"target":"present","response":"present","rt":978.5,"correct":true,"confidence":3},{"trial_n":122,"min":76,"max":179,"target":"present","response":"present","rt":371.5,"correct":true,"confidence":5},{"trial_n":123,"min":76,"max":179,"target":"present","response":"present","rt":283.19999980927,"correct":true,"confidence":5},{"trial_n":124,"min":77,"max":178,"target":"absent","response":"present","rt":734.60000014305,"correct":false,"confidence":1},{"trial_n":125,"min":76,"max":179,"target":"present","response":"present","rt":261.5,"correct":true,"confidence":5},{"trial_n":126,"min":76,"max":179,"target":"absent","response":"absent","rt":705.29999995232,"correct":true,"confidence":5},{"trial_n":127,"min":77,"max":178,"target":"absent","response":"absent","rt":730.89999985695,"correct":true,"confidence":5},{"trial_n":128,"min":77,"max":178,"target":"absent","response":"absent","rt":551.39999985695,"correct":true,"confidence":5},{"trial_n":129,"min":78,"max":177,"target":"present","response":"present","rt":465.40000009537,"correct":true,"confidence":5},{"trial_n":130,"min":78,"max":177,"target":"present","response":"present","rt":436.89999985695,"correct":true,"confidence":5},{"trial_n":131,"min":79,"max":176,"target":"present","response":"present","rt":320.39999985695,"correct":true,"confidence":5},{"trial_n":132,"min":79,"max":176,"target":"absent","response":"absent","rt":373.5,"correct":true,"confidence":5},{"trial_n":133,"min":80,"max":175,"target":"absent","response":"absent","rt":1994.9000000954,"correct":true,"confidence":3},{"trial_n":134,"min":80,"max":175,"target":"present","response":"present","rt":686.70000004768,"correct":true,"confidence":5},{"trial_n":135,"min":81,"max":174,"target":"absent","response":"absent","rt":706.79999995232,"correct":true,"confidence":5},{"trial_n":136,"min":81,"max":174,"target":"present","response":"present","rt":807.10000014305,"correct":true,"confidence":2},{"trial_n":137,"min":82,"max":173,"target":"absent","response":"present","rt":1868.7999999523,"correct":false,"confidence":1},{"trial_n":138,"min":81,"max":174,"target":"present","response":"present","rt":656.29999995232,"correct":true,"confidence":3},{"trial_n":139,"min":81,"max":174,"target":"present","response":"present","rt":218.40000009537,"correct":true,"confidence":5},{"trial_n":140,"min":82,"max":173,"target":"present","response":"present","rt":375.59999990463,"correct":true,"confidence":5}]