[{"trial_n":1,"n_dots":4.25,"target":"left","response":"right","rt":39901.199999809,"correct":false,"confidence":-1},{"trial_n":2,"n_dots":4.25,"target":"right","response":"left","rt":3820.7999999523,"correct":false,"confidence":-1},{"trial_n":3,"n_dots":4.65,"target":"right","response":"left","rt":1484.8999998569,"correct":false,"confidence":-1},{"trial_n":4,"n_dots":5.05,"target":"left","response":"left","rt":782.90000009537,"correct":true,"confidence":-1},{"trial_n":5,"n_dots":5.05,"target":"right","response":"right","rt":3462.1999998093,"correct":true,"confidence":-1},{"trial_n":6,"n_dots":4.65,"target":"left","response":"left","rt":1166,"correct":true,"confidence":-1},{"trial_n":7,"n_dots":4.65,"target":"right","response":"right","rt":1759.9000000954,"correct":true,"confidence":-1},{"trial_n":8,"n_dots":4.45,"target":"right","response":"right","rt":1378.2999999523,"correct":true,"confidence":-1},{"trial_n":9,"n_dots":4.45,"target":"right","response":"left","rt":967.09999990463,"correct":false,"confidence":-1},{"trial_n":10,"n_dots":4.65,"target":"left","response":"left","rt":328.09999990463,"correct":true,"confidence":-1},{"trial_n":11,"n_dots":4.65,"target":"right","response":"right","rt":648.70000004768,"correct":true,"confidence":-1},{"trial_n":12,"n_dots":4.45,"target":"right","response":"right","rt":1487.8999998569,"correct":true,"confidence":-1},{"trial_n":13,"n_dots":4.45,"target":"left","response":"left","rt":1403.2999999523,"correct":true,"confidence":-1},{"trial_n":14,"n_dots":4.35,"target":"right","response":"right","rt":1280.4000000954,"correct":true,"confidence":-1},{"trial_n":15,"n_dots":4.35,"target":"left","response":"left","rt":797.59999990463,"correct":true,"confidence":-1},{"trial_n":16,"n_dots":4.25,"target":"right","response":"right","rt":1379.2999999523,"correct":true,"confidence":-1},{"trial_n":17,"n_dots":4.25,"target":"left","response":"left","rt":1110.7000000477,"correct":true,"confidence":-1},{"trial_n":18,"n_dots":4.15,"target":"left","response":"left","rt":1228.0999999046,"correct":true,"confidence":-1},{"trial_n":19,"n_dots":4.15,"target":"left","response":"right","rt":1429.0999999046,"correct":false,"confidence":-1},{"trial_n":20,"n_dots":4.25,"target":"left","response":"left","rt":1501.2999999523,"correct":true,"confidence":-1},{"trial_n":21,"n_dots":4.25,"target":"right","response":"left","rt":2143.2000000477,"correct":false,"confidence":3},{"trial_n":22,"n_dots":4.35,"target":"right","response":"left","rt":1210.9000000954,"correct":false,"confidence":3},{"trial_n":23,"n_dots":4.45,"target":"right","response":"right","rt":2596.6999998093,"correct":true,"confidence":4},{"trial_n":24,"n_dots":4.45,"target":"right","response":"left","rt":1588.6000001431,"correct":false,"confidence":3},{"trial_n":25,"n_dots":4.55,"target":"right","response":"right","rt":1213.2999999523,"correct":true,"confidence":5},{"trial_n":26,"n_dots":4.55,"target":"left","response":"left","rt":1302.9000000954,"correct":true,"confidence":5},{"trial_n":27,"n_dots":4.45,"target":"right","response":"right","rt":1795.7999999523,"correct":true,"confidence":4},{"trial_n":28,"n_dots":4.45,"target":"right","response":"left","rt":1588.6999998093,"correct":false,"confidence":5},{"trial_n":29,"n_dots":4.55,"target":"left","response":"left","rt":464.70000004768,"correct":true,"confidence":3},{"trial_n":30,"n_dots":4.55,"target":"left","response":"left","rt":1070.2999999523,"correct":true,"confidence":5},{"trial_n":31,"n_dots":4.45,"target":"left","response":"left","rt":1027.9000000954,"correct":true,"confidence":4},{"trial_n":32,"n_dots":4.45,"target":"left","response":"left","rt":1520.0999999046,"correct":true,"confidence":4},{"trial_n":33,"n_dots":4.35,"target":"left","response":"left","rt":859.20000004768,"correct":true,"confidence":5},{"trial_n":34,"n_dots":4.35,"target":"right","response":"right","rt":3036.6000001431,"correct":true,"confidence":4},{"trial_n":35,"n_dots":4.25,"target":"left","response":"left","rt":1665.2000000477,"correct":true,"confidence":5},{"trial_n":36,"n_dots":4.25,"target":"left","response":"left","rt":1092.7000000477,"correct":true,"confidence":5},{"trial_n":37,"n_dots":4.15,"target":"right","response":"right","rt":2638.9000000954,"correct":true,"confidence":1},{"trial_n":38,"n_dots":4.15,"target":"left","response":"left","rt":1031.6999998093,"correct":true,"confidence":5},{"trial_n":39,"n_dots":4.05,"target":"left","response":"left","rt":1631.5999999046,"correct":true,"confidence":2},{"trial_n":40,"n_dots":4.05,"target":"right","response":"right","rt":2357,"correct":true,"confidence":5},{"trial_n":41,"n_dots":3.95,"target":"left","response":"left","rt":1103.3000001907,"correct":true,"confidence":1},{"trial_n":42,"n_dots":3.95,"target":"left","response":"left","rt":685.39999985695,"correct":true,"confidence":1},{"trial_n":43,"n_dots":3.85,"target":"right","response":"left","rt":998.90000009537,"correct":false,"confidence":1},{"trial_n":44,"n_dots":3.95,"target":"right","response":"left","rt":466.70000004768,"correct":false,"confidence":1},{"trial_n":45,"n_dots":4.05,"target":"right","response":"right","rt":1363.9000000954,"correct":true,"confidence":4},{"trial_n":46,"n_dots":4.05,"target":"left","response":"left","rt":1493.2000000477,"correct":true,"confidence":1},{"trial_n":47,"n_dots":3.95,"target":"right","response":"right","rt":848.20000004768,"correct":true,"confidence":5},{"trial_n":48,"n_dots":3.95,"target":"left","response":"left","rt":1005.1000001431,"correct":true,"confidence":5},{"trial_n":49,"n_dots":3.85,"target":"left","response":"left","rt":1234.8000001907,"correct":true,"confidence":5},{"trial_n":50,"n_dots":3.85,"target":"left","response":"left","rt":810,"correct":true,"confidence":5},{"trial_n":51,"n_dots":3.75,"target":"right","response":"right","rt":2406.8999998569,"correct":true,"confidence":3},{"trial_n":52,"n_dots":3.75,"target":"left","response":"right","rt":1643.7000000477,"correct":false,"confidence":1},{"trial_n":53,"n_dots":3.85,"target":"left","response":"left","rt":705.59999990463,"correct":true,"confidence":2},{"trial_n":54,"n_dots":3.85,"target":"right","response":"right","rt":1167.5999999046,"correct":true,"confidence":3},{"trial_n":55,"n_dots":3.75,"target":"right","response":"right","rt":2779.7000000477,"correct":true,"confidence":3},{"trial_n":56,"n_dots":3.75,"target":"right","response":"right","rt":1206.9000000954,"correct":true,"confidence":5},{"trial_n":57,"n_dots":3.65,"target":"left","response":"right","rt":1418.0999999046,"correct":false,"confidence":3},{"trial_n":58,"n_dots":3.75,"target":"left","response":"right","rt":2817.6999998093,"correct":false,"confidence":3},{"trial_n":59,"n_dots":3.85,"target":"right","response":"right","rt":1268.5999999046,"correct":true,"confidence":4},{"trial_n":60,"n_dots":3.85,"target":"left","response":"left","rt":1026.8999998569,"correct":true,"confidence":5},{"trial_n":61,"n_dots":3.75,"target":"left","response":"left","rt":993.5,"correct":true,"confidence":5},{"trial_n":62,"n_dots":3.75,"target":"left","response":"left","rt":930.59999990463,"correct":true,"confidence":4},{"trial_n":63,"n_dots":3.65,"target":"right","response":"left","rt":2634,"correct":false,"confidence":1},{"trial_n":64,"n_dots":3.75,"target":"right","response":"right","rt":1039.2000000477,"correct":true,"confidence":3},{"trial_n":65,"n_dots":3.75,"target":"right","response":"right","rt":1040.6000001431,"correct":true,"confidence":4},{"trial_n":66,"n_dots":3.65,"target":"right","response":"right","rt":2142.4000000954,"correct":true,"confidence":4},{"trial_n":67,"n_dots":3.65,"target":"right","response":"right","rt":1328.2000000477,"correct":true,"confidence":5},{"trial_n":68,"n_dots":3.55,"target":"left","response":"right","rt":2276,"correct":false,"confidence":2},{"trial_n":69,"n_dots":3.65,"target":"left","response":"left","rt":1942.2999999523,"correct":true,"confidence":1},{"trial_n":70,"n_dots":3.65,"target":"right","response":"right","rt":2500.5999999046,"correct":true,"confidence":5},{"trial_n":71,"n_dots":3.55,"target":"right","response":"right","rt":1740.5,"correct":true,"confidence":3},{"trial_n":72,"n_dots":3.55,"target":"right","response":"right","rt":1698,"correct":true,"confidence":3},{"trial_n":73,"n_dots":3.45,"target":"right","response":"right","rt":1185.5,"correct":true,"confidence":3},{"trial_n":74,"n_dots":3.45,"target":"right","response":"right","rt":1101.7999999523,"correct":true,"confidence":4},{"trial_n":75,"n_dots":3.35,"target":"right","response":"right","rt":1103.5999999046,"correct":true,"confidence":5},{"trial_n":76,"n_dots":3.35,"target":"right","response":"left","rt":1111.6000001431,"correct":false,"confidence":3},{"trial_n":77,"n_dots":3.45,"target":"left","response":"left","rt":1363.5999999046,"correct":true,"confidence":1},{"trial_n":78,"n_dots":3.45,"target":"left","response":"left","rt":1051,"correct":true,"confidence":5},{"trial_n":79,"n_dots":3.35,"target":"right","response":"left","rt":1308.2000000477,"correct":false,"confidence":5},{"trial_n":80,"n_dots":3.45,"target":"right","response":"right","rt":1047.6999998093,"correct":true,"confidence":4},{"trial_n":81,"n_dots":3.45,"target":"left","response":"left","rt":848,"correct":true,"confidence":5},{"trial_n":82,"n_dots":3.35,"target":"left","response":"left","rt":2006.7000000477,"correct":true,"confidence":3},{"trial_n":83,"n_dots":3.35,"target":"left","response":"left","rt":1013,"correct":true,"confidence":4},{"trial_n":84,"n_dots":3.25,"target":"left","response":"left","rt":848.60000014305,"correct":true,"confidence":5},{"trial_n":85,"n_dots":3.25,"target":"left","response":"left","rt":794.39999985695,"correct":true,"confidence":5},{"trial_n":86,"n_dots":3.15,"target":"right","response":"right","rt":2418.4000000954,"correct":true,"confidence":1},{"trial_n":87,"n_dots":3.15,"target":"right","response":"right","rt":2677.3999998569,"correct":true,"confidence":5},{"trial_n":88,"n_dots":3.05,"target":"left","response":"right","rt":1447.9000000954,"correct":false,"confidence":5},{"trial_n":89,"n_dots":3.15,"target":"right","response":"left","rt":1390.9000000954,"correct":false,"confidence":1},{"trial_n":90,"n_dots":3.25,"target":"left","response":"right","rt":2501.0999999046,"correct":false,"confidence":4},{"trial_n":91,"n_dots":3.35,"target":"right","response":"right","rt":701.40000009537,"correct":true,"confidence":5},{"trial_n":92,"n_dots":3.35,"target":"right","response":"right","rt":842.09999990463,"correct":true,"confidence":5},{"trial_n":93,"n_dots":3.25,"target":"left","response":"left","rt":827,"correct":true,"confidence":5},{"trial_n":94,"n_dots":3.25,"target":"left","response":"left","rt":1983.0999999046,"correct":true,"confidence":5},{"trial_n":95,"n_dots":3.15,"target":"left","response":"left","rt":1423.5999999046,"correct":true,"confidence":5},{"trial_n":96,"n_dots":3.15,"target":"left","response":"left","rt":1569.4000000954,"correct":true,"confidence":3},{"trial_n":97,"n_dots":3.05,"target":"left","response":"right","rt":2924.1000001431,"correct":false,"confidence":5},{"trial_n":98,"n_dots":3.15,"target":"left","response":"left","rt":1071.5999999046,"correct":true,"confidence":5},{"trial_n":99,"n_dots":3.15,"target":"left","response":"left","rt":896.59999990463,"correct":true,"confidence":5},{"trial_n":100,"n_dots":3.05,"target":"right","response":"left","rt":1579.8999998569,"correct":false,"confidence":5},{"trial_n":101,"n_dots":3.15,"target":"right","response":"left","rt":1039,"correct":false,"confidence":5},{"trial_n":102,"n_dots":3.25,"target":"left","response":"left","rt":911.39999985695,"correct":true,"confidence":4},{"trial_n":103,"n_dots":3.25,"target":"left","response":"right","rt":1662.7999999523,"correct":false,"confidence":5},{"trial_n":104,"n_dots":3.35,"target":"right","response":"right","rt":1108.2999999523,"correct":true,"confidence":5},{"trial_n":105,"n_dots":3.35,"target":"right","response":"right","rt":774,"correct":true,"confidence":5},{"trial_n":106,"n_dots":3.25,"target":"left","response":"right","rt":1553.6000001431,"correct":false,"confidence":3},{"trial_n":107,"n_dots":3.35,"target":"right","response":"left","rt":958.29999995232,"correct":false,"confidence":4},{"trial_n":108,"n_dots":3.45,"target":"right","response":"right","rt":2206,"correct":true,"confidence":5},{"trial_n":109,"n_dots":3.45,"target":"left","response":"left","rt":1422.5,"correct":true,"confidence":1},{"trial_n":110,"n_dots":3.35,"target":"right","response":"right","rt":6121.2000000477,"correct":true,"confidence":1},{"trial_n":111,"n_dots":3.35,"target":"right","response":"right","rt":1130.0999999046,"correct":true,"confidence":1},{"trial_n":112,"n_dots":3.25,"target":"right","response":"right","rt":1040,"correct":true,"confidence":1},{"trial_n":113,"n_dots":3.25,"target":"left","response":"right","rt":2074.5999999046,"correct":false,"confidence":1},{"trial_n":114,"n_dots":3.35,"target":"right","response":"right","rt":664.79999995232,"correct":true,"confidence":4},{"trial_n":115,"n_dots":3.35,"target":"left","response":"left","rt":1331,"correct":true,"confidence":3},{"trial_n":116,"n_dots":3.25,"target":"left","response":"left","rt":1057.6000001431,"correct":true,"confidence":4},{"trial_n":117,"n_dots":3.25,"target":"right","response":"right","rt":797.90000009537,"correct":true,"confidence":5},{"trial_n":118,"n_dots":3.15,"target":"right","response":"left","rt":1461.0999999046,"correct":false,"confidence":2},{"trial_n":119,"n_dots":3.25,"target":"left","response":"left","rt":976.09999990463,"correct":true,"confidence":2},{"trial_n":120,"n_dots":3.25,"target":"left","response":"right","rt":1009.2999999523,"correct":false,"confidence":4}]