[{"trial_n":1,"span":8,"encoder":"65497724","distractor":"66497724","target":"present","response":"absent","rt":"4562.1000001431","correct":false,"confidence":-1},{"trial_n":2,"span":6,"encoder":"264179","distractor":"264173","target":"present","response":"present","rt":"1976.5","correct":true,"confidence":-1},{"trial_n":3,"span":6,"encoder":"437125","distractor":"437195","target":"absent","response":"absent","rt":"2421.0999999046","correct":true,"confidence":-1},{"trial_n":4,"span":8,"encoder":"12606370","distractor":"12606374","target":"absent","response":"present","rt":"1911.7999999523","correct":false,"confidence":-1},{"trial_n":5,"span":6,"encoder":"534672","distractor":"534692","target":"present","response":"absent","rt":"682.40000009537","correct":false,"confidence":-1},{"trial_n":6,"span":4,"encoder":"9331","distractor":"0331","target":"present","response":"present","rt":"1587.5999999046","correct":true,"confidence":-1},{"trial_n":7,"span":4,"encoder":"8746","distractor":"8747","target":"present","response":"present","rt":"1985.2999999523","correct":true,"confidence":-1},{"trial_n":8,"span":6,"encoder":"255927","distractor":"295927","target":"absent","response":"absent","rt":"1056.3999998569","correct":true,"confidence":-1},{"trial_n":9,"span":6,"encoder":"698489","distractor":"608489","target":"absent","response":"absent","rt":"1060.7999999523","correct":true,"confidence":-1},{"trial_n":10,"span":8,"encoder":"79497924","distractor":"79457924","target":"absent","response":"present","rt":"2158.9000000954","correct":false,"confidence":-1},{"trial_n":11,"span":6,"encoder":"300598","distractor":"300518","target":"present","response":"present","rt":"919.29999995232","correct":true,"confidence":-1},{"trial_n":12,"span":6,"encoder":"384946","distractor":"384346","target":"absent","response":"absent","rt":"1040.4000000954","correct":true,"confidence":-1},{"trial_n":13,"span":7,"encoder":"7521589","distractor":"7529589","target":"present","response":"present","rt":"756.09999990463","correct":true,"confidence":-1},{"trial_n":14,"span":7,"encoder":"9853977","distractor":"9853957","target":"present","response":"present","rt":"788.59999990463","correct":true,"confidence":-1},{"trial_n":15,"span":8,"encoder":"12310547","distractor":"12340547","target":"absent","response":"absent","rt":"2733.2000000477","correct":true,"confidence":-1},{"trial_n":16,"span":8,"encoder":"39584892","distractor":"39584192","target":"present","response":"absent","rt":"1447.3000001907","correct":false,"confidence":-1},{"trial_n":17,"span":7,"encoder":"2566078","distractor":"2565078","target":"absent","response":"present","rt":"1208.7999999523","correct":false,"confidence":-1},{"trial_n":18,"span":6,"encoder":"102107","distractor":"102907","target":"present","response":"present","rt":"1077","correct":true,"confidence":-1},{"trial_n":19,"span":6,"encoder":"331944","distractor":"331945","target":"absent","response":"absent","rt":"1003.5999999046","correct":true,"confidence":-1},{"trial_n":20,"span":7,"encoder":"9745269","distractor":"9745219","target":"absent","response":"absent","rt":"1072.5","correct":true,"confidence":-1},{"trial_n":21,"span":7,"encoder":"2023639","distractor":"2013639","target":"absent","response":"absent","rt":"1449.9000000954","correct":true,"confidence":5},{"trial_n":22,"span":8,"encoder":"78864814","distractor":"78804814","target":"present","response":"present","rt":"3091.7999999523","correct":true,"confidence":3},{"trial_n":23,"span":8,"encoder":"83628322","distractor":"85628322","target":"absent","response":"present","rt":"4025.5","correct":false,"confidence":3},{"trial_n":24,"span":7,"encoder":"1173303","distractor":"2173303","target":"absent","response":"absent","rt":"1592.4000000954","correct":true,"confidence":5},{"trial_n":25,"span":7,"encoder":"2008343","distractor":"2808343","target":"absent","response":"absent","rt":"2021.5999999046","correct":true,"confidence":5},{"trial_n":26,"span":8,"encoder":"15966298","distractor":"17966298","target":"present","response":"present","rt":"3886.3000001907","correct":true,"confidence":4},{"trial_n":27,"span":8,"encoder":"28233467","distractor":"28233477","target":"present","response":"absent","rt":"3546.2999999523","correct":false,"confidence":2},{"trial_n":28,"span":7,"encoder":"1761905","distractor":"0761905","target":"present","response":"present","rt":"2293.5","correct":true,"confidence":4},{"trial_n":29,"span":7,"encoder":"0923474","distractor":"0923374","target":"absent","response":"present","rt":"1325.7000000477","correct":false,"confidence":4},{"trial_n":30,"span":6,"encoder":"547797","distractor":"547787","target":"absent","response":"absent","rt":"1875.3000001907","correct":true,"confidence":5},{"trial_n":31,"span":6,"encoder":"354742","distractor":"354142","target":"absent","response":"present","rt":"1530.1000001431","correct":false,"confidence":4},{"trial_n":32,"span":5,"encoder":"70161","distractor":"50161","target":"present","response":"present","rt":"1550.8999998569","correct":true,"confidence":5},{"trial_n":33,"span":5,"encoder":"19440","distractor":"19140","target":"absent","response":"absent","rt":"1918.5999999046","correct":true,"confidence":5},{"trial_n":34,"span":6,"encoder":"443353","distractor":"443393","target":"present","response":"present","rt":"1994.4000000954","correct":true,"confidence":5},{"trial_n":35,"span":6,"encoder":"269645","distractor":"269615","target":"present","response":"present","rt":"1967.7999999523","correct":true,"confidence":4},{"trial_n":36,"span":7,"encoder":"1227569","distractor":"1227529","target":"present","response":"present","rt":"1469.7999999523","correct":true,"confidence":5},{"trial_n":37,"span":7,"encoder":"9048668","distractor":"9248668","target":"absent","response":"present","rt":"1775","correct":false,"confidence":4},{"trial_n":38,"span":6,"encoder":"548432","distractor":"558432","target":"absent","response":"present","rt":"2906.5999999046","correct":false,"confidence":3},{"trial_n":39,"span":5,"encoder":"98098","distractor":"98096","target":"absent","response":"absent","rt":"2176","correct":true,"confidence":5},{"trial_n":40,"span":5,"encoder":"59765","distractor":"19765","target":"absent","response":"absent","rt":"1652.3999998569","correct":true,"confidence":5},{"trial_n":41,"span":6,"encoder":"049990","distractor":"049950","target":"absent","response":"absent","rt":"1551.2999999523","correct":true,"confidence":5},{"trial_n":42,"span":6,"encoder":"421882","distractor":"429882","target":"present","response":"present","rt":"1945.7999999523","correct":true,"confidence":5},{"trial_n":43,"span":7,"encoder":"3034512","distractor":"3034412","target":"present","response":"present","rt":"1693.6000001431","correct":true,"confidence":4},{"trial_n":44,"span":7,"encoder":"0006699","distractor":"0806699","target":"absent","response":"absent","rt":"1768.1000001431","correct":true,"confidence":5},{"trial_n":45,"span":8,"encoder":"32483636","distractor":"36483636","target":"present","response":"absent","rt":"2531.9000000954","correct":false,"confidence":2},{"trial_n":46,"span":7,"encoder":"6763475","distractor":"6763675","target":"absent","response":"present","rt":"3531","correct":false,"confidence":3},{"trial_n":47,"span":6,"encoder":"471375","distractor":"471305","target":"absent","response":"absent","rt":"3212.5","correct":true,"confidence":3},{"trial_n":48,"span":6,"encoder":"934279","distractor":"934379","target":"present","response":"present","rt":"2167.6000001431","correct":true,"confidence":5},{"trial_n":49,"span":7,"encoder":"5685781","distractor":"5385781","target":"present","response":"present","rt":"2913.2000000477","correct":true,"confidence":4},{"trial_n":50,"span":7,"encoder":"6566881","distractor":"6166881","target":"present","response":"present","rt":"2469.2000000477","correct":true,"confidence":3},{"trial_n":51,"span":8,"encoder":"89324059","distractor":"80324059","target":"present","response":"present","rt":"3087","correct":true,"confidence":3},{"trial_n":52,"span":8,"encoder":"04151832","distractor":"04051832","target":"present","response":"present","rt":"2367.5999999046","correct":true,"confidence":5},{"trial_n":53,"span":9,"encoder":"318952064","distractor":"318959064","target":"present","response":"absent","rt":"2767.1000001431","correct":false,"confidence":2},{"trial_n":54,"span":8,"encoder":"90823108","distractor":"00823108","target":"present","response":"present","rt":"1702.5","correct":true,"confidence":2},{"trial_n":55,"span":8,"encoder":"98613398","distractor":"91613398","target":"absent","response":"present","rt":"2132.8999998569","correct":false,"confidence":4},{"trial_n":56,"span":7,"encoder":"0394359","distractor":"0398359","target":"absent","response":"absent","rt":"3033.7000000477","correct":true,"confidence":3},{"trial_n":57,"span":7,"encoder":"7803155","distractor":"7863155","target":"absent","response":"absent","rt":"2310","correct":true,"confidence":4},{"trial_n":58,"span":8,"encoder":"19071385","distractor":"17071385","target":"absent","response":"present","rt":"2305.2999999523","correct":false,"confidence":4},{"trial_n":59,"span":7,"encoder":"6474661","distractor":"6470661","target":"present","response":"present","rt":"2558.5","correct":true,"confidence":5},{"trial_n":60,"span":7,"encoder":"7329418","distractor":"7129418","target":"absent","response":"absent","rt":"1970.2999999523","correct":true,"confidence":3},{"trial_n":61,"span":8,"encoder":"03516376","distractor":"03416376","target":"present","response":"absent","rt":"1555","correct":false,"confidence":2},{"trial_n":62,"span":7,"encoder":"6154095","distractor":"6158095","target":"absent","response":"absent","rt":"1487.3000001907","correct":true,"confidence":1},{"trial_n":63,"span":7,"encoder":"6007874","distractor":"6027874","target":"present","response":"present","rt":"1718.4000000954","correct":true,"confidence":3},{"trial_n":64,"span":8,"encoder":"92827173","distractor":"92826173","target":"present","response":"absent","rt":"2888.1999998093","correct":false,"confidence":4},{"trial_n":65,"span":7,"encoder":"8443934","distractor":"8403934","target":"present","response":"absent","rt":"2676.3000001907","correct":false,"confidence":5},{"trial_n":66,"span":6,"encoder":"825610","distractor":"325610","target":"present","response":"present","rt":"1997.2999999523","correct":true,"confidence":4},{"trial_n":67,"span":6,"encoder":"057159","distractor":"077159","target":"present","response":"present","rt":"9141.7000000477","correct":true,"confidence":5},{"trial_n":68,"span":7,"encoder":"1816749","distractor":"1816349","target":"absent","response":"absent","rt":"2653.7000000477","correct":true,"confidence":4},{"trial_n":69,"span":7,"encoder":"4902874","distractor":"4302874","target":"present","response":"present","rt":"2583.2999999523","correct":true,"confidence":5},{"trial_n":70,"span":8,"encoder":"36648385","distractor":"36648485","target":"absent","response":"present","rt":"2055.8999998569","correct":false,"confidence":3},{"trial_n":71,"span":8,"encoder":"90551768","distractor":"90511768","target":"present","response":"present","rt":"3223.1000001431","correct":true,"confidence":-1},{"trial_n":72,"span":8,"encoder":"79121603","distractor":"70121603","target":"present","response":"absent","rt":"3759.5","correct":false,"confidence":-1},{"trial_n":73,"span":7,"encoder":"9561929","distractor":"9561924","target":"absent","response":"absent","rt":"253.20000004768","correct":true,"confidence":-1},{"trial_n":74,"span":7,"encoder":"3223473","distractor":"3221473","target":"absent","response":"absent","rt":"2366.5","correct":true,"confidence":-1},{"trial_n":75,"span":8,"encoder":"18961441","distractor":"18961442","target":"present","response":"present","rt":"2024.2000000477","correct":true,"confidence":-1},{"trial_n":76,"span":8,"encoder":"44452319","distractor":"44455319","target":"absent","response":"absent","rt":"5529.0999999046","correct":true,"confidence":-1},{"trial_n":77,"span":9,"encoder":"769691432","distractor":"769601432","target":"present","response":"present","rt":"320.29999995232","correct":true,"confidence":-1},{"trial_n":78,"span":9,"encoder":"328646914","distractor":"378646914","target":"present","response":"absent","rt":"1275.9000000954","correct":false,"confidence":-1},{"trial_n":79,"span":8,"encoder":"75766793","distractor":"75766493","target":"present","response":"absent","rt":"531.5","correct":false,"confidence":-1},{"trial_n":80,"span":7,"encoder":"5640727","distractor":"5640627","target":"present","response":"present","rt":"411.40000009537","correct":true,"confidence":-1},{"trial_n":81,"span":7,"encoder":"7248299","distractor":"7248249","target":"absent","response":"absent","rt":"1097.5999999046","correct":true,"confidence":-1},{"trial_n":82,"span":8,"encoder":"79693291","distractor":"79633291","target":"absent","response":"absent","rt":"645.90000009537","correct":true,"confidence":-1},{"trial_n":83,"span":8,"encoder":"69272486","distractor":"69242486","target":"absent","response":"present","rt":"2915.8999998569","correct":false,"confidence":-1},{"trial_n":84,"span":7,"encoder":"0406372","distractor":"0405372","target":"present","response":"absent","rt":"2065.2000000477","correct":false,"confidence":-1},{"trial_n":85,"span":6,"encoder":"262030","distractor":"263030","target":"present","response":"present","rt":"602.09999990463","correct":true,"confidence":-1},{"trial_n":86,"span":6,"encoder":"196064","distractor":"196066","target":"absent","response":"present","rt":"497.79999995232","correct":false,"confidence":-1},{"trial_n":87,"span":5,"encoder":"02662","distractor":"04662","target":"present","response":"absent","rt":"2910","correct":false,"confidence":-1},{"trial_n":88,"span":4,"encoder":"9526","distractor":"9528","target":"absent","response":"absent","rt":"1877.7000000477","correct":true,"confidence":-1},{"trial_n":89,"span":4,"encoder":"2825","distractor":"2824","target":"present","response":"present","rt":"1234.7999999523","correct":true,"confidence":-1},{"trial_n":90,"span":5,"encoder":"22349","distractor":"62349","target":"present","response":"present","rt":"2083.5","correct":true,"confidence":-1},{"trial_n":91,"span":5,"encoder":"67387","distractor":"61387","target":"absent","response":"present","rt":"5204.1999998093","correct":false,"confidence":1},{"trial_n":92,"span":4,"encoder":"0445","distractor":"3445","target":"present","response":"present","rt":"2823.1999998093","correct":true,"confidence":5},{"trial_n":93,"span":4,"encoder":"8490","distractor":"8499","target":"present","response":"present","rt":"2838.5","correct":true,"confidence":5},{"trial_n":94,"span":5,"encoder":"11653","distractor":"11659","target":"absent","response":"absent","rt":"4355.2000000477","correct":true,"confidence":5},{"trial_n":95,"span":5,"encoder":"83553","distractor":"63553","target":"absent","response":"absent","rt":"3637.5999999046","correct":true,"confidence":5},{"trial_n":96,"span":6,"encoder":"352765","distractor":"352465","target":"absent","response":"absent","rt":"5030.8999998569","correct":true,"confidence":3},{"trial_n":97,"span":6,"encoder":"440128","distractor":"440123","target":"absent","response":"absent","rt":"5609.1000001431","correct":true,"confidence":4},{"trial_n":98,"span":7,"encoder":"1050765","distractor":"1050665","target":"absent","response":"absent","rt":"3133.5","correct":true,"confidence":3},{"trial_n":99,"span":7,"encoder":"8930398","distractor":"8930388","target":"present","response":"present","rt":"3975.7000000477","correct":true,"confidence":4},{"trial_n":100,"span":8,"encoder":"00502313","distractor":"00501313","target":"absent","response":"present","rt":"9494.5999999046","correct":false,"confidence":3},{"trial_n":101,"span":7,"encoder":"9027671","distractor":"9022671","target":"absent","response":"absent","rt":"2307.7000000477","correct":true,"confidence":5},{"trial_n":102,"span":7,"encoder":"4962593","distractor":"4062593","target":"absent","response":"absent","rt":"3867.7999999523","correct":true,"confidence":5},{"trial_n":103,"span":8,"encoder":"55026984","distractor":"55026484","target":"present","response":"present","rt":"5420.2999999523","correct":true,"confidence":3},{"trial_n":104,"span":8,"encoder":"92031454","distractor":"92531454","target":"present","response":"present","rt":"1400.6999998093","correct":true,"confidence":2},{"trial_n":105,"span":9,"encoder":"663117386","distractor":"663118386","target":"present","response":"present","rt":"7039.5","correct":true,"confidence":4},{"trial_n":106,"span":9,"encoder":"583618949","distractor":"583618749","target":"absent","response":"absent","rt":"1333.7000000477","correct":true,"confidence":2},{"trial_n":107,"span":10,"encoder":"7624515792","distractor":"7724515792","target":"absent","response":"absent","rt":"4283.6000001431","correct":true,"confidence":3},{"trial_n":108,"span":10,"encoder":"4095029108","distractor":"4094029108","target":"present","response":"absent","rt":"4809.9000000954","correct":false,"confidence":1},{"trial_n":109,"span":9,"encoder":"175950058","distractor":"145950058","target":"absent","response":"absent","rt":"3737.5999999046","correct":true,"confidence":3},{"trial_n":110,"span":9,"encoder":"980097462","distractor":"980097463","target":"absent","response":"absent","rt":"5452.2000000477","correct":true,"confidence":5},{"trial_n":111,"span":10,"encoder":"9487690374","distractor":"9487690674","target":"absent","response":"absent","rt":"1094.5","correct":true,"confidence":2},{"trial_n":112,"span":10,"encoder":"7182569135","distractor":"7132569135","target":"present","response":"absent","rt":"1739.2000000477","correct":false,"confidence":1},{"trial_n":113,"span":9,"encoder":"758407188","distractor":"758507188","target":"present","response":"absent","rt":"5628.3000001907","correct":false,"confidence":3},{"trial_n":114,"span":8,"encoder":"65128114","distractor":"65028114","target":"absent","response":"absent","rt":"4083.9000000954","correct":true,"confidence":3},{"trial_n":115,"span":8,"encoder":"31284503","distractor":"51284503","target":"present","response":"present","rt":"1982.5","correct":true,"confidence":5},{"trial_n":116,"span":9,"encoder":"545555420","distractor":"545055420","target":"absent","response":"absent","rt":"4367.4000000954","correct":true,"confidence":4},{"trial_n":117,"span":9,"encoder":"077690412","distractor":"077600412","target":"present","response":"present","rt":"3331.5","correct":true,"confidence":4},{"trial_n":118,"span":10,"encoder":"1324349070","distractor":"5324349070","target":"present","response":"absent","rt":"2637.2999999523","correct":false,"confidence":1},{"trial_n":119,"span":9,"encoder":"740743446","distractor":"740753446","target":"present","response":"present","rt":"3678.2999999523","correct":true,"confidence":1},{"trial_n":120,"span":9,"encoder":"184724100","distractor":"184774100","target":"absent","response":"present","rt":"4046.5","correct":false,"confidence":3},{"trial_n":121,"span":8,"encoder":"24078092","distractor":"24078042","target":"absent","response":"present","rt":"4570.9000000954","correct":false,"confidence":3},{"trial_n":122,"span":7,"encoder":"1105412","distractor":"1105012","target":"present","response":"absent","rt":"3783","correct":false,"confidence":4},{"trial_n":123,"span":6,"encoder":"536308","distractor":"536301","target":"present","response":"present","rt":"1962.1999998093","correct":true,"confidence":5},{"trial_n":124,"span":6,"encoder":"163288","distractor":"183288","target":"absent","response":"absent","rt":"3032","correct":true,"confidence":4},{"trial_n":125,"span":7,"encoder":"0527796","distractor":"0527792","target":"present","response":"absent","rt":"2923.2999999523","correct":false,"confidence":5},{"trial_n":126,"span":6,"encoder":"428578","distractor":"428579","target":"present","response":"present","rt":"2341.2000000477","correct":true,"confidence":5},{"trial_n":127,"span":6,"encoder":"665364","distractor":"565364","target":"absent","response":"absent","rt":"2309.2000000477","correct":true,"confidence":5},{"trial_n":128,"span":7,"encoder":"6498170","distractor":"6998170","target":"absent","response":"absent","rt":"1927.1999998093","correct":true,"confidence":5},{"trial_n":129,"span":7,"encoder":"1331140","distractor":"8331140","target":"absent","response":"absent","rt":"2216.7999999523","correct":true,"confidence":5},{"trial_n":130,"span":8,"encoder":"91683578","distractor":"91683579","target":"absent","response":"absent","rt":"3444.4000000954","correct":true,"confidence":5},{"trial_n":131,"span":8,"encoder":"20564784","distractor":"20564984","target":"present","response":"present","rt":"4662.5","correct":true,"confidence":4},{"trial_n":132,"span":9,"encoder":"682520816","distractor":"682500816","target":"present","response":"present","rt":"3699.7000000477","correct":true,"confidence":2},{"trial_n":133,"span":9,"encoder":"142782876","distractor":"142784876","target":"present","response":"present","rt":"4011.1000001431","correct":true,"confidence":1},{"trial_n":134,"span":10,"encoder":"3674720031","distractor":"3674720041","target":"present","response":"present","rt":"1936.8999998569","correct":true,"confidence":5},{"trial_n":135,"span":10,"encoder":"7227551802","distractor":"7527551802","target":"present","response":"present","rt":"3007.3999998569","correct":true,"confidence":4},{"trial_n":136,"span":11,"encoder":"16730347671","distractor":"46730347671","target":"absent","response":"present","rt":"4691.0999999046","correct":false,"confidence":1},{"trial_n":137,"span":10,"encoder":"6072049433","distractor":"2072049433","target":"absent","response":"absent","rt":"5266.2999999523","correct":true,"confidence":3},{"trial_n":138,"span":10,"encoder":"4377609181","distractor":"4477609181","target":"present","response":"present","rt":"2854.0999999046","correct":true,"confidence":4},{"trial_n":139,"span":11,"encoder":"71022054758","distractor":"71022054158","target":"absent","response":"absent","rt":"2708.5999999046","correct":true,"confidence":1},{"trial_n":140,"span":11,"encoder":"99856008167","distractor":"99256008167","target":"present","response":"present","rt":"5781.6000001431","correct":true,"confidence":1}]