[{"trial_n":1,"n_dots":4.25,"target":"right","response":"left","rt":5242,"correct":false,"confidence":-1},{"trial_n":2,"n_dots":4.25,"target":"left","response":"right","rt":2150,"correct":false,"confidence":-1},{"trial_n":3,"n_dots":4.65,"target":"left","response":"left","rt":777,"correct":true,"confidence":-1},{"trial_n":4,"n_dots":4.65,"target":"right","response":"right","rt":1066,"correct":true,"confidence":-1},{"trial_n":5,"n_dots":4.25,"target":"right","response":"left","rt":744,"correct":false,"confidence":-1},{"trial_n":6,"n_dots":4.65,"target":"left","response":"left","rt":679,"correct":true,"confidence":-1},{"trial_n":7,"n_dots":4.65,"target":"right","response":"right","rt":525,"correct":true,"confidence":-1},{"trial_n":8,"n_dots":4.45,"target":"right","response":"right","rt":807,"correct":true,"confidence":-1},{"trial_n":9,"n_dots":4.45,"target":"left","response":"left","rt":663,"correct":true,"confidence":-1},{"trial_n":10,"n_dots":4.25,"target":"left","response":"left","rt":486,"correct":true,"confidence":-1},{"trial_n":11,"n_dots":4.25,"target":"right","response":"right","rt":501,"correct":true,"confidence":-1},{"trial_n":12,"n_dots":4.05,"target":"right","response":"right","rt":1068,"correct":true,"confidence":-1},{"trial_n":13,"n_dots":4.05,"target":"left","response":"left","rt":638,"correct":true,"confidence":-1},{"trial_n":14,"n_dots":3.95,"target":"right","response":"right","rt":630,"correct":true,"confidence":-1},{"trial_n":15,"n_dots":3.95,"target":"right","response":"right","rt":559,"correct":true,"confidence":-1},{"trial_n":16,"n_dots":3.85,"target":"left","response":"left","rt":905,"correct":true,"confidence":-1},{"trial_n":17,"n_dots":3.85,"target":"right","response":"right","rt":419,"correct":true,"confidence":-1},{"trial_n":18,"n_dots":3.75,"target":"right","response":"right","rt":664,"correct":true,"confidence":-1},{"trial_n":19,"n_dots":3.75,"target":"right","response":"right","rt":202,"correct":true,"confidence":-1},{"trial_n":20,"n_dots":3.65,"target":"left","response":"left","rt":130,"correct":true,"confidence":-1},{"trial_n":21,"n_dots":3.65,"target":"right","response":"left","rt":723.99999999999,"correct":false,"confidence":3},{"trial_n":22,"n_dots":3.75,"target":"left","response":"left","rt":567,"correct":true,"confidence":4},{"trial_n":23,"n_dots":3.75,"target":"left","response":"right","rt":674,"correct":false,"confidence":2},{"trial_n":24,"n_dots":3.85,"target":"right","response":"right","rt":689,"correct":true,"confidence":3},{"trial_n":25,"n_dots":3.85,"target":"left","response":"right","rt":657,"correct":false,"confidence":4},{"trial_n":26,"n_dots":3.95,"target":"right","response":"left","rt":439,"correct":false,"confidence":2},{"trial_n":27,"n_dots":4.05,"target":"left","response":"left","rt":367,"correct":true,"confidence":4},{"trial_n":28,"n_dots":4.05,"target":"left","response":"right","rt":423,"correct":false,"confidence":3},{"trial_n":29,"n_dots":4.15,"target":"right","response":"right","rt":205.00000000003,"correct":true,"confidence":4},{"trial_n":30,"n_dots":4.15,"target":"left","response":"left","rt":303,"correct":true,"confidence":4},{"trial_n":31,"n_dots":4.05,"target":"right","response":"right","rt":76.000000000029,"correct":true,"confidence":4},{"trial_n":32,"n_dots":4.05,"target":"left","response":"left","rt":341,"correct":true,"confidence":4},{"trial_n":33,"n_dots":3.95,"target":"right","response":"right","rt":302,"correct":true,"confidence":4},{"trial_n":34,"n_dots":3.95,"target":"right","response":"right","rt":341.99999999997,"correct":true,"confidence":4},{"trial_n":35,"n_dots":3.85,"target":"right","response":"right","rt":845,"correct":true,"confidence":4},{"trial_n":36,"n_dots":3.85,"target":"left","response":"left","rt":229,"correct":true,"confidence":4},{"trial_n":37,"n_dots":3.75,"target":"right","response":"right","rt":787.99999999997,"correct":true,"confidence":3},{"trial_n":38,"n_dots":3.75,"target":"right","response":"right","rt":577.99999999997,"correct":true,"confidence":4},{"trial_n":39,"n_dots":3.65,"target":"left","response":"right","rt":706,"correct":false,"confidence":3},{"trial_n":40,"n_dots":3.75,"target":"left","response":"left","rt":536,"correct":true,"confidence":4},{"trial_n":41,"n_dots":3.75,"target":"left","response":"left","rt":509,"correct":true,"confidence":3},{"trial_n":42,"n_dots":3.65,"target":"left","response":"left","rt":189.00000000006,"correct":true,"confidence":3},{"trial_n":43,"n_dots":3.65,"target":"left","response":"right","rt":610,"correct":false,"confidence":3},{"trial_n":44,"n_dots":3.75,"target":"right","response":"left","rt":1162,"correct":false,"confidence":3},{"trial_n":45,"n_dots":3.85,"target":"left","response":"left","rt":239,"correct":true,"confidence":4},{"trial_n":46,"n_dots":3.85,"target":"left","response":"left","rt":197,"correct":true,"confidence":4},{"trial_n":47,"n_dots":3.75,"target":"left","response":"left","rt":215,"correct":true,"confidence":4},{"trial_n":48,"n_dots":3.75,"target":"left","response":"left","rt":117,"correct":true,"confidence":4},{"trial_n":49,"n_dots":3.65,"target":"left","response":"left","rt":37,"correct":true,"confidence":4},{"trial_n":50,"n_dots":3.65,"target":"right","response":"left","rt":285,"correct":false,"confidence":4},{"trial_n":51,"n_dots":3.75,"target":"right","response":"right","rt":587,"correct":true,"confidence":4},{"trial_n":52,"n_dots":3.75,"target":"right","response":"right","rt":438,"correct":true,"confidence":4},{"trial_n":53,"n_dots":3.65,"target":"left","response":"left","rt":75.999999999942,"correct":true,"confidence":4},{"trial_n":54,"n_dots":3.65,"target":"left","response":"left","rt":410.00000000006,"correct":true,"confidence":2},{"trial_n":55,"n_dots":3.55,"target":"left","response":"left","rt":319,"correct":true,"confidence":3},{"trial_n":56,"n_dots":3.55,"target":"right","response":"right","rt":344,"correct":true,"confidence":4},{"trial_n":57,"n_dots":3.45,"target":"left","response":"right","rt":117.00000000006,"correct":false,"confidence":3},{"trial_n":58,"n_dots":3.55,"target":"left","response":"left","rt":43.000000000058,"correct":true,"confidence":3},{"trial_n":59,"n_dots":3.55,"target":"right","response":"right","rt":204,"correct":true,"confidence":1},{"trial_n":60,"n_dots":3.45,"target":"left","response":"left","rt":21,"correct":true,"confidence":3},{"trial_n":61,"n_dots":3.45,"target":"right","response":"right","rt":286,"correct":true,"confidence":2},{"trial_n":62,"n_dots":3.35,"target":"right","response":"right","rt":561,"correct":true,"confidence":3},{"trial_n":63,"n_dots":3.35,"target":"left","response":"left","rt":149,"correct":true,"confidence":3},{"trial_n":64,"n_dots":3.25,"target":"left","response":"left","rt":296,"correct":true,"confidence":4},{"trial_n":65,"n_dots":3.25,"target":"right","response":"right","rt":764,"correct":true,"confidence":2},{"trial_n":66,"n_dots":3.15,"target":"right","response":"right","rt":833,"correct":true,"confidence":1},{"trial_n":67,"n_dots":3.15,"target":"left","response":"left","rt":277,"correct":true,"confidence":2},{"trial_n":68,"n_dots":3.05,"target":"right","response":"right","rt":223,"correct":true,"confidence":3},{"trial_n":69,"n_dots":3.05,"target":"left","response":"left","rt":319,"correct":true,"confidence":3},{"trial_n":70,"n_dots":2.95,"target":"left","response":"left","rt":594,"correct":true,"confidence":2},{"trial_n":71,"n_dots":2.95,"target":"right","response":"right","rt":665,"correct":true,"confidence":2},{"trial_n":72,"n_dots":2.85,"target":"right","response":"right","rt":877,"correct":true,"confidence":2},{"trial_n":73,"n_dots":2.85,"target":"left","response":"left","rt":424,"correct":true,"confidence":3},{"trial_n":74,"n_dots":2.75,"target":"right","response":"right","rt":850,"correct":true,"confidence":1},{"trial_n":75,"n_dots":2.75,"target":"left","response":"left","rt":368.00000000012,"correct":true,"confidence":2},{"trial_n":76,"n_dots":2.65,"target":"left","response":"right","rt":54,"correct":false,"confidence":3},{"trial_n":77,"n_dots":2.75,"target":"right","response":"right","rt":253.99999999988,"correct":true,"confidence":2},{"trial_n":78,"n_dots":2.75,"target":"right","response":"left","rt":1296,"correct":false,"confidence":1},{"trial_n":79,"n_dots":2.85,"target":"right","response":"right","rt":77,"correct":true,"confidence":3},{"trial_n":80,"n_dots":2.85,"target":"right","response":"right","rt":397.99999999988,"correct":true,"confidence":3},{"trial_n":81,"n_dots":2.75,"target":"left","response":"left","rt":863,"correct":true,"confidence":4},{"trial_n":82,"n_dots":2.75,"target":"left","response":"right","rt":391,"correct":false,"confidence":3},{"trial_n":83,"n_dots":2.85,"target":"right","response":"left","rt":424,"correct":false,"confidence":3},{"trial_n":84,"n_dots":2.95,"target":"left","response":"left","rt":287,"correct":true,"confidence":3},{"trial_n":85,"n_dots":2.95,"target":"right","response":"right","rt":197.99999999988,"correct":true,"confidence":4},{"trial_n":86,"n_dots":2.85,"target":"right","response":"left","rt":369,"correct":false,"confidence":3},{"trial_n":87,"n_dots":2.95,"target":"left","response":"right","rt":747,"correct":false,"confidence":4},{"trial_n":88,"n_dots":3.05,"target":"right","response":"right","rt":182,"correct":true,"confidence":4},{"trial_n":89,"n_dots":3.05,"target":"right","response":"left","rt":528,"correct":false,"confidence":2},{"trial_n":90,"n_dots":3.15,"target":"right","response":"right","rt":314,"correct":true,"confidence":3},{"trial_n":91,"n_dots":3.15,"target":"right","response":"right","rt":637,"correct":true,"confidence":3},{"trial_n":92,"n_dots":3.05,"target":"left","response":"left","rt":262,"correct":true,"confidence":3},{"trial_n":93,"n_dots":3.05,"target":"left","response":"left","rt":223,"correct":true,"confidence":4},{"trial_n":94,"n_dots":2.95,"target":"left","response":"right","rt":148,"correct":false,"confidence":3},{"trial_n":95,"n_dots":3.05,"target":"right","response":"left","rt":634,"correct":false,"confidence":3},{"trial_n":96,"n_dots":3.15,"target":"left","response":"left","rt":189,"correct":true,"confidence":4},{"trial_n":97,"n_dots":3.15,"target":"right","response":"right","rt":29,"correct":true,"confidence":4},{"trial_n":98,"n_dots":3.05,"target":"right","response":"right","rt":190.99999999988,"correct":true,"confidence":3},{"trial_n":99,"n_dots":3.05,"target":"left","response":"left","rt":633.99999999988,"correct":true,"confidence":1},{"trial_n":100,"n_dots":2.95,"target":"right","response":"right","rt":102.00000000012,"correct":true,"confidence":3},{"trial_n":101,"n_dots":2.95,"target":"left","response":"left","rt":695,"correct":true,"confidence":4},{"trial_n":102,"n_dots":2.85,"target":"right","response":"right","rt":442,"correct":true,"confidence":3},{"trial_n":103,"n_dots":2.85,"target":"right","response":"right","rt":772,"correct":true,"confidence":4},{"trial_n":104,"n_dots":2.75,"target":"left","response":"left","rt":320,"correct":true,"confidence":3},{"trial_n":105,"n_dots":2.75,"target":"left","response":"left","rt":231,"correct":true,"confidence":4},{"trial_n":106,"n_dots":2.65,"target":"left","response":"right","rt":236.99999999988,"correct":false,"confidence":4},{"trial_n":107,"n_dots":2.75,"target":"left","response":"left","rt":111,"correct":true,"confidence":4},{"trial_n":108,"n_dots":2.75,"target":"left","response":"left","rt":38,"correct":true,"confidence":4},{"trial_n":109,"n_dots":2.65,"target":"right","response":"right","rt":658,"correct":true,"confidence":3},{"trial_n":110,"n_dots":2.65,"target":"left","response":"right","rt":223,"correct":false,"confidence":3},{"trial_n":111,"n_dots":2.75,"target":"left","response":"left","rt":524,"correct":true,"confidence":4},{"trial_n":112,"n_dots":2.75,"target":"right","response":"right","rt":1169.0000000001,"correct":true,"confidence":3},{"trial_n":113,"n_dots":2.65,"target":"right","response":"right","rt":15,"correct":true,"confidence":4},{"trial_n":114,"n_dots":2.65,"target":"right","response":"right","rt":400.99999999988,"correct":true,"confidence":3},{"trial_n":115,"n_dots":2.55,"target":"right","response":"right","rt":102.00000000012,"correct":true,"confidence":4},{"trial_n":116,"n_dots":2.55,"target":"left","response":"left","rt":369.00000000012,"correct":true,"confidence":4},{"trial_n":117,"n_dots":2.45,"target":"right","response":"left","rt":747,"correct":false,"confidence":2},{"trial_n":118,"n_dots":2.55,"target":"left","response":"right","rt":537,"correct":false,"confidence":3},{"trial_n":119,"n_dots":2.65,"target":"right","response":"right","rt":247,"correct":true,"confidence":3},{"trial_n":120,"n_dots":2.65,"target":"left","response":"left","rt":692,"correct":true,"confidence":1}]