[{"trial_n":1,"min":25,"max":230,"target":"present","response":"present","rt":5969.799999997,"correct":true,"confidence":-1},{"trial_n":2,"min":25,"max":230,"target":"present","response":"present","rt":1471.8000000045,"correct":true,"confidence":-1},{"trial_n":3,"min":41,"max":214,"target":"absent","response":"absent","rt":670.20000000298,"correct":true,"confidence":-1},{"trial_n":4,"min":41,"max":214,"target":"absent","response":"absent","rt":490.29999999702,"correct":true,"confidence":-1},{"trial_n":5,"min":57,"max":198,"target":"present","response":"present","rt":421.80000000447,"correct":true,"confidence":-1},{"trial_n":6,"min":57,"max":198,"target":"present","response":"present","rt":759,"correct":true,"confidence":-1},{"trial_n":7,"min":73,"max":182,"target":"absent","response":"absent","rt":556.19999999553,"correct":true,"confidence":-1},{"trial_n":8,"min":73,"max":182,"target":"present","response":"present","rt":600.69999999553,"correct":true,"confidence":-1},{"trial_n":9,"min":89,"max":166,"target":"present","response":"absent","rt":412.10000000149,"correct":false,"confidence":-1},{"trial_n":10,"min":73,"max":182,"target":"present","response":"present","rt":465.60000000149,"correct":true,"confidence":-1},{"trial_n":11,"min":73,"max":182,"target":"absent","response":"absent","rt":456.89999999851,"correct":true,"confidence":-1},{"trial_n":12,"min":81,"max":174,"target":"present","response":"present","rt":745.89999999851,"correct":true,"confidence":-1},{"trial_n":13,"min":81,"max":174,"target":"absent","response":"present","rt":1193.1000000015,"correct":false,"confidence":-1},{"trial_n":14,"min":73,"max":182,"target":"present","response":"present","rt":457.10000000149,"correct":true,"confidence":-1},{"trial_n":15,"min":73,"max":182,"target":"absent","response":"absent","rt":308.10000000149,"correct":true,"confidence":-1},{"trial_n":16,"min":81,"max":174,"target":"present","response":"absent","rt":689.59999999404,"correct":false,"confidence":-1},{"trial_n":17,"min":73,"max":182,"target":"present","response":"present","rt":351.30000000447,"correct":true,"confidence":-1},{"trial_n":18,"min":73,"max":182,"target":"present","response":"present","rt":763.10000000149,"correct":true,"confidence":-1},{"trial_n":19,"min":81,"max":174,"target":"absent","response":"absent","rt":449.30000000447,"correct":true,"confidence":-1},{"trial_n":20,"min":81,"max":174,"target":"present","response":"present","rt":450.09999999404,"correct":true,"confidence":-1},{"trial_n":21,"min":85,"max":170,"target":"present","response":"present","rt":742.89999999851,"correct":true,"confidence":5},{"trial_n":22,"min":85,"max":170,"target":"present","response":"present","rt":2474.8999999985,"correct":true,"confidence":5},{"trial_n":23,"min":89,"max":166,"target":"present","response":"present","rt":656.5,"correct":true,"confidence":5},{"trial_n":24,"min":89,"max":166,"target":"absent","response":"present","rt":539.80000000447,"correct":false,"confidence":5},{"trial_n":25,"min":85,"max":170,"target":"absent","response":"present","rt":788.20000000298,"correct":false,"confidence":4},{"trial_n":26,"min":81,"max":174,"target":"absent","response":"present","rt":917.60000000149,"correct":false,"confidence":5},{"trial_n":27,"min":77,"max":178,"target":"absent","response":"absent","rt":2761,"correct":true,"confidence":3},{"trial_n":28,"min":77,"max":178,"target":"present","response":"present","rt":1277.3000000045,"correct":true,"confidence":5},{"trial_n":29,"min":81,"max":174,"target":"absent","response":"absent","rt":1502.1000000015,"correct":true,"confidence":3},{"trial_n":30,"min":81,"max":174,"target":"absent","response":"absent","rt":759,"correct":true,"confidence":3},{"trial_n":31,"min":83,"max":172,"target":"absent","response":"absent","rt":2519.3000000045,"correct":true,"confidence":1},{"trial_n":32,"min":83,"max":172,"target":"present","response":"present","rt":385.5,"correct":true,"confidence":5},{"trial_n":33,"min":85,"max":170,"target":"absent","response":"absent","rt":727.5,"correct":true,"confidence":4},{"trial_n":34,"min":85,"max":170,"target":"present","response":"present","rt":565.5,"correct":true,"confidence":5},{"trial_n":35,"min":87,"max":168,"target":"present","response":"absent","rt":877.5,"correct":false,"confidence":1},{"trial_n":36,"min":85,"max":170,"target":"absent","response":"absent","rt":1406.799999997,"correct":true,"confidence":3},{"trial_n":37,"min":85,"max":170,"target":"absent","response":"absent","rt":629.90000000596,"correct":true,"confidence":3},{"trial_n":38,"min":87,"max":168,"target":"absent","response":"absent","rt":702.39999999851,"correct":true,"confidence":3},{"trial_n":39,"min":87,"max":168,"target":"absent","response":"present","rt":1370.900000006,"correct":false,"confidence":4},{"trial_n":40,"min":85,"max":170,"target":"absent","response":"present","rt":741.60000000149,"correct":false,"confidence":4},{"trial_n":41,"min":84,"max":171,"target":"present","response":"present","rt":479.90000000596,"correct":true,"confidence":5},{"trial_n":42,"min":84,"max":171,"target":"present","response":"present","rt":808.70000000298,"correct":true,"confidence":5},{"trial_n":43,"min":85,"max":170,"target":"absent","response":"absent","rt":4380.200000003,"correct":true,"confidence":3},{"trial_n":44,"min":85,"max":170,"target":"absent","response":"absent","rt":611.69999999553,"correct":true,"confidence":3},{"trial_n":45,"min":86,"max":169,"target":"absent","response":"present","rt":904,"correct":false,"confidence":3},{"trial_n":46,"min":85,"max":170,"target":"present","response":"present","rt":728.10000000149,"correct":true,"confidence":4},{"trial_n":47,"min":85,"max":170,"target":"present","response":"present","rt":879.10000000149,"correct":true,"confidence":5},{"trial_n":48,"min":86,"max":169,"target":"absent","response":"absent","rt":723.5,"correct":true,"confidence":5},{"trial_n":49,"min":86,"max":169,"target":"absent","response":"present","rt":867.10000000149,"correct":false,"confidence":1},{"trial_n":50,"min":85,"max":170,"target":"absent","response":"absent","rt":784.20000000298,"correct":true,"confidence":4},{"trial_n":51,"min":85,"max":170,"target":"absent","response":"absent","rt":6293.599999994,"correct":true,"confidence":3},{"trial_n":52,"min":86,"max":169,"target":"present","response":"present","rt":1058,"correct":true,"confidence":5},{"trial_n":53,"min":86,"max":169,"target":"present","response":"present","rt":1266.8999999985,"correct":true,"confidence":5},{"trial_n":54,"min":87,"max":168,"target":"present","response":"present","rt":2102.6000000015,"correct":true,"confidence":3},{"trial_n":55,"min":87,"max":168,"target":"present","response":"present","rt":879.80000000447,"correct":true,"confidence":5},{"trial_n":56,"min":88,"max":167,"target":"present","response":"present","rt":809.80000000447,"correct":true,"confidence":4},{"trial_n":57,"min":88,"max":167,"target":"absent","response":"absent","rt":623.29999999702,"correct":true,"confidence":3},{"trial_n":58,"min":89,"max":166,"target":"present","response":"present","rt":580.60000000149,"correct":true,"confidence":4},{"trial_n":59,"min":89,"max":166,"target":"absent","response":"absent","rt":586.20000000298,"correct":true,"confidence":5},{"trial_n":60,"min":90,"max":165,"target":"present","response":"present","rt":782.79999999702,"correct":true,"confidence":5},{"trial_n":61,"min":90,"max":165,"target":"present","response":"present","rt":1150.6999999955,"correct":true,"confidence":5},{"trial_n":62,"min":91,"max":164,"target":"present","response":"absent","rt":2102.1000000015,"correct":false,"confidence":2},{"trial_n":63,"min":90,"max":165,"target":"absent","response":"absent","rt":6013.799999997,"correct":true,"confidence":1},{"trial_n":64,"min":90,"max":165,"target":"present","response":"present","rt":438.20000000298,"correct":true,"confidence":5},{"trial_n":65,"min":91,"max":164,"target":"absent","response":"absent","rt":3136.6000000015,"correct":true,"confidence":3},{"trial_n":66,"min":91,"max":164,"target":"present","response":"present","rt":487.20000000298,"correct":true,"confidence":4},{"trial_n":67,"min":92,"max":163,"target":"absent","response":"absent","rt":854.60000000149,"correct":true,"confidence":3},{"trial_n":68,"min":92,"max":163,"target":"present","response":"absent","rt":3053.3000000045,"correct":false,"confidence":3},{"trial_n":69,"min":91,"max":164,"target":"absent","response":"absent","rt":1705,"correct":true,"confidence":4},{"trial_n":70,"min":91,"max":164,"target":"absent","response":"absent","rt":825.30000000447,"correct":true,"confidence":4},{"trial_n":71,"min":41,"max":214,"target":"present","response":"present","rt":4935.5,"correct":true,"confidence":-1},{"trial_n":72,"min":41,"max":214,"target":"present","response":"present","rt":855.29999999702,"correct":true,"confidence":-1},{"trial_n":73,"min":57,"max":198,"target":"absent","response":"absent","rt":285.60000000149,"correct":true,"confidence":-1},{"trial_n":74,"min":57,"max":198,"target":"absent","response":"absent","rt":352,"correct":true,"confidence":-1},{"trial_n":75,"min":73,"max":182,"target":"present","response":"present","rt":357.39999999851,"correct":true,"confidence":-1},{"trial_n":76,"min":73,"max":182,"target":"present","response":"present","rt":403.5,"correct":true,"confidence":-1},{"trial_n":77,"min":89,"max":166,"target":"present","response":"present","rt":340,"correct":true,"confidence":-1},{"trial_n":78,"min":89,"max":166,"target":"absent","response":"absent","rt":255.80000000447,"correct":true,"confidence":-1},{"trial_n":79,"min":105,"max":150,"target":"present","response":"absent","rt":394.5,"correct":false,"confidence":-1},{"trial_n":80,"min":89,"max":166,"target":"absent","response":"present","rt":532.5,"correct":false,"confidence":-1},{"trial_n":81,"min":81,"max":174,"target":"absent","response":"absent","rt":581.60000000149,"correct":true,"confidence":-1},{"trial_n":82,"min":81,"max":174,"target":"absent","response":"absent","rt":1168.400000006,"correct":true,"confidence":-1},{"trial_n":83,"min":89,"max":166,"target":"absent","response":"present","rt":638.40000000596,"correct":false,"confidence":-1},{"trial_n":84,"min":81,"max":174,"target":"present","response":"present","rt":482,"correct":true,"confidence":-1},{"trial_n":85,"min":81,"max":174,"target":"absent","response":"absent","rt":1117.700000003,"correct":true,"confidence":-1},{"trial_n":86,"min":89,"max":166,"target":"absent","response":"absent","rt":367.60000000149,"correct":true,"confidence":-1},{"trial_n":87,"min":89,"max":166,"target":"present","response":"absent","rt":542.10000000149,"correct":false,"confidence":-1},{"trial_n":88,"min":81,"max":174,"target":"absent","response":"absent","rt":597.5,"correct":true,"confidence":-1},{"trial_n":89,"min":81,"max":174,"target":"present","response":"present","rt":523.19999999553,"correct":true,"confidence":-1},{"trial_n":90,"min":89,"max":166,"target":"present","response":"present","rt":703.30000000447,"correct":true,"confidence":-1},{"trial_n":91,"min":89,"max":166,"target":"absent","response":"absent","rt":458.89999999851,"correct":true,"confidence":4},{"trial_n":92,"min":93,"max":162,"target":"present","response":"present","rt":1374.900000006,"correct":true,"confidence":4},{"trial_n":93,"min":93,"max":162,"target":"present","response":"absent","rt":880.39999999851,"correct":false,"confidence":1},{"trial_n":94,"min":89,"max":166,"target":"absent","response":"absent","rt":456.5,"correct":true,"confidence":3},{"trial_n":95,"min":89,"max":166,"target":"present","response":"present","rt":747.70000000298,"correct":true,"confidence":3},{"trial_n":96,"min":93,"max":162,"target":"absent","response":"absent","rt":14695.800000004,"correct":true,"confidence":2},{"trial_n":97,"min":93,"max":162,"target":"present","response":"present","rt":529.20000000298,"correct":true,"confidence":4},{"trial_n":98,"min":97,"max":158,"target":"absent","response":"present","rt":796.10000000149,"correct":false,"confidence":4},{"trial_n":99,"min":93,"max":162,"target":"present","response":"absent","rt":3250.5,"correct":false,"confidence":2},{"trial_n":100,"min":89,"max":166,"target":"present","response":"present","rt":452.60000000149,"correct":true,"confidence":3},{"trial_n":101,"min":89,"max":166,"target":"absent","response":"absent","rt":651.70000000298,"correct":true,"confidence":3},{"trial_n":102,"min":91,"max":164,"target":"present","response":"present","rt":319.70000000298,"correct":true,"confidence":5},{"trial_n":103,"min":91,"max":164,"target":"absent","response":"present","rt":570.70000000298,"correct":false,"confidence":3},{"trial_n":104,"min":89,"max":166,"target":"present","response":"absent","rt":641.80000000447,"correct":false,"confidence":4},{"trial_n":105,"min":87,"max":168,"target":"present","response":"present","rt":425,"correct":true,"confidence":5},{"trial_n":106,"min":87,"max":168,"target":"absent","response":"present","rt":2495.1000000015,"correct":false,"confidence":3},{"trial_n":107,"min":85,"max":170,"target":"present","response":"present","rt":301.5,"correct":true,"confidence":5},{"trial_n":108,"min":85,"max":170,"target":"absent","response":"absent","rt":1238.900000006,"correct":true,"confidence":4},{"trial_n":109,"min":87,"max":168,"target":"absent","response":"absent","rt":1500.6999999955,"correct":true,"confidence":5},{"trial_n":110,"min":87,"max":168,"target":"present","response":"present","rt":346.20000000298,"correct":true,"confidence":5},{"trial_n":111,"min":88,"max":167,"target":"present","response":"present","rt":427.60000000149,"correct":true,"confidence":5},{"trial_n":112,"min":88,"max":167,"target":"present","response":"present","rt":2282.1000000015,"correct":true,"confidence":5},{"trial_n":113,"min":89,"max":166,"target":"present","response":"present","rt":1439.700000003,"correct":true,"confidence":5},{"trial_n":114,"min":89,"max":166,"target":"present","response":"present","rt":460.30000000447,"correct":true,"confidence":5},{"trial_n":115,"min":90,"max":165,"target":"present","response":"present","rt":535.20000000298,"correct":true,"confidence":5},{"trial_n":116,"min":90,"max":165,"target":"present","response":"absent","rt":1383.6000000015,"correct":false,"confidence":4},{"trial_n":117,"min":89,"max":166,"target":"present","response":"present","rt":892,"correct":true,"confidence":4},{"trial_n":118,"min":89,"max":166,"target":"absent","response":"absent","rt":1279.6000000015,"correct":true,"confidence":4},{"trial_n":119,"min":90,"max":165,"target":"absent","response":"absent","rt":1050.700000003,"correct":true,"confidence":5},{"trial_n":120,"min":90,"max":165,"target":"absent","response":"absent","rt":1847.900000006,"correct":true,"confidence":3},{"trial_n":121,"min":91,"max":164,"target":"present","response":"absent","rt":941.59999999404,"correct":false,"confidence":5},{"trial_n":122,"min":90,"max":165,"target":"absent","response":"absent","rt":599,"correct":true,"confidence":4},{"trial_n":123,"min":90,"max":165,"target":"absent","response":"absent","rt":1913.8999999985,"correct":true,"confidence":2},{"trial_n":124,"min":91,"max":164,"target":"present","response":"absent","rt":684.60000000149,"correct":false,"confidence":1},{"trial_n":125,"min":90,"max":165,"target":"absent","response":"absent","rt":1155.3999999985,"correct":true,"confidence":1},{"trial_n":126,"min":90,"max":165,"target":"present","response":"absent","rt":743.69999999553,"correct":false,"confidence":1},{"trial_n":127,"min":89,"max":166,"target":"present","response":"present","rt":723.10000000149,"correct":true,"confidence":3},{"trial_n":128,"min":89,"max":166,"target":"absent","response":"absent","rt":1303.200000003,"correct":true,"confidence":4},{"trial_n":129,"min":90,"max":165,"target":"present","response":"present","rt":429.90000000596,"correct":true,"confidence":5},{"trial_n":130,"min":90,"max":165,"target":"absent","response":"absent","rt":1639,"correct":true,"confidence":3},{"trial_n":131,"min":91,"max":164,"target":"absent","response":"present","rt":2490.599999994,"correct":false,"confidence":3},{"trial_n":132,"min":90,"max":165,"target":"present","response":"present","rt":415.79999999702,"correct":true,"confidence":4},{"trial_n":133,"min":90,"max":165,"target":"absent","response":"present","rt":743.39999999851,"correct":false,"confidence":4},{"trial_n":134,"min":89,"max":166,"target":"absent","response":"absent","rt":950.40000000596,"correct":true,"confidence":4},{"trial_n":135,"min":89,"max":166,"target":"absent","response":"absent","rt":1142.799999997,"correct":true,"confidence":2},{"trial_n":136,"min":90,"max":165,"target":"absent","response":"absent","rt":996.10000000149,"correct":true,"confidence":4},{"trial_n":137,"min":90,"max":165,"target":"present","response":"present","rt":379.90000000596,"correct":true,"confidence":5},{"trial_n":138,"min":91,"max":164,"target":"absent","response":"absent","rt":1296.8000000045,"correct":true,"confidence":5},{"trial_n":139,"min":91,"max":164,"target":"present","response":"present","rt":436.09999999404,"correct":true,"confidence":5},{"trial_n":140,"min":92,"max":163,"target":"absent","response":"absent","rt":1442.700000003,"correct":true,"confidence":5}]