[{"trial_n":1,"span":8,"encoder":"27460268","distractor":"27470268","target":"present","response":"present","rt":"4909.099999994","correct":true,"confidence":-1},{"trial_n":2,"span":8,"encoder":"91666930","distractor":"31666930","target":"present","response":"present","rt":"1214.1000000015","correct":true,"confidence":-1},{"trial_n":3,"span":10,"encoder":"6094983023","distractor":"6094983024","target":"absent","response":"present","rt":"2034","correct":false,"confidence":-1},{"trial_n":4,"span":8,"encoder":"38688230","distractor":"98688230","target":"absent","response":"absent","rt":"4423.299999997","correct":true,"confidence":-1},{"trial_n":5,"span":8,"encoder":"32719219","distractor":"32719419","target":"present","response":"absent","rt":"1851.6999999955","correct":false,"confidence":-1},{"trial_n":6,"span":6,"encoder":"223257","distractor":"923257","target":"present","response":"present","rt":"2048.3999999985","correct":true,"confidence":-1},{"trial_n":7,"span":6,"encoder":"637985","distractor":"637485","target":"absent","response":"absent","rt":"2828.900000006","correct":true,"confidence":-1},{"trial_n":8,"span":8,"encoder":"21457569","distractor":"21457539","target":"present","response":"absent","rt":"4744.3999999985","correct":false,"confidence":-1},{"trial_n":9,"span":6,"encoder":"476517","distractor":"376517","target":"present","response":"present","rt":"2146.799999997","correct":true,"confidence":-1},{"trial_n":10,"span":6,"encoder":"957022","distractor":"957082","target":"present","response":"present","rt":"1010","correct":true,"confidence":-1},{"trial_n":11,"span":8,"encoder":"85343802","distractor":"85343806","target":"present","response":"present","rt":"3359.6999999955","correct":true,"confidence":-1},{"trial_n":12,"span":8,"encoder":"75359566","distractor":"75759566","target":"absent","response":"absent","rt":"3602.1000000015","correct":true,"confidence":-1},{"trial_n":13,"span":9,"encoder":"283528731","distractor":"289528731","target":"present","response":"present","rt":"2028","correct":true,"confidence":-1},{"trial_n":14,"span":9,"encoder":"598467227","distractor":"598467217","target":"absent","response":"absent","rt":"4237.8999999985","correct":true,"confidence":-1},{"trial_n":15,"span":10,"encoder":"9599547765","distractor":"9599544765","target":"absent","response":"absent","rt":"1528","correct":true,"confidence":-1},{"trial_n":16,"span":10,"encoder":"9568895656","distractor":"9768895656","target":"present","response":"present","rt":"2466.700000003","correct":true,"confidence":-1},{"trial_n":17,"span":11,"encoder":"74275223695","distractor":"74265223695","target":"present","response":"present","rt":"3074.1999999955","correct":true,"confidence":-1},{"trial_n":18,"span":11,"encoder":"52172688178","distractor":"42172688178","target":"present","response":"absent","rt":"2456","correct":false,"confidence":-1},{"trial_n":19,"span":10,"encoder":"4631946099","distractor":"4631446099","target":"absent","response":"absent","rt":"1302","correct":true,"confidence":-1},{"trial_n":20,"span":10,"encoder":"0698456757","distractor":"0698856757","target":"present","response":"present","rt":"1981.6000000015","correct":true,"confidence":-1},{"trial_n":21,"span":11,"encoder":"97667809686","distractor":"97667805686","target":"present","response":"present","rt":"2902.900000006","correct":true,"confidence":2},{"trial_n":22,"span":11,"encoder":"18219631587","distractor":"18239631587","target":"present","response":"absent","rt":"7446","correct":false,"confidence":3},{"trial_n":23,"span":10,"encoder":"6885054832","distractor":"6885044832","target":"absent","response":"absent","rt":"4643.6000000015","correct":true,"confidence":4},{"trial_n":24,"span":10,"encoder":"3379937836","distractor":"3379930836","target":"absent","response":"present","rt":"2686.3999999985","correct":false,"confidence":2},{"trial_n":25,"span":9,"encoder":"466592478","distractor":"464592478","target":"absent","response":"present","rt":"1478.6999999955","correct":false,"confidence":1},{"trial_n":26,"span":8,"encoder":"04892300","distractor":"02892300","target":"present","response":"present","rt":"2066.799999997","correct":true,"confidence":3},{"trial_n":27,"span":8,"encoder":"25582008","distractor":"25582088","target":"absent","response":"present","rt":"1971.299999997","correct":false,"confidence":4},{"trial_n":28,"span":7,"encoder":"7932624","distractor":"7932621","target":"present","response":"present","rt":"1702.200000003","correct":true,"confidence":3},{"trial_n":29,"span":7,"encoder":"6945913","distractor":"6945613","target":"absent","response":"absent","rt":"6725.1000000015","correct":true,"confidence":5},{"trial_n":30,"span":8,"encoder":"13737067","distractor":"13737057","target":"absent","response":"absent","rt":"5280.299999997","correct":true,"confidence":5},{"trial_n":31,"span":8,"encoder":"64145410","distractor":"64149410","target":"present","response":"present","rt":"2955.6999999955","correct":true,"confidence":2},{"trial_n":32,"span":9,"encoder":"128560677","distractor":"128560777","target":"absent","response":"present","rt":"1081.5","correct":false,"confidence":5},{"trial_n":33,"span":8,"encoder":"21541491","distractor":"21141491","target":"present","response":"present","rt":"2350.6999999955","correct":true,"confidence":5},{"trial_n":34,"span":8,"encoder":"23448585","distractor":"53448585","target":"absent","response":"absent","rt":"5118","correct":true,"confidence":3},{"trial_n":35,"span":9,"encoder":"805574752","distractor":"805504752","target":"present","response":"absent","rt":"848.70000000298","correct":false,"confidence":1},{"trial_n":36,"span":8,"encoder":"11468237","distractor":"11478237","target":"absent","response":"absent","rt":"4194.6000000015","correct":true,"confidence":4},{"trial_n":37,"span":8,"encoder":"58946998","distractor":"58946993","target":"present","response":"present","rt":"2752.5","correct":true,"confidence":3},{"trial_n":38,"span":9,"encoder":"765647890","distractor":"761647890","target":"present","response":"absent","rt":"2073","correct":false,"confidence":2},{"trial_n":39,"span":8,"encoder":"03710266","distractor":"09710266","target":"absent","response":"present","rt":"2481","correct":false,"confidence":4},{"trial_n":40,"span":7,"encoder":"0539668","distractor":"0539068","target":"absent","response":"absent","rt":"22379.899999999","correct":true,"confidence":2},{"trial_n":41,"span":7,"encoder":"4680683","distractor":"4680687","target":"absent","response":"absent","rt":"2884.8999999985","correct":true,"confidence":4},{"trial_n":42,"span":8,"encoder":"24020470","distractor":"24620470","target":"present","response":"present","rt":"5377.700000003","correct":true,"confidence":5},{"trial_n":43,"span":8,"encoder":"15825054","distractor":"15825057","target":"absent","response":"absent","rt":"2685.5","correct":true,"confidence":2},{"trial_n":44,"span":9,"encoder":"347642900","distractor":"346642900","target":"absent","response":"absent","rt":"3670.8999999985","correct":true,"confidence":5},{"trial_n":45,"span":9,"encoder":"183210512","distractor":"183210515","target":"absent","response":"absent","rt":"5963.5","correct":true,"confidence":4},{"trial_n":46,"span":10,"encoder":"6181884784","distractor":"6181884787","target":"present","response":"present","rt":"4778.6000000015","correct":true,"confidence":2},{"trial_n":47,"span":10,"encoder":"9178434229","distractor":"9178434029","target":"absent","response":"absent","rt":"2583.3999999985","correct":true,"confidence":5},{"trial_n":48,"span":11,"encoder":"94088771279","distractor":"94088761279","target":"present","response":"present","rt":"2561.900000006","correct":true,"confidence":5},{"trial_n":49,"span":11,"encoder":"79397941624","distractor":"49397941624","target":"absent","response":"absent","rt":"4285.299999997","correct":true,"confidence":3},{"trial_n":50,"span":12,"encoder":"151746348176","distractor":"151766348176","target":"absent","response":"absent","rt":"2473","correct":true,"confidence":2},{"trial_n":51,"span":12,"encoder":"340426546432","distractor":"346426546432","target":"absent","response":"present","rt":"5137.200000003","correct":false,"confidence":4},{"trial_n":52,"span":11,"encoder":"30438026955","distractor":"33438026955","target":"present","response":"absent","rt":"1817.8999999985","correct":false,"confidence":5},{"trial_n":53,"span":10,"encoder":"1527632277","distractor":"1527634277","target":"present","response":"present","rt":"2525.200000003","correct":true,"confidence":3},{"trial_n":54,"span":10,"encoder":"1175957338","distractor":"1175957358","target":"present","response":"present","rt":"4805","correct":true,"confidence":5},{"trial_n":55,"span":11,"encoder":"05972523610","distractor":"05972523210","target":"absent","response":"absent","rt":"1856.1000000015","correct":true,"confidence":1},{"trial_n":56,"span":11,"encoder":"14861427974","distractor":"14861427944","target":"absent","response":"present","rt":"4340.200000003","correct":false,"confidence":2},{"trial_n":57,"span":10,"encoder":"3142717202","distractor":"3146717202","target":"absent","response":"absent","rt":"5768.6000000015","correct":true,"confidence":4},{"trial_n":58,"span":10,"encoder":"9519515798","distractor":"9529515798","target":"absent","response":"absent","rt":"5677.799999997","correct":true,"confidence":3},{"trial_n":59,"span":11,"encoder":"78063381591","distractor":"78063381891","target":"present","response":"present","rt":"4875.8000000045","correct":true,"confidence":4},{"trial_n":60,"span":11,"encoder":"15884287109","distractor":"15844287109","target":"present","response":"present","rt":"2957.5","correct":true,"confidence":3},{"trial_n":61,"span":12,"encoder":"217539936463","distractor":"297539936463","target":"present","response":"absent","rt":"8174.5","correct":false,"confidence":1},{"trial_n":62,"span":11,"encoder":"46465830791","distractor":"46465860791","target":"present","response":"present","rt":"3808.799999997","correct":true,"confidence":3},{"trial_n":63,"span":11,"encoder":"37062346828","distractor":"37063346828","target":"present","response":"present","rt":"6004.3000000045","correct":true,"confidence":3},{"trial_n":64,"span":12,"encoder":"575774016400","distractor":"575774012400","target":"present","response":"present","rt":"3653","correct":true,"confidence":3},{"trial_n":65,"span":12,"encoder":"256805232421","distractor":"256805238421","target":"present","response":"absent","rt":"5443.6999999955","correct":false,"confidence":5},{"trial_n":66,"span":11,"encoder":"80822902576","distractor":"80822902876","target":"present","response":"present","rt":"8242.700000003","correct":true,"confidence":2},{"trial_n":67,"span":11,"encoder":"34124167343","distractor":"34121167343","target":"absent","response":"absent","rt":"3419.6000000015","correct":true,"confidence":3},{"trial_n":68,"span":12,"encoder":"791081117023","distractor":"791581117023","target":"absent","response":"present","rt":"1192.8999999985","correct":false,"confidence":4},{"trial_n":69,"span":11,"encoder":"93280487296","distractor":"93580487296","target":"absent","response":"absent","rt":"4484.8999999985","correct":true,"confidence":5},{"trial_n":70,"span":11,"encoder":"55074220093","distractor":"55474220093","target":"absent","response":"present","rt":"3734.1000000015","correct":false,"confidence":4},{"trial_n":71,"span":8,"encoder":"59111310","distractor":"79111310","target":"present","response":"present","rt":"2432.799999997","correct":true,"confidence":-1},{"trial_n":72,"span":8,"encoder":"75139172","distractor":"75539172","target":"present","response":"present","rt":"1844.299999997","correct":true,"confidence":-1},{"trial_n":73,"span":9,"encoder":"725499672","distractor":"725499632","target":"absent","response":"present","rt":"3160.3000000045","correct":false,"confidence":-1},{"trial_n":74,"span":8,"encoder":"04166861","distractor":"04166851","target":"absent","response":"absent","rt":"2883.700000003","correct":true,"confidence":-1},{"trial_n":75,"span":8,"encoder":"77664624","distractor":"07664624","target":"present","response":"present","rt":"6780.700000003","correct":true,"confidence":-1},{"trial_n":76,"span":9,"encoder":"745962723","distractor":"145962723","target":"absent","response":"absent","rt":"1563.5","correct":true,"confidence":-1},{"trial_n":77,"span":9,"encoder":"384704368","distractor":"984704368","target":"present","response":"absent","rt":"2091.700000003","correct":false,"confidence":-1},{"trial_n":78,"span":8,"encoder":"56068469","distractor":"56088469","target":"absent","response":"present","rt":"4007","correct":false,"confidence":-1},{"trial_n":79,"span":7,"encoder":"0303520","distractor":"0603520","target":"present","response":"present","rt":"3947.5","correct":true,"confidence":-1},{"trial_n":80,"span":7,"encoder":"1661855","distractor":"1661857","target":"absent","response":"absent","rt":"1988.200000003","correct":true,"confidence":-1},{"trial_n":81,"span":8,"encoder":"01271950","distractor":"01271450","target":"present","response":"present","rt":"3610.8999999985","correct":true,"confidence":-1},{"trial_n":82,"span":8,"encoder":"39736163","distractor":"35736163","target":"absent","response":"absent","rt":"4139.299999997","correct":true,"confidence":-1},{"trial_n":83,"span":9,"encoder":"205149753","distractor":"225149753","target":"absent","response":"absent","rt":"3759.799999997","correct":true,"confidence":-1},{"trial_n":84,"span":9,"encoder":"809821617","distractor":"809821817","target":"absent","response":"present","rt":"5607.299999997","correct":false,"confidence":-1},{"trial_n":85,"span":8,"encoder":"84158676","distractor":"84758676","target":"absent","response":"absent","rt":"2926.1999999955","correct":true,"confidence":-1},{"trial_n":86,"span":8,"encoder":"45374840","distractor":"45324840","target":"absent","response":"absent","rt":"4272.6999999955","correct":true,"confidence":-1},{"trial_n":87,"span":9,"encoder":"507291324","distractor":"507491324","target":"present","response":"absent","rt":"4630.299999997","correct":false,"confidence":-1},{"trial_n":88,"span":8,"encoder":"85839120","distractor":"85839127","target":"present","response":"present","rt":"2151.3000000045","correct":true,"confidence":-1},{"trial_n":89,"span":8,"encoder":"91118200","distractor":"91118203","target":"present","response":"present","rt":"3421.299999997","correct":true,"confidence":-1},{"trial_n":90,"span":9,"encoder":"514225822","distractor":"514229822","target":"present","response":"present","rt":"3102.299999997","correct":true,"confidence":-1},{"trial_n":91,"span":9,"encoder":"821593787","distractor":"821593757","target":"present","response":"present","rt":"4949.1999999955","correct":true,"confidence":3},{"trial_n":92,"span":10,"encoder":"6132580722","distractor":"6136580722","target":"present","response":"present","rt":"26022.399999999","correct":true,"confidence":2},{"trial_n":93,"span":10,"encoder":"6937116452","distractor":"6937116456","target":"absent","response":"absent","rt":"3736","correct":true,"confidence":4},{"trial_n":94,"span":11,"encoder":"88071928929","distractor":"08071928929","target":"absent","response":"absent","rt":"6038.799999997","correct":true,"confidence":5},{"trial_n":95,"span":11,"encoder":"15343079338","distractor":"15343079348","target":"absent","response":"absent","rt":"3153.3000000045","correct":true,"confidence":4},{"trial_n":96,"span":12,"encoder":"399185272967","distractor":"399185272997","target":"present","response":"absent","rt":"4985.5","correct":false,"confidence":3},{"trial_n":97,"span":11,"encoder":"36528647058","distractor":"36521647058","target":"absent","response":"absent","rt":"5088.6999999955","correct":true,"confidence":4},{"trial_n":98,"span":11,"encoder":"87035930142","distractor":"87035910142","target":"absent","response":"absent","rt":"5495.6000000015","correct":true,"confidence":2},{"trial_n":99,"span":12,"encoder":"676539100912","distractor":"676539170912","target":"absent","response":"absent","rt":"1579.1000000015","correct":true,"confidence":5},{"trial_n":100,"span":12,"encoder":"043532580958","distractor":"043539580958","target":"absent","response":"absent","rt":"7697.700000003","correct":true,"confidence":2},{"trial_n":101,"span":13,"encoder":"6356239218452","distractor":"6356239212452","target":"absent","response":"absent","rt":"724.89999999851","correct":true,"confidence":1},{"trial_n":102,"span":13,"encoder":"9331684732426","distractor":"1331684732426","target":"present","response":"absent","rt":"10496.299999997","correct":false,"confidence":2},{"trial_n":103,"span":12,"encoder":"526529295896","distractor":"526529795896","target":"present","response":"absent","rt":"10322.799999997","correct":false,"confidence":3},{"trial_n":104,"span":11,"encoder":"88951204271","distractor":"88951204171","target":"absent","response":"absent","rt":"8125.200000003","correct":true,"confidence":2},{"trial_n":105,"span":11,"encoder":"32572648863","distractor":"32572648893","target":"present","response":"absent","rt":"10775.100000001","correct":false,"confidence":2},{"trial_n":106,"span":10,"encoder":"1685833758","distractor":"1685833158","target":"present","response":"present","rt":"6267.299999997","correct":true,"confidence":2},{"trial_n":107,"span":10,"encoder":"6092775905","distractor":"6062775905","target":"absent","response":"absent","rt":"2702.299999997","correct":true,"confidence":4},{"trial_n":108,"span":11,"encoder":"80048552442","distractor":"80048552447","target":"present","response":"absent","rt":"5545.099999994","correct":false,"confidence":4},{"trial_n":109,"span":10,"encoder":"4117905438","distractor":"4117905838","target":"present","response":"absent","rt":"6811.799999997","correct":false,"confidence":3},{"trial_n":110,"span":9,"encoder":"031862120","distractor":"031862130","target":"present","response":"present","rt":"6562.200000003","correct":true,"confidence":4},{"trial_n":111,"span":9,"encoder":"635585611","distractor":"435585611","target":"present","response":"present","rt":"2503.3999999985","correct":true,"confidence":5},{"trial_n":112,"span":10,"encoder":"2237793497","distractor":"2237793487","target":"present","response":"absent","rt":"5402.3999999985","correct":false,"confidence":3},{"trial_n":113,"span":9,"encoder":"709625021","distractor":"709624021","target":"absent","response":"absent","rt":"9897.5","correct":true,"confidence":1},{"trial_n":114,"span":9,"encoder":"239272714","distractor":"239272718","target":"present","response":"present","rt":"4749.5","correct":true,"confidence":2},{"trial_n":115,"span":10,"encoder":"0096183390","distractor":"0896183390","target":"absent","response":"absent","rt":"3747.099999994","correct":true,"confidence":5},{"trial_n":116,"span":10,"encoder":"8116901742","distractor":"8106901742","target":"present","response":"present","rt":"5024.299999997","correct":true,"confidence":3},{"trial_n":117,"span":11,"encoder":"22733971159","distractor":"22733972159","target":"absent","response":"absent","rt":"4080.3999999985","correct":true,"confidence":5},{"trial_n":118,"span":11,"encoder":"58928712163","distractor":"18928712163","target":"present","response":"present","rt":"3371.299999997","correct":true,"confidence":3},{"trial_n":119,"span":12,"encoder":"683178705751","distractor":"683178795751","target":"absent","response":"present","rt":"2383.700000003","correct":false,"confidence":1},{"trial_n":120,"span":11,"encoder":"71866868960","distractor":"71806868960","target":"present","response":"absent","rt":"5413.700000003","correct":false,"confidence":4},{"trial_n":121,"span":10,"encoder":"4111864727","distractor":"4118864727","target":"present","response":"present","rt":"5078.8999999985","correct":true,"confidence":3},{"trial_n":122,"span":10,"encoder":"2729088551","distractor":"7729088551","target":"absent","response":"absent","rt":"3153.799999997","correct":true,"confidence":4},{"trial_n":123,"span":11,"encoder":"73217508404","distractor":"73617508404","target":"present","response":"absent","rt":"4474.8000000045","correct":false,"confidence":1},{"trial_n":124,"span":10,"encoder":"0203470222","distractor":"0203470122","target":"present","response":"absent","rt":"6638","correct":false,"confidence":4},{"trial_n":125,"span":9,"encoder":"876391044","distractor":"876341044","target":"present","response":"present","rt":"3793.799999997","correct":true,"confidence":5},{"trial_n":126,"span":9,"encoder":"982059510","distractor":"982859510","target":"absent","response":"absent","rt":"4473.799999997","correct":true,"confidence":5},{"trial_n":127,"span":10,"encoder":"0132313135","distractor":"0132319135","target":"absent","response":"absent","rt":"6162.6000000015","correct":true,"confidence":5},{"trial_n":128,"span":10,"encoder":"8454176075","distractor":"3454176075","target":"absent","response":"absent","rt":"8634.8999999985","correct":true,"confidence":4},{"trial_n":129,"span":11,"encoder":"58641537834","distractor":"58641539834","target":"absent","response":"absent","rt":"5229.200000003","correct":true,"confidence":3},{"trial_n":130,"span":11,"encoder":"58792514165","distractor":"58792514168","target":"present","response":"absent","rt":"25484.699999996","correct":false,"confidence":1},{"trial_n":131,"span":10,"encoder":"5551686386","distractor":"5551686396","target":"present","response":"absent","rt":"7664.3999999985","correct":false,"confidence":2},{"trial_n":132,"span":9,"encoder":"937628721","distractor":"937628621","target":"present","response":"present","rt":"6991.3999999985","correct":true,"confidence":3},{"trial_n":133,"span":9,"encoder":"133225789","distractor":"133228789","target":"absent","response":"absent","rt":"9232.200000003","correct":true,"confidence":3},{"trial_n":134,"span":10,"encoder":"6971500979","distractor":"6971500279","target":"absent","response":"absent","rt":"11306.600000001","correct":true,"confidence":3},{"trial_n":135,"span":10,"encoder":"5698998292","distractor":"5698958292","target":"present","response":"absent","rt":"5508.8999999985","correct":false,"confidence":3},{"trial_n":136,"span":9,"encoder":"155087136","distractor":"155087186","target":"present","response":"absent","rt":"5038.3999999985","correct":false,"confidence":4},{"trial_n":137,"span":8,"encoder":"22282545","distractor":"22282546","target":"absent","response":"absent","rt":"2929.3999999985","correct":true,"confidence":5},{"trial_n":138,"span":8,"encoder":"43576754","distractor":"43576154","target":"absent","response":"absent","rt":"6432.6000000015","correct":true,"confidence":4},{"trial_n":139,"span":9,"encoder":"664282921","distractor":"604282921","target":"present","response":"present","rt":"2374.299999997","correct":true,"confidence":5},{"trial_n":140,"span":9,"encoder":"263659527","distractor":"263659827","target":"absent","response":"absent","rt":"5300.6000000015","correct":true,"confidence":3}]