[{"trial_n":1,"n_dots":4.25,"target":"right","response":"right","rt":9488.599999994,"correct":true,"confidence":-1},{"trial_n":2,"n_dots":4.25,"target":"left","response":"right","rt":1123.1000000238,"correct":false,"confidence":-1},{"trial_n":3,"n_dots":4.65,"target":"left","response":"left","rt":578.5,"correct":true,"confidence":-1},{"trial_n":4,"n_dots":4.65,"target":"left","response":"left","rt":754.40000000596,"correct":true,"confidence":-1},{"trial_n":5,"n_dots":4.25,"target":"right","response":"right","rt":801.09999999404,"correct":true,"confidence":-1},{"trial_n":6,"n_dots":4.25,"target":"left","response":"left","rt":648.59999999404,"correct":true,"confidence":-1},{"trial_n":7,"n_dots":3.85,"target":"left","response":"right","rt":767.90000000596,"correct":false,"confidence":-1},{"trial_n":8,"n_dots":4.05,"target":"left","response":"left","rt":499.90000000596,"correct":true,"confidence":-1},{"trial_n":9,"n_dots":4.05,"target":"right","response":"right","rt":582.69999998808,"correct":true,"confidence":-1},{"trial_n":10,"n_dots":3.85,"target":"right","response":"right","rt":479.59999999404,"correct":true,"confidence":-1},{"trial_n":11,"n_dots":3.85,"target":"left","response":"left","rt":514.80000001192,"correct":true,"confidence":-1},{"trial_n":12,"n_dots":3.65,"target":"left","response":"left","rt":723.10000002384,"correct":true,"confidence":-1},{"trial_n":13,"n_dots":3.65,"target":"right","response":"left","rt":606,"correct":false,"confidence":-1},{"trial_n":14,"n_dots":3.75,"target":"right","response":"left","rt":765.69999998808,"correct":false,"confidence":-1},{"trial_n":15,"n_dots":3.85,"target":"left","response":"right","rt":720.89999997616,"correct":false,"confidence":-1},{"trial_n":16,"n_dots":3.95,"target":"left","response":"left","rt":358.60000002384,"correct":true,"confidence":-1},{"trial_n":17,"n_dots":3.95,"target":"right","response":"right","rt":304.19999998808,"correct":true,"confidence":-1},{"trial_n":18,"n_dots":3.85,"target":"left","response":"left","rt":429.60000002384,"correct":true,"confidence":-1},{"trial_n":19,"n_dots":3.85,"target":"left","response":"left","rt":493.20000001788,"correct":true,"confidence":-1},{"trial_n":20,"n_dots":3.75,"target":"left","response":"left","rt":372.5,"correct":true,"confidence":-1},{"trial_n":21,"n_dots":3.75,"target":"right","response":"right","rt":3000.6000000238,"correct":true,"confidence":3},{"trial_n":22,"n_dots":3.65,"target":"left","response":"left","rt":643.30000001192,"correct":true,"confidence":2},{"trial_n":23,"n_dots":3.65,"target":"right","response":"right","rt":459.60000002384,"correct":true,"confidence":3},{"trial_n":24,"n_dots":3.55,"target":"left","response":"left","rt":309.5,"correct":true,"confidence":3},{"trial_n":25,"n_dots":3.55,"target":"right","response":"right","rt":435.59999999404,"correct":true,"confidence":2},{"trial_n":26,"n_dots":3.45,"target":"right","response":"right","rt":917.90000000596,"correct":true,"confidence":1},{"trial_n":27,"n_dots":3.45,"target":"left","response":"left","rt":566.10000002384,"correct":true,"confidence":2},{"trial_n":28,"n_dots":3.35,"target":"right","response":"right","rt":286.90000000596,"correct":true,"confidence":4},{"trial_n":29,"n_dots":3.35,"target":"right","response":"right","rt":420.19999998808,"correct":true,"confidence":3},{"trial_n":30,"n_dots":3.25,"target":"left","response":"left","rt":1252.1000000238,"correct":true,"confidence":1},{"trial_n":31,"n_dots":3.25,"target":"left","response":"left","rt":540.70000001788,"correct":true,"confidence":4},{"trial_n":32,"n_dots":3.15,"target":"right","response":"right","rt":368.40000000596,"correct":true,"confidence":2},{"trial_n":33,"n_dots":3.15,"target":"left","response":"left","rt":438.90000000596,"correct":true,"confidence":2},{"trial_n":34,"n_dots":3.05,"target":"left","response":"left","rt":235.59999999404,"correct":true,"confidence":3},{"trial_n":35,"n_dots":3.05,"target":"left","response":"left","rt":357.79999998212,"correct":true,"confidence":4},{"trial_n":36,"n_dots":2.95,"target":"left","response":"left","rt":253.90000000596,"correct":true,"confidence":3},{"trial_n":37,"n_dots":2.95,"target":"left","response":"right","rt":762.5,"correct":false,"confidence":1},{"trial_n":38,"n_dots":3.05,"target":"right","response":"right","rt":521.70000001788,"correct":true,"confidence":1},{"trial_n":39,"n_dots":3.05,"target":"left","response":"left","rt":1439.900000006,"correct":true,"confidence":1},{"trial_n":40,"n_dots":2.95,"target":"right","response":"left","rt":652.39999997616,"correct":false,"confidence":1},{"trial_n":41,"n_dots":3.05,"target":"right","response":"left","rt":1583.2000000179,"correct":false,"confidence":2},{"trial_n":42,"n_dots":3.15,"target":"left","response":"left","rt":31.699999988079,"correct":true,"confidence":4},{"trial_n":43,"n_dots":3.15,"target":"right","response":"right","rt":520,"correct":true,"confidence":2},{"trial_n":44,"n_dots":3.05,"target":"right","response":"right","rt":322.59999999404,"correct":true,"confidence":3},{"trial_n":45,"n_dots":3.05,"target":"right","response":"left","rt":565,"correct":false,"confidence":1},{"trial_n":46,"n_dots":3.15,"target":"right","response":"right","rt":112.59999999404,"correct":true,"confidence":3},{"trial_n":47,"n_dots":3.15,"target":"left","response":"left","rt":34.699999988079,"correct":true,"confidence":4},{"trial_n":48,"n_dots":3.05,"target":"left","response":"left","rt":304.69999998808,"correct":true,"confidence":3},{"trial_n":49,"n_dots":3.05,"target":"right","response":"left","rt":431.69999998808,"correct":false,"confidence":3},{"trial_n":50,"n_dots":3.15,"target":"right","response":"right","rt":269.29999998212,"correct":true,"confidence":3},{"trial_n":51,"n_dots":3.15,"target":"right","response":"right","rt":465.30000001192,"correct":true,"confidence":3},{"trial_n":52,"n_dots":3.05,"target":"right","response":"right","rt":300.80000001192,"correct":true,"confidence":1},{"trial_n":53,"n_dots":3.05,"target":"left","response":"left","rt":370.09999999404,"correct":true,"confidence":2},{"trial_n":54,"n_dots":2.95,"target":"left","response":"left","rt":489.79999998212,"correct":true,"confidence":1},{"trial_n":55,"n_dots":2.95,"target":"left","response":"left","rt":1645.1999999881,"correct":true,"confidence":2},{"trial_n":56,"n_dots":2.85,"target":"left","response":"right","rt":345.70000001788,"correct":false,"confidence":2},{"trial_n":57,"n_dots":2.95,"target":"right","response":"left","rt":281.60000002384,"correct":false,"confidence":1},{"trial_n":58,"n_dots":3.05,"target":"right","response":"right","rt":49.90000000596,"correct":true,"confidence":3},{"trial_n":59,"n_dots":3.05,"target":"right","response":"right","rt":276.59999999404,"correct":true,"confidence":3},{"trial_n":60,"n_dots":2.95,"target":"right","response":"right","rt":1136.2000000179,"correct":true,"confidence":3},{"trial_n":61,"n_dots":2.95,"target":"right","response":"right","rt":271.69999998808,"correct":true,"confidence":2},{"trial_n":62,"n_dots":2.85,"target":"right","response":"right","rt":129.70000001788,"correct":true,"confidence":3},{"trial_n":63,"n_dots":2.85,"target":"left","response":"left","rt":312.19999998808,"correct":true,"confidence":3},{"trial_n":64,"n_dots":2.75,"target":"right","response":"right","rt":611.30000001192,"correct":true,"confidence":3},{"trial_n":65,"n_dots":2.75,"target":"right","response":"right","rt":306.79999998212,"correct":true,"confidence":3},{"trial_n":66,"n_dots":2.65,"target":"left","response":"left","rt":433.40000000596,"correct":true,"confidence":2},{"trial_n":67,"n_dots":2.65,"target":"right","response":"right","rt":317.5,"correct":true,"confidence":3},{"trial_n":68,"n_dots":2.55,"target":"left","response":"left","rt":218.39999997616,"correct":true,"confidence":3},{"trial_n":69,"n_dots":2.55,"target":"left","response":"right","rt":335.30000001192,"correct":false,"confidence":2},{"trial_n":70,"n_dots":2.65,"target":"right","response":"right","rt":258.09999999404,"correct":true,"confidence":3},{"trial_n":71,"n_dots":2.65,"target":"left","response":"left","rt":457.40000000596,"correct":true,"confidence":1},{"trial_n":72,"n_dots":2.55,"target":"right","response":"right","rt":54,"correct":true,"confidence":3},{"trial_n":73,"n_dots":2.55,"target":"left","response":"left","rt":353.19999998808,"correct":true,"confidence":1},{"trial_n":74,"n_dots":2.45,"target":"left","response":"left","rt":235.79999998212,"correct":true,"confidence":2},{"trial_n":75,"n_dots":2.45,"target":"left","response":"left","rt":213.59999999404,"correct":true,"confidence":2},{"trial_n":76,"n_dots":2.35,"target":"left","response":"left","rt":203.30000001192,"correct":true,"confidence":3},{"trial_n":77,"n_dots":2.35,"target":"left","response":"left","rt":566.30000001192,"correct":true,"confidence":1},{"trial_n":78,"n_dots":2.25,"target":"right","response":"right","rt":405.19999998808,"correct":true,"confidence":2},{"trial_n":79,"n_dots":2.25,"target":"right","response":"left","rt":380.30000001192,"correct":false,"confidence":2},{"trial_n":80,"n_dots":2.35,"target":"right","response":"left","rt":404.20000001788,"correct":false,"confidence":2},{"trial_n":81,"n_dots":2.45,"target":"right","response":"left","rt":277.69999998808,"correct":false,"confidence":1},{"trial_n":82,"n_dots":2.55,"target":"left","response":"left","rt":432.30000001192,"correct":true,"confidence":2},{"trial_n":83,"n_dots":2.55,"target":"right","response":"left","rt":339.20000001788,"correct":false,"confidence":2},{"trial_n":84,"n_dots":2.65,"target":"left","response":"left","rt":470.69999998808,"correct":true,"confidence":2},{"trial_n":85,"n_dots":2.65,"target":"right","response":"right","rt":1331.6999999881,"correct":true,"confidence":2},{"trial_n":86,"n_dots":2.55,"target":"right","response":"left","rt":1610.099999994,"correct":false,"confidence":2},{"trial_n":87,"n_dots":2.65,"target":"right","response":"left","rt":542.5,"correct":false,"confidence":2},{"trial_n":88,"n_dots":2.75,"target":"left","response":"left","rt":445.70000001788,"correct":true,"confidence":3},{"trial_n":89,"n_dots":2.75,"target":"left","response":"left","rt":580.59999999404,"correct":true,"confidence":2},{"trial_n":90,"n_dots":2.65,"target":"right","response":"left","rt":1440.099999994,"correct":false,"confidence":2},{"trial_n":91,"n_dots":2.75,"target":"left","response":"right","rt":1913.3000000119,"correct":false,"confidence":1},{"trial_n":92,"n_dots":2.85,"target":"right","response":"left","rt":2167,"correct":false,"confidence":2},{"trial_n":93,"n_dots":2.95,"target":"right","response":"left","rt":932.5,"correct":false,"confidence":1},{"trial_n":94,"n_dots":3.05,"target":"right","response":"right","rt":662.5,"correct":true,"confidence":3},{"trial_n":95,"n_dots":3.05,"target":"right","response":"left","rt":1958.099999994,"correct":false,"confidence":1},{"trial_n":96,"n_dots":3.15,"target":"right","response":"right","rt":833.5,"correct":true,"confidence":2},{"trial_n":97,"n_dots":3.15,"target":"right","response":"left","rt":1733.8000000119,"correct":false,"confidence":2},{"trial_n":98,"n_dots":3.25,"target":"right","response":"left","rt":2098.1999999881,"correct":false,"confidence":1},{"trial_n":99,"n_dots":3.35,"target":"left","response":"left","rt":573.80000001192,"correct":true,"confidence":2},{"trial_n":100,"n_dots":3.35,"target":"right","response":"right","rt":403.39999997616,"correct":true,"confidence":3},{"trial_n":101,"n_dots":3.25,"target":"right","response":"left","rt":374.30000001192,"correct":false,"confidence":3},{"trial_n":102,"n_dots":3.35,"target":"left","response":"right","rt":1431.6999999881,"correct":false,"confidence":1},{"trial_n":103,"n_dots":3.45,"target":"right","response":"right","rt":488.69999998808,"correct":true,"confidence":2},{"trial_n":104,"n_dots":3.45,"target":"left","response":"left","rt":495.5,"correct":true,"confidence":3},{"trial_n":105,"n_dots":3.35,"target":"left","response":"left","rt":736.29999998212,"correct":true,"confidence":2},{"trial_n":106,"n_dots":3.35,"target":"right","response":"right","rt":430.69999998808,"correct":true,"confidence":2},{"trial_n":107,"n_dots":3.25,"target":"right","response":"left","rt":2590.7999999821,"correct":false,"confidence":2},{"trial_n":108,"n_dots":3.35,"target":"left","response":"left","rt":712.80000001192,"correct":true,"confidence":3},{"trial_n":109,"n_dots":3.35,"target":"left","response":"right","rt":1247.599999994,"correct":false,"confidence":4},{"trial_n":110,"n_dots":3.45,"target":"right","response":"right","rt":1094.6000000238,"correct":true,"confidence":4},{"trial_n":111,"n_dots":3.45,"target":"left","response":"left","rt":1920.6999999881,"correct":true,"confidence":3},{"trial_n":112,"n_dots":3.35,"target":"left","response":"left","rt":994.09999999404,"correct":true,"confidence":4},{"trial_n":113,"n_dots":3.35,"target":"left","response":"left","rt":930,"correct":true,"confidence":3},{"trial_n":114,"n_dots":3.25,"target":"right","response":"right","rt":1555.8000000119,"correct":true,"confidence":2},{"trial_n":115,"n_dots":3.25,"target":"left","response":"left","rt":852.09999999404,"correct":true,"confidence":4},{"trial_n":116,"n_dots":3.15,"target":"right","response":"left","rt":812.19999998808,"correct":false,"confidence":3},{"trial_n":117,"n_dots":3.25,"target":"left","response":"left","rt":1217.2000000179,"correct":true,"confidence":2},{"trial_n":118,"n_dots":3.25,"target":"left","response":"left","rt":1203.3000000119,"correct":true,"confidence":3},{"trial_n":119,"n_dots":3.15,"target":"left","response":"left","rt":1313.7000000179,"correct":true,"confidence":3},{"trial_n":120,"n_dots":3.15,"target":"left","response":"right","rt":1695.6000000238,"correct":false,"confidence":2}]