[{"trial_n":1,"span":8,"encoder":"33504102","distractor":"73504102","target":"present","response":"absent","rt":"5638.7999999523","correct":false,"confidence":-1},{"trial_n":2,"span":6,"encoder":"972819","distractor":"972809","target":"present","response":"present","rt":"2897.2999999523","correct":true,"confidence":-1},{"trial_n":3,"span":6,"encoder":"074973","distractor":"074933","target":"absent","response":"absent","rt":"1728.2000000477","correct":true,"confidence":-1},{"trial_n":4,"span":8,"encoder":"30777691","distractor":"30777091","target":"absent","response":"absent","rt":"2289.2000000477","correct":true,"confidence":-1},{"trial_n":5,"span":8,"encoder":"04967587","distractor":"03967587","target":"present","response":"present","rt":"2760.5","correct":true,"confidence":-1},{"trial_n":6,"span":10,"encoder":"9841106795","distractor":"9841906795","target":"absent","response":"absent","rt":"1955.9000000954","correct":true,"confidence":-1},{"trial_n":7,"span":10,"encoder":"3713976245","distractor":"3773976245","target":"absent","response":"present","rt":"2090.7999999523","correct":false,"confidence":-1},{"trial_n":8,"span":8,"encoder":"08578184","distractor":"08575184","target":"absent","response":"present","rt":"2586.1000001431","correct":false,"confidence":-1},{"trial_n":9,"span":6,"encoder":"713319","distractor":"711319","target":"present","response":"absent","rt":"1615.0999999046","correct":false,"confidence":-1},{"trial_n":10,"span":4,"encoder":"1794","distractor":"1792","target":"present","response":"present","rt":"4430.2999999523","correct":true,"confidence":-1},{"trial_n":11,"span":4,"encoder":"4281","distractor":"4282","target":"present","response":"present","rt":"2336.7999999523","correct":true,"confidence":-1},{"trial_n":12,"span":5,"encoder":"26353","distractor":"26363","target":"present","response":"present","rt":"1291.5","correct":true,"confidence":-1},{"trial_n":13,"span":5,"encoder":"15279","distractor":"15273","target":"absent","response":"absent","rt":"2231.7999999523","correct":true,"confidence":-1},{"trial_n":14,"span":6,"encoder":"028177","distractor":"028157","target":"present","response":"absent","rt":"1542.4000000954","correct":false,"confidence":-1},{"trial_n":15,"span":5,"encoder":"48972","distractor":"18972","target":"present","response":"present","rt":"1620","correct":true,"confidence":-1},{"trial_n":16,"span":5,"encoder":"06525","distractor":"06025","target":"absent","response":"absent","rt":"1595.5","correct":true,"confidence":-1},{"trial_n":17,"span":6,"encoder":"410659","distractor":"410669","target":"absent","response":"absent","rt":"1450.2000000477","correct":true,"confidence":-1},{"trial_n":18,"span":6,"encoder":"831986","distractor":"931986","target":"present","response":"absent","rt":"1771.2000000477","correct":false,"confidence":-1},{"trial_n":19,"span":5,"encoder":"72507","distractor":"72907","target":"absent","response":"absent","rt":"1953.5999999046","correct":true,"confidence":-1},{"trial_n":20,"span":5,"encoder":"09393","distractor":"09394","target":"absent","response":"absent","rt":"1528.2000000477","correct":true,"confidence":-1},{"trial_n":21,"span":6,"encoder":"582060","distractor":"581060","target":"present","response":"present","rt":"8136.1000001431","correct":true,"confidence":1},{"trial_n":22,"span":6,"encoder":"081594","distractor":"085594","target":"present","response":"present","rt":"2906.2000000477","correct":true,"confidence":4},{"trial_n":23,"span":7,"encoder":"2743635","distractor":"2743665","target":"present","response":"present","rt":"3655.4000000954","correct":true,"confidence":3},{"trial_n":24,"span":7,"encoder":"2953731","distractor":"2953737","target":"present","response":"present","rt":"1318.7000000477","correct":true,"confidence":1},{"trial_n":25,"span":8,"encoder":"75906763","distractor":"75706763","target":"present","response":"absent","rt":"2795.8000001907","correct":false,"confidence":1},{"trial_n":26,"span":7,"encoder":"4481032","distractor":"4281032","target":"absent","response":"absent","rt":"3258.5999999046","correct":true,"confidence":5},{"trial_n":27,"span":7,"encoder":"9601611","distractor":"9601671","target":"absent","response":"absent","rt":"3301.6000001431","correct":true,"confidence":5},{"trial_n":28,"span":8,"encoder":"86372996","distractor":"89372996","target":"present","response":"present","rt":"2208.8999998569","correct":true,"confidence":3},{"trial_n":29,"span":8,"encoder":"37460084","distractor":"37460086","target":"absent","response":"absent","rt":"3163.8999998569","correct":true,"confidence":4},{"trial_n":30,"span":9,"encoder":"850903916","distractor":"550903916","target":"absent","response":"present","rt":"2659","correct":false,"confidence":3},{"trial_n":31,"span":8,"encoder":"97513109","distractor":"97513149","target":"absent","response":"absent","rt":"2497.6000001431","correct":true,"confidence":5},{"trial_n":32,"span":8,"encoder":"37296456","distractor":"37296454","target":"absent","response":"absent","rt":"3014.4000000954","correct":true,"confidence":5},{"trial_n":33,"span":9,"encoder":"331936618","distractor":"331936614","target":"absent","response":"absent","rt":"3296.8999998569","correct":true,"confidence":3},{"trial_n":34,"span":9,"encoder":"757977419","distractor":"657977419","target":"absent","response":"present","rt":"3721.1000001431","correct":false,"confidence":3},{"trial_n":35,"span":8,"encoder":"29626965","distractor":"29629965","target":"absent","response":"present","rt":"2914.5","correct":false,"confidence":3},{"trial_n":36,"span":7,"encoder":"4392454","distractor":"4392458","target":"present","response":"present","rt":"4091.2999999523","correct":true,"confidence":4},{"trial_n":37,"span":7,"encoder":"0587690","distractor":"0517690","target":"present","response":"present","rt":"4256.3999998569","correct":true,"confidence":4},{"trial_n":38,"span":8,"encoder":"09600468","distractor":"07600468","target":"absent","response":"present","rt":"2424.0999999046","correct":false,"confidence":4},{"trial_n":39,"span":7,"encoder":"2498262","distractor":"2498267","target":"absent","response":"absent","rt":"2567.4000000954","correct":true,"confidence":4},{"trial_n":40,"span":7,"encoder":"9461096","distractor":"9461036","target":"present","response":"absent","rt":"3051.7999999523","correct":false,"confidence":3},{"trial_n":41,"span":6,"encoder":"792148","distractor":"797148","target":"present","response":"present","rt":"3568.2999999523","correct":true,"confidence":5},{"trial_n":42,"span":6,"encoder":"242879","distractor":"242679","target":"present","response":"present","rt":"3015","correct":true,"confidence":5},{"trial_n":43,"span":7,"encoder":"9452584","distractor":"9412584","target":"absent","response":"absent","rt":"2426.3999998569","correct":true,"confidence":5},{"trial_n":44,"span":7,"encoder":"9590005","distractor":"9590055","target":"present","response":"present","rt":"3151","correct":true,"confidence":5},{"trial_n":45,"span":8,"encoder":"28277239","distractor":"28277539","target":"absent","response":"absent","rt":"3094.6000001431","correct":true,"confidence":3},{"trial_n":46,"span":8,"encoder":"90660721","distractor":"99660721","target":"present","response":"present","rt":"2699.2000000477","correct":true,"confidence":5},{"trial_n":47,"span":9,"encoder":"383681824","distractor":"383681324","target":"absent","response":"present","rt":"3617.5999999046","correct":false,"confidence":4},{"trial_n":48,"span":8,"encoder":"40125242","distractor":"40125292","target":"present","response":"absent","rt":"2663.8999998569","correct":false,"confidence":1},{"trial_n":49,"span":7,"encoder":"4009409","distractor":"4009404","target":"present","response":"present","rt":"2642.5999999046","correct":true,"confidence":3},{"trial_n":50,"span":7,"encoder":"8547229","distractor":"8547222","target":"absent","response":"present","rt":"2965","correct":false,"confidence":3},{"trial_n":51,"span":6,"encoder":"540521","distractor":"548521","target":"absent","response":"absent","rt":"4245","correct":true,"confidence":1},{"trial_n":52,"span":6,"encoder":"677588","distractor":"677568","target":"absent","response":"absent","rt":"3313.3000001907","correct":true,"confidence":5},{"trial_n":53,"span":7,"encoder":"3224870","distractor":"3226870","target":"absent","response":"absent","rt":"2521.6000001431","correct":true,"confidence":5},{"trial_n":54,"span":7,"encoder":"7234193","distractor":"7234195","target":"present","response":"present","rt":"1964.4000000954","correct":true,"confidence":5},{"trial_n":55,"span":8,"encoder":"11594441","distractor":"11594471","target":"absent","response":"present","rt":"2964.7999999523","correct":false,"confidence":4},{"trial_n":56,"span":7,"encoder":"8506194","distractor":"8526194","target":"present","response":"present","rt":"3377.7000000477","correct":true,"confidence":4},{"trial_n":57,"span":7,"encoder":"3260267","distractor":"3960267","target":"present","response":"absent","rt":"2408.9000000954","correct":false,"confidence":1},{"trial_n":58,"span":6,"encoder":"477371","distractor":"477971","target":"present","response":"present","rt":"2728.8000001907","correct":true,"confidence":3},{"trial_n":59,"span":6,"encoder":"379286","distractor":"879286","target":"present","response":"present","rt":"2035.4000000954","correct":true,"confidence":5},{"trial_n":60,"span":7,"encoder":"2453247","distractor":"2459247","target":"absent","response":"absent","rt":"3735.5","correct":true,"confidence":5},{"trial_n":61,"span":7,"encoder":"0657933","distractor":"0357933","target":"present","response":"present","rt":"1871.2000000477","correct":true,"confidence":5},{"trial_n":62,"span":8,"encoder":"12961590","distractor":"92961590","target":"present","response":"present","rt":"2428.5","correct":true,"confidence":5},{"trial_n":63,"span":8,"encoder":"93410346","distractor":"99410346","target":"absent","response":"absent","rt":"2623.5","correct":true,"confidence":1},{"trial_n":64,"span":9,"encoder":"394427358","distractor":"394427368","target":"present","response":"present","rt":"3395.8999998569","correct":true,"confidence":4},{"trial_n":65,"span":9,"encoder":"610098284","distractor":"510098284","target":"absent","response":"absent","rt":"4107.3000001907","correct":true,"confidence":1},{"trial_n":66,"span":10,"encoder":"6325514379","distractor":"6325514079","target":"present","response":"present","rt":"3556.5","correct":true,"confidence":4},{"trial_n":67,"span":10,"encoder":"2287356811","distractor":"2287386811","target":"absent","response":"absent","rt":"3906.1000001431","correct":true,"confidence":5},{"trial_n":68,"span":11,"encoder":"34247304975","distractor":"32247304975","target":"present","response":"absent","rt":"2496.7999999523","correct":false,"confidence":3},{"trial_n":69,"span":10,"encoder":"8758836601","distractor":"8758236601","target":"present","response":"present","rt":"2339.3999998569","correct":true,"confidence":5},{"trial_n":70,"span":10,"encoder":"3673060626","distractor":"3673090626","target":"absent","response":"present","rt":"2442.0999999046","correct":false,"confidence":5},{"trial_n":71,"span":8,"encoder":"52232620","distractor":"52432620","target":"present","response":"absent","rt":"4859.5","correct":false,"confidence":-1},{"trial_n":72,"span":7,"encoder":"5328419","distractor":"0328419","target":"present","response":"present","rt":"2364.2999999523","correct":true,"confidence":-1},{"trial_n":73,"span":7,"encoder":"2328509","distractor":"2328508","target":"absent","response":"absent","rt":"1525.3000001907","correct":true,"confidence":-1},{"trial_n":74,"span":8,"encoder":"52873979","distractor":"52813979","target":"absent","response":"present","rt":"4773.5999999046","correct":false,"confidence":-1},{"trial_n":75,"span":7,"encoder":"4883226","distractor":"4883224","target":"present","response":"present","rt":"3190.8999998569","correct":true,"confidence":-1},{"trial_n":76,"span":7,"encoder":"2264921","distractor":"2264927","target":"present","response":"present","rt":"1833.0999999046","correct":true,"confidence":-1},{"trial_n":77,"span":8,"encoder":"36852340","distractor":"86852340","target":"absent","response":"absent","rt":"2167.8999998569","correct":true,"confidence":-1},{"trial_n":78,"span":8,"encoder":"34845742","distractor":"34847742","target":"present","response":"present","rt":"1850.4000000954","correct":true,"confidence":-1},{"trial_n":79,"span":9,"encoder":"044974821","distractor":"544974821","target":"present","response":"absent","rt":"4491.3999998569","correct":false,"confidence":-1},{"trial_n":80,"span":8,"encoder":"85629321","distractor":"85629421","target":"present","response":"present","rt":"2650.5999999046","correct":true,"confidence":-1},{"trial_n":81,"span":8,"encoder":"93009247","distractor":"93002247","target":"absent","response":"absent","rt":"1789.7999999523","correct":true,"confidence":-1},{"trial_n":82,"span":9,"encoder":"571575181","distractor":"571575121","target":"absent","response":"absent","rt":"2666.9000000954","correct":true,"confidence":-1},{"trial_n":83,"span":9,"encoder":"404785608","distractor":"004785608","target":"present","response":"absent","rt":"1516.5","correct":false,"confidence":-1},{"trial_n":84,"span":8,"encoder":"58346248","distractor":"58346238","target":"absent","response":"present","rt":"1917.7999999523","correct":false,"confidence":-1},{"trial_n":85,"span":7,"encoder":"5904324","distractor":"5004324","target":"absent","response":"absent","rt":"1446.8999998569","correct":true,"confidence":-1},{"trial_n":86,"span":7,"encoder":"6136435","distractor":"6136405","target":"present","response":"present","rt":"2338.6000001431","correct":true,"confidence":-1},{"trial_n":87,"span":8,"encoder":"39272389","distractor":"39272387","target":"absent","response":"absent","rt":"1338.7000000477","correct":true,"confidence":-1},{"trial_n":88,"span":8,"encoder":"63442856","distractor":"03442856","target":"present","response":"present","rt":"1731.2000000477","correct":true,"confidence":-1},{"trial_n":89,"span":9,"encoder":"244507455","distractor":"244507425","target":"absent","response":"absent","rt":"2842.7999999523","correct":true,"confidence":-1},{"trial_n":90,"span":9,"encoder":"675149936","distractor":"675143936","target":"absent","response":"absent","rt":"3166.0999999046","correct":true,"confidence":-1},{"trial_n":91,"span":10,"encoder":"6191718724","distractor":"6191768724","target":"absent","response":"present","rt":"4702.9000000954","correct":false,"confidence":1},{"trial_n":92,"span":9,"encoder":"700754348","distractor":"700754748","target":"present","response":"present","rt":"2392.4000000954","correct":true,"confidence":1},{"trial_n":93,"span":9,"encoder":"594911197","distractor":"594981197","target":"present","response":"present","rt":"1877.5999999046","correct":true,"confidence":5},{"trial_n":94,"span":10,"encoder":"4850975395","distractor":"4850970395","target":"present","response":"absent","rt":"2263.5","correct":false,"confidence":1},{"trial_n":95,"span":9,"encoder":"131095582","distractor":"131055582","target":"absent","response":"absent","rt":"5735.1000001431","correct":true,"confidence":3},{"trial_n":96,"span":9,"encoder":"132172052","distractor":"112172052","target":"absent","response":"absent","rt":"2337.5","correct":true,"confidence":5},{"trial_n":97,"span":10,"encoder":"3688522175","distractor":"3688521175","target":"present","response":"present","rt":"3720.1000001431","correct":true,"confidence":5},{"trial_n":98,"span":10,"encoder":"6896770635","distractor":"6896570635","target":"present","response":"present","rt":"5528.7000000477","correct":true,"confidence":3},{"trial_n":99,"span":11,"encoder":"01451162870","distractor":"02451162870","target":"present","response":"present","rt":"4697.2000000477","correct":true,"confidence":1},{"trial_n":100,"span":11,"encoder":"00430327106","distractor":"00430327196","target":"present","response":"absent","rt":"3932","correct":false,"confidence":1},{"trial_n":101,"span":10,"encoder":"6443977280","distractor":"6413977280","target":"absent","response":"present","rt":"4589","correct":false,"confidence":4},{"trial_n":102,"span":9,"encoder":"834560138","distractor":"834560238","target":"present","response":"present","rt":"4486.5","correct":true,"confidence":1},{"trial_n":103,"span":9,"encoder":"270012098","distractor":"270012094","target":"present","response":"present","rt":"4564.1000001431","correct":true,"confidence":2},{"trial_n":104,"span":10,"encoder":"1612271874","distractor":"1612271894","target":"absent","response":"present","rt":"2982.7999999523","correct":false,"confidence":1},{"trial_n":105,"span":9,"encoder":"998222580","distractor":"998222588","target":"present","response":"present","rt":"1714.2000000477","correct":true,"confidence":5},{"trial_n":106,"span":9,"encoder":"281394495","distractor":"281394425","target":"absent","response":"present","rt":"10460.099999905","correct":false,"confidence":3},{"trial_n":107,"span":8,"encoder":"35743434","distractor":"35843434","target":"absent","response":"absent","rt":"3756.5","correct":true,"confidence":5},{"trial_n":108,"span":8,"encoder":"47762405","distractor":"47462405","target":"present","response":"present","rt":"2166.4000000954","correct":true,"confidence":5},{"trial_n":109,"span":9,"encoder":"463084006","distractor":"563084006","target":"present","response":"present","rt":"6270.4000000954","correct":true,"confidence":3},{"trial_n":110,"span":9,"encoder":"206819164","distractor":"206869164","target":"absent","response":"present","rt":"3594.7999999523","correct":false,"confidence":1},{"trial_n":111,"span":8,"encoder":"65410593","distractor":"05410593","target":"absent","response":"absent","rt":"3169.5","correct":true,"confidence":5},{"trial_n":112,"span":8,"encoder":"02720537","distractor":"02721537","target":"absent","response":"present","rt":"3178.3999998569","correct":false,"confidence":3},{"trial_n":113,"span":7,"encoder":"5312358","distractor":"5612358","target":"present","response":"present","rt":"3188.7999999523","correct":true,"confidence":5},{"trial_n":114,"span":7,"encoder":"2310184","distractor":"2310186","target":"absent","response":"absent","rt":"5808.5","correct":true,"confidence":2},{"trial_n":115,"span":8,"encoder":"47206701","distractor":"41206701","target":"present","response":"present","rt":"3011.1999998093","correct":true,"confidence":5},{"trial_n":116,"span":8,"encoder":"59607344","distractor":"59604344","target":"absent","response":"absent","rt":"3443.5999999046","correct":true,"confidence":5},{"trial_n":117,"span":9,"encoder":"458633736","distractor":"458633786","target":"present","response":"present","rt":"15248.100000143","correct":true,"confidence":5},{"trial_n":118,"span":9,"encoder":"416827911","distractor":"416829911","target":"absent","response":"present","rt":"1785","correct":false,"confidence":1},{"trial_n":119,"span":8,"encoder":"09252811","distractor":"39252811","target":"present","response":"present","rt":"4318","correct":true,"confidence":4},{"trial_n":120,"span":8,"encoder":"77554124","distractor":"77554154","target":"present","response":"present","rt":"6319.8999998569","correct":true,"confidence":3},{"trial_n":121,"span":9,"encoder":"293220257","distractor":"293230257","target":"present","response":"absent","rt":"5231.3999998569","correct":false,"confidence":3},{"trial_n":122,"span":8,"encoder":"66015788","distractor":"66515788","target":"absent","response":"present","rt":"4110.8999998569","correct":false,"confidence":1},{"trial_n":123,"span":7,"encoder":"5428530","distractor":"5428520","target":"absent","response":"present","rt":"5022.5999999046","correct":false,"confidence":1},{"trial_n":124,"span":6,"encoder":"235750","distractor":"235050","target":"absent","response":"absent","rt":"3337.7000000477","correct":true,"confidence":5},{"trial_n":125,"span":6,"encoder":"193660","distractor":"193260","target":"present","response":"present","rt":"3246.7000000477","correct":true,"confidence":5},{"trial_n":126,"span":7,"encoder":"1767564","distractor":"1767504","target":"present","response":"present","rt":"3718","correct":true,"confidence":5},{"trial_n":127,"span":7,"encoder":"3677604","distractor":"3677904","target":"absent","response":"absent","rt":"4631.4000000954","correct":true,"confidence":4},{"trial_n":128,"span":8,"encoder":"32388592","distractor":"32388522","target":"absent","response":"absent","rt":"1698.5999999046","correct":true,"confidence":3},{"trial_n":129,"span":8,"encoder":"23876847","distractor":"03876847","target":"absent","response":"absent","rt":"4894.2000000477","correct":true,"confidence":3},{"trial_n":130,"span":9,"encoder":"416171450","distractor":"416471450","target":"present","response":"present","rt":"1655","correct":true,"confidence":1},{"trial_n":131,"span":9,"encoder":"837623047","distractor":"837623347","target":"present","response":"present","rt":"1413.7000000477","correct":true,"confidence":1},{"trial_n":132,"span":10,"encoder":"5576062451","distractor":"5576062431","target":"absent","response":"absent","rt":"3475.2000000477","correct":true,"confidence":4},{"trial_n":133,"span":10,"encoder":"5745597171","distractor":"5749597171","target":"absent","response":"absent","rt":"2409.8999998569","correct":true,"confidence":5},{"trial_n":134,"span":11,"encoder":"26844127568","distractor":"26844125568","target":"absent","response":"present","rt":"7114.2999999523","correct":false,"confidence":3},{"trial_n":135,"span":10,"encoder":"7582574882","distractor":"7582574782","target":"present","response":"present","rt":"2584.5999999046","correct":true,"confidence":3},{"trial_n":136,"span":10,"encoder":"9711995749","distractor":"9718995749","target":"present","response":"present","rt":"2354.2000000477","correct":true,"confidence":1},{"trial_n":137,"span":11,"encoder":"44457821972","distractor":"44447821972","target":"present","response":"present","rt":"2084.6000001431","correct":true,"confidence":5},{"trial_n":138,"span":11,"encoder":"26655407714","distractor":"22655407714","target":"present","response":"present","rt":"4964","correct":true,"confidence":5},{"trial_n":139,"span":12,"encoder":"622294375510","distractor":"623294375510","target":"absent","response":"absent","rt":"3401.5","correct":true,"confidence":5},{"trial_n":140,"span":12,"encoder":"943388958008","distractor":"943588958008","target":"absent","response":"absent","rt":"4076.6999998093","correct":true,"confidence":4}]