[{"trial_n":1,"min":25,"max":230,"target":"present","response":"absent","rt":11383.299999952,"correct":false,"confidence":-1},{"trial_n":2,"min":25,"max":230,"target":"present","response":"present","rt":539.29999995232,"correct":true,"confidence":-1},{"trial_n":3,"min":25,"max":230,"target":"absent","response":"absent","rt":430.39999985695,"correct":true,"confidence":-1},{"trial_n":4,"min":41,"max":214,"target":"absent","response":"absent","rt":434.59999990463,"correct":true,"confidence":-1},{"trial_n":5,"min":41,"max":214,"target":"present","response":"present","rt":152.60000014305,"correct":true,"confidence":-1},{"trial_n":6,"min":57,"max":198,"target":"absent","response":"absent","rt":325.89999985695,"correct":true,"confidence":-1},{"trial_n":7,"min":57,"max":198,"target":"present","response":"present","rt":211.30000019073,"correct":true,"confidence":-1},{"trial_n":8,"min":73,"max":182,"target":"present","response":"present","rt":410.19999980927,"correct":true,"confidence":-1},{"trial_n":9,"min":73,"max":182,"target":"present","response":"present","rt":486.40000009537,"correct":true,"confidence":-1},{"trial_n":10,"min":89,"max":166,"target":"absent","response":"absent","rt":259,"correct":true,"confidence":-1},{"trial_n":11,"min":89,"max":166,"target":"present","response":"present","rt":250.70000004768,"correct":true,"confidence":-1},{"trial_n":12,"min":97,"max":158,"target":"present","response":"present","rt":272.20000004768,"correct":true,"confidence":-1},{"trial_n":13,"min":97,"max":158,"target":"absent","response":"absent","rt":311.10000014305,"correct":true,"confidence":-1},{"trial_n":14,"min":105,"max":150,"target":"absent","response":"absent","rt":442.59999990463,"correct":true,"confidence":-1},{"trial_n":15,"min":105,"max":150,"target":"absent","response":"absent","rt":319.5,"correct":true,"confidence":-1},{"trial_n":16,"min":113,"max":142,"target":"present","response":"absent","rt":321.30000019073,"correct":false,"confidence":-1},{"trial_n":17,"min":105,"max":150,"target":"absent","response":"absent","rt":178.5,"correct":true,"confidence":-1},{"trial_n":18,"min":105,"max":150,"target":"present","response":"absent","rt":539.90000009537,"correct":false,"confidence":-1},{"trial_n":19,"min":97,"max":158,"target":"present","response":"absent","rt":195.29999995232,"correct":false,"confidence":-1},{"trial_n":20,"min":89,"max":166,"target":"absent","response":"absent","rt":271,"correct":true,"confidence":-1},{"trial_n":21,"min":89,"max":166,"target":"present","response":"absent","rt":890.59999990463,"correct":false,"confidence":1},{"trial_n":22,"min":85,"max":170,"target":"absent","response":"absent","rt":566.90000009537,"correct":true,"confidence":5},{"trial_n":23,"min":85,"max":170,"target":"present","response":"present","rt":352.60000014305,"correct":true,"confidence":5},{"trial_n":24,"min":89,"max":166,"target":"absent","response":"absent","rt":332.5,"correct":true,"confidence":4},{"trial_n":25,"min":89,"max":166,"target":"absent","response":"present","rt":588.39999985695,"correct":false,"confidence":5},{"trial_n":26,"min":85,"max":170,"target":"absent","response":"absent","rt":1557.6999998093,"correct":true,"confidence":4},{"trial_n":27,"min":85,"max":170,"target":"present","response":"absent","rt":367.29999995232,"correct":false,"confidence":5},{"trial_n":28,"min":81,"max":174,"target":"present","response":"present","rt":611.79999995232,"correct":true,"confidence":5},{"trial_n":29,"min":81,"max":174,"target":"absent","response":"absent","rt":444,"correct":true,"confidence":5},{"trial_n":30,"min":85,"max":170,"target":"absent","response":"absent","rt":723.5,"correct":true,"confidence":4},{"trial_n":31,"min":85,"max":170,"target":"absent","response":"absent","rt":466.29999995232,"correct":true,"confidence":4},{"trial_n":32,"min":87,"max":168,"target":"present","response":"present","rt":1050.5,"correct":true,"confidence":5},{"trial_n":33,"min":87,"max":168,"target":"absent","response":"absent","rt":560.29999995232,"correct":true,"confidence":4},{"trial_n":34,"min":89,"max":166,"target":"absent","response":"present","rt":791.5,"correct":false,"confidence":3},{"trial_n":35,"min":87,"max":168,"target":"absent","response":"absent","rt":537.90000009537,"correct":true,"confidence":5},{"trial_n":36,"min":87,"max":168,"target":"absent","response":"present","rt":639.5,"correct":false,"confidence":4},{"trial_n":37,"min":85,"max":170,"target":"present","response":"present","rt":992.29999995232,"correct":true,"confidence":5},{"trial_n":38,"min":85,"max":170,"target":"present","response":"present","rt":1314.7999999523,"correct":true,"confidence":5},{"trial_n":39,"min":87,"max":168,"target":"present","response":"absent","rt":1170.1000001431,"correct":false,"confidence":4},{"trial_n":40,"min":85,"max":170,"target":"present","response":"absent","rt":1908.3000001907,"correct":false,"confidence":3},{"trial_n":41,"min":84,"max":171,"target":"absent","response":"absent","rt":620.29999995232,"correct":true,"confidence":5},{"trial_n":42,"min":84,"max":171,"target":"absent","response":"absent","rt":515.79999995232,"correct":true,"confidence":5},{"trial_n":43,"min":85,"max":170,"target":"present","response":"absent","rt":467.89999985695,"correct":false,"confidence":5},{"trial_n":44,"min":84,"max":171,"target":"present","response":"absent","rt":510.40000009537,"correct":false,"confidence":5},{"trial_n":45,"min":83,"max":172,"target":"present","response":"absent","rt":1732.7999999523,"correct":false,"confidence":5},{"trial_n":46,"min":82,"max":173,"target":"present","response":"present","rt":792,"correct":true,"confidence":5},{"trial_n":47,"min":82,"max":173,"target":"present","response":"absent","rt":514.60000014305,"correct":false,"confidence":5},{"trial_n":48,"min":81,"max":174,"target":"present","response":"absent","rt":746.59999990463,"correct":false,"confidence":5},{"trial_n":49,"min":80,"max":175,"target":"absent","response":"absent","rt":376.40000009537,"correct":true,"confidence":5},{"trial_n":50,"min":80,"max":175,"target":"present","response":"present","rt":574.5,"correct":true,"confidence":5},{"trial_n":51,"min":81,"max":174,"target":"present","response":"absent","rt":336.40000009537,"correct":false,"confidence":1},{"trial_n":52,"min":80,"max":175,"target":"present","response":"absent","rt":1060.6999998093,"correct":false,"confidence":4},{"trial_n":53,"min":79,"max":176,"target":"absent","response":"absent","rt":729.5,"correct":true,"confidence":4},{"trial_n":54,"min":79,"max":176,"target":"absent","response":"present","rt":580.59999990463,"correct":false,"confidence":5},{"trial_n":55,"min":78,"max":177,"target":"absent","response":"present","rt":1018.5999999046,"correct":false,"confidence":5},{"trial_n":56,"min":77,"max":178,"target":"present","response":"present","rt":736,"correct":true,"confidence":5},{"trial_n":57,"min":77,"max":178,"target":"absent","response":"present","rt":786.70000004768,"correct":false,"confidence":5},{"trial_n":58,"min":76,"max":179,"target":"present","response":"present","rt":518.79999995232,"correct":true,"confidence":5},{"trial_n":59,"min":76,"max":179,"target":"absent","response":"absent","rt":601.59999990463,"correct":true,"confidence":4},{"trial_n":60,"min":77,"max":178,"target":"absent","response":"present","rt":692.30000019073,"correct":false,"confidence":5},{"trial_n":61,"min":76,"max":179,"target":"absent","response":"present","rt":716.29999995232,"correct":false,"confidence":4},{"trial_n":62,"min":75,"max":180,"target":"absent","response":"absent","rt":844,"correct":true,"confidence":4},{"trial_n":63,"min":75,"max":180,"target":"present","response":"present","rt":262.59999990463,"correct":true,"confidence":5},{"trial_n":64,"min":76,"max":179,"target":"present","response":"present","rt":568.29999995232,"correct":true,"confidence":5},{"trial_n":65,"min":76,"max":179,"target":"absent","response":"present","rt":671.40000009537,"correct":false,"confidence":5},{"trial_n":66,"min":75,"max":180,"target":"absent","response":"absent","rt":476,"correct":true,"confidence":5},{"trial_n":67,"min":75,"max":180,"target":"present","response":"absent","rt":668.20000004768,"correct":false,"confidence":5},{"trial_n":68,"min":74,"max":181,"target":"present","response":"present","rt":294.20000004768,"correct":true,"confidence":5},{"trial_n":69,"min":74,"max":181,"target":"absent","response":"absent","rt":507,"correct":true,"confidence":5},{"trial_n":70,"min":75,"max":180,"target":"present","response":"present","rt":453.89999985695,"correct":true,"confidence":5},{"trial_n":71,"min":41,"max":214,"target":"present","response":"present","rt":5459.4000000954,"correct":true,"confidence":-1},{"trial_n":72,"min":41,"max":214,"target":"present","response":"present","rt":513.20000004768,"correct":true,"confidence":-1},{"trial_n":73,"min":57,"max":198,"target":"absent","response":"absent","rt":202.29999995232,"correct":true,"confidence":-1},{"trial_n":74,"min":57,"max":198,"target":"absent","response":"absent","rt":255.09999990463,"correct":true,"confidence":-1},{"trial_n":75,"min":73,"max":182,"target":"present","response":"present","rt":422.59999990463,"correct":true,"confidence":-1},{"trial_n":76,"min":73,"max":182,"target":"present","response":"present","rt":284.90000009537,"correct":true,"confidence":-1},{"trial_n":77,"min":89,"max":166,"target":"absent","response":"absent","rt":244.5,"correct":true,"confidence":-1},{"trial_n":78,"min":89,"max":166,"target":"absent","response":"absent","rt":741.39999985695,"correct":true,"confidence":-1},{"trial_n":79,"min":105,"max":150,"target":"present","response":"absent","rt":570,"correct":false,"confidence":-1},{"trial_n":80,"min":89,"max":166,"target":"present","response":"present","rt":287.79999995232,"correct":true,"confidence":-1},{"trial_n":81,"min":89,"max":166,"target":"present","response":"present","rt":402.5,"correct":true,"confidence":-1},{"trial_n":82,"min":97,"max":158,"target":"present","response":"present","rt":489.29999995232,"correct":true,"confidence":-1},{"trial_n":83,"min":97,"max":158,"target":"absent","response":"present","rt":829.5,"correct":false,"confidence":-1},{"trial_n":84,"min":89,"max":166,"target":"absent","response":"present","rt":907.59999990463,"correct":false,"confidence":-1},{"trial_n":85,"min":81,"max":174,"target":"absent","response":"present","rt":554.5,"correct":false,"confidence":-1},{"trial_n":86,"min":73,"max":182,"target":"absent","response":"absent","rt":301.5,"correct":true,"confidence":-1},{"trial_n":87,"min":73,"max":182,"target":"present","response":"present","rt":267.09999990463,"correct":true,"confidence":-1},{"trial_n":88,"min":81,"max":174,"target":"present","response":"present","rt":435.90000009537,"correct":true,"confidence":-1},{"trial_n":89,"min":81,"max":174,"target":"present","response":"absent","rt":79.900000095367,"correct":false,"confidence":-1},{"trial_n":90,"min":73,"max":182,"target":"absent","response":"absent","rt":376.09999990463,"correct":true,"confidence":-1},{"trial_n":91,"min":73,"max":182,"target":"absent","response":"absent","rt":711.90000009537,"correct":true,"confidence":4},{"trial_n":92,"min":77,"max":178,"target":"absent","response":"absent","rt":465.70000004768,"correct":true,"confidence":5},{"trial_n":93,"min":77,"max":178,"target":"absent","response":"absent","rt":1855,"correct":true,"confidence":4},{"trial_n":94,"min":81,"max":174,"target":"absent","response":"present","rt":634,"correct":false,"confidence":3},{"trial_n":95,"min":77,"max":178,"target":"present","response":"present","rt":430.89999985695,"correct":true,"confidence":5},{"trial_n":96,"min":77,"max":178,"target":"present","response":"present","rt":329.90000009537,"correct":true,"confidence":5},{"trial_n":97,"min":81,"max":174,"target":"present","response":"present","rt":585.5,"correct":true,"confidence":5},{"trial_n":98,"min":81,"max":174,"target":"present","response":"present","rt":486.29999995232,"correct":true,"confidence":5},{"trial_n":99,"min":85,"max":170,"target":"present","response":"present","rt":675.20000004768,"correct":true,"confidence":5},{"trial_n":100,"min":85,"max":170,"target":"absent","response":"absent","rt":617,"correct":true,"confidence":4},{"trial_n":101,"min":87,"max":168,"target":"absent","response":"present","rt":523.59999990463,"correct":false,"confidence":1},{"trial_n":102,"min":85,"max":170,"target":"present","response":"present","rt":3787.7999999523,"correct":true,"confidence":1},{"trial_n":103,"min":85,"max":170,"target":"absent","response":"present","rt":551.79999995232,"correct":false,"confidence":3},{"trial_n":104,"min":83,"max":172,"target":"absent","response":"absent","rt":654.20000004768,"correct":true,"confidence":5},{"trial_n":105,"min":83,"max":172,"target":"present","response":"present","rt":681.5,"correct":true,"confidence":4},{"trial_n":106,"min":85,"max":170,"target":"absent","response":"present","rt":566.09999990463,"correct":false,"confidence":1},{"trial_n":107,"min":83,"max":172,"target":"present","response":"present","rt":2113.2999999523,"correct":true,"confidence":1},{"trial_n":108,"min":83,"max":172,"target":"absent","response":"present","rt":814.59999990463,"correct":false,"confidence":3},{"trial_n":109,"min":81,"max":174,"target":"present","response":"present","rt":521.20000004768,"correct":true,"confidence":3},{"trial_n":110,"min":81,"max":174,"target":"absent","response":"present","rt":3338.5999999046,"correct":false,"confidence":1},{"trial_n":111,"min":80,"max":175,"target":"present","response":"present","rt":366.70000004768,"correct":true,"confidence":5},{"trial_n":112,"min":80,"max":175,"target":"absent","response":"absent","rt":510.70000004768,"correct":true,"confidence":5},{"trial_n":113,"min":81,"max":174,"target":"absent","response":"absent","rt":881.19999980927,"correct":true,"confidence":3},{"trial_n":114,"min":81,"max":174,"target":"absent","response":"absent","rt":432.80000019073,"correct":true,"confidence":2},{"trial_n":115,"min":82,"max":173,"target":"present","response":"present","rt":299.10000014305,"correct":true,"confidence":4},{"trial_n":116,"min":82,"max":173,"target":"present","response":"present","rt":351.90000009537,"correct":true,"confidence":4},{"trial_n":117,"min":83,"max":172,"target":"present","response":"present","rt":574.90000009537,"correct":true,"confidence":5},{"trial_n":118,"min":83,"max":172,"target":"present","response":"present","rt":386.70000004768,"correct":true,"confidence":5},{"trial_n":119,"min":84,"max":171,"target":"present","response":"present","rt":272.70000004768,"correct":true,"confidence":5},{"trial_n":120,"min":84,"max":171,"target":"absent","response":"absent","rt":1006.6000001431,"correct":true,"confidence":2},{"trial_n":121,"min":85,"max":170,"target":"present","response":"present","rt":272.69999980927,"correct":true,"confidence":4},{"trial_n":122,"min":85,"max":170,"target":"absent","response":"present","rt":734.39999985695,"correct":false,"confidence":3},{"trial_n":123,"min":84,"max":171,"target":"absent","response":"absent","rt":957.29999995232,"correct":true,"confidence":2},{"trial_n":124,"min":84,"max":171,"target":"present","response":"present","rt":800.60000014305,"correct":true,"confidence":2},{"trial_n":125,"min":85,"max":170,"target":"present","response":"present","rt":2133,"correct":true,"confidence":3},{"trial_n":126,"min":85,"max":170,"target":"present","response":"present","rt":367.5,"correct":true,"confidence":4},{"trial_n":127,"min":86,"max":169,"target":"present","response":"present","rt":530.39999985695,"correct":true,"confidence":4},{"trial_n":128,"min":86,"max":169,"target":"present","response":"present","rt":1959.1999998093,"correct":true,"confidence":2},{"trial_n":129,"min":87,"max":168,"target":"absent","response":"present","rt":2185,"correct":false,"confidence":2},{"trial_n":130,"min":86,"max":169,"target":"present","response":"present","rt":345.89999985695,"correct":true,"confidence":4},{"trial_n":131,"min":86,"max":169,"target":"absent","response":"present","rt":1027.2000000477,"correct":false,"confidence":1},{"trial_n":132,"min":85,"max":170,"target":"absent","response":"absent","rt":811,"correct":true,"confidence":3},{"trial_n":133,"min":85,"max":170,"target":"absent","response":"present","rt":794.19999980927,"correct":false,"confidence":1},{"trial_n":134,"min":84,"max":171,"target":"absent","response":"present","rt":1564.6000001431,"correct":false,"confidence":1},{"trial_n":135,"min":83,"max":172,"target":"present","response":"present","rt":1506.7000000477,"correct":true,"confidence":1},{"trial_n":136,"min":83,"max":172,"target":"present","response":"present","rt":644.09999990463,"correct":true,"confidence":1},{"trial_n":137,"min":84,"max":171,"target":"absent","response":"present","rt":3051.4000000954,"correct":false,"confidence":1},{"trial_n":138,"min":83,"max":172,"target":"absent","response":"present","rt":989.09999990463,"correct":false,"confidence":1},{"trial_n":139,"min":82,"max":173,"target":"present","response":"present","rt":1527.4000000954,"correct":true,"confidence":2},{"trial_n":140,"min":82,"max":173,"target":"absent","response":"absent","rt":1296,"correct":true,"confidence":2}]