[{"trial_n":1,"span":8,"encoder":"64414443","distractor":"64414143","target":"present","response":"present","rt":"2910","correct":true,"confidence":-1},{"trial_n":2,"span":8,"encoder":"07716014","distractor":"07716024","target":"present","response":"absent","rt":"3510","correct":false,"confidence":-1},{"trial_n":3,"span":6,"encoder":"588045","distractor":"589045","target":"absent","response":"absent","rt":"1982","correct":true,"confidence":-1},{"trial_n":4,"span":6,"encoder":"542926","distractor":"542426","target":"absent","response":"absent","rt":"2177","correct":true,"confidence":-1},{"trial_n":5,"span":8,"encoder":"18673230","distractor":"17673230","target":"present","response":"present","rt":"2568","correct":true,"confidence":-1},{"trial_n":6,"span":8,"encoder":"27429316","distractor":"27429816","target":"absent","response":"present","rt":"2099","correct":false,"confidence":-1},{"trial_n":7,"span":6,"encoder":"929266","distractor":"929246","target":"absent","response":"absent","rt":"3988","correct":true,"confidence":-1},{"trial_n":8,"span":6,"encoder":"082425","distractor":"082825","target":"absent","response":"present","rt":"1873","correct":false,"confidence":-1},{"trial_n":9,"span":4,"encoder":"1656","distractor":"1666","target":"absent","response":"absent","rt":"1797","correct":true,"confidence":-1},{"trial_n":10,"span":4,"encoder":"2050","distractor":"2750","target":"absent","response":"absent","rt":"2816","correct":true,"confidence":-1},{"trial_n":11,"span":6,"encoder":"428675","distractor":"423675","target":"present","response":"absent","rt":"3079","correct":false,"confidence":-1},{"trial_n":12,"span":5,"encoder":"52597","distractor":"52537","target":"absent","response":"present","rt":"2117","correct":false,"confidence":-1},{"trial_n":13,"span":4,"encoder":"5933","distractor":"5943","target":"present","response":"present","rt":"1175","correct":true,"confidence":-1},{"trial_n":14,"span":4,"encoder":"4172","distractor":"4171","target":"present","response":"present","rt":"1102","correct":true,"confidence":-1},{"trial_n":15,"span":5,"encoder":"45027","distractor":"45127","target":"absent","response":"absent","rt":"1455","correct":true,"confidence":-1},{"trial_n":16,"span":5,"encoder":"90494","distractor":"90464","target":"absent","response":"present","rt":"1738","correct":false,"confidence":-1},{"trial_n":17,"span":4,"encoder":"8336","distractor":"8136","target":"present","response":"present","rt":"1382","correct":true,"confidence":-1},{"trial_n":18,"span":4,"encoder":"4414","distractor":"4416","target":"absent","response":"present","rt":"1223","correct":false,"confidence":-1},{"trial_n":19,"span":3,"encoder":"774","distractor":"770","target":"present","response":"present","rt":"1072","correct":true,"confidence":-1},{"trial_n":20,"span":3,"encoder":"116","distractor":"114","target":"absent","response":"absent","rt":"1292","correct":true,"confidence":-1},{"trial_n":21,"span":4,"encoder":"6913","distractor":"5913","target":"absent","response":"absent","rt":"1273","correct":true,"confidence":5},{"trial_n":22,"span":4,"encoder":"4040","distractor":"4340","target":"absent","response":"absent","rt":"1630","correct":true,"confidence":5},{"trial_n":23,"span":5,"encoder":"98072","distractor":"98672","target":"present","response":"present","rt":"1637","correct":true,"confidence":5},{"trial_n":24,"span":5,"encoder":"38538","distractor":"38938","target":"present","response":"present","rt":"2306","correct":true,"confidence":4},{"trial_n":25,"span":6,"encoder":"935490","distractor":"937490","target":"absent","response":"absent","rt":"1084","correct":true,"confidence":2},{"trial_n":26,"span":6,"encoder":"083237","distractor":"083297","target":"present","response":"present","rt":"1424","correct":true,"confidence":4},{"trial_n":27,"span":7,"encoder":"7025989","distractor":"7045989","target":"present","response":"present","rt":"1749","correct":true,"confidence":3},{"trial_n":28,"span":7,"encoder":"9685783","distractor":"9680783","target":"present","response":"absent","rt":"2925","correct":false,"confidence":3},{"trial_n":29,"span":6,"encoder":"511318","distractor":"511313","target":"present","response":"present","rt":"1406","correct":true,"confidence":5},{"trial_n":30,"span":6,"encoder":"610013","distractor":"617013","target":"present","response":"present","rt":"1866","correct":true,"confidence":4},{"trial_n":31,"span":7,"encoder":"3012151","distractor":"3012121","target":"absent","response":"absent","rt":"3253.0000000001","correct":true,"confidence":5},{"trial_n":32,"span":7,"encoder":"7276384","distractor":"7276334","target":"absent","response":"absent","rt":"2243.0000000001","correct":true,"confidence":3},{"trial_n":33,"span":8,"encoder":"66509611","distractor":"68509611","target":"present","response":"absent","rt":"2227","correct":false,"confidence":3},{"trial_n":34,"span":7,"encoder":"1545736","distractor":"1545733","target":"absent","response":"absent","rt":"3684","correct":true,"confidence":3},{"trial_n":35,"span":7,"encoder":"7180932","distractor":"7180942","target":"present","response":"present","rt":"1731","correct":true,"confidence":3},{"trial_n":36,"span":8,"encoder":"41500697","distractor":"49500697","target":"absent","response":"absent","rt":"2824.9999999999","correct":true,"confidence":2},{"trial_n":37,"span":8,"encoder":"62779601","distractor":"62779641","target":"absent","response":"absent","rt":"2234","correct":true,"confidence":4},{"trial_n":38,"span":9,"encoder":"022264120","distractor":"027264120","target":"present","response":"present","rt":"3305","correct":true,"confidence":3},{"trial_n":39,"span":9,"encoder":"047494354","distractor":"040494354","target":"absent","response":"present","rt":"2919","correct":false,"confidence":2},{"trial_n":40,"span":8,"encoder":"06271918","distractor":"06271958","target":"absent","response":"present","rt":"1810","correct":false,"confidence":2},{"trial_n":41,"span":7,"encoder":"7946350","distractor":"7346350","target":"absent","response":"absent","rt":"2728.9999999999","correct":true,"confidence":3},{"trial_n":42,"span":7,"encoder":"3198707","distractor":"0198707","target":"absent","response":"absent","rt":"1955","correct":true,"confidence":5},{"trial_n":43,"span":8,"encoder":"69504319","distractor":"49504319","target":"present","response":"present","rt":"3900","correct":true,"confidence":3},{"trial_n":44,"span":8,"encoder":"49061874","distractor":"89061874","target":"present","response":"absent","rt":"2831","correct":false,"confidence":3},{"trial_n":45,"span":7,"encoder":"7670720","distractor":"7672720","target":"present","response":"absent","rt":"9713","correct":false,"confidence":2},{"trial_n":46,"span":6,"encoder":"575830","distractor":"575930","target":"absent","response":"present","rt":"1616.9999999999","correct":false,"confidence":4},{"trial_n":47,"span":5,"encoder":"04701","distractor":"74701","target":"present","response":"present","rt":"1309","correct":true,"confidence":3},{"trial_n":48,"span":5,"encoder":"02540","distractor":"22540","target":"present","response":"present","rt":"2095","correct":true,"confidence":3},{"trial_n":49,"span":6,"encoder":"861458","distractor":"861438","target":"absent","response":"absent","rt":"3589.9999999999","correct":true,"confidence":2},{"trial_n":50,"span":6,"encoder":"836338","distractor":"836388","target":"absent","response":"present","rt":"2437","correct":false,"confidence":3},{"trial_n":51,"span":5,"encoder":"44816","distractor":"48816","target":"absent","response":"present","rt":"2763","correct":false,"confidence":5},{"trial_n":52,"span":4,"encoder":"7098","distractor":"7008","target":"present","response":"present","rt":"1273","correct":true,"confidence":5},{"trial_n":53,"span":4,"encoder":"2041","distractor":"2641","target":"absent","response":"absent","rt":"1452","correct":true,"confidence":5},{"trial_n":54,"span":5,"encoder":"39833","distractor":"69833","target":"present","response":"absent","rt":"3097","correct":false,"confidence":4},{"trial_n":55,"span":4,"encoder":"7049","distractor":"7019","target":"absent","response":"absent","rt":"2501","correct":true,"confidence":5},{"trial_n":56,"span":4,"encoder":"7652","distractor":"7654","target":"absent","response":"absent","rt":"3478","correct":true,"confidence":5},{"trial_n":57,"span":5,"encoder":"15970","distractor":"15975","target":"absent","response":"absent","rt":"1429.0000000001","correct":true,"confidence":5},{"trial_n":58,"span":5,"encoder":"63605","distractor":"63600","target":"absent","response":"absent","rt":"1318.0000000001","correct":true,"confidence":5},{"trial_n":59,"span":6,"encoder":"475107","distractor":"475907","target":"present","response":"present","rt":"2912","correct":true,"confidence":4},{"trial_n":60,"span":6,"encoder":"778584","distractor":"772584","target":"present","response":"present","rt":"2810","correct":true,"confidence":4},{"trial_n":61,"span":7,"encoder":"6112370","distractor":"6113370","target":"present","response":"present","rt":"1559","correct":true,"confidence":4},{"trial_n":62,"span":7,"encoder":"6531854","distractor":"6535854","target":"present","response":"present","rt":"2348","correct":true,"confidence":3},{"trial_n":63,"span":8,"encoder":"31578697","distractor":"31578677","target":"present","response":"present","rt":"3869","correct":true,"confidence":4},{"trial_n":64,"span":8,"encoder":"57800180","distractor":"52800180","target":"present","response":"present","rt":"1626","correct":true,"confidence":4},{"trial_n":65,"span":9,"encoder":"139892725","distractor":"139895725","target":"present","response":"absent","rt":"3443","correct":false,"confidence":3},{"trial_n":66,"span":8,"encoder":"99585075","distractor":"99585575","target":"present","response":"absent","rt":"2084","correct":false,"confidence":2},{"trial_n":67,"span":7,"encoder":"6214428","distractor":"6214429","target":"present","response":"present","rt":"1278","correct":true,"confidence":4},{"trial_n":68,"span":7,"encoder":"2363139","distractor":"2343139","target":"absent","response":"absent","rt":"3090","correct":true,"confidence":3},{"trial_n":69,"span":8,"encoder":"12293105","distractor":"14293105","target":"present","response":"absent","rt":"2148.0000000001","correct":false,"confidence":4},{"trial_n":70,"span":7,"encoder":"3839477","distractor":"3939477","target":"present","response":"absent","rt":"2418","correct":false,"confidence":2},{"trial_n":71,"span":8,"encoder":"28642794","distractor":"28642792","target":"present","response":"absent","rt":"9055","correct":false,"confidence":-1},{"trial_n":72,"span":7,"encoder":"5787301","distractor":"5787304","target":"present","response":"present","rt":"1351.9999999999","correct":true,"confidence":-1},{"trial_n":73,"span":7,"encoder":"6102206","distractor":"6802206","target":"absent","response":"present","rt":"1924","correct":false,"confidence":-1},{"trial_n":74,"span":6,"encoder":"357272","distractor":"357212","target":"absent","response":"absent","rt":"2287.9999999999","correct":true,"confidence":-1},{"trial_n":75,"span":6,"encoder":"065833","distractor":"095833","target":"present","response":"present","rt":"3259","correct":true,"confidence":-1},{"trial_n":76,"span":7,"encoder":"0740103","distractor":"0740603","target":"absent","response":"absent","rt":"2157","correct":true,"confidence":-1},{"trial_n":77,"span":7,"encoder":"1352869","distractor":"1352859","target":"present","response":"present","rt":"4000","correct":true,"confidence":-1},{"trial_n":78,"span":8,"encoder":"24183377","distractor":"24183277","target":"absent","response":"absent","rt":"1619.0000000001","correct":true,"confidence":-1},{"trial_n":79,"span":8,"encoder":"94240699","distractor":"94240690","target":"present","response":"present","rt":"1727","correct":true,"confidence":-1},{"trial_n":80,"span":9,"encoder":"333821309","distractor":"333871309","target":"present","response":"present","rt":"2159.0000000001","correct":true,"confidence":-1},{"trial_n":81,"span":9,"encoder":"359415927","distractor":"359015927","target":"absent","response":"absent","rt":"6039","correct":true,"confidence":-1},{"trial_n":82,"span":10,"encoder":"4327635613","distractor":"4367635613","target":"absent","response":"absent","rt":"13177","correct":true,"confidence":-1},{"trial_n":83,"span":10,"encoder":"4996583883","distractor":"4996583383","target":"present","response":"absent","rt":"2307.0000000001","correct":false,"confidence":-1},{"trial_n":84,"span":9,"encoder":"166603028","distractor":"166603078","target":"absent","response":"absent","rt":"1633","correct":true,"confidence":-1},{"trial_n":85,"span":9,"encoder":"972423884","distractor":"972023884","target":"absent","response":"present","rt":"2983","correct":false,"confidence":-1},{"trial_n":86,"span":8,"encoder":"69242262","distractor":"69842262","target":"present","response":"present","rt":"12436","correct":true,"confidence":-1},{"trial_n":87,"span":8,"encoder":"74842527","distractor":"44842527","target":"present","response":"present","rt":"91084","correct":true,"confidence":-1},{"trial_n":88,"span":9,"encoder":"340764258","distractor":"349764258","target":"absent","response":"absent","rt":"901.00000000023","correct":true,"confidence":-1},{"trial_n":89,"span":9,"encoder":"368711564","distractor":"308711564","target":"present","response":"present","rt":"748","correct":true,"confidence":-1},{"trial_n":90,"span":10,"encoder":"6481891184","distractor":"6483891184","target":"present","response":"absent","rt":"1911","correct":false,"confidence":-1},{"trial_n":91,"span":9,"encoder":"271159533","distractor":"271159523","target":"present","response":"present","rt":"6847","correct":true,"confidence":4},{"trial_n":92,"span":9,"encoder":"406675303","distractor":"406275303","target":"absent","response":"absent","rt":"3991","correct":true,"confidence":3},{"trial_n":93,"span":10,"encoder":"6156401834","distractor":"6356401834","target":"present","response":"absent","rt":"4263","correct":false,"confidence":3},{"trial_n":94,"span":9,"encoder":"768273902","distractor":"768276902","target":"absent","response":"present","rt":"4980","correct":false,"confidence":2},{"trial_n":95,"span":8,"encoder":"03302803","distractor":"03302703","target":"absent","response":"present","rt":"22872","correct":false,"confidence":1},{"trial_n":96,"span":7,"encoder":"4782792","distractor":"4787792","target":"absent","response":"absent","rt":"4341","correct":true,"confidence":4},{"trial_n":97,"span":7,"encoder":"2170586","distractor":"2170582","target":"present","response":"present","rt":"2929.9999999998","correct":true,"confidence":5},{"trial_n":98,"span":8,"encoder":"37809649","distractor":"37805649","target":"present","response":"present","rt":"5577.9999999998","correct":true,"confidence":4},{"trial_n":99,"span":8,"encoder":"85297725","distractor":"85299725","target":"present","response":"absent","rt":"4089.9999999998","correct":false,"confidence":3},{"trial_n":100,"span":7,"encoder":"7178456","distractor":"7178458","target":"present","response":"present","rt":"1701","correct":true,"confidence":2},{"trial_n":101,"span":7,"encoder":"7623335","distractor":"7643335","target":"present","response":"present","rt":"3708","correct":true,"confidence":4},{"trial_n":102,"span":8,"encoder":"36224842","distractor":"39224842","target":"absent","response":"present","rt":"2298","correct":false,"confidence":3},{"trial_n":103,"span":7,"encoder":"8327964","distractor":"8327967","target":"absent","response":"absent","rt":"1346","correct":true,"confidence":5},{"trial_n":104,"span":7,"encoder":"9614420","distractor":"9614429","target":"absent","response":"absent","rt":"975","correct":true,"confidence":5},{"trial_n":105,"span":8,"encoder":"84309519","distractor":"82309519","target":"present","response":"absent","rt":"6477","correct":false,"confidence":3},{"trial_n":106,"span":7,"encoder":"1176130","distractor":"1166130","target":"absent","response":"absent","rt":"1340","correct":true,"confidence":5},{"trial_n":107,"span":7,"encoder":"4381516","distractor":"4391516","target":"absent","response":"absent","rt":"2900.9999999998","correct":true,"confidence":4},{"trial_n":108,"span":8,"encoder":"28103188","distractor":"28103198","target":"absent","response":"absent","rt":"2777","correct":true,"confidence":4},{"trial_n":109,"span":8,"encoder":"41403637","distractor":"41400637","target":"absent","response":"absent","rt":"2803","correct":true,"confidence":4},{"trial_n":110,"span":9,"encoder":"187674028","distractor":"185674028","target":"absent","response":"absent","rt":"21652","correct":true,"confidence":2},{"trial_n":111,"span":9,"encoder":"735007874","distractor":"735807874","target":"absent","response":"present","rt":"4665","correct":false,"confidence":4},{"trial_n":112,"span":8,"encoder":"20664756","distractor":"20644756","target":"present","response":"absent","rt":"3272.9999999998","correct":false,"confidence":3},{"trial_n":113,"span":7,"encoder":"1471792","distractor":"9471792","target":"absent","response":"absent","rt":"3306.9999999998","correct":true,"confidence":4},{"trial_n":114,"span":7,"encoder":"0005075","distractor":"0005095","target":"absent","response":"absent","rt":"1644","correct":true,"confidence":5},{"trial_n":115,"span":8,"encoder":"48921776","distractor":"48931776","target":"present","response":"present","rt":"4946","correct":true,"confidence":4},{"trial_n":116,"span":8,"encoder":"69959771","distractor":"69959571","target":"present","response":"absent","rt":"1835","correct":false,"confidence":2},{"trial_n":117,"span":7,"encoder":"3268967","distractor":"3568967","target":"absent","response":"absent","rt":"4384","correct":true,"confidence":3},{"trial_n":118,"span":7,"encoder":"2846788","distractor":"2246788","target":"present","response":"absent","rt":"8028","correct":false,"confidence":4},{"trial_n":119,"span":6,"encoder":"687677","distractor":"667677","target":"present","response":"absent","rt":"9021.0000000002","correct":false,"confidence":2},{"trial_n":120,"span":5,"encoder":"01731","distractor":"01931","target":"absent","response":"absent","rt":"1234.0000000002","correct":true,"confidence":5},{"trial_n":121,"span":5,"encoder":"81159","distractor":"81859","target":"present","response":"present","rt":"1622.9999999998","correct":true,"confidence":5},{"trial_n":122,"span":6,"encoder":"724651","distractor":"714651","target":"present","response":"present","rt":"2325.0000000002","correct":true,"confidence":5},{"trial_n":123,"span":6,"encoder":"703743","distractor":"743743","target":"present","response":"present","rt":"2285","correct":true,"confidence":5},{"trial_n":124,"span":7,"encoder":"6174949","distractor":"6874949","target":"absent","response":"present","rt":"6020","correct":false,"confidence":2},{"trial_n":125,"span":6,"encoder":"547002","distractor":"547042","target":"present","response":"present","rt":"2026","correct":true,"confidence":4},{"trial_n":126,"span":6,"encoder":"350768","distractor":"650768","target":"present","response":"present","rt":"4097","correct":true,"confidence":5},{"trial_n":127,"span":7,"encoder":"1111779","distractor":"1111179","target":"present","response":"present","rt":"2704","correct":true,"confidence":4},{"trial_n":128,"span":7,"encoder":"5776871","distractor":"5376871","target":"present","response":"present","rt":"3051","correct":true,"confidence":4},{"trial_n":129,"span":8,"encoder":"72428100","distractor":"42428100","target":"absent","response":"absent","rt":"3833.9999999998","correct":true,"confidence":3},{"trial_n":130,"span":8,"encoder":"24941016","distractor":"26941016","target":"present","response":"present","rt":"1969.0000000002","correct":true,"confidence":3},{"trial_n":131,"span":9,"encoder":"874248711","distractor":"874748711","target":"absent","response":"absent","rt":"3141","correct":true,"confidence":4},{"trial_n":132,"span":9,"encoder":"799166450","distractor":"799166150","target":"absent","response":"absent","rt":"2747","correct":true,"confidence":4},{"trial_n":133,"span":10,"encoder":"0794203018","distractor":"0796203018","target":"absent","response":"absent","rt":"4306","correct":true,"confidence":4},{"trial_n":134,"span":10,"encoder":"4088999289","distractor":"4008999289","target":"present","response":"present","rt":"5331.9999999998","correct":true,"confidence":3},{"trial_n":135,"span":11,"encoder":"42873575766","distractor":"42873575266","target":"absent","response":"absent","rt":"2150","correct":true,"confidence":4},{"trial_n":136,"span":11,"encoder":"90594318793","distractor":"90594318790","target":"present","response":"present","rt":"1386","correct":true,"confidence":5},{"trial_n":137,"span":12,"encoder":"085387382846","distractor":"085387782846","target":"absent","response":"present","rt":"1992","correct":false,"confidence":2},{"trial_n":138,"span":11,"encoder":"19785730676","distractor":"19783730676","target":"present","response":"present","rt":"4648","correct":true,"confidence":3},{"trial_n":139,"span":11,"encoder":"35210535937","distractor":"35210535637","target":"absent","response":"absent","rt":"10956","correct":true,"confidence":3},{"trial_n":140,"span":12,"encoder":"598836393071","distractor":"598836393571","target":"present","response":"absent","rt":"6313","correct":false,"confidence":2}]