[{"trial_n":1,"n_dots":4.25,"target":"left","response":"left","rt":6100.599999994,"correct":true,"confidence":-1},{"trial_n":2,"n_dots":4.25,"target":"right","response":"right","rt":571.20000000298,"correct":true,"confidence":-1},{"trial_n":3,"n_dots":3.85,"target":"right","response":"left","rt":482.60000000149,"correct":false,"confidence":-1},{"trial_n":4,"n_dots":4.25,"target":"left","response":"left","rt":297.60000000149,"correct":true,"confidence":-1},{"trial_n":5,"n_dots":4.25,"target":"left","response":"left","rt":220.30000000447,"correct":true,"confidence":-1},{"trial_n":6,"n_dots":3.85,"target":"left","response":"left","rt":290.70000000298,"correct":true,"confidence":-1},{"trial_n":7,"n_dots":3.85,"target":"right","response":"right","rt":157.10000000149,"correct":true,"confidence":-1},{"trial_n":8,"n_dots":3.65,"target":"left","response":"right","rt":1397.400000006,"correct":false,"confidence":-1},{"trial_n":9,"n_dots":3.85,"target":"left","response":"left","rt":284.60000000149,"correct":true,"confidence":-1},{"trial_n":10,"n_dots":3.85,"target":"left","response":"left","rt":413.60000000149,"correct":true,"confidence":-1},{"trial_n":11,"n_dots":3.65,"target":"right","response":"right","rt":676.80000000447,"correct":true,"confidence":-1},{"trial_n":12,"n_dots":3.65,"target":"right","response":"left","rt":909.90000000596,"correct":false,"confidence":-1},{"trial_n":13,"n_dots":3.75,"target":"left","response":"right","rt":716.79999999702,"correct":false,"confidence":-1},{"trial_n":14,"n_dots":3.85,"target":"left","response":"left","rt":625.29999999702,"correct":true,"confidence":-1},{"trial_n":15,"n_dots":3.85,"target":"left","response":"left","rt":423,"correct":true,"confidence":-1},{"trial_n":16,"n_dots":3.75,"target":"right","response":"right","rt":650,"correct":true,"confidence":-1},{"trial_n":17,"n_dots":3.75,"target":"right","response":"right","rt":31.30000000447,"correct":true,"confidence":-1},{"trial_n":18,"n_dots":3.65,"target":"left","response":"left","rt":430.20000000298,"correct":true,"confidence":-1},{"trial_n":19,"n_dots":3.65,"target":"right","response":"right","rt":73.89999999851,"correct":true,"confidence":-1},{"trial_n":20,"n_dots":3.55,"target":"right","response":"right","rt":321.20000000298,"correct":true,"confidence":-1},{"trial_n":21,"n_dots":3.55,"target":"right","response":"right","rt":337.20000000298,"correct":true,"confidence":3},{"trial_n":22,"n_dots":3.45,"target":"right","response":"right","rt":269.30000000447,"correct":true,"confidence":5},{"trial_n":23,"n_dots":3.45,"target":"left","response":"left","rt":683.60000000149,"correct":true,"confidence":5},{"trial_n":24,"n_dots":3.35,"target":"left","response":"left","rt":328.29999999702,"correct":true,"confidence":5},{"trial_n":25,"n_dots":3.35,"target":"left","response":"left","rt":925.30000000447,"correct":true,"confidence":5},{"trial_n":26,"n_dots":3.25,"target":"left","response":"left","rt":435.89999999851,"correct":true,"confidence":4},{"trial_n":27,"n_dots":3.25,"target":"left","response":"left","rt":344.39999999851,"correct":true,"confidence":3},{"trial_n":28,"n_dots":3.15,"target":"left","response":"left","rt":636,"correct":true,"confidence":4},{"trial_n":29,"n_dots":3.15,"target":"right","response":"right","rt":275.89999999851,"correct":true,"confidence":3},{"trial_n":30,"n_dots":3.05,"target":"left","response":"left","rt":1471.700000003,"correct":true,"confidence":3},{"trial_n":31,"n_dots":3.05,"target":"left","response":"right","rt":496.20000000298,"correct":false,"confidence":4},{"trial_n":32,"n_dots":3.15,"target":"left","response":"left","rt":450.70000000298,"correct":true,"confidence":4},{"trial_n":33,"n_dots":3.15,"target":"left","response":"left","rt":699.30000000447,"correct":true,"confidence":5},{"trial_n":34,"n_dots":3.05,"target":"right","response":"right","rt":1042.8000000045,"correct":true,"confidence":3},{"trial_n":35,"n_dots":3.05,"target":"left","response":"left","rt":1070.400000006,"correct":true,"confidence":3},{"trial_n":36,"n_dots":2.95,"target":"right","response":"right","rt":239.79999999702,"correct":true,"confidence":5},{"trial_n":37,"n_dots":2.95,"target":"left","response":"left","rt":539.60000000149,"correct":true,"confidence":4},{"trial_n":38,"n_dots":2.85,"target":"right","response":"left","rt":896.39999999851,"correct":false,"confidence":3},{"trial_n":39,"n_dots":2.95,"target":"right","response":"right","rt":291.60000000149,"correct":true,"confidence":5},{"trial_n":40,"n_dots":2.95,"target":"right","response":"right","rt":281.5,"correct":true,"confidence":5},{"trial_n":41,"n_dots":2.85,"target":"left","response":"left","rt":1679.700000003,"correct":true,"confidence":2},{"trial_n":42,"n_dots":2.85,"target":"right","response":"right","rt":348.5,"correct":true,"confidence":4},{"trial_n":43,"n_dots":2.75,"target":"left","response":"right","rt":460.60000000149,"correct":false,"confidence":3},{"trial_n":44,"n_dots":2.85,"target":"right","response":"right","rt":237.70000000298,"correct":true,"confidence":5},{"trial_n":45,"n_dots":2.85,"target":"right","response":"right","rt":687,"correct":true,"confidence":3},{"trial_n":46,"n_dots":2.75,"target":"left","response":"left","rt":433.70000000298,"correct":true,"confidence":3},{"trial_n":47,"n_dots":2.75,"target":"left","response":"right","rt":779.10000000149,"correct":false,"confidence":4},{"trial_n":48,"n_dots":2.85,"target":"left","response":"left","rt":830.79999999702,"correct":true,"confidence":5},{"trial_n":49,"n_dots":2.85,"target":"left","response":"left","rt":401.29999999702,"correct":true,"confidence":5},{"trial_n":50,"n_dots":2.75,"target":"right","response":"right","rt":334.30000000447,"correct":true,"confidence":5},{"trial_n":51,"n_dots":2.75,"target":"left","response":"left","rt":365.40000000596,"correct":true,"confidence":4},{"trial_n":52,"n_dots":2.65,"target":"right","response":"right","rt":294.29999999702,"correct":true,"confidence":4},{"trial_n":53,"n_dots":2.65,"target":"right","response":"right","rt":913.59999999404,"correct":true,"confidence":3},{"trial_n":54,"n_dots":2.55,"target":"right","response":"left","rt":525.60000000149,"correct":false,"confidence":3},{"trial_n":55,"n_dots":2.65,"target":"right","response":"right","rt":332.70000000298,"correct":true,"confidence":5},{"trial_n":56,"n_dots":2.65,"target":"left","response":"left","rt":898.40000000596,"correct":true,"confidence":3},{"trial_n":57,"n_dots":2.55,"target":"left","response":"left","rt":466.80000000447,"correct":true,"confidence":4},{"trial_n":58,"n_dots":2.55,"target":"right","response":"right","rt":315.80000000447,"correct":true,"confidence":5},{"trial_n":59,"n_dots":2.45,"target":"left","response":"left","rt":1137.700000003,"correct":true,"confidence":3},{"trial_n":60,"n_dots":2.45,"target":"right","response":"right","rt":274.60000000149,"correct":true,"confidence":5},{"trial_n":61,"n_dots":2.35,"target":"left","response":"right","rt":1246,"correct":false,"confidence":3},{"trial_n":62,"n_dots":2.45,"target":"right","response":"right","rt":386.30000000447,"correct":true,"confidence":3},{"trial_n":63,"n_dots":2.45,"target":"left","response":"left","rt":671.40000000596,"correct":true,"confidence":4},{"trial_n":64,"n_dots":2.35,"target":"left","response":"right","rt":365.80000000447,"correct":false,"confidence":4},{"trial_n":65,"n_dots":2.45,"target":"left","response":"left","rt":354.5,"correct":true,"confidence":5},{"trial_n":66,"n_dots":2.45,"target":"right","response":"right","rt":1113.3999999985,"correct":true,"confidence":2},{"trial_n":67,"n_dots":2.35,"target":"right","response":"left","rt":1228.200000003,"correct":false,"confidence":4},{"trial_n":68,"n_dots":2.45,"target":"left","response":"left","rt":1004.700000003,"correct":true,"confidence":3},{"trial_n":69,"n_dots":2.45,"target":"left","response":"right","rt":683.5,"correct":false,"confidence":3},{"trial_n":70,"n_dots":2.55,"target":"left","response":"left","rt":457.70000000298,"correct":true,"confidence":3},{"trial_n":71,"n_dots":2.55,"target":"left","response":"left","rt":430.60000000149,"correct":true,"confidence":3},{"trial_n":72,"n_dots":2.45,"target":"right","response":"left","rt":675.39999999851,"correct":false,"confidence":4},{"trial_n":73,"n_dots":2.55,"target":"left","response":"right","rt":608.90000000596,"correct":false,"confidence":4},{"trial_n":74,"n_dots":2.65,"target":"right","response":"left","rt":611.80000000447,"correct":false,"confidence":3},{"trial_n":75,"n_dots":2.75,"target":"right","response":"right","rt":513.20000000298,"correct":true,"confidence":4},{"trial_n":76,"n_dots":2.75,"target":"left","response":"left","rt":825.30000000447,"correct":true,"confidence":3},{"trial_n":77,"n_dots":2.65,"target":"left","response":"left","rt":730.39999999851,"correct":true,"confidence":3},{"trial_n":78,"n_dots":2.65,"target":"left","response":"left","rt":547.30000000447,"correct":true,"confidence":4},{"trial_n":79,"n_dots":2.55,"target":"right","response":"right","rt":492.70000000298,"correct":true,"confidence":4},{"trial_n":80,"n_dots":2.55,"target":"right","response":"right","rt":2094.6000000015,"correct":true,"confidence":3},{"trial_n":81,"n_dots":2.45,"target":"left","response":"right","rt":4425.200000003,"correct":false,"confidence":3},{"trial_n":82,"n_dots":2.55,"target":"left","response":"left","rt":2399.900000006,"correct":true,"confidence":3},{"trial_n":83,"n_dots":2.55,"target":"left","response":"left","rt":1145.200000003,"correct":true,"confidence":3},{"trial_n":84,"n_dots":2.45,"target":"right","response":"right","rt":1064,"correct":true,"confidence":2},{"trial_n":85,"n_dots":2.45,"target":"right","response":"right","rt":880.5,"correct":true,"confidence":2},{"trial_n":86,"n_dots":2.35,"target":"right","response":"left","rt":451.70000000298,"correct":false,"confidence":1},{"trial_n":87,"n_dots":2.45,"target":"right","response":"left","rt":796.60000000149,"correct":false,"confidence":3},{"trial_n":88,"n_dots":2.55,"target":"left","response":"right","rt":732.89999999851,"correct":false,"confidence":3},{"trial_n":89,"n_dots":2.65,"target":"right","response":"left","rt":1900.700000003,"correct":false,"confidence":2},{"trial_n":90,"n_dots":2.75,"target":"left","response":"left","rt":1080.900000006,"correct":true,"confidence":2},{"trial_n":91,"n_dots":2.75,"target":"left","response":"left","rt":731.80000000447,"correct":true,"confidence":3},{"trial_n":92,"n_dots":2.65,"target":"right","response":"right","rt":524,"correct":true,"confidence":3},{"trial_n":93,"n_dots":2.65,"target":"right","response":"left","rt":1375.6000000015,"correct":false,"confidence":4},{"trial_n":94,"n_dots":2.75,"target":"right","response":"right","rt":550.19999999553,"correct":true,"confidence":4},{"trial_n":95,"n_dots":2.75,"target":"right","response":"right","rt":695.70000000298,"correct":true,"confidence":4},{"trial_n":96,"n_dots":2.65,"target":"left","response":"left","rt":531.30000000447,"correct":true,"confidence":4},{"trial_n":97,"n_dots":2.65,"target":"left","response":"left","rt":861.40000000596,"correct":true,"confidence":3},{"trial_n":98,"n_dots":2.55,"target":"left","response":"left","rt":504.5,"correct":true,"confidence":4},{"trial_n":99,"n_dots":2.55,"target":"right","response":"left","rt":3390.5,"correct":false,"confidence":3},{"trial_n":100,"n_dots":2.65,"target":"right","response":"left","rt":4398.6000000015,"correct":false,"confidence":3},{"trial_n":101,"n_dots":2.75,"target":"right","response":"right","rt":3270.8000000045,"correct":true,"confidence":2},{"trial_n":102,"n_dots":2.75,"target":"right","response":"left","rt":522.70000000298,"correct":false,"confidence":2},{"trial_n":103,"n_dots":2.85,"target":"right","response":"left","rt":516.80000000447,"correct":false,"confidence":2},{"trial_n":104,"n_dots":2.95,"target":"right","response":"right","rt":489.80000000447,"correct":true,"confidence":3},{"trial_n":105,"n_dots":2.95,"target":"right","response":"right","rt":292.19999999553,"correct":true,"confidence":4},{"trial_n":106,"n_dots":2.85,"target":"left","response":"left","rt":1013.8000000045,"correct":true,"confidence":4},{"trial_n":107,"n_dots":2.85,"target":"left","response":"right","rt":1527,"correct":false,"confidence":4},{"trial_n":108,"n_dots":2.95,"target":"right","response":"right","rt":438.20000000298,"correct":true,"confidence":5},{"trial_n":109,"n_dots":2.95,"target":"right","response":"right","rt":474.40000000596,"correct":true,"confidence":3},{"trial_n":110,"n_dots":2.85,"target":"right","response":"right","rt":515.20000000298,"correct":true,"confidence":4},{"trial_n":111,"n_dots":2.85,"target":"right","response":"right","rt":688.10000000149,"correct":true,"confidence":3},{"trial_n":112,"n_dots":2.75,"target":"left","response":"left","rt":723.20000000298,"correct":true,"confidence":3},{"trial_n":113,"n_dots":2.75,"target":"right","response":"right","rt":1376.5,"correct":true,"confidence":3},{"trial_n":114,"n_dots":2.65,"target":"left","response":"right","rt":694.60000000149,"correct":false,"confidence":3},{"trial_n":115,"n_dots":2.75,"target":"right","response":"right","rt":876,"correct":true,"confidence":4},{"trial_n":116,"n_dots":2.75,"target":"left","response":"right","rt":1462.3999999985,"correct":false,"confidence":3},{"trial_n":117,"n_dots":2.85,"target":"right","response":"right","rt":505.10000000149,"correct":true,"confidence":3},{"trial_n":118,"n_dots":2.85,"target":"left","response":"right","rt":821,"correct":false,"confidence":3},{"trial_n":119,"n_dots":2.95,"target":"right","response":"right","rt":362,"correct":true,"confidence":4},{"trial_n":120,"n_dots":2.95,"target":"right","response":"right","rt":570,"correct":true,"confidence":4}]