[{"trial_n":1,"min":25,"max":230,"target":"present","response":"absent","rt":14156,"correct":false,"confidence":-1},{"trial_n":2,"min":25,"max":230,"target":"present","response":"present","rt":951.99999999999,"correct":true,"confidence":-1},{"trial_n":3,"min":25,"max":230,"target":"absent","response":"absent","rt":1027,"correct":true,"confidence":-1},{"trial_n":4,"min":41,"max":214,"target":"absent","response":"absent","rt":778,"correct":true,"confidence":-1},{"trial_n":5,"min":41,"max":214,"target":"present","response":"present","rt":712.99999999999,"correct":true,"confidence":-1},{"trial_n":6,"min":57,"max":198,"target":"absent","response":"absent","rt":697,"correct":true,"confidence":-1},{"trial_n":7,"min":57,"max":198,"target":"present","response":"present","rt":494,"correct":true,"confidence":-1},{"trial_n":8,"min":73,"max":182,"target":"present","response":"present","rt":660,"correct":true,"confidence":-1},{"trial_n":9,"min":73,"max":182,"target":"absent","response":"absent","rt":615,"correct":true,"confidence":-1},{"trial_n":10,"min":89,"max":166,"target":"absent","response":"absent","rt":1183,"correct":true,"confidence":-1},{"trial_n":11,"min":89,"max":166,"target":"present","response":"absent","rt":553,"correct":false,"confidence":-1},{"trial_n":12,"min":81,"max":174,"target":"present","response":"present","rt":870.00000000001,"correct":true,"confidence":-1},{"trial_n":13,"min":81,"max":174,"target":"absent","response":"absent","rt":592,"correct":true,"confidence":-1},{"trial_n":14,"min":89,"max":166,"target":"present","response":"absent","rt":780,"correct":false,"confidence":-1},{"trial_n":15,"min":81,"max":174,"target":"absent","response":"absent","rt":592,"correct":true,"confidence":-1},{"trial_n":16,"min":81,"max":174,"target":"present","response":"present","rt":907,"correct":true,"confidence":-1},{"trial_n":17,"min":89,"max":166,"target":"absent","response":"absent","rt":737,"correct":true,"confidence":-1},{"trial_n":18,"min":89,"max":166,"target":"absent","response":"absent","rt":567,"correct":true,"confidence":-1},{"trial_n":19,"min":97,"max":158,"target":"absent","response":"absent","rt":591.99999999999,"correct":true,"confidence":-1},{"trial_n":20,"min":97,"max":158,"target":"present","response":"present","rt":610,"correct":true,"confidence":-1},{"trial_n":21,"min":101,"max":154,"target":"absent","response":"absent","rt":875,"correct":true,"confidence":4},{"trial_n":22,"min":101,"max":154,"target":"absent","response":"absent","rt":1087,"correct":true,"confidence":4},{"trial_n":23,"min":105,"max":150,"target":"present","response":"absent","rt":466,"correct":false,"confidence":4},{"trial_n":24,"min":101,"max":154,"target":"absent","response":"absent","rt":553,"correct":true,"confidence":4},{"trial_n":25,"min":101,"max":154,"target":"present","response":"present","rt":725,"correct":true,"confidence":4},{"trial_n":26,"min":105,"max":150,"target":"absent","response":"present","rt":1258,"correct":false,"confidence":4},{"trial_n":27,"min":101,"max":154,"target":"absent","response":"absent","rt":772,"correct":true,"confidence":4},{"trial_n":28,"min":101,"max":154,"target":"absent","response":"present","rt":1420,"correct":false,"confidence":4},{"trial_n":29,"min":97,"max":158,"target":"absent","response":"absent","rt":853,"correct":true,"confidence":3},{"trial_n":30,"min":97,"max":158,"target":"present","response":"absent","rt":742,"correct":false,"confidence":3},{"trial_n":31,"min":95,"max":160,"target":"present","response":"absent","rt":860,"correct":false,"confidence":4},{"trial_n":32,"min":93,"max":162,"target":"present","response":"absent","rt":840,"correct":false,"confidence":4},{"trial_n":33,"min":91,"max":164,"target":"present","response":"present","rt":628,"correct":true,"confidence":4},{"trial_n":34,"min":91,"max":164,"target":"present","response":"present","rt":1001,"correct":true,"confidence":4},{"trial_n":35,"min":93,"max":162,"target":"absent","response":"present","rt":869,"correct":false,"confidence":4},{"trial_n":36,"min":91,"max":164,"target":"present","response":"absent","rt":652,"correct":false,"confidence":3},{"trial_n":37,"min":89,"max":166,"target":"present","response":"present","rt":912,"correct":true,"confidence":4},{"trial_n":38,"min":89,"max":166,"target":"absent","response":"present","rt":885,"correct":false,"confidence":4},{"trial_n":39,"min":87,"max":168,"target":"present","response":"present","rt":929,"correct":true,"confidence":4},{"trial_n":40,"min":87,"max":168,"target":"absent","response":"present","rt":861,"correct":false,"confidence":4},{"trial_n":41,"min":86,"max":169,"target":"absent","response":"present","rt":886,"correct":false,"confidence":4},{"trial_n":42,"min":85,"max":170,"target":"present","response":"present","rt":702,"correct":true,"confidence":4},{"trial_n":43,"min":85,"max":170,"target":"present","response":"present","rt":548,"correct":true,"confidence":4},{"trial_n":44,"min":86,"max":169,"target":"present","response":"present","rt":1873,"correct":true,"confidence":4},{"trial_n":45,"min":86,"max":169,"target":"absent","response":"present","rt":821.00000000003,"correct":false,"confidence":4},{"trial_n":46,"min":85,"max":170,"target":"present","response":"present","rt":686,"correct":true,"confidence":4},{"trial_n":47,"min":85,"max":170,"target":"absent","response":"absent","rt":885,"correct":true,"confidence":3},{"trial_n":48,"min":86,"max":169,"target":"absent","response":"absent","rt":781,"correct":true,"confidence":3},{"trial_n":49,"min":86,"max":169,"target":"absent","response":"present","rt":812.99999999997,"correct":false,"confidence":4},{"trial_n":50,"min":85,"max":170,"target":"absent","response":"absent","rt":3248,"correct":true,"confidence":2},{"trial_n":51,"min":85,"max":170,"target":"present","response":"absent","rt":1286,"correct":false,"confidence":3},{"trial_n":52,"min":84,"max":171,"target":"present","response":"absent","rt":840,"correct":false,"confidence":3},{"trial_n":53,"min":83,"max":172,"target":"present","response":"present","rt":647,"correct":true,"confidence":4},{"trial_n":54,"min":83,"max":172,"target":"present","response":"present","rt":1075,"correct":true,"confidence":4},{"trial_n":55,"min":84,"max":171,"target":"present","response":"absent","rt":813.99999999994,"correct":false,"confidence":2},{"trial_n":56,"min":83,"max":172,"target":"present","response":"present","rt":662,"correct":true,"confidence":3},{"trial_n":57,"min":83,"max":172,"target":"absent","response":"absent","rt":936,"correct":true,"confidence":2},{"trial_n":58,"min":84,"max":171,"target":"absent","response":"absent","rt":732,"correct":true,"confidence":2},{"trial_n":59,"min":84,"max":171,"target":"absent","response":"absent","rt":839,"correct":true,"confidence":2},{"trial_n":60,"min":85,"max":170,"target":"absent","response":"absent","rt":797,"correct":true,"confidence":2},{"trial_n":61,"min":85,"max":170,"target":"present","response":"present","rt":804,"correct":true,"confidence":5},{"trial_n":62,"min":86,"max":169,"target":"present","response":"present","rt":758,"correct":true,"confidence":4},{"trial_n":63,"min":86,"max":169,"target":"absent","response":"present","rt":2431,"correct":false,"confidence":3},{"trial_n":64,"min":85,"max":170,"target":"present","response":"present","rt":922,"correct":true,"confidence":3},{"trial_n":65,"min":85,"max":170,"target":"present","response":"present","rt":630,"correct":true,"confidence":3},{"trial_n":66,"min":86,"max":169,"target":"present","response":"absent","rt":678.00000000006,"correct":false,"confidence":2},{"trial_n":67,"min":85,"max":170,"target":"absent","response":"present","rt":1283,"correct":false,"confidence":2},{"trial_n":68,"min":84,"max":171,"target":"absent","response":"absent","rt":1048,"correct":true,"confidence":3},{"trial_n":69,"min":84,"max":171,"target":"absent","response":"absent","rt":1437,"correct":true,"confidence":3},{"trial_n":70,"min":85,"max":170,"target":"present","response":"present","rt":872,"correct":true,"confidence":3},{"trial_n":71,"min":41,"max":214,"target":"present","response":"present","rt":1753,"correct":true,"confidence":-1},{"trial_n":72,"min":41,"max":214,"target":"present","response":"present","rt":680,"correct":true,"confidence":-1},{"trial_n":73,"min":57,"max":198,"target":"absent","response":"absent","rt":770,"correct":true,"confidence":-1},{"trial_n":74,"min":57,"max":198,"target":"absent","response":"absent","rt":867,"correct":true,"confidence":-1},{"trial_n":75,"min":73,"max":182,"target":"present","response":"present","rt":738,"correct":true,"confidence":-1},{"trial_n":76,"min":73,"max":182,"target":"absent","response":"absent","rt":1385,"correct":true,"confidence":-1},{"trial_n":77,"min":89,"max":166,"target":"present","response":"present","rt":982,"correct":true,"confidence":-1},{"trial_n":78,"min":89,"max":166,"target":"present","response":"absent","rt":1198,"correct":false,"confidence":-1},{"trial_n":79,"min":73,"max":182,"target":"present","response":"present","rt":729,"correct":true,"confidence":-1},{"trial_n":80,"min":73,"max":182,"target":"absent","response":"absent","rt":1069,"correct":true,"confidence":-1},{"trial_n":81,"min":81,"max":174,"target":"absent","response":"absent","rt":926,"correct":true,"confidence":-1},{"trial_n":82,"min":81,"max":174,"target":"present","response":"present","rt":705,"correct":true,"confidence":-1},{"trial_n":83,"min":89,"max":166,"target":"present","response":"absent","rt":868,"correct":false,"confidence":-1},{"trial_n":84,"min":81,"max":174,"target":"absent","response":"absent","rt":1126,"correct":true,"confidence":-1},{"trial_n":85,"min":81,"max":174,"target":"absent","response":"present","rt":877,"correct":false,"confidence":-1},{"trial_n":86,"min":73,"max":182,"target":"absent","response":"absent","rt":1264,"correct":true,"confidence":-1},{"trial_n":87,"min":73,"max":182,"target":"absent","response":"absent","rt":795,"correct":true,"confidence":-1},{"trial_n":88,"min":81,"max":174,"target":"absent","response":"absent","rt":704.99999999994,"correct":true,"confidence":-1},{"trial_n":89,"min":81,"max":174,"target":"absent","response":"absent","rt":779,"correct":true,"confidence":-1},{"trial_n":90,"min":89,"max":166,"target":"absent","response":"present","rt":1047,"correct":false,"confidence":-1},{"trial_n":91,"min":85,"max":170,"target":"present","response":"absent","rt":1145,"correct":false,"confidence":2},{"trial_n":92,"min":81,"max":174,"target":"present","response":"present","rt":473,"correct":true,"confidence":5},{"trial_n":93,"min":81,"max":174,"target":"absent","response":"present","rt":1023,"correct":false,"confidence":2},{"trial_n":94,"min":77,"max":178,"target":"present","response":"present","rt":1113,"correct":true,"confidence":4},{"trial_n":95,"min":77,"max":178,"target":"absent","response":"absent","rt":781,"correct":true,"confidence":4},{"trial_n":96,"min":81,"max":174,"target":"absent","response":"absent","rt":903,"correct":true,"confidence":4},{"trial_n":97,"min":81,"max":174,"target":"present","response":"absent","rt":1715.0000000001,"correct":false,"confidence":2},{"trial_n":98,"min":77,"max":178,"target":"absent","response":"absent","rt":911,"correct":true,"confidence":2},{"trial_n":99,"min":77,"max":178,"target":"absent","response":"absent","rt":1129,"correct":true,"confidence":2},{"trial_n":100,"min":81,"max":174,"target":"present","response":"present","rt":850,"correct":true,"confidence":2},{"trial_n":101,"min":81,"max":174,"target":"absent","response":"absent","rt":806,"correct":true,"confidence":3},{"trial_n":102,"min":83,"max":172,"target":"present","response":"present","rt":798,"correct":true,"confidence":3},{"trial_n":103,"min":83,"max":172,"target":"absent","response":"absent","rt":2156,"correct":true,"confidence":3},{"trial_n":104,"min":85,"max":170,"target":"present","response":"present","rt":714,"correct":true,"confidence":3},{"trial_n":105,"min":85,"max":170,"target":"present","response":"present","rt":1622,"correct":true,"confidence":3},{"trial_n":106,"min":87,"max":168,"target":"present","response":"present","rt":827,"correct":true,"confidence":4},{"trial_n":107,"min":87,"max":168,"target":"present","response":"absent","rt":785,"correct":false,"confidence":2},{"trial_n":108,"min":85,"max":170,"target":"absent","response":"present","rt":2151,"correct":false,"confidence":2},{"trial_n":109,"min":83,"max":172,"target":"present","response":"absent","rt":925,"correct":false,"confidence":2},{"trial_n":110,"min":81,"max":174,"target":"present","response":"present","rt":1015,"correct":true,"confidence":4},{"trial_n":111,"min":81,"max":174,"target":"absent","response":"present","rt":835,"correct":false,"confidence":3},{"trial_n":112,"min":80,"max":175,"target":"present","response":"present","rt":724,"correct":true,"confidence":3},{"trial_n":113,"min":80,"max":175,"target":"absent","response":"absent","rt":1312,"correct":true,"confidence":2},{"trial_n":114,"min":81,"max":174,"target":"present","response":"present","rt":874,"correct":true,"confidence":3},{"trial_n":115,"min":81,"max":174,"target":"absent","response":"present","rt":956,"correct":false,"confidence":3},{"trial_n":116,"min":80,"max":175,"target":"present","response":"present","rt":1000,"correct":true,"confidence":4},{"trial_n":117,"min":80,"max":175,"target":"absent","response":"absent","rt":893,"correct":true,"confidence":2},{"trial_n":118,"min":81,"max":174,"target":"absent","response":"absent","rt":1264,"correct":true,"confidence":3},{"trial_n":119,"min":81,"max":174,"target":"present","response":"present","rt":765,"correct":true,"confidence":3},{"trial_n":120,"min":82,"max":173,"target":"present","response":"present","rt":902,"correct":true,"confidence":4},{"trial_n":121,"min":82,"max":173,"target":"present","response":"present","rt":898,"correct":true,"confidence":3},{"trial_n":122,"min":83,"max":172,"target":"present","response":"present","rt":1717.9999999999,"correct":true,"confidence":3},{"trial_n":123,"min":83,"max":172,"target":"absent","response":"absent","rt":1177,"correct":true,"confidence":1},{"trial_n":124,"min":84,"max":171,"target":"present","response":"present","rt":724,"correct":true,"confidence":3},{"trial_n":125,"min":84,"max":171,"target":"present","response":"present","rt":1150.9999999999,"correct":true,"confidence":4},{"trial_n":126,"min":85,"max":170,"target":"absent","response":"present","rt":1053,"correct":false,"confidence":4},{"trial_n":127,"min":84,"max":171,"target":"absent","response":"present","rt":1231,"correct":false,"confidence":3},{"trial_n":128,"min":83,"max":172,"target":"present","response":"present","rt":1508,"correct":true,"confidence":3},{"trial_n":129,"min":83,"max":172,"target":"present","response":"present","rt":1015,"correct":true,"confidence":3},{"trial_n":130,"min":84,"max":171,"target":"absent","response":"absent","rt":2058.0000000001,"correct":true,"confidence":2},{"trial_n":131,"min":84,"max":171,"target":"present","response":"present","rt":1034,"correct":true,"confidence":3},{"trial_n":132,"min":85,"max":170,"target":"present","response":"present","rt":1138,"correct":true,"confidence":3},{"trial_n":133,"min":85,"max":170,"target":"absent","response":"present","rt":1177.0000000001,"correct":false,"confidence":3},{"trial_n":134,"min":84,"max":171,"target":"absent","response":"present","rt":959,"correct":false,"confidence":3},{"trial_n":135,"min":83,"max":172,"target":"present","response":"absent","rt":1338,"correct":false,"confidence":3},{"trial_n":136,"min":82,"max":173,"target":"absent","response":"absent","rt":745,"correct":true,"confidence":2},{"trial_n":137,"min":82,"max":173,"target":"present","response":"present","rt":691,"correct":true,"confidence":3},{"trial_n":138,"min":83,"max":172,"target":"absent","response":"absent","rt":2318,"correct":true,"confidence":3},{"trial_n":139,"min":83,"max":172,"target":"absent","response":"absent","rt":918,"correct":true,"confidence":3},{"trial_n":140,"min":84,"max":171,"target":"present","response":"present","rt":777,"correct":true,"confidence":3}]