[{"trial_n":1,"n_dots":4.25,"target":"right","response":"left","rt":878.79999995232,"correct":false,"confidence":-1},{"trial_n":2,"n_dots":4.25,"target":"right","response":"right","rt":739.5,"correct":true,"confidence":-1},{"trial_n":3,"n_dots":4.25,"target":"right","response":"right","rt":665.90000009537,"correct":true,"confidence":-1},{"trial_n":4,"n_dots":3.85,"target":"left","response":"left","rt":604.5,"correct":true,"confidence":-1},{"trial_n":5,"n_dots":3.85,"target":"left","response":"right","rt":774.70000004768,"correct":false,"confidence":-1},{"trial_n":6,"n_dots":4.25,"target":"left","response":"left","rt":738.69999980927,"correct":true,"confidence":-1},{"trial_n":7,"n_dots":4.25,"target":"right","response":"right","rt":675.60000014305,"correct":true,"confidence":-1},{"trial_n":8,"n_dots":4.05,"target":"right","response":"right","rt":544.79999995232,"correct":true,"confidence":-1},{"trial_n":9,"n_dots":4.05,"target":"right","response":"left","rt":1287.3999998569,"correct":false,"confidence":-1},{"trial_n":10,"n_dots":4.25,"target":"right","response":"right","rt":786,"correct":true,"confidence":-1},{"trial_n":11,"n_dots":4.25,"target":"right","response":"left","rt":508.39999985695,"correct":false,"confidence":-1},{"trial_n":12,"n_dots":4.45,"target":"right","response":"right","rt":671.90000009537,"correct":true,"confidence":-1},{"trial_n":13,"n_dots":4.45,"target":"right","response":"right","rt":552.79999995232,"correct":true,"confidence":-1},{"trial_n":14,"n_dots":4.35,"target":"right","response":"left","rt":549.70000004768,"correct":false,"confidence":-1},{"trial_n":15,"n_dots":4.45,"target":"left","response":"left","rt":573.20000004768,"correct":true,"confidence":-1},{"trial_n":16,"n_dots":4.45,"target":"left","response":"left","rt":738.40000009537,"correct":true,"confidence":-1},{"trial_n":17,"n_dots":4.35,"target":"left","response":"left","rt":258.90000009537,"correct":true,"confidence":-1},{"trial_n":18,"n_dots":4.35,"target":"left","response":"left","rt":857.69999980927,"correct":true,"confidence":-1},{"trial_n":19,"n_dots":4.25,"target":"right","response":"right","rt":445.60000014305,"correct":true,"confidence":-1},{"trial_n":20,"n_dots":4.25,"target":"left","response":"left","rt":570.70000004768,"correct":true,"confidence":-1},{"trial_n":21,"n_dots":4.15,"target":"right","response":"right","rt":698,"correct":true,"confidence":4},{"trial_n":22,"n_dots":4.15,"target":"right","response":"right","rt":1122.2000000477,"correct":true,"confidence":3},{"trial_n":23,"n_dots":4.05,"target":"left","response":"left","rt":480.70000004768,"correct":true,"confidence":4},{"trial_n":24,"n_dots":4.05,"target":"left","response":"left","rt":931.5,"correct":true,"confidence":3},{"trial_n":25,"n_dots":3.95,"target":"left","response":"left","rt":2851.7999999523,"correct":true,"confidence":3},{"trial_n":26,"n_dots":3.95,"target":"right","response":"right","rt":719,"correct":true,"confidence":4},{"trial_n":27,"n_dots":3.85,"target":"left","response":"left","rt":793.60000014305,"correct":true,"confidence":4},{"trial_n":28,"n_dots":3.85,"target":"right","response":"right","rt":695.39999985695,"correct":true,"confidence":4},{"trial_n":29,"n_dots":3.75,"target":"left","response":"left","rt":839.69999980927,"correct":true,"confidence":4},{"trial_n":30,"n_dots":3.75,"target":"right","response":"right","rt":687.79999995232,"correct":true,"confidence":4},{"trial_n":31,"n_dots":3.65,"target":"left","response":"left","rt":657,"correct":true,"confidence":4},{"trial_n":32,"n_dots":3.65,"target":"left","response":"left","rt":1419.5999999046,"correct":true,"confidence":2},{"trial_n":33,"n_dots":3.55,"target":"right","response":"right","rt":754.69999980927,"correct":true,"confidence":2},{"trial_n":34,"n_dots":3.55,"target":"left","response":"left","rt":514.29999995232,"correct":true,"confidence":4},{"trial_n":35,"n_dots":3.45,"target":"right","response":"left","rt":1572.5,"correct":false,"confidence":2},{"trial_n":36,"n_dots":3.55,"target":"left","response":"left","rt":693.5,"correct":true,"confidence":3},{"trial_n":37,"n_dots":3.55,"target":"right","response":"right","rt":556.20000004768,"correct":true,"confidence":3},{"trial_n":38,"n_dots":3.45,"target":"left","response":"right","rt":3034.4000000954,"correct":false,"confidence":1},{"trial_n":39,"n_dots":3.55,"target":"left","response":"left","rt":768.29999995232,"correct":true,"confidence":4},{"trial_n":40,"n_dots":3.55,"target":"right","response":"right","rt":1083.7000000477,"correct":true,"confidence":3},{"trial_n":41,"n_dots":3.45,"target":"right","response":"right","rt":485,"correct":true,"confidence":3},{"trial_n":42,"n_dots":3.45,"target":"right","response":"right","rt":477.40000009537,"correct":true,"confidence":3},{"trial_n":43,"n_dots":3.35,"target":"left","response":"left","rt":538.20000004768,"correct":true,"confidence":4},{"trial_n":44,"n_dots":3.35,"target":"left","response":"left","rt":631.29999995232,"correct":true,"confidence":4},{"trial_n":45,"n_dots":3.25,"target":"left","response":"right","rt":711.5,"correct":false,"confidence":3},{"trial_n":46,"n_dots":3.35,"target":"right","response":"right","rt":921.40000009537,"correct":true,"confidence":3},{"trial_n":47,"n_dots":3.35,"target":"left","response":"left","rt":1634.5,"correct":true,"confidence":3},{"trial_n":48,"n_dots":3.25,"target":"left","response":"right","rt":798.29999995232,"correct":false,"confidence":3},{"trial_n":49,"n_dots":3.35,"target":"left","response":"left","rt":1009.6000001431,"correct":true,"confidence":4},{"trial_n":50,"n_dots":3.35,"target":"left","response":"left","rt":937.5,"correct":true,"confidence":4},{"trial_n":51,"n_dots":3.25,"target":"left","response":"left","rt":1814.4000000954,"correct":true,"confidence":1},{"trial_n":52,"n_dots":3.25,"target":"right","response":"left","rt":1967.8000001907,"correct":false,"confidence":2},{"trial_n":53,"n_dots":3.35,"target":"right","response":"right","rt":1043.6000001431,"correct":true,"confidence":4},{"trial_n":54,"n_dots":3.35,"target":"right","response":"right","rt":1154.7999999523,"correct":true,"confidence":3},{"trial_n":55,"n_dots":3.25,"target":"right","response":"right","rt":791.79999995232,"correct":true,"confidence":4},{"trial_n":56,"n_dots":3.25,"target":"right","response":"right","rt":1076.8000001907,"correct":true,"confidence":4},{"trial_n":57,"n_dots":3.15,"target":"right","response":"right","rt":1088.5,"correct":true,"confidence":4},{"trial_n":58,"n_dots":3.15,"target":"left","response":"left","rt":875.59999990463,"correct":true,"confidence":3},{"trial_n":59,"n_dots":3.05,"target":"right","response":"right","rt":831.79999995232,"correct":true,"confidence":4},{"trial_n":60,"n_dots":3.05,"target":"right","response":"right","rt":903.70000004768,"correct":true,"confidence":4},{"trial_n":61,"n_dots":2.95,"target":"right","response":"right","rt":957,"correct":true,"confidence":3},{"trial_n":62,"n_dots":2.95,"target":"left","response":"left","rt":2737.3000001907,"correct":true,"confidence":2},{"trial_n":63,"n_dots":2.85,"target":"right","response":"left","rt":1009.2999999523,"correct":false,"confidence":2},{"trial_n":64,"n_dots":2.95,"target":"right","response":"right","rt":774.5,"correct":true,"confidence":4},{"trial_n":65,"n_dots":2.95,"target":"left","response":"right","rt":606.29999995232,"correct":false,"confidence":4},{"trial_n":66,"n_dots":3.05,"target":"left","response":"left","rt":810.29999995232,"correct":true,"confidence":4},{"trial_n":67,"n_dots":3.05,"target":"left","response":"left","rt":1387.0999999046,"correct":true,"confidence":3},{"trial_n":68,"n_dots":2.95,"target":"left","response":"left","rt":817.5,"correct":true,"confidence":1},{"trial_n":69,"n_dots":2.95,"target":"right","response":"right","rt":793.5,"correct":true,"confidence":4},{"trial_n":70,"n_dots":2.85,"target":"left","response":"left","rt":2083.4000000954,"correct":true,"confidence":3},{"trial_n":71,"n_dots":2.85,"target":"right","response":"left","rt":4243.3999998569,"correct":false,"confidence":3},{"trial_n":72,"n_dots":2.95,"target":"right","response":"right","rt":437.70000004768,"correct":true,"confidence":4},{"trial_n":73,"n_dots":2.95,"target":"right","response":"right","rt":629.89999985695,"correct":true,"confidence":4},{"trial_n":74,"n_dots":2.85,"target":"left","response":"right","rt":585.5,"correct":false,"confidence":5},{"trial_n":75,"n_dots":2.95,"target":"left","response":"left","rt":435.20000004768,"correct":true,"confidence":4},{"trial_n":76,"n_dots":2.95,"target":"left","response":"right","rt":1105.7000000477,"correct":false,"confidence":4},{"trial_n":77,"n_dots":3.05,"target":"left","response":"left","rt":1725.1999998093,"correct":true,"confidence":4},{"trial_n":78,"n_dots":3.05,"target":"left","response":"left","rt":656.29999995232,"correct":true,"confidence":4},{"trial_n":79,"n_dots":2.95,"target":"left","response":"left","rt":743.30000019073,"correct":true,"confidence":5},{"trial_n":80,"n_dots":2.95,"target":"left","response":"right","rt":390.09999990463,"correct":false,"confidence":4},{"trial_n":81,"n_dots":3.05,"target":"left","response":"right","rt":464.5,"correct":false,"confidence":3},{"trial_n":82,"n_dots":3.15,"target":"right","response":"right","rt":417.39999985695,"correct":true,"confidence":5},{"trial_n":83,"n_dots":3.15,"target":"right","response":"left","rt":675.29999995232,"correct":false,"confidence":3},{"trial_n":84,"n_dots":3.25,"target":"left","response":"right","rt":371.90000009537,"correct":false,"confidence":3},{"trial_n":85,"n_dots":3.35,"target":"right","response":"right","rt":543.79999995232,"correct":true,"confidence":4},{"trial_n":86,"n_dots":3.35,"target":"right","response":"left","rt":643.29999995232,"correct":false,"confidence":4},{"trial_n":87,"n_dots":3.45,"target":"right","response":"right","rt":1256.0999999046,"correct":true,"confidence":3},{"trial_n":88,"n_dots":3.45,"target":"left","response":"left","rt":475,"correct":true,"confidence":4},{"trial_n":89,"n_dots":3.35,"target":"right","response":"right","rt":272.79999995232,"correct":true,"confidence":4},{"trial_n":90,"n_dots":3.35,"target":"left","response":"left","rt":371.70000004768,"correct":true,"confidence":4},{"trial_n":91,"n_dots":3.25,"target":"right","response":"right","rt":1387.1000001431,"correct":true,"confidence":2},{"trial_n":92,"n_dots":3.25,"target":"left","response":"left","rt":408.40000009537,"correct":true,"confidence":4},{"trial_n":93,"n_dots":3.15,"target":"left","response":"right","rt":667,"correct":false,"confidence":4},{"trial_n":94,"n_dots":3.25,"target":"left","response":"left","rt":621.29999995232,"correct":true,"confidence":4},{"trial_n":95,"n_dots":3.25,"target":"left","response":"right","rt":324.60000014305,"correct":false,"confidence":5},{"trial_n":96,"n_dots":3.35,"target":"right","response":"right","rt":531.29999995232,"correct":true,"confidence":5},{"trial_n":97,"n_dots":3.35,"target":"left","response":"left","rt":296.79999995232,"correct":true,"confidence":4},{"trial_n":98,"n_dots":3.25,"target":"right","response":"right","rt":354.20000004768,"correct":true,"confidence":4},{"trial_n":99,"n_dots":3.25,"target":"right","response":"right","rt":261.90000009537,"correct":true,"confidence":3},{"trial_n":100,"n_dots":3.15,"target":"left","response":"left","rt":357.90000009537,"correct":true,"confidence":4},{"trial_n":101,"n_dots":3.15,"target":"left","response":"left","rt":293.60000014305,"correct":true,"confidence":4},{"trial_n":102,"n_dots":3.05,"target":"right","response":"right","rt":302.40000009537,"correct":true,"confidence":4},{"trial_n":103,"n_dots":3.05,"target":"right","response":"left","rt":473.19999980927,"correct":false,"confidence":4},{"trial_n":104,"n_dots":3.15,"target":"right","response":"right","rt":342,"correct":true,"confidence":3},{"trial_n":105,"n_dots":3.15,"target":"left","response":"left","rt":151.29999995232,"correct":true,"confidence":4},{"trial_n":106,"n_dots":3.05,"target":"right","response":"right","rt":169.89999985695,"correct":true,"confidence":4},{"trial_n":107,"n_dots":3.05,"target":"left","response":"right","rt":752.90000009537,"correct":false,"confidence":3},{"trial_n":108,"n_dots":3.15,"target":"left","response":"left","rt":409.5,"correct":true,"confidence":4},{"trial_n":109,"n_dots":3.15,"target":"right","response":"right","rt":316.5,"correct":true,"confidence":4},{"trial_n":110,"n_dots":3.05,"target":"right","response":"left","rt":377,"correct":false,"confidence":1},{"trial_n":111,"n_dots":3.15,"target":"left","response":"left","rt":897.40000009537,"correct":true,"confidence":5},{"trial_n":112,"n_dots":3.15,"target":"left","response":"right","rt":403,"correct":false,"confidence":3},{"trial_n":113,"n_dots":3.25,"target":"left","response":"left","rt":1636.6999998093,"correct":true,"confidence":3},{"trial_n":114,"n_dots":3.25,"target":"right","response":"right","rt":424.09999990463,"correct":true,"confidence":3},{"trial_n":115,"n_dots":3.15,"target":"left","response":"left","rt":296.5,"correct":true,"confidence":5},{"trial_n":116,"n_dots":3.15,"target":"right","response":"right","rt":320,"correct":true,"confidence":4},{"trial_n":117,"n_dots":3.05,"target":"right","response":"right","rt":328.59999990463,"correct":true,"confidence":4},{"trial_n":118,"n_dots":3.05,"target":"right","response":"left","rt":75,"correct":false,"confidence":4},{"trial_n":119,"n_dots":3.15,"target":"left","response":"left","rt":835.5,"correct":true,"confidence":3},{"trial_n":120,"n_dots":3.15,"target":"right","response":"right","rt":597,"correct":true,"confidence":5}]