[{"trial_n":1,"n_dots":4.25,"target":"left","response":"left","rt":3725,"correct":true,"confidence":-1},{"trial_n":2,"n_dots":4.25,"target":"left","response":"left","rt":1147.7999999523,"correct":true,"confidence":-1},{"trial_n":3,"n_dots":3.85,"target":"right","response":"right","rt":887.90000009537,"correct":true,"confidence":-1},{"trial_n":4,"n_dots":3.85,"target":"right","response":"right","rt":590,"correct":true,"confidence":-1},{"trial_n":5,"n_dots":3.45,"target":"right","response":"right","rt":453.09999990463,"correct":true,"confidence":-1},{"trial_n":6,"n_dots":3.45,"target":"left","response":"left","rt":341.40000009537,"correct":true,"confidence":-1},{"trial_n":7,"n_dots":3.05,"target":"right","response":"right","rt":436.09999990463,"correct":true,"confidence":-1},{"trial_n":8,"n_dots":3.05,"target":"right","response":"left","rt":793.90000009537,"correct":false,"confidence":-1},{"trial_n":9,"n_dots":3.25,"target":"left","response":"left","rt":478.19999980927,"correct":true,"confidence":-1},{"trial_n":10,"n_dots":3.25,"target":"left","response":"left","rt":2442.7999999523,"correct":true,"confidence":-1},{"trial_n":11,"n_dots":3.05,"target":"left","response":"left","rt":339.20000004768,"correct":true,"confidence":-1},{"trial_n":12,"n_dots":3.05,"target":"right","response":"left","rt":601.10000014305,"correct":false,"confidence":-1},{"trial_n":13,"n_dots":3.15,"target":"right","response":"right","rt":630.70000004768,"correct":true,"confidence":-1},{"trial_n":14,"n_dots":3.15,"target":"right","response":"left","rt":21.399999856949,"correct":false,"confidence":-1},{"trial_n":15,"n_dots":3.25,"target":"right","response":"right","rt":229.39999985695,"correct":true,"confidence":-1},{"trial_n":16,"n_dots":3.25,"target":"right","response":"right","rt":444.69999980927,"correct":true,"confidence":-1},{"trial_n":17,"n_dots":3.15,"target":"left","response":"left","rt":621.39999985695,"correct":true,"confidence":-1},{"trial_n":18,"n_dots":3.15,"target":"right","response":"left","rt":318.79999995232,"correct":false,"confidence":-1},{"trial_n":19,"n_dots":3.25,"target":"right","response":"right","rt":636,"correct":true,"confidence":-1},{"trial_n":20,"n_dots":3.25,"target":"right","response":"left","rt":531.39999985695,"correct":false,"confidence":-1},{"trial_n":21,"n_dots":3.35,"target":"right","response":"left","rt":893.70000004768,"correct":false,"confidence":2},{"trial_n":22,"n_dots":3.45,"target":"right","response":"left","rt":590.89999985695,"correct":false,"confidence":4},{"trial_n":23,"n_dots":3.55,"target":"left","response":"left","rt":329.29999995232,"correct":true,"confidence":5},{"trial_n":24,"n_dots":3.55,"target":"left","response":"left","rt":824.59999990463,"correct":true,"confidence":5},{"trial_n":25,"n_dots":3.45,"target":"right","response":"right","rt":1089.9000000954,"correct":true,"confidence":4},{"trial_n":26,"n_dots":3.45,"target":"right","response":"right","rt":991.69999980927,"correct":true,"confidence":5},{"trial_n":27,"n_dots":3.35,"target":"left","response":"left","rt":1309,"correct":true,"confidence":3},{"trial_n":28,"n_dots":3.35,"target":"left","response":"left","rt":1286.2999999523,"correct":true,"confidence":5},{"trial_n":29,"n_dots":3.25,"target":"right","response":"right","rt":1157.2000000477,"correct":true,"confidence":4},{"trial_n":30,"n_dots":3.25,"target":"right","response":"left","rt":1075.1000001431,"correct":false,"confidence":5},{"trial_n":31,"n_dots":3.35,"target":"left","response":"left","rt":829.79999995232,"correct":true,"confidence":5},{"trial_n":32,"n_dots":3.35,"target":"right","response":"right","rt":1913.2000000477,"correct":true,"confidence":4},{"trial_n":33,"n_dots":3.25,"target":"right","response":"left","rt":1564.2999999523,"correct":false,"confidence":4},{"trial_n":34,"n_dots":3.35,"target":"right","response":"right","rt":869,"correct":true,"confidence":5},{"trial_n":35,"n_dots":3.35,"target":"right","response":"right","rt":875.90000009537,"correct":true,"confidence":5},{"trial_n":36,"n_dots":3.25,"target":"left","response":"right","rt":1070.6000001431,"correct":false,"confidence":4},{"trial_n":37,"n_dots":3.35,"target":"left","response":"left","rt":1595.3999998569,"correct":true,"confidence":3},{"trial_n":38,"n_dots":3.35,"target":"left","response":"right","rt":1450.4000000954,"correct":false,"confidence":1},{"trial_n":39,"n_dots":3.45,"target":"left","response":"left","rt":1044.7000000477,"correct":true,"confidence":4},{"trial_n":40,"n_dots":3.45,"target":"right","response":"right","rt":792.09999990463,"correct":true,"confidence":4},{"trial_n":41,"n_dots":3.35,"target":"right","response":"left","rt":1439.8999998569,"correct":false,"confidence":4},{"trial_n":42,"n_dots":3.45,"target":"left","response":"left","rt":667.20000004768,"correct":true,"confidence":5},{"trial_n":43,"n_dots":3.45,"target":"right","response":"right","rt":1230.0999999046,"correct":true,"confidence":4},{"trial_n":44,"n_dots":3.35,"target":"right","response":"right","rt":650.39999985695,"correct":true,"confidence":1},{"trial_n":45,"n_dots":3.35,"target":"left","response":"left","rt":667.29999995232,"correct":true,"confidence":3},{"trial_n":46,"n_dots":3.25,"target":"left","response":"right","rt":871.09999990463,"correct":false,"confidence":3},{"trial_n":47,"n_dots":3.35,"target":"right","response":"right","rt":902.79999995232,"correct":true,"confidence":5},{"trial_n":48,"n_dots":3.35,"target":"right","response":"right","rt":897.59999990463,"correct":true,"confidence":5},{"trial_n":49,"n_dots":3.25,"target":"left","response":"left","rt":12099.299999952,"correct":true,"confidence":1},{"trial_n":50,"n_dots":3.25,"target":"left","response":"left","rt":780.20000004768,"correct":true,"confidence":3},{"trial_n":51,"n_dots":3.15,"target":"left","response":"left","rt":717.20000004768,"correct":true,"confidence":4},{"trial_n":52,"n_dots":3.15,"target":"left","response":"left","rt":701.70000004768,"correct":true,"confidence":5},{"trial_n":53,"n_dots":3.05,"target":"right","response":"right","rt":835.59999990463,"correct":true,"confidence":5},{"trial_n":54,"n_dots":3.05,"target":"left","response":"left","rt":722.5,"correct":true,"confidence":5},{"trial_n":55,"n_dots":2.95,"target":"right","response":"right","rt":1188.3000001907,"correct":true,"confidence":5},{"trial_n":56,"n_dots":2.95,"target":"right","response":"right","rt":1662,"correct":true,"confidence":5},{"trial_n":57,"n_dots":2.85,"target":"left","response":"right","rt":813.10000014305,"correct":false,"confidence":4},{"trial_n":58,"n_dots":2.95,"target":"left","response":"left","rt":1040.5999999046,"correct":true,"confidence":3},{"trial_n":59,"n_dots":2.95,"target":"right","response":"right","rt":1395.2000000477,"correct":true,"confidence":4},{"trial_n":60,"n_dots":2.85,"target":"right","response":"left","rt":764.60000014305,"correct":false,"confidence":4},{"trial_n":61,"n_dots":2.95,"target":"left","response":"left","rt":1055.7999999523,"correct":true,"confidence":4},{"trial_n":62,"n_dots":2.95,"target":"right","response":"right","rt":956.19999980927,"correct":true,"confidence":4},{"trial_n":63,"n_dots":2.85,"target":"right","response":"right","rt":1033.1000001431,"correct":true,"confidence":4},{"trial_n":64,"n_dots":2.85,"target":"right","response":"right","rt":783.09999990463,"correct":true,"confidence":4},{"trial_n":65,"n_dots":2.75,"target":"left","response":"right","rt":848.40000009537,"correct":false,"confidence":4},{"trial_n":66,"n_dots":2.85,"target":"right","response":"right","rt":788.20000004768,"correct":true,"confidence":4},{"trial_n":67,"n_dots":2.85,"target":"left","response":"right","rt":1094.3999998569,"correct":false,"confidence":4},{"trial_n":68,"n_dots":2.95,"target":"right","response":"right","rt":1253.9000000954,"correct":true,"confidence":4},{"trial_n":69,"n_dots":2.95,"target":"left","response":"left","rt":855.39999985695,"correct":true,"confidence":4},{"trial_n":70,"n_dots":2.85,"target":"right","response":"right","rt":1355.2999999523,"correct":true,"confidence":3},{"trial_n":71,"n_dots":2.85,"target":"left","response":"right","rt":949.70000004768,"correct":false,"confidence":3},{"trial_n":72,"n_dots":2.95,"target":"right","response":"left","rt":803.10000014305,"correct":false,"confidence":3},{"trial_n":73,"n_dots":3.05,"target":"left","response":"left","rt":1205.5999999046,"correct":true,"confidence":3},{"trial_n":74,"n_dots":3.05,"target":"left","response":"left","rt":983.20000004768,"correct":true,"confidence":3},{"trial_n":75,"n_dots":2.95,"target":"right","response":"right","rt":920.19999980927,"correct":true,"confidence":5},{"trial_n":76,"n_dots":2.95,"target":"left","response":"left","rt":613.70000004768,"correct":true,"confidence":3},{"trial_n":77,"n_dots":2.85,"target":"left","response":"left","rt":673.59999990463,"correct":true,"confidence":5},{"trial_n":78,"n_dots":2.85,"target":"right","response":"left","rt":633.5,"correct":false,"confidence":5},{"trial_n":79,"n_dots":2.95,"target":"left","response":"left","rt":445.5,"correct":true,"confidence":5},{"trial_n":80,"n_dots":2.95,"target":"right","response":"left","rt":649.39999985695,"correct":false,"confidence":5},{"trial_n":81,"n_dots":3.05,"target":"right","response":"right","rt":698.80000019073,"correct":true,"confidence":5},{"trial_n":82,"n_dots":3.05,"target":"left","response":"left","rt":770.70000004768,"correct":true,"confidence":5},{"trial_n":83,"n_dots":2.95,"target":"right","response":"right","rt":838.20000004768,"correct":true,"confidence":5},{"trial_n":84,"n_dots":2.95,"target":"left","response":"left","rt":688.59999990463,"correct":true,"confidence":5},{"trial_n":85,"n_dots":2.85,"target":"left","response":"left","rt":273.20000004768,"correct":true,"confidence":5},{"trial_n":86,"n_dots":2.85,"target":"right","response":"left","rt":357.10000014305,"correct":false,"confidence":5},{"trial_n":87,"n_dots":2.95,"target":"left","response":"left","rt":435.59999990463,"correct":true,"confidence":1},{"trial_n":88,"n_dots":2.95,"target":"right","response":"right","rt":848.59999990463,"correct":true,"confidence":3},{"trial_n":89,"n_dots":2.85,"target":"left","response":"left","rt":390.09999990463,"correct":true,"confidence":4},{"trial_n":90,"n_dots":2.85,"target":"left","response":"left","rt":260.60000014305,"correct":true,"confidence":5},{"trial_n":91,"n_dots":2.75,"target":"right","response":"left","rt":268.39999985695,"correct":false,"confidence":5},{"trial_n":92,"n_dots":2.85,"target":"right","response":"right","rt":1292.4000000954,"correct":true,"confidence":5},{"trial_n":93,"n_dots":2.85,"target":"left","response":"right","rt":969.89999985695,"correct":false,"confidence":4},{"trial_n":94,"n_dots":2.95,"target":"left","response":"right","rt":860,"correct":false,"confidence":4},{"trial_n":95,"n_dots":3.05,"target":"left","response":"right","rt":1163.7999999523,"correct":false,"confidence":3},{"trial_n":96,"n_dots":3.15,"target":"left","response":"right","rt":990.79999995232,"correct":false,"confidence":3},{"trial_n":97,"n_dots":3.25,"target":"left","response":"left","rt":521.09999990463,"correct":true,"confidence":3},{"trial_n":98,"n_dots":3.25,"target":"right","response":"right","rt":295.29999995232,"correct":true,"confidence":4},{"trial_n":99,"n_dots":3.15,"target":"right","response":"right","rt":231.90000009537,"correct":true,"confidence":4},{"trial_n":100,"n_dots":3.15,"target":"left","response":"left","rt":487.70000004768,"correct":true,"confidence":5},{"trial_n":101,"n_dots":3.05,"target":"left","response":"left","rt":955.29999995232,"correct":true,"confidence":4},{"trial_n":102,"n_dots":3.05,"target":"left","response":"left","rt":1573.1000001431,"correct":true,"confidence":4},{"trial_n":103,"n_dots":2.95,"target":"left","response":"right","rt":157.5,"correct":false,"confidence":4},{"trial_n":104,"n_dots":3.05,"target":"right","response":"right","rt":175.70000004768,"correct":true,"confidence":4},{"trial_n":105,"n_dots":3.05,"target":"left","response":"right","rt":150.59999990463,"correct":false,"confidence":4},{"trial_n":106,"n_dots":3.15,"target":"left","response":"right","rt":619.79999995232,"correct":false,"confidence":4},{"trial_n":107,"n_dots":3.25,"target":"left","response":"left","rt":918.89999985695,"correct":true,"confidence":3},{"trial_n":108,"n_dots":3.25,"target":"left","response":"left","rt":815.5,"correct":true,"confidence":4},{"trial_n":109,"n_dots":3.15,"target":"left","response":"right","rt":2152.5,"correct":false,"confidence":3},{"trial_n":110,"n_dots":3.25,"target":"right","response":"left","rt":1096.7999999523,"correct":false,"confidence":4},{"trial_n":111,"n_dots":3.35,"target":"left","response":"left","rt":819,"correct":true,"confidence":5},{"trial_n":112,"n_dots":3.35,"target":"right","response":"right","rt":925.39999985695,"correct":true,"confidence":5},{"trial_n":113,"n_dots":3.25,"target":"left","response":"left","rt":833.10000014305,"correct":true,"confidence":5},{"trial_n":114,"n_dots":3.25,"target":"right","response":"right","rt":872.39999985695,"correct":true,"confidence":5},{"trial_n":115,"n_dots":3.15,"target":"right","response":"right","rt":221.20000004768,"correct":true,"confidence":5},{"trial_n":116,"n_dots":3.15,"target":"right","response":"right","rt":339.60000014305,"correct":true,"confidence":4},{"trial_n":117,"n_dots":3.05,"target":"left","response":"right","rt":156.89999985695,"correct":false,"confidence":4},{"trial_n":118,"n_dots":3.15,"target":"right","response":"right","rt":277.60000014305,"correct":true,"confidence":4},{"trial_n":119,"n_dots":3.15,"target":"right","response":"right","rt":4.6000001430511,"correct":true,"confidence":3},{"trial_n":120,"n_dots":3.05,"target":"left","response":"right","rt":96,"correct":false,"confidence":4}]