[{"trial_n":1,"min":25,"max":230,"target":"present","response":"present","rt":58016.299999714,"correct":true,"confidence":-1},{"trial_n":2,"min":25,"max":230,"target":"present","response":"present","rt":962.19999980927,"correct":true,"confidence":-1},{"trial_n":3,"min":41,"max":214,"target":"absent","response":"absent","rt":1080.5999999046,"correct":true,"confidence":-1},{"trial_n":4,"min":41,"max":214,"target":"absent","response":"absent","rt":611.19999980927,"correct":true,"confidence":-1},{"trial_n":5,"min":57,"max":198,"target":"present","response":"present","rt":912,"correct":true,"confidence":-1},{"trial_n":6,"min":57,"max":198,"target":"absent","response":"absent","rt":1059.0999999046,"correct":true,"confidence":-1},{"trial_n":7,"min":73,"max":182,"target":"absent","response":"absent","rt":556,"correct":true,"confidence":-1},{"trial_n":8,"min":73,"max":182,"target":"absent","response":"absent","rt":518.19999980927,"correct":true,"confidence":-1},{"trial_n":9,"min":89,"max":166,"target":"present","response":"absent","rt":662.90000009537,"correct":false,"confidence":-1},{"trial_n":10,"min":73,"max":182,"target":"present","response":"present","rt":1049.3000001907,"correct":true,"confidence":-1},{"trial_n":11,"min":73,"max":182,"target":"present","response":"present","rt":576.09999990463,"correct":true,"confidence":-1},{"trial_n":12,"min":81,"max":174,"target":"absent","response":"absent","rt":1413.5,"correct":true,"confidence":-1},{"trial_n":13,"min":81,"max":174,"target":"absent","response":"absent","rt":671.40000009537,"correct":true,"confidence":-1},{"trial_n":14,"min":89,"max":166,"target":"absent","response":"absent","rt":621.60000038147,"correct":true,"confidence":-1},{"trial_n":15,"min":89,"max":166,"target":"absent","response":"absent","rt":637.2000002861,"correct":true,"confidence":-1},{"trial_n":16,"min":97,"max":158,"target":"present","response":"absent","rt":849.19999980927,"correct":false,"confidence":-1},{"trial_n":17,"min":89,"max":166,"target":"present","response":"present","rt":1179.4000000954,"correct":true,"confidence":-1},{"trial_n":18,"min":89,"max":166,"target":"present","response":"present","rt":754.40000009537,"correct":true,"confidence":-1},{"trial_n":19,"min":97,"max":158,"target":"absent","response":"present","rt":643.5,"correct":false,"confidence":-1},{"trial_n":20,"min":89,"max":166,"target":"present","response":"absent","rt":1593.5,"correct":false,"confidence":-1},{"trial_n":21,"min":85,"max":170,"target":"absent","response":"absent","rt":1827.5,"correct":true,"confidence":3},{"trial_n":22,"min":85,"max":170,"target":"absent","response":"present","rt":1790,"correct":false,"confidence":3},{"trial_n":23,"min":81,"max":174,"target":"present","response":"present","rt":1326.5,"correct":true,"confidence":4},{"trial_n":24,"min":81,"max":174,"target":"present","response":"present","rt":1755.6000003815,"correct":true,"confidence":4},{"trial_n":25,"min":85,"max":170,"target":"present","response":"absent","rt":1444.2999997139,"correct":false,"confidence":3},{"trial_n":26,"min":81,"max":174,"target":"absent","response":"absent","rt":957,"correct":true,"confidence":4},{"trial_n":27,"min":81,"max":174,"target":"present","response":"present","rt":2718.9000000954,"correct":true,"confidence":3},{"trial_n":28,"min":85,"max":170,"target":"absent","response":"present","rt":2942.3000001907,"correct":false,"confidence":3},{"trial_n":29,"min":81,"max":174,"target":"absent","response":"absent","rt":2609.0999999046,"correct":true,"confidence":3},{"trial_n":30,"min":81,"max":174,"target":"present","response":"present","rt":1383.0999999046,"correct":true,"confidence":4},{"trial_n":31,"min":83,"max":172,"target":"present","response":"present","rt":1063.9000000954,"correct":true,"confidence":4},{"trial_n":32,"min":83,"max":172,"target":"absent","response":"present","rt":1260.1999998093,"correct":false,"confidence":3},{"trial_n":33,"min":81,"max":174,"target":"absent","response":"absent","rt":1086.3000001907,"correct":true,"confidence":3},{"trial_n":34,"min":81,"max":174,"target":"present","response":"present","rt":1933.2999997139,"correct":true,"confidence":3},{"trial_n":35,"min":83,"max":172,"target":"present","response":"absent","rt":2569.2999997139,"correct":false,"confidence":3},{"trial_n":36,"min":81,"max":174,"target":"absent","response":"absent","rt":3006,"correct":true,"confidence":3},{"trial_n":37,"min":81,"max":174,"target":"present","response":"present","rt":1268.1999998093,"correct":true,"confidence":4},{"trial_n":38,"min":83,"max":172,"target":"present","response":"present","rt":1246.0999999046,"correct":true,"confidence":3},{"trial_n":39,"min":83,"max":172,"target":"present","response":"absent","rt":1329.8000001907,"correct":false,"confidence":3},{"trial_n":40,"min":81,"max":174,"target":"present","response":"present","rt":1231.8999996185,"correct":true,"confidence":3},{"trial_n":41,"min":81,"max":174,"target":"absent","response":"absent","rt":1238.9000000954,"correct":true,"confidence":4},{"trial_n":42,"min":82,"max":173,"target":"absent","response":"present","rt":1192.5,"correct":false,"confidence":3},{"trial_n":43,"min":81,"max":174,"target":"present","response":"present","rt":2280.6999998093,"correct":true,"confidence":3},{"trial_n":44,"min":81,"max":174,"target":"absent","response":"absent","rt":1187.7999997139,"correct":true,"confidence":3},{"trial_n":45,"min":82,"max":173,"target":"present","response":"present","rt":1162.3000001907,"correct":true,"confidence":4},{"trial_n":46,"min":82,"max":173,"target":"present","response":"present","rt":1146.8000001907,"correct":true,"confidence":4},{"trial_n":47,"min":83,"max":172,"target":"absent","response":"absent","rt":1157.1999998093,"correct":true,"confidence":3},{"trial_n":48,"min":83,"max":172,"target":"absent","response":"absent","rt":1351.7000002861,"correct":true,"confidence":2},{"trial_n":49,"min":84,"max":171,"target":"absent","response":"absent","rt":1203.4000000954,"correct":true,"confidence":4},{"trial_n":50,"min":84,"max":171,"target":"absent","response":"absent","rt":1139.5,"correct":true,"confidence":3},{"trial_n":51,"min":85,"max":170,"target":"absent","response":"absent","rt":1145.8000001907,"correct":true,"confidence":4},{"trial_n":52,"min":85,"max":170,"target":"absent","response":"absent","rt":1091.0999999046,"correct":true,"confidence":3},{"trial_n":53,"min":86,"max":169,"target":"absent","response":"absent","rt":1273.8000001907,"correct":true,"confidence":3},{"trial_n":54,"min":86,"max":169,"target":"absent","response":"absent","rt":1187.8000001907,"correct":true,"confidence":4},{"trial_n":55,"min":87,"max":168,"target":"present","response":"present","rt":1290.5999999046,"correct":true,"confidence":5},{"trial_n":56,"min":87,"max":168,"target":"present","response":"present","rt":1162,"correct":true,"confidence":4},{"trial_n":57,"min":88,"max":167,"target":"present","response":"present","rt":1113.6999998093,"correct":true,"confidence":4},{"trial_n":58,"min":88,"max":167,"target":"present","response":"present","rt":1114.3000001907,"correct":true,"confidence":3},{"trial_n":59,"min":89,"max":166,"target":"present","response":"present","rt":1139.4000000954,"correct":true,"confidence":3},{"trial_n":60,"min":89,"max":166,"target":"absent","response":"absent","rt":1122.5999999046,"correct":true,"confidence":2},{"trial_n":61,"min":90,"max":165,"target":"present","response":"absent","rt":1502.6999998093,"correct":false,"confidence":3},{"trial_n":62,"min":89,"max":166,"target":"present","response":"present","rt":940.7000002861,"correct":true,"confidence":3},{"trial_n":63,"min":89,"max":166,"target":"present","response":"present","rt":2945.5999999046,"correct":true,"confidence":2},{"trial_n":64,"min":90,"max":165,"target":"absent","response":"absent","rt":1177.7999997139,"correct":true,"confidence":3},{"trial_n":65,"min":90,"max":165,"target":"absent","response":"absent","rt":1817.4000000954,"correct":true,"confidence":3},{"trial_n":66,"min":91,"max":164,"target":"present","response":"present","rt":1164.7000002861,"correct":true,"confidence":3},{"trial_n":67,"min":91,"max":164,"target":"present","response":"present","rt":1222.2000002861,"correct":true,"confidence":3},{"trial_n":68,"min":92,"max":163,"target":"absent","response":"absent","rt":1290.1000003815,"correct":true,"confidence":4},{"trial_n":69,"min":92,"max":163,"target":"absent","response":"absent","rt":1400,"correct":true,"confidence":4},{"trial_n":70,"min":93,"max":162,"target":"present","response":"absent","rt":2372.5,"correct":false,"confidence":2},{"trial_n":71,"min":41,"max":214,"target":"present","response":"present","rt":2697.4000000954,"correct":true,"confidence":-1},{"trial_n":72,"min":41,"max":214,"target":"present","response":"present","rt":1081.5999999046,"correct":true,"confidence":-1},{"trial_n":73,"min":57,"max":198,"target":"absent","response":"absent","rt":1191.2000002861,"correct":true,"confidence":-1},{"trial_n":74,"min":57,"max":198,"target":"absent","response":"absent","rt":1381.9000000954,"correct":true,"confidence":-1},{"trial_n":75,"min":73,"max":182,"target":"present","response":"present","rt":1232.6999998093,"correct":true,"confidence":-1},{"trial_n":76,"min":73,"max":182,"target":"present","response":"present","rt":2180.5999999046,"correct":true,"confidence":-1},{"trial_n":77,"min":89,"max":166,"target":"absent","response":"absent","rt":1244.5999999046,"correct":true,"confidence":-1},{"trial_n":78,"min":89,"max":166,"target":"present","response":"present","rt":1147.5999999046,"correct":true,"confidence":-1},{"trial_n":79,"min":105,"max":150,"target":"absent","response":"present","rt":2348,"correct":false,"confidence":-1},{"trial_n":80,"min":89,"max":166,"target":"absent","response":"absent","rt":1325.8000001907,"correct":true,"confidence":-1},{"trial_n":81,"min":89,"max":166,"target":"present","response":"present","rt":1083.0999999046,"correct":true,"confidence":-1},{"trial_n":82,"min":97,"max":158,"target":"absent","response":"absent","rt":1490.8000001907,"correct":true,"confidence":-1},{"trial_n":83,"min":97,"max":158,"target":"absent","response":"present","rt":1086.9000000954,"correct":false,"confidence":-1},{"trial_n":84,"min":89,"max":166,"target":"absent","response":"present","rt":1506,"correct":false,"confidence":-1},{"trial_n":85,"min":81,"max":174,"target":"absent","response":"present","rt":1394.4000000954,"correct":false,"confidence":-1},{"trial_n":86,"min":73,"max":182,"target":"absent","response":"absent","rt":1132.1999998093,"correct":true,"confidence":-1},{"trial_n":87,"min":73,"max":182,"target":"absent","response":"absent","rt":830.59999990463,"correct":true,"confidence":-1},{"trial_n":88,"min":81,"max":174,"target":"present","response":"present","rt":1055.5999999046,"correct":true,"confidence":-1},{"trial_n":89,"min":81,"max":174,"target":"present","response":"present","rt":1079.7000002861,"correct":true,"confidence":-1},{"trial_n":90,"min":89,"max":166,"target":"present","response":"present","rt":1531.1999998093,"correct":true,"confidence":-1},{"trial_n":91,"min":89,"max":166,"target":"present","response":"present","rt":1280.3999996185,"correct":true,"confidence":4},{"trial_n":92,"min":93,"max":162,"target":"present","response":"present","rt":1240.0999999046,"correct":true,"confidence":4},{"trial_n":93,"min":93,"max":162,"target":"absent","response":"present","rt":1204.6000003815,"correct":false,"confidence":4},{"trial_n":94,"min":89,"max":166,"target":"present","response":"present","rt":1314.4000000954,"correct":true,"confidence":4},{"trial_n":95,"min":89,"max":166,"target":"absent","response":"absent","rt":1285.1999998093,"correct":true,"confidence":3},{"trial_n":96,"min":93,"max":162,"target":"present","response":"present","rt":1181.9000000954,"correct":true,"confidence":4},{"trial_n":97,"min":93,"max":162,"target":"absent","response":"present","rt":1401.3000001907,"correct":false,"confidence":3},{"trial_n":98,"min":89,"max":166,"target":"absent","response":"present","rt":1240.5,"correct":false,"confidence":4},{"trial_n":99,"min":85,"max":170,"target":"present","response":"present","rt":1063.9000000954,"correct":true,"confidence":3},{"trial_n":100,"min":85,"max":170,"target":"absent","response":"absent","rt":2839.0999999046,"correct":true,"confidence":2},{"trial_n":101,"min":87,"max":168,"target":"absent","response":"absent","rt":1356.5999999046,"correct":true,"confidence":3},{"trial_n":102,"min":87,"max":168,"target":"absent","response":"absent","rt":1653.5,"correct":true,"confidence":2},{"trial_n":103,"min":89,"max":166,"target":"present","response":"present","rt":1315.9000000954,"correct":true,"confidence":3},{"trial_n":104,"min":89,"max":166,"target":"present","response":"present","rt":1205.4000000954,"correct":true,"confidence":3},{"trial_n":105,"min":91,"max":164,"target":"absent","response":"present","rt":1097.2000002861,"correct":false,"confidence":3},{"trial_n":106,"min":89,"max":166,"target":"absent","response":"present","rt":1199.5,"correct":false,"confidence":3},{"trial_n":107,"min":87,"max":168,"target":"present","response":"present","rt":1999.5999999046,"correct":true,"confidence":2},{"trial_n":108,"min":87,"max":168,"target":"present","response":"present","rt":1322.0999999046,"correct":true,"confidence":4},{"trial_n":109,"min":89,"max":166,"target":"absent","response":"present","rt":3645.2999997139,"correct":false,"confidence":1},{"trial_n":110,"min":87,"max":168,"target":"present","response":"present","rt":1148.3000001907,"correct":true,"confidence":3},{"trial_n":111,"min":87,"max":168,"target":"absent","response":"absent","rt":1639.6000003815,"correct":true,"confidence":3},{"trial_n":112,"min":88,"max":167,"target":"absent","response":"absent","rt":1247.3000001907,"correct":true,"confidence":4},{"trial_n":113,"min":88,"max":167,"target":"present","response":"present","rt":1082.1000003815,"correct":true,"confidence":4},{"trial_n":114,"min":89,"max":166,"target":"absent","response":"present","rt":1644.1000003815,"correct":false,"confidence":2},{"trial_n":115,"min":88,"max":167,"target":"present","response":"present","rt":2030,"correct":true,"confidence":3},{"trial_n":116,"min":88,"max":167,"target":"present","response":"present","rt":1424.0999999046,"correct":true,"confidence":3},{"trial_n":117,"min":89,"max":166,"target":"absent","response":"absent","rt":1656.2000002861,"correct":true,"confidence":4},{"trial_n":118,"min":89,"max":166,"target":"present","response":"present","rt":1291.7999997139,"correct":true,"confidence":3},{"trial_n":119,"min":90,"max":165,"target":"absent","response":"present","rt":2123.8000001907,"correct":false,"confidence":2},{"trial_n":120,"min":89,"max":166,"target":"absent","response":"absent","rt":4173.5999999046,"correct":true,"confidence":2},{"trial_n":121,"min":89,"max":166,"target":"absent","response":"present","rt":1287.7999997139,"correct":false,"confidence":2},{"trial_n":122,"min":88,"max":167,"target":"present","response":"present","rt":1144.2999997139,"correct":true,"confidence":3},{"trial_n":123,"min":88,"max":167,"target":"present","response":"present","rt":1613.1000003815,"correct":true,"confidence":4},{"trial_n":124,"min":89,"max":166,"target":"present","response":"present","rt":1885.4000000954,"correct":true,"confidence":3},{"trial_n":125,"min":89,"max":166,"target":"absent","response":"present","rt":1181.0999999046,"correct":false,"confidence":4},{"trial_n":126,"min":88,"max":167,"target":"absent","response":"present","rt":1365.2999997139,"correct":false,"confidence":3},{"trial_n":127,"min":87,"max":168,"target":"present","response":"present","rt":1140.0999999046,"correct":true,"confidence":4},{"trial_n":128,"min":87,"max":168,"target":"present","response":"absent","rt":4260.7999997139,"correct":false,"confidence":2},{"trial_n":129,"min":86,"max":169,"target":"present","response":"present","rt":1200.5999999046,"correct":true,"confidence":4},{"trial_n":130,"min":86,"max":169,"target":"present","response":"present","rt":1087.5,"correct":true,"confidence":4},{"trial_n":131,"min":87,"max":168,"target":"present","response":"present","rt":1186.5,"correct":true,"confidence":4},{"trial_n":132,"min":87,"max":168,"target":"absent","response":"present","rt":1898.2000002861,"correct":false,"confidence":1},{"trial_n":133,"min":86,"max":169,"target":"present","response":"present","rt":906.19999980927,"correct":true,"confidence":5},{"trial_n":134,"min":86,"max":169,"target":"absent","response":"present","rt":1213.5,"correct":false,"confidence":4},{"trial_n":135,"min":85,"max":170,"target":"absent","response":"absent","rt":1231.1999998093,"correct":true,"confidence":3},{"trial_n":136,"min":85,"max":170,"target":"present","response":"present","rt":1256.8000001907,"correct":true,"confidence":3},{"trial_n":137,"min":86,"max":169,"target":"present","response":"present","rt":1211.1000003815,"correct":true,"confidence":3},{"trial_n":138,"min":86,"max":169,"target":"present","response":"present","rt":2398.8000001907,"correct":true,"confidence":4},{"trial_n":139,"min":87,"max":168,"target":"absent","response":"present","rt":1145.5,"correct":false,"confidence":2},{"trial_n":140,"min":86,"max":169,"target":"present","response":"present","rt":1005,"correct":true,"confidence":4}]