[{"trial_n":1,"span":8,"encoder":"95380528","distractor":"96380528","target":"present","response":"present","rt":"6086.2000000477","correct":true,"confidence":-1},{"trial_n":2,"span":8,"encoder":"76841764","distractor":"76641764","target":"present","response":"present","rt":"4077","correct":true,"confidence":-1},{"trial_n":3,"span":10,"encoder":"1652426226","distractor":"1652426266","target":"absent","response":"present","rt":"2839","correct":false,"confidence":-1},{"trial_n":4,"span":8,"encoder":"26653759","distractor":"20653759","target":"absent","response":"absent","rt":"2149.9000000954","correct":true,"confidence":-1},{"trial_n":5,"span":8,"encoder":"30281935","distractor":"70281935","target":"present","response":"present","rt":"2906.2000000477","correct":true,"confidence":-1},{"trial_n":6,"span":10,"encoder":"1961494685","distractor":"1961464685","target":"present","response":"present","rt":"4441","correct":true,"confidence":-1},{"trial_n":7,"span":10,"encoder":"1799851659","distractor":"1779851659","target":"present","response":"present","rt":"969.89999985695","correct":true,"confidence":-1},{"trial_n":8,"span":12,"encoder":"322820245860","distractor":"312820245860","target":"present","response":"present","rt":"3751.3000001907","correct":true,"confidence":-1},{"trial_n":9,"span":12,"encoder":"653533512648","distractor":"653533562648","target":"present","response":"present","rt":"3369.8999998569","correct":true,"confidence":-1},{"trial_n":10,"span":14,"encoder":"73390557424802","distractor":"73390537424802","target":"present","response":"present","rt":"4451.9000000954","correct":true,"confidence":-1},{"trial_n":11,"span":14,"encoder":"54308838610472","distractor":"54208838610472","target":"present","response":"present","rt":"2747","correct":true,"confidence":-1},{"trial_n":12,"span":15,"encoder":"684641043998663","distractor":"684641043298663","target":"absent","response":"present","rt":"2180.9000000954","correct":false,"confidence":-1},{"trial_n":13,"span":14,"encoder":"91132905636272","distractor":"91132905616272","target":"absent","response":"absent","rt":"4301","correct":true,"confidence":-1},{"trial_n":14,"span":14,"encoder":"69090607293074","distractor":"69090657293074","target":"present","response":"present","rt":"2117.3999998569","correct":true,"confidence":-1},{"trial_n":15,"span":15,"encoder":"146893667104719","distractor":"146893668104719","target":"absent","response":"present","rt":"1391.2999999523","correct":false,"confidence":-1},{"trial_n":16,"span":14,"encoder":"88052297565289","distractor":"88052297563289","target":"absent","response":"absent","rt":"598.79999995232","correct":true,"confidence":-1},{"trial_n":17,"span":14,"encoder":"20035909762414","distractor":"20035909764414","target":"absent","response":"present","rt":"500.90000009537","correct":false,"confidence":-1},{"trial_n":18,"span":13,"encoder":"4007546566681","distractor":"4007526566681","target":"absent","response":"absent","rt":"403.20000004768","correct":true,"confidence":-1},{"trial_n":19,"span":13,"encoder":"0566078780380","distractor":"9566078780380","target":"present","response":"absent","rt":"678.09999990463","correct":false,"confidence":-1},{"trial_n":20,"span":12,"encoder":"184220900969","distractor":"184620900969","target":"absent","response":"present","rt":"1312.5","correct":false,"confidence":-1},{"trial_n":21,"span":11,"encoder":"73110695925","distractor":"73110605925","target":"present","response":"absent","rt":"6131","correct":false,"confidence":4},{"trial_n":22,"span":10,"encoder":"8229765865","distractor":"8249765865","target":"absent","response":"absent","rt":"2694.6000001431","correct":true,"confidence":5},{"trial_n":23,"span":10,"encoder":"1180684374","distractor":"1180684344","target":"absent","response":"absent","rt":"1942.2000000477","correct":true,"confidence":5},{"trial_n":24,"span":11,"encoder":"82601771305","distractor":"52601771305","target":"present","response":"present","rt":"1984.7999999523","correct":true,"confidence":5},{"trial_n":25,"span":11,"encoder":"11781854219","distractor":"21781854219","target":"absent","response":"absent","rt":"1940.1000001431","correct":true,"confidence":5},{"trial_n":26,"span":12,"encoder":"713458359531","distractor":"713453359531","target":"absent","response":"present","rt":"2617.5","correct":false,"confidence":4},{"trial_n":27,"span":11,"encoder":"99940639201","distractor":"99940639271","target":"present","response":"present","rt":"1699","correct":true,"confidence":5},{"trial_n":28,"span":11,"encoder":"39897024895","distractor":"34897024895","target":"absent","response":"present","rt":"3973.5999999046","correct":false,"confidence":5},{"trial_n":29,"span":10,"encoder":"8617794138","distractor":"8617794128","target":"absent","response":"present","rt":"2430.2999999523","correct":false,"confidence":5},{"trial_n":30,"span":9,"encoder":"508204736","distractor":"508204735","target":"present","response":"present","rt":"4533.7000000477","correct":true,"confidence":5},{"trial_n":31,"span":9,"encoder":"616277382","distractor":"619277382","target":"present","response":"absent","rt":"5323","correct":false,"confidence":4},{"trial_n":32,"span":8,"encoder":"79999992","distractor":"79599992","target":"present","response":"present","rt":"2156.1999998093","correct":true,"confidence":5},{"trial_n":33,"span":8,"encoder":"25549801","distractor":"55549801","target":"present","response":"present","rt":"2595.0999999046","correct":true,"confidence":4},{"trial_n":34,"span":9,"encoder":"179677199","distractor":"179877199","target":"present","response":"present","rt":"1496.3000001907","correct":true,"confidence":5},{"trial_n":35,"span":9,"encoder":"131845815","distractor":"151845815","target":"absent","response":"present","rt":"1945.2000000477","correct":false,"confidence":3},{"trial_n":36,"span":8,"encoder":"08104929","distractor":"08108929","target":"absent","response":"present","rt":"1136.7999999523","correct":false,"confidence":3},{"trial_n":37,"span":7,"encoder":"5067309","distractor":"5067329","target":"present","response":"present","rt":"2069.7000000477","correct":true,"confidence":5},{"trial_n":38,"span":7,"encoder":"8033647","distractor":"6033647","target":"absent","response":"absent","rt":"2461.7999999523","correct":true,"confidence":5},{"trial_n":39,"span":8,"encoder":"04774094","distractor":"08774094","target":"absent","response":"absent","rt":"3970.4000000954","correct":true,"confidence":5},{"trial_n":40,"span":8,"encoder":"30848108","distractor":"30648108","target":"present","response":"present","rt":"844.40000009537","correct":true,"confidence":1},{"trial_n":41,"span":9,"encoder":"990702388","distractor":"990782388","target":"absent","response":"present","rt":"635","correct":false,"confidence":5},{"trial_n":42,"span":8,"encoder":"27172411","distractor":"28172411","target":"absent","response":"present","rt":"1045","correct":false,"confidence":1},{"trial_n":43,"span":7,"encoder":"4735519","distractor":"4535519","target":"absent","response":"present","rt":"1078.2000000477","correct":false,"confidence":4},{"trial_n":44,"span":6,"encoder":"399299","distractor":"369299","target":"absent","response":"absent","rt":"2079.2000000477","correct":true,"confidence":5},{"trial_n":45,"span":6,"encoder":"553622","distractor":"753622","target":"present","response":"absent","rt":"3086","correct":false,"confidence":3},{"trial_n":46,"span":5,"encoder":"49055","distractor":"40055","target":"present","response":"present","rt":"1707.8999998569","correct":true,"confidence":5},{"trial_n":47,"span":5,"encoder":"91962","distractor":"91762","target":"absent","response":"absent","rt":"1453.7999999523","correct":true,"confidence":5},{"trial_n":48,"span":6,"encoder":"262503","distractor":"262803","target":"present","response":"present","rt":"1818.2999999523","correct":true,"confidence":5},{"trial_n":49,"span":6,"encoder":"900795","distractor":"800795","target":"absent","response":"absent","rt":"1620.3000001907","correct":true,"confidence":5},{"trial_n":50,"span":7,"encoder":"5850756","distractor":"5050756","target":"present","response":"present","rt":"3177.1000001431","correct":true,"confidence":4},{"trial_n":51,"span":7,"encoder":"0249687","distractor":"0249688","target":"present","response":"present","rt":"2523","correct":true,"confidence":4},{"trial_n":52,"span":8,"encoder":"71390394","distractor":"71397394","target":"present","response":"present","rt":"2810.7000000477","correct":true,"confidence":4},{"trial_n":53,"span":8,"encoder":"41285373","distractor":"41685373","target":"present","response":"present","rt":"3749.9000000954","correct":true,"confidence":4},{"trial_n":54,"span":9,"encoder":"698452586","distractor":"698452581","target":"absent","response":"present","rt":"4499.2999999523","correct":false,"confidence":4},{"trial_n":55,"span":8,"encoder":"87863834","distractor":"87843834","target":"absent","response":"absent","rt":"2475.7000000477","correct":true,"confidence":5},{"trial_n":56,"span":8,"encoder":"64264058","distractor":"64262058","target":"present","response":"present","rt":"2452.0999999046","correct":true,"confidence":5},{"trial_n":57,"span":9,"encoder":"111654853","distractor":"711654853","target":"present","response":"present","rt":"3310.4000000954","correct":true,"confidence":4},{"trial_n":58,"span":9,"encoder":"582136477","distractor":"582136407","target":"absent","response":"absent","rt":"1613.1999998093","correct":true,"confidence":1},{"trial_n":59,"span":10,"encoder":"3260849501","distractor":"3560849501","target":"absent","response":"present","rt":"1777.6999998093","correct":false,"confidence":3},{"trial_n":60,"span":9,"encoder":"742975395","distractor":"742975399","target":"present","response":"present","rt":"6194.7000000477","correct":true,"confidence":4},{"trial_n":61,"span":9,"encoder":"218586854","distractor":"218586824","target":"absent","response":"present","rt":"3058.4000000954","correct":false,"confidence":4},{"trial_n":62,"span":8,"encoder":"10004785","distractor":"30004785","target":"absent","response":"absent","rt":"1933.2999999523","correct":true,"confidence":5},{"trial_n":63,"span":8,"encoder":"82436889","distractor":"82436885","target":"present","response":"present","rt":"3425.3000001907","correct":true,"confidence":5},{"trial_n":64,"span":9,"encoder":"228471063","distractor":"278471063","target":"present","response":"absent","rt":"5045.5","correct":false,"confidence":3},{"trial_n":65,"span":8,"encoder":"32630268","distractor":"32632268","target":"present","response":"absent","rt":"4890.7999999523","correct":false,"confidence":4},{"trial_n":66,"span":7,"encoder":"5954424","distractor":"5954224","target":"absent","response":"present","rt":"2773.4000000954","correct":false,"confidence":5},{"trial_n":67,"span":6,"encoder":"663997","distractor":"963997","target":"absent","response":"absent","rt":"2486.7000000477","correct":true,"confidence":5},{"trial_n":68,"span":6,"encoder":"799015","distractor":"799215","target":"absent","response":"absent","rt":"2307.2999999523","correct":true,"confidence":5},{"trial_n":69,"span":7,"encoder":"1269487","distractor":"1219487","target":"present","response":"present","rt":"2469.2000000477","correct":true,"confidence":4},{"trial_n":70,"span":7,"encoder":"1712649","distractor":"1412649","target":"present","response":"present","rt":"1836.1000001431","correct":true,"confidence":5},{"trial_n":71,"span":8,"encoder":"07217863","distractor":"07237863","target":"present","response":"present","rt":"3621.7999999523","correct":true,"confidence":-1},{"trial_n":72,"span":8,"encoder":"10240114","distractor":"10270114","target":"present","response":"present","rt":"3208.8999998569","correct":true,"confidence":-1},{"trial_n":73,"span":9,"encoder":"528537475","distractor":"528537473","target":"absent","response":"absent","rt":"2693.5","correct":true,"confidence":-1},{"trial_n":74,"span":9,"encoder":"539048033","distractor":"539948033","target":"absent","response":"absent","rt":"2800.7999999523","correct":true,"confidence":-1},{"trial_n":75,"span":10,"encoder":"5434709146","distractor":"5432709146","target":"present","response":"present","rt":"2782.5","correct":true,"confidence":-1},{"trial_n":76,"span":10,"encoder":"9528841115","distractor":"9528541115","target":"absent","response":"present","rt":"8196.6000001431","correct":false,"confidence":-1},{"trial_n":77,"span":9,"encoder":"065468410","distractor":"065968410","target":"absent","response":"present","rt":"851.59999990463","correct":false,"confidence":-1},{"trial_n":78,"span":8,"encoder":"25005177","distractor":"25001177","target":"present","response":"present","rt":"427.70000004768","correct":true,"confidence":-1},{"trial_n":79,"span":8,"encoder":"07556830","distractor":"07553830","target":"present","response":"absent","rt":"705.09999990463","correct":false,"confidence":-1},{"trial_n":80,"span":7,"encoder":"8098266","distractor":"8098236","target":"present","response":"absent","rt":"628.29999995232","correct":false,"confidence":-1},{"trial_n":81,"span":6,"encoder":"984095","distractor":"981095","target":"absent","response":"absent","rt":"592.39999985695","correct":true,"confidence":-1},{"trial_n":82,"span":6,"encoder":"406404","distractor":"436404","target":"absent","response":"absent","rt":"762.40000009537","correct":true,"confidence":-1},{"trial_n":83,"span":7,"encoder":"9169350","distractor":"9169360","target":"absent","response":"present","rt":"434.5","correct":false,"confidence":-1},{"trial_n":84,"span":6,"encoder":"263555","distractor":"363555","target":"absent","response":"present","rt":"490.10000014305","correct":false,"confidence":-1},{"trial_n":85,"span":5,"encoder":"89345","distractor":"89325","target":"present","response":"present","rt":"698.30000019073","correct":true,"confidence":-1},{"trial_n":86,"span":5,"encoder":"63189","distractor":"03189","target":"absent","response":"present","rt":"681.29999995232","correct":false,"confidence":-1},{"trial_n":87,"span":4,"encoder":"7482","distractor":"7282","target":"present","response":"present","rt":"815.59999990463","correct":true,"confidence":-1},{"trial_n":88,"span":4,"encoder":"4104","distractor":"4184","target":"present","response":"present","rt":"1832.7999999523","correct":true,"confidence":-1},{"trial_n":89,"span":5,"encoder":"79276","distractor":"79270","target":"present","response":"present","rt":"1190.3000001907","correct":true,"confidence":-1},{"trial_n":90,"span":5,"encoder":"55013","distractor":"52013","target":"present","response":"present","rt":"579.09999990463","correct":true,"confidence":-1},{"trial_n":91,"span":6,"encoder":"822841","distractor":"922841","target":"present","response":"present","rt":"1712.9000000954","correct":true,"confidence":5},{"trial_n":92,"span":6,"encoder":"210815","distractor":"210816","target":"absent","response":"present","rt":"1564.7999999523","correct":false,"confidence":4},{"trial_n":93,"span":5,"encoder":"50237","distractor":"50239","target":"present","response":"present","rt":"1669.7000000477","correct":true,"confidence":5},{"trial_n":94,"span":5,"encoder":"80091","distractor":"81091","target":"present","response":"present","rt":"1925.7000000477","correct":true,"confidence":5},{"trial_n":95,"span":6,"encoder":"442387","distractor":"642387","target":"absent","response":"absent","rt":"2347.1000001431","correct":true,"confidence":5},{"trial_n":96,"span":6,"encoder":"109007","distractor":"609007","target":"present","response":"present","rt":"2963.6000001431","correct":true,"confidence":4},{"trial_n":97,"span":7,"encoder":"7595767","distractor":"7596767","target":"absent","response":"present","rt":"1981.5999999046","correct":false,"confidence":4},{"trial_n":98,"span":6,"encoder":"428905","distractor":"128905","target":"absent","response":"present","rt":"3620.0999999046","correct":false,"confidence":3},{"trial_n":99,"span":5,"encoder":"23070","distractor":"23970","target":"present","response":"absent","rt":"1404.7000000477","correct":false,"confidence":4},{"trial_n":100,"span":4,"encoder":"6687","distractor":"6667","target":"present","response":"present","rt":"1392.9000000954","correct":true,"confidence":5},{"trial_n":101,"span":4,"encoder":"9839","distractor":"9139","target":"absent","response":"absent","rt":"3265.5999999046","correct":true,"confidence":4},{"trial_n":102,"span":5,"encoder":"50219","distractor":"50212","target":"absent","response":"absent","rt":"1989.2000000477","correct":true,"confidence":5},{"trial_n":103,"span":5,"encoder":"63151","distractor":"62151","target":"absent","response":"absent","rt":"1503","correct":true,"confidence":5},{"trial_n":104,"span":6,"encoder":"537403","distractor":"535403","target":"present","response":"present","rt":"3143.6000001431","correct":true,"confidence":5},{"trial_n":105,"span":6,"encoder":"412693","distractor":"412293","target":"absent","response":"absent","rt":"1597","correct":true,"confidence":5},{"trial_n":106,"span":7,"encoder":"8392068","distractor":"8392065","target":"absent","response":"absent","rt":"1027.2000000477","correct":true,"confidence":4},{"trial_n":107,"span":7,"encoder":"0292308","distractor":"0292708","target":"absent","response":"absent","rt":"2796759.5","correct":true,"confidence":1},{"trial_n":108,"span":8,"encoder":"73588804","distractor":"73588604","target":"absent","response":"absent","rt":"1960.8000001907","correct":true,"confidence":5},{"trial_n":109,"span":8,"encoder":"03674496","distractor":"03674494","target":"present","response":"present","rt":"2831.5999999046","correct":true,"confidence":5},{"trial_n":110,"span":9,"encoder":"447619571","distractor":"547619571","target":"absent","response":"absent","rt":"3318.4000000954","correct":true,"confidence":5},{"trial_n":111,"span":9,"encoder":"139413572","distractor":"134413572","target":"absent","response":"absent","rt":"3617","correct":true,"confidence":5},{"trial_n":112,"span":10,"encoder":"3584338237","distractor":"3584338267","target":"absent","response":"absent","rt":"3494.5999999046","correct":true,"confidence":5},{"trial_n":113,"span":10,"encoder":"1120531726","distractor":"1120531722","target":"present","response":"present","rt":"2376.8999998569","correct":true,"confidence":4},{"trial_n":114,"span":11,"encoder":"84083700319","distractor":"34083700319","target":"absent","response":"absent","rt":"3881.5999999046","correct":true,"confidence":3},{"trial_n":115,"span":11,"encoder":"40026030315","distractor":"42026030315","target":"absent","response":"present","rt":"4277.7999999523","correct":false,"confidence":4},{"trial_n":116,"span":10,"encoder":"8440679978","distractor":"8440629978","target":"present","response":"absent","rt":"9840.2000000477","correct":false,"confidence":3},{"trial_n":117,"span":9,"encoder":"895863495","distractor":"895868495","target":"present","response":"absent","rt":"10808.5","correct":false,"confidence":3},{"trial_n":118,"span":8,"encoder":"77281033","distractor":"77281533","target":"present","response":"present","rt":"3415.5","correct":true,"confidence":4},{"trial_n":119,"span":8,"encoder":"69029776","distractor":"69029766","target":"absent","response":"absent","rt":"4926","correct":true,"confidence":4},{"trial_n":120,"span":9,"encoder":"479208948","distractor":"479207948","target":"absent","response":"absent","rt":"1573.3000001907","correct":true,"confidence":3},{"trial_n":121,"span":9,"encoder":"470594366","distractor":"470594361","target":"present","response":"absent","rt":"1309.5999999046","correct":false,"confidence":3},{"trial_n":122,"span":8,"encoder":"09845114","distractor":"09895114","target":"present","response":"present","rt":"781.90000009537","correct":true,"confidence":4},{"trial_n":123,"span":8,"encoder":"38553683","distractor":"08553683","target":"absent","response":"present","rt":"1977.5","correct":false,"confidence":2},{"trial_n":124,"span":7,"encoder":"4875648","distractor":"4875608","target":"absent","response":"absent","rt":"2620","correct":true,"confidence":4},{"trial_n":125,"span":7,"encoder":"4673376","distractor":"4672376","target":"present","response":"present","rt":"6385.1000001431","correct":true,"confidence":5},{"trial_n":126,"span":8,"encoder":"46000135","distractor":"46000130","target":"present","response":"present","rt":"2645","correct":true,"confidence":4},{"trial_n":127,"span":8,"encoder":"69152071","distractor":"69852071","target":"present","response":"present","rt":"2188.3000001907","correct":true,"confidence":4},{"trial_n":128,"span":9,"encoder":"207085463","distractor":"207085460","target":"absent","response":"absent","rt":"2331.5999999046","correct":true,"confidence":3},{"trial_n":129,"span":9,"encoder":"328628154","distractor":"328668154","target":"present","response":"present","rt":"1967.1000001431","correct":true,"confidence":4},{"trial_n":130,"span":10,"encoder":"9882352610","distractor":"9882354610","target":"absent","response":"absent","rt":"3642.3999998569","correct":true,"confidence":4},{"trial_n":131,"span":10,"encoder":"7586146591","distractor":"7886146591","target":"present","response":"present","rt":"7449.3999998569","correct":true,"confidence":4},{"trial_n":132,"span":11,"encoder":"79869138290","distractor":"79869135290","target":"absent","response":"absent","rt":"7032.1000001431","correct":true,"confidence":4},{"trial_n":133,"span":11,"encoder":"16093089523","distractor":"16093589523","target":"present","response":"present","rt":"3026.6000001431","correct":true,"confidence":5},{"trial_n":134,"span":12,"encoder":"466932214814","distractor":"476932214814","target":"present","response":"absent","rt":"1712.3999998569","correct":false,"confidence":3},{"trial_n":135,"span":11,"encoder":"80388841248","distractor":"50388841248","target":"absent","response":"present","rt":"1374.3999998569","correct":false,"confidence":3},{"trial_n":136,"span":10,"encoder":"1690354409","distractor":"1650354409","target":"present","response":"absent","rt":"1161.6999998093","correct":false,"confidence":4},{"trial_n":137,"span":9,"encoder":"278584423","distractor":"274584423","target":"absent","response":"absent","rt":"1237.0999999046","correct":true,"confidence":4},{"trial_n":138,"span":9,"encoder":"173292819","distractor":"103292819","target":"present","response":"present","rt":"852.5","correct":true,"confidence":2},{"trial_n":139,"span":10,"encoder":"1673731919","distractor":"1673731719","target":"present","response":"absent","rt":"3335.8999998569","correct":false,"confidence":3},{"trial_n":140,"span":9,"encoder":"030121288","distractor":"030127288","target":"present","response":"present","rt":"3285.7000000477","correct":true,"confidence":4}]