[{"trial_n":1,"n_dots":4.25,"target":"left","response":"left","rt":2532,"correct":true,"confidence":-1},{"trial_n":2,"n_dots":4.25,"target":"left","response":"right","rt":661,"correct":false,"confidence":-1},{"trial_n":3,"n_dots":4.65,"target":"left","response":"left","rt":971,"correct":true,"confidence":-1},{"trial_n":4,"n_dots":4.65,"target":"right","response":"left","rt":685,"correct":false,"confidence":-1},{"trial_n":5,"n_dots":5.05,"target":"right","response":"right","rt":3179,"correct":true,"confidence":-1},{"trial_n":6,"n_dots":5.05,"target":"left","response":"right","rt":506,"correct":false,"confidence":-1},{"trial_n":7,"n_dots":5.45,"target":"right","response":"right","rt":526,"correct":true,"confidence":-1},{"trial_n":8,"n_dots":5.45,"target":"right","response":"right","rt":431,"correct":true,"confidence":-1},{"trial_n":9,"n_dots":5.25,"target":"left","response":"left","rt":808,"correct":true,"confidence":-1},{"trial_n":10,"n_dots":5.25,"target":"left","response":"left","rt":744,"correct":true,"confidence":-1},{"trial_n":11,"n_dots":5.05,"target":"left","response":"left","rt":586,"correct":true,"confidence":-1},{"trial_n":12,"n_dots":5.05,"target":"right","response":"right","rt":453,"correct":true,"confidence":-1},{"trial_n":13,"n_dots":4.95,"target":"left","response":"left","rt":241,"correct":true,"confidence":-1},{"trial_n":14,"n_dots":4.95,"target":"left","response":"left","rt":217,"correct":true,"confidence":-1},{"trial_n":15,"n_dots":4.85,"target":"left","response":"left","rt":161.99999999999,"correct":true,"confidence":-1},{"trial_n":16,"n_dots":4.85,"target":"right","response":"right","rt":198,"correct":true,"confidence":-1},{"trial_n":17,"n_dots":4.75,"target":"left","response":"left","rt":389,"correct":true,"confidence":-1},{"trial_n":18,"n_dots":4.75,"target":"left","response":"left","rt":219.00000000001,"correct":true,"confidence":-1},{"trial_n":19,"n_dots":4.65,"target":"right","response":"right","rt":201,"correct":true,"confidence":-1},{"trial_n":20,"n_dots":4.65,"target":"left","response":"left","rt":265.99999999999,"correct":true,"confidence":-1},{"trial_n":21,"n_dots":4.55,"target":"right","response":"right","rt":308,"correct":true,"confidence":4},{"trial_n":22,"n_dots":4.55,"target":"right","response":"right","rt":140,"correct":true,"confidence":4},{"trial_n":23,"n_dots":4.45,"target":"right","response":"right","rt":1437,"correct":true,"confidence":3},{"trial_n":24,"n_dots":4.45,"target":"right","response":"left","rt":2510,"correct":false,"confidence":1},{"trial_n":25,"n_dots":4.55,"target":"right","response":"right","rt":34.000000000015,"correct":true,"confidence":4},{"trial_n":26,"n_dots":4.55,"target":"left","response":"right","rt":548,"correct":false,"confidence":1},{"trial_n":27,"n_dots":4.65,"target":"right","response":"right","rt":167,"correct":true,"confidence":1},{"trial_n":28,"n_dots":4.65,"target":"right","response":"right","rt":502,"correct":true,"confidence":1},{"trial_n":29,"n_dots":4.55,"target":"left","response":"left","rt":441,"correct":true,"confidence":3},{"trial_n":30,"n_dots":4.55,"target":"right","response":"right","rt":265,"correct":true,"confidence":3},{"trial_n":31,"n_dots":4.45,"target":"left","response":"left","rt":464,"correct":true,"confidence":2},{"trial_n":32,"n_dots":4.45,"target":"right","response":"right","rt":272,"correct":true,"confidence":3},{"trial_n":33,"n_dots":4.35,"target":"left","response":"left","rt":318,"correct":true,"confidence":3},{"trial_n":34,"n_dots":4.35,"target":"right","response":"right","rt":198,"correct":true,"confidence":3},{"trial_n":35,"n_dots":4.25,"target":"left","response":"left","rt":238,"correct":true,"confidence":4},{"trial_n":36,"n_dots":4.25,"target":"left","response":"left","rt":288.00000000003,"correct":true,"confidence":5},{"trial_n":37,"n_dots":4.15,"target":"left","response":"left","rt":342,"correct":true,"confidence":5},{"trial_n":38,"n_dots":4.15,"target":"left","response":"right","rt":556,"correct":false,"confidence":1},{"trial_n":39,"n_dots":4.25,"target":"left","response":"left","rt":233,"correct":true,"confidence":5},{"trial_n":40,"n_dots":4.25,"target":"right","response":"right","rt":280,"correct":true,"confidence":1},{"trial_n":41,"n_dots":4.15,"target":"right","response":"right","rt":606,"correct":true,"confidence":3},{"trial_n":42,"n_dots":4.15,"target":"left","response":"left","rt":754,"correct":true,"confidence":1},{"trial_n":43,"n_dots":4.05,"target":"right","response":"right","rt":513.99999999997,"correct":true,"confidence":1},{"trial_n":44,"n_dots":4.05,"target":"right","response":"right","rt":924.99999999997,"correct":true,"confidence":4},{"trial_n":45,"n_dots":3.95,"target":"left","response":"left","rt":297,"correct":true,"confidence":5},{"trial_n":46,"n_dots":3.95,"target":"left","response":"left","rt":326,"correct":true,"confidence":5},{"trial_n":47,"n_dots":3.85,"target":"right","response":"right","rt":578,"correct":true,"confidence":3},{"trial_n":48,"n_dots":3.85,"target":"left","response":"left","rt":952,"correct":true,"confidence":4},{"trial_n":49,"n_dots":3.75,"target":"right","response":"left","rt":239.99999999997,"correct":false,"confidence":1},{"trial_n":50,"n_dots":3.85,"target":"left","response":"left","rt":1105,"correct":true,"confidence":3},{"trial_n":51,"n_dots":3.85,"target":"left","response":"left","rt":327,"correct":true,"confidence":4},{"trial_n":52,"n_dots":3.75,"target":"right","response":"right","rt":265,"correct":true,"confidence":1},{"trial_n":53,"n_dots":3.75,"target":"right","response":"left","rt":436,"correct":false,"confidence":1},{"trial_n":54,"n_dots":3.85,"target":"right","response":"right","rt":460,"correct":true,"confidence":1},{"trial_n":55,"n_dots":3.85,"target":"right","response":"left","rt":80.000000000029,"correct":false,"confidence":1},{"trial_n":56,"n_dots":3.95,"target":"right","response":"right","rt":449,"correct":true,"confidence":1},{"trial_n":57,"n_dots":3.95,"target":"right","response":"right","rt":736,"correct":true,"confidence":1},{"trial_n":58,"n_dots":3.85,"target":"right","response":"left","rt":643.99999999997,"correct":false,"confidence":1},{"trial_n":59,"n_dots":3.95,"target":"left","response":"right","rt":862,"correct":false,"confidence":1},{"trial_n":60,"n_dots":4.05,"target":"left","response":"left","rt":1154,"correct":true,"confidence":1},{"trial_n":61,"n_dots":4.05,"target":"right","response":"left","rt":1295.9999999999,"correct":false,"confidence":3},{"trial_n":62,"n_dots":4.15,"target":"right","response":"right","rt":731,"correct":true,"confidence":4},{"trial_n":63,"n_dots":4.15,"target":"right","response":"right","rt":262,"correct":true,"confidence":4},{"trial_n":64,"n_dots":4.05,"target":"right","response":"right","rt":373,"correct":true,"confidence":4},{"trial_n":65,"n_dots":4.05,"target":"left","response":"left","rt":162,"correct":true,"confidence":3},{"trial_n":66,"n_dots":3.95,"target":"left","response":"left","rt":717,"correct":true,"confidence":4},{"trial_n":67,"n_dots":3.95,"target":"left","response":"left","rt":265.00000000006,"correct":true,"confidence":4},{"trial_n":68,"n_dots":3.85,"target":"left","response":"left","rt":214,"correct":true,"confidence":4},{"trial_n":69,"n_dots":3.85,"target":"left","response":"left","rt":220,"correct":true,"confidence":4},{"trial_n":70,"n_dots":3.75,"target":"right","response":"right","rt":1323,"correct":true,"confidence":1},{"trial_n":71,"n_dots":3.75,"target":"left","response":"left","rt":313,"correct":true,"confidence":1},{"trial_n":72,"n_dots":3.65,"target":"right","response":"left","rt":956,"correct":false,"confidence":1},{"trial_n":73,"n_dots":3.75,"target":"left","response":"left","rt":742,"correct":true,"confidence":3},{"trial_n":74,"n_dots":3.75,"target":"left","response":"left","rt":327,"correct":true,"confidence":5},{"trial_n":75,"n_dots":3.65,"target":"left","response":"left","rt":272.99999999994,"correct":true,"confidence":5},{"trial_n":76,"n_dots":3.65,"target":"right","response":"left","rt":381,"correct":false,"confidence":3},{"trial_n":77,"n_dots":3.75,"target":"left","response":"left","rt":198,"correct":true,"confidence":1},{"trial_n":78,"n_dots":3.75,"target":"left","response":"left","rt":285,"correct":true,"confidence":5},{"trial_n":79,"n_dots":3.65,"target":"right","response":"right","rt":1335,"correct":true,"confidence":1},{"trial_n":80,"n_dots":3.65,"target":"right","response":"left","rt":370,"correct":false,"confidence":1},{"trial_n":81,"n_dots":3.75,"target":"left","response":"left","rt":455.99999999994,"correct":true,"confidence":4},{"trial_n":82,"n_dots":3.75,"target":"left","response":"left","rt":53,"correct":true,"confidence":5},{"trial_n":83,"n_dots":3.65,"target":"left","response":"left","rt":80,"correct":true,"confidence":5},{"trial_n":84,"n_dots":3.65,"target":"left","response":"left","rt":45.999999999942,"correct":true,"confidence":5},{"trial_n":85,"n_dots":3.55,"target":"left","response":"left","rt":880,"correct":true,"confidence":4},{"trial_n":86,"n_dots":3.55,"target":"left","response":"left","rt":109.00000000006,"correct":true,"confidence":5},{"trial_n":87,"n_dots":3.45,"target":"right","response":"right","rt":600,"correct":true,"confidence":2},{"trial_n":88,"n_dots":3.45,"target":"right","response":"left","rt":709,"correct":false,"confidence":1},{"trial_n":89,"n_dots":3.55,"target":"left","response":"left","rt":1148,"correct":true,"confidence":1},{"trial_n":90,"n_dots":3.55,"target":"right","response":"left","rt":1106,"correct":false,"confidence":3},{"trial_n":91,"n_dots":3.65,"target":"left","response":"left","rt":108.99999999994,"correct":true,"confidence":3},{"trial_n":92,"n_dots":3.65,"target":"right","response":"right","rt":543.99999999994,"correct":true,"confidence":4},{"trial_n":93,"n_dots":3.55,"target":"right","response":"left","rt":720,"correct":false,"confidence":1},{"trial_n":94,"n_dots":3.65,"target":"left","response":"right","rt":167,"correct":false,"confidence":1},{"trial_n":95,"n_dots":3.75,"target":"left","response":"left","rt":1690,"correct":true,"confidence":1},{"trial_n":96,"n_dots":3.75,"target":"right","response":"left","rt":1325,"correct":false,"confidence":3},{"trial_n":97,"n_dots":3.85,"target":"left","response":"left","rt":106.99999999994,"correct":true,"confidence":3},{"trial_n":98,"n_dots":3.85,"target":"left","response":"left","rt":613.99999999994,"correct":true,"confidence":1},{"trial_n":99,"n_dots":3.75,"target":"right","response":"right","rt":55,"correct":true,"confidence":1},{"trial_n":100,"n_dots":3.75,"target":"right","response":"left","rt":965,"correct":false,"confidence":3},{"trial_n":101,"n_dots":3.85,"target":"left","response":"left","rt":354,"correct":true,"confidence":5},{"trial_n":102,"n_dots":3.85,"target":"left","response":"left","rt":53,"correct":true,"confidence":4},{"trial_n":103,"n_dots":3.75,"target":"right","response":"right","rt":252.99999999994,"correct":true,"confidence":4},{"trial_n":104,"n_dots":3.75,"target":"left","response":"left","rt":107.00000000006,"correct":true,"confidence":5},{"trial_n":105,"n_dots":3.65,"target":"right","response":"left","rt":129,"correct":false,"confidence":5},{"trial_n":106,"n_dots":3.75,"target":"right","response":"right","rt":386,"correct":true,"confidence":3},{"trial_n":107,"n_dots":3.75,"target":"left","response":"left","rt":316.00000000006,"correct":true,"confidence":5},{"trial_n":108,"n_dots":3.65,"target":"right","response":"right","rt":386.00000000006,"correct":true,"confidence":5},{"trial_n":109,"n_dots":3.65,"target":"right","response":"right","rt":517,"correct":true,"confidence":3},{"trial_n":110,"n_dots":3.55,"target":"right","response":"left","rt":3640,"correct":false,"confidence":1},{"trial_n":111,"n_dots":3.65,"target":"right","response":"left","rt":1150.0000000001,"correct":false,"confidence":1},{"trial_n":112,"n_dots":3.75,"target":"right","response":"right","rt":275.99999999994,"correct":true,"confidence":5},{"trial_n":113,"n_dots":3.75,"target":"left","response":"left","rt":289.99999999994,"correct":true,"confidence":5},{"trial_n":114,"n_dots":3.65,"target":"right","response":"right","rt":410,"correct":true,"confidence":4},{"trial_n":115,"n_dots":3.65,"target":"left","response":"left","rt":495.99999999994,"correct":true,"confidence":5},{"trial_n":116,"n_dots":3.55,"target":"right","response":"left","rt":1073,"correct":false,"confidence":5},{"trial_n":117,"n_dots":3.65,"target":"right","response":"right","rt":583,"correct":true,"confidence":4},{"trial_n":118,"n_dots":3.65,"target":"right","response":"left","rt":57,"correct":false,"confidence":1},{"trial_n":119,"n_dots":3.75,"target":"left","response":"left","rt":353,"correct":true,"confidence":5},{"trial_n":120,"n_dots":3.75,"target":"right","response":"right","rt":1025,"correct":true,"confidence":1}]