[{"trial_n":1,"n_dots":4.25,"target":"left","response":"left","rt":1585.5999999996,"correct":true,"confidence":-1},{"trial_n":2,"n_dots":4.25,"target":"right","response":"right","rt":32.300000000745,"correct":true,"confidence":-1},{"trial_n":3,"n_dots":3.85,"target":"left","response":"left","rt":225.09999999963,"correct":true,"confidence":-1},{"trial_n":4,"n_dots":3.85,"target":"right","response":"right","rt":3047.4000000004,"correct":true,"confidence":-1},{"trial_n":5,"n_dots":3.45,"target":"right","response":"right","rt":23.699999999255,"correct":true,"confidence":-1},{"trial_n":6,"n_dots":3.45,"target":"left","response":"left","rt":88.900000000373,"correct":true,"confidence":-1},{"trial_n":7,"n_dots":3.05,"target":"right","response":"right","rt":56.10000000149,"correct":true,"confidence":-1},{"trial_n":8,"n_dots":3.05,"target":"right","response":"right","rt":136.40000000037,"correct":true,"confidence":-1},{"trial_n":9,"n_dots":2.85,"target":"right","response":"left","rt":245,"correct":false,"confidence":-1},{"trial_n":10,"n_dots":3.05,"target":"right","response":"left","rt":79.5,"correct":false,"confidence":-1},{"trial_n":11,"n_dots":3.25,"target":"right","response":"right","rt":1712.1999999993,"correct":true,"confidence":-1},{"trial_n":12,"n_dots":3.25,"target":"left","response":"left","rt":104.90000000037,"correct":true,"confidence":-1},{"trial_n":13,"n_dots":3.15,"target":"right","response":"right","rt":237.39999999851,"correct":true,"confidence":-1},{"trial_n":14,"n_dots":3.15,"target":"right","response":"right","rt":162.90000000037,"correct":true,"confidence":-1},{"trial_n":15,"n_dots":3.05,"target":"left","response":"left","rt":-0.39999999850988,"correct":true,"confidence":-1},{"trial_n":16,"n_dots":3.05,"target":"left","response":"right","rt":1241.3000000007,"correct":false,"confidence":-1},{"trial_n":17,"n_dots":3.15,"target":"left","response":"left","rt":665.90000000037,"correct":true,"confidence":-1},{"trial_n":18,"n_dots":3.15,"target":"left","response":"right","rt":960.09999999963,"correct":false,"confidence":-1},{"trial_n":19,"n_dots":3.25,"target":"left","response":"left","rt":671.09999999963,"correct":true,"confidence":-1},{"trial_n":20,"n_dots":3.25,"target":"right","response":"right","rt":479.39999999851,"correct":true,"confidence":-1},{"trial_n":21,"n_dots":3.15,"target":"left","response":"right","rt":751.09999999963,"correct":false,"confidence":2},{"trial_n":22,"n_dots":3.25,"target":"right","response":"right","rt":604.59999999963,"correct":true,"confidence":2},{"trial_n":23,"n_dots":3.25,"target":"right","response":"right","rt":319.59999999963,"correct":true,"confidence":3},{"trial_n":24,"n_dots":3.15,"target":"left","response":"left","rt":215.70000000112,"correct":true,"confidence":1},{"trial_n":25,"n_dots":3.15,"target":"right","response":"right","rt":287.80000000075,"correct":true,"confidence":2},{"trial_n":26,"n_dots":3.05,"target":"left","response":"left","rt":277,"correct":true,"confidence":4},{"trial_n":27,"n_dots":3.05,"target":"right","response":"right","rt":15.299999998882,"correct":true,"confidence":3},{"trial_n":28,"n_dots":2.95,"target":"right","response":"right","rt":180.20000000112,"correct":true,"confidence":4},{"trial_n":29,"n_dots":2.95,"target":"left","response":"left","rt":1023.4000000004,"correct":true,"confidence":2},{"trial_n":30,"n_dots":2.85,"target":"right","response":"left","rt":375.40000000037,"correct":false,"confidence":3},{"trial_n":31,"n_dots":2.95,"target":"right","response":"right","rt":415.60000000149,"correct":true,"confidence":3},{"trial_n":32,"n_dots":2.95,"target":"right","response":"right","rt":20.400000000373,"correct":true,"confidence":4},{"trial_n":33,"n_dots":2.85,"target":"right","response":"right","rt":1452.1999999993,"correct":true,"confidence":3},{"trial_n":34,"n_dots":2.85,"target":"left","response":"left","rt":1223.7000000011,"correct":true,"confidence":3},{"trial_n":35,"n_dots":2.75,"target":"right","response":"right","rt":920.09999999963,"correct":true,"confidence":3},{"trial_n":36,"n_dots":2.75,"target":"left","response":"left","rt":785.80000000075,"correct":true,"confidence":2},{"trial_n":37,"n_dots":2.65,"target":"left","response":"right","rt":276.5,"correct":false,"confidence":4},{"trial_n":38,"n_dots":2.75,"target":"right","response":"right","rt":567.40000000037,"correct":true,"confidence":3},{"trial_n":39,"n_dots":2.75,"target":"left","response":"right","rt":653,"correct":false,"confidence":3},{"trial_n":40,"n_dots":2.85,"target":"left","response":"left","rt":29,"correct":true,"confidence":5},{"trial_n":41,"n_dots":2.85,"target":"left","response":"left","rt":567.80000000075,"correct":true,"confidence":3},{"trial_n":42,"n_dots":2.75,"target":"right","response":"right","rt":17.099999999627,"correct":true,"confidence":5},{"trial_n":43,"n_dots":2.75,"target":"right","response":"left","rt":153.70000000112,"correct":false,"confidence":5},{"trial_n":44,"n_dots":2.85,"target":"left","response":"left","rt":151.40000000037,"correct":true,"confidence":5},{"trial_n":45,"n_dots":2.85,"target":"left","response":"left","rt":322.70000000112,"correct":true,"confidence":5},{"trial_n":46,"n_dots":2.75,"target":"right","response":"right","rt":375.5,"correct":true,"confidence":3},{"trial_n":47,"n_dots":2.75,"target":"right","response":"right","rt":351.80000000075,"correct":true,"confidence":3},{"trial_n":48,"n_dots":2.65,"target":"right","response":"right","rt":13,"correct":true,"confidence":2},{"trial_n":49,"n_dots":2.65,"target":"left","response":"right","rt":2414.5999999996,"correct":false,"confidence":4},{"trial_n":50,"n_dots":2.75,"target":"left","response":"left","rt":271.80000000075,"correct":true,"confidence":3},{"trial_n":51,"n_dots":2.75,"target":"left","response":"left","rt":11838.6,"correct":true,"confidence":3},{"trial_n":52,"n_dots":2.65,"target":"left","response":"left","rt":7375.8000000007,"correct":true,"confidence":2},{"trial_n":53,"n_dots":2.65,"target":"right","response":"left","rt":537.5,"correct":false,"confidence":4},{"trial_n":54,"n_dots":2.75,"target":"left","response":"right","rt":1590.6000000015,"correct":false,"confidence":3},{"trial_n":55,"n_dots":2.85,"target":"right","response":"right","rt":21192.100000001,"correct":true,"confidence":3},{"trial_n":56,"n_dots":2.85,"target":"right","response":"right","rt":718.79999999888,"correct":true,"confidence":4},{"trial_n":57,"n_dots":2.75,"target":"right","response":"right","rt":34030.799999999,"correct":true,"confidence":3},{"trial_n":58,"n_dots":2.75,"target":"left","response":"left","rt":2226.2000000011,"correct":true,"confidence":5},{"trial_n":59,"n_dots":2.65,"target":"left","response":"right","rt":754.40000000037,"correct":false,"confidence":3},{"trial_n":60,"n_dots":2.75,"target":"right","response":"left","rt":374.59999999963,"correct":false,"confidence":3},{"trial_n":61,"n_dots":2.85,"target":"left","response":"left","rt":361.10000000149,"correct":true,"confidence":3},{"trial_n":62,"n_dots":2.85,"target":"left","response":"right","rt":14650.5,"correct":false,"confidence":3},{"trial_n":63,"n_dots":2.95,"target":"left","response":"left","rt":371.29999999888,"correct":true,"confidence":2},{"trial_n":64,"n_dots":2.95,"target":"right","response":"right","rt":317.29999999888,"correct":true,"confidence":4},{"trial_n":65,"n_dots":2.85,"target":"right","response":"left","rt":92.300000000745,"correct":false,"confidence":3},{"trial_n":66,"n_dots":2.95,"target":"left","response":"left","rt":898.90000000037,"correct":true,"confidence":3},{"trial_n":67,"n_dots":2.95,"target":"left","response":"left","rt":80041.699999999,"correct":true,"confidence":5},{"trial_n":68,"n_dots":2.85,"target":"left","response":"right","rt":327.59999999963,"correct":false,"confidence":3},{"trial_n":69,"n_dots":2.95,"target":"left","response":"right","rt":12.200000001118,"correct":false,"confidence":5},{"trial_n":70,"n_dots":3.05,"target":"left","response":"right","rt":2936.5,"correct":false,"confidence":2},{"trial_n":71,"n_dots":3.15,"target":"right","response":"right","rt":560.69999999925,"correct":true,"confidence":5},{"trial_n":72,"n_dots":3.15,"target":"right","response":"left","rt":472.10000000149,"correct":false,"confidence":3},{"trial_n":73,"n_dots":3.25,"target":"right","response":"left","rt":327.59999999963,"correct":false,"confidence":4},{"trial_n":74,"n_dots":3.35,"target":"left","response":"left","rt":291.09999999963,"correct":true,"confidence":3},{"trial_n":75,"n_dots":3.35,"target":"right","response":"left","rt":150.20000000112,"correct":false,"confidence":4},{"trial_n":76,"n_dots":3.45,"target":"left","response":"right","rt":2148.7000000011,"correct":false,"confidence":3},{"trial_n":77,"n_dots":3.55,"target":"right","response":"right","rt":7138.1000000015,"correct":true,"confidence":4},{"trial_n":78,"n_dots":3.55,"target":"right","response":"right","rt":368.5,"correct":true,"confidence":3},{"trial_n":79,"n_dots":3.45,"target":"left","response":"left","rt":279.69999999925,"correct":true,"confidence":5},{"trial_n":80,"n_dots":3.45,"target":"right","response":"right","rt":975,"correct":true,"confidence":3},{"trial_n":81,"n_dots":3.35,"target":"right","response":"right","rt":272.19999999925,"correct":true,"confidence":3},{"trial_n":82,"n_dots":3.35,"target":"left","response":"left","rt":938.40000000037,"correct":true,"confidence":2},{"trial_n":83,"n_dots":3.25,"target":"left","response":"right","rt":234.40000000037,"correct":false,"confidence":1},{"trial_n":84,"n_dots":3.35,"target":"left","response":"left","rt":386.19999999925,"correct":true,"confidence":4},{"trial_n":85,"n_dots":3.35,"target":"right","response":"right","rt":158.5,"correct":true,"confidence":5},{"trial_n":86,"n_dots":3.25,"target":"right","response":"left","rt":999.5,"correct":false,"confidence":5},{"trial_n":87,"n_dots":3.35,"target":"right","response":"right","rt":535.69999999925,"correct":true,"confidence":3},{"trial_n":88,"n_dots":3.35,"target":"left","response":"left","rt":767.19999999925,"correct":true,"confidence":3},{"trial_n":89,"n_dots":3.25,"target":"left","response":"left","rt":30.799999998882,"correct":true,"confidence":3},{"trial_n":90,"n_dots":3.25,"target":"right","response":"right","rt":33.400000000373,"correct":true,"confidence":4},{"trial_n":91,"n_dots":3.15,"target":"left","response":"left","rt":238.70000000112,"correct":true,"confidence":3},{"trial_n":92,"n_dots":3.15,"target":"right","response":"left","rt":840.70000000112,"correct":false,"confidence":4},{"trial_n":93,"n_dots":3.25,"target":"left","response":"left","rt":575.59999999963,"correct":true,"confidence":3},{"trial_n":94,"n_dots":3.25,"target":"right","response":"left","rt":5.5999999996275,"correct":false,"confidence":5},{"trial_n":95,"n_dots":3.35,"target":"left","response":"left","rt":25.10000000149,"correct":true,"confidence":5},{"trial_n":96,"n_dots":3.35,"target":"right","response":"right","rt":321.09999999963,"correct":true,"confidence":5},{"trial_n":97,"n_dots":3.25,"target":"left","response":"left","rt":726,"correct":true,"confidence":4},{"trial_n":98,"n_dots":3.25,"target":"left","response":"left","rt":414.90000000037,"correct":true,"confidence":5},{"trial_n":99,"n_dots":3.15,"target":"left","response":"left","rt":656.59999999963,"correct":true,"confidence":4},{"trial_n":100,"n_dots":3.15,"target":"right","response":"left","rt":1352.7999999989,"correct":false,"confidence":3},{"trial_n":101,"n_dots":3.25,"target":"left","response":"left","rt":672.09999999963,"correct":true,"confidence":3},{"trial_n":102,"n_dots":3.25,"target":"right","response":"right","rt":94.39999999851,"correct":true,"confidence":4},{"trial_n":103,"n_dots":3.15,"target":"left","response":"left","rt":853.79999999888,"correct":true,"confidence":4},{"trial_n":104,"n_dots":3.15,"target":"right","response":"right","rt":255.59999999963,"correct":true,"confidence":5},{"trial_n":105,"n_dots":3.05,"target":"right","response":"right","rt":45,"correct":true,"confidence":5},{"trial_n":106,"n_dots":3.05,"target":"right","response":"right","rt":47.5,"correct":true,"confidence":5},{"trial_n":107,"n_dots":2.95,"target":"left","response":"left","rt":61.599999999627,"correct":true,"confidence":5},{"trial_n":108,"n_dots":2.95,"target":"left","response":"right","rt":105,"correct":false,"confidence":3},{"trial_n":109,"n_dots":3.05,"target":"right","response":"left","rt":163.69999999925,"correct":false,"confidence":4},{"trial_n":110,"n_dots":3.15,"target":"left","response":"left","rt":175.79999999888,"correct":true,"confidence":5},{"trial_n":111,"n_dots":3.15,"target":"right","response":"left","rt":1274.3000000007,"correct":false,"confidence":4},{"trial_n":112,"n_dots":3.25,"target":"left","response":"left","rt":167.10000000149,"correct":true,"confidence":4},{"trial_n":113,"n_dots":3.25,"target":"left","response":"left","rt":95.599999999627,"correct":true,"confidence":5},{"trial_n":114,"n_dots":3.15,"target":"left","response":"left","rt":287.79999999888,"correct":true,"confidence":5},{"trial_n":115,"n_dots":3.15,"target":"right","response":"left","rt":776.20000000112,"correct":false,"confidence":3},{"trial_n":116,"n_dots":3.25,"target":"left","response":"left","rt":624.79999999888,"correct":true,"confidence":4},{"trial_n":117,"n_dots":3.25,"target":"left","response":"left","rt":626.69999999925,"correct":true,"confidence":5},{"trial_n":118,"n_dots":3.15,"target":"right","response":"right","rt":1526.9000000004,"correct":true,"confidence":4},{"trial_n":119,"n_dots":3.15,"target":"right","response":"left","rt":232.40000000037,"correct":false,"confidence":4},{"trial_n":120,"n_dots":3.25,"target":"right","response":"left","rt":313.5,"correct":false,"confidence":4}]