[{"trial_n":1,"span":8,"encoder":"92710097","distractor":"93710097","target":"present","response":"present","rt":"4652.700000003","correct":true,"confidence":-1},{"trial_n":2,"span":8,"encoder":"01579188","distractor":"03579188","target":"present","response":"absent","rt":"2581.3999999985","correct":false,"confidence":-1},{"trial_n":3,"span":6,"encoder":"998715","distractor":"991715","target":"absent","response":"present","rt":"1611.799999997","correct":false,"confidence":-1},{"trial_n":4,"span":4,"encoder":"3076","distractor":"7076","target":"absent","response":"absent","rt":"1832.5","correct":true,"confidence":-1},{"trial_n":5,"span":4,"encoder":"9868","distractor":"6868","target":"present","response":"present","rt":"2392","correct":true,"confidence":-1},{"trial_n":6,"span":6,"encoder":"437007","distractor":"477007","target":"present","response":"present","rt":"1770.299999997","correct":true,"confidence":-1},{"trial_n":7,"span":6,"encoder":"358909","distractor":"378909","target":"present","response":"present","rt":"1764.6999999955","correct":true,"confidence":-1},{"trial_n":8,"span":8,"encoder":"68416335","distractor":"78416335","target":"absent","response":"absent","rt":"1611.099999994","correct":true,"confidence":-1},{"trial_n":9,"span":8,"encoder":"47331008","distractor":"43331008","target":"present","response":"present","rt":"995.79999999702","correct":true,"confidence":-1},{"trial_n":10,"span":10,"encoder":"2084278486","distractor":"2084278483","target":"absent","response":"absent","rt":"1342.599999994","correct":true,"confidence":-1},{"trial_n":11,"span":10,"encoder":"0029959867","distractor":"0329959867","target":"present","response":"present","rt":"958.10000000149","correct":true,"confidence":-1},{"trial_n":12,"span":11,"encoder":"25695025144","distractor":"15695025144","target":"absent","response":"present","rt":"1773.6000000015","correct":false,"confidence":-1},{"trial_n":13,"span":10,"encoder":"7346594095","distractor":"7346590095","target":"absent","response":"absent","rt":"1901","correct":true,"confidence":-1},{"trial_n":14,"span":10,"encoder":"0895356618","distractor":"0895356018","target":"present","response":"absent","rt":"1553.8000000045","correct":false,"confidence":-1},{"trial_n":15,"span":9,"encoder":"132121667","distractor":"132127667","target":"absent","response":"present","rt":"684.30000000447","correct":false,"confidence":-1},{"trial_n":16,"span":8,"encoder":"25730080","distractor":"26730080","target":"present","response":"present","rt":"2011.6999999955","correct":true,"confidence":-1},{"trial_n":17,"span":8,"encoder":"91279842","distractor":"91279872","target":"present","response":"present","rt":"3252.6000000015","correct":true,"confidence":-1},{"trial_n":18,"span":9,"encoder":"125012373","distractor":"120012373","target":"present","response":"present","rt":"1222.5","correct":true,"confidence":-1},{"trial_n":19,"span":9,"encoder":"458025396","distractor":"458025996","target":"present","response":"present","rt":"1719.6000000015","correct":true,"confidence":-1},{"trial_n":20,"span":10,"encoder":"5493527929","distractor":"5493527921","target":"absent","response":"absent","rt":"1156.299999997","correct":true,"confidence":-1},{"trial_n":21,"span":10,"encoder":"2960888341","distractor":"2660888341","target":"absent","response":"absent","rt":"3202.900000006","correct":true,"confidence":3},{"trial_n":22,"span":11,"encoder":"06749345051","distractor":"06719345051","target":"present","response":"absent","rt":"5660.1999999955","correct":false,"confidence":3},{"trial_n":23,"span":10,"encoder":"6556128432","distractor":"6576128432","target":"present","response":"present","rt":"2082.8999999985","correct":true,"confidence":5},{"trial_n":24,"span":10,"encoder":"7354505430","distractor":"7554505430","target":"absent","response":"absent","rt":"3859.299999997","correct":true,"confidence":5},{"trial_n":25,"span":11,"encoder":"59557103462","distractor":"59557105462","target":"present","response":"present","rt":"1642.1000000015","correct":true,"confidence":3},{"trial_n":26,"span":11,"encoder":"53692294670","distractor":"53692274670","target":"present","response":"absent","rt":"3226","correct":false,"confidence":2},{"trial_n":27,"span":10,"encoder":"6862848115","distractor":"6868848115","target":"absent","response":"present","rt":"6745.8999999985","correct":false,"confidence":3},{"trial_n":28,"span":9,"encoder":"193413079","distractor":"190413079","target":"absent","response":"absent","rt":"1463.6999999955","correct":true,"confidence":5},{"trial_n":29,"span":9,"encoder":"741694908","distractor":"741494908","target":"present","response":"present","rt":"4389.1000000015","correct":true,"confidence":5},{"trial_n":30,"span":10,"encoder":"6195739022","distractor":"6195739622","target":"absent","response":"absent","rt":"4205.200000003","correct":true,"confidence":5},{"trial_n":31,"span":10,"encoder":"2870656205","distractor":"2870656215","target":"present","response":"present","rt":"1850.1999999955","correct":true,"confidence":3},{"trial_n":32,"span":11,"encoder":"98469440942","distractor":"98463440942","target":"present","response":"present","rt":"2265.299999997","correct":true,"confidence":3},{"trial_n":33,"span":11,"encoder":"76186290937","distractor":"76186390937","target":"present","response":"present","rt":"2302.799999997","correct":true,"confidence":3},{"trial_n":34,"span":12,"encoder":"656043693274","distractor":"256043693274","target":"absent","response":"absent","rt":"5097.1000000015","correct":true,"confidence":5},{"trial_n":35,"span":12,"encoder":"855771753727","distractor":"855771753787","target":"present","response":"present","rt":"3551.6999999955","correct":true,"confidence":4},{"trial_n":36,"span":13,"encoder":"7266177885640","distractor":"7266177385640","target":"present","response":"present","rt":"2878","correct":true,"confidence":3},{"trial_n":37,"span":13,"encoder":"3771759294269","distractor":"3771759294769","target":"present","response":"absent","rt":"5652.8999999985","correct":false,"confidence":1},{"trial_n":38,"span":12,"encoder":"424016000476","distractor":"624016000476","target":"present","response":"present","rt":"2987.6000000015","correct":true,"confidence":5},{"trial_n":39,"span":12,"encoder":"416089340579","distractor":"416089300579","target":"present","response":"present","rt":"3394.3999999985","correct":true,"confidence":2},{"trial_n":40,"span":13,"encoder":"4174924040380","distractor":"4174929040380","target":"absent","response":"absent","rt":"4571.799999997","correct":true,"confidence":2},{"trial_n":41,"span":13,"encoder":"9980476745518","distractor":"3980476745518","target":"absent","response":"absent","rt":"1534.299999997","correct":true,"confidence":5},{"trial_n":42,"span":14,"encoder":"59782104663992","distractor":"59782144663992","target":"present","response":"present","rt":"3046.1000000015","correct":true,"confidence":4},{"trial_n":43,"span":14,"encoder":"03261744416917","distractor":"03261744412917","target":"present","response":"present","rt":"3126.6000000015","correct":true,"confidence":4},{"trial_n":44,"span":15,"encoder":"258332277999502","distractor":"258332277997502","target":"absent","response":"present","rt":"3945.700000003","correct":false,"confidence":3},{"trial_n":45,"span":14,"encoder":"77713771949628","distractor":"77713701949628","target":"present","response":"present","rt":"1499.3999999985","correct":true,"confidence":3},{"trial_n":46,"span":14,"encoder":"52441033210205","distractor":"52449033210205","target":"present","response":"present","rt":"1667.1999999955","correct":true,"confidence":3},{"trial_n":47,"span":15,"encoder":"745883821769902","distractor":"740883821769902","target":"absent","response":"present","rt":"4933.200000003","correct":false,"confidence":3},{"trial_n":48,"span":14,"encoder":"16703240411361","distractor":"16705240411361","target":"absent","response":"absent","rt":"2466.6999999955","correct":true,"confidence":2},{"trial_n":49,"span":14,"encoder":"10849505811882","distractor":"10849305811882","target":"absent","response":"present","rt":"1732.5","correct":false,"confidence":3},{"trial_n":50,"span":13,"encoder":"9399020139512","distractor":"9399420139512","target":"absent","response":"present","rt":"3238.8999999985","correct":false,"confidence":2},{"trial_n":51,"span":12,"encoder":"431145582528","distractor":"431140582528","target":"absent","response":"present","rt":"1790.299999997","correct":false,"confidence":2},{"trial_n":52,"span":11,"encoder":"66714689680","distractor":"66714681680","target":"present","response":"present","rt":"2600.799999997","correct":true,"confidence":3},{"trial_n":53,"span":11,"encoder":"00553946734","distractor":"60553946734","target":"absent","response":"absent","rt":"2343.799999997","correct":true,"confidence":2},{"trial_n":54,"span":12,"encoder":"144583679867","distractor":"114583679867","target":"absent","response":"absent","rt":"1488.299999997","correct":true,"confidence":2},{"trial_n":55,"span":12,"encoder":"602310251987","distractor":"602310951987","target":"absent","response":"absent","rt":"15071.799999997","correct":true,"confidence":2},{"trial_n":56,"span":13,"encoder":"1919961768861","distractor":"1919991768861","target":"absent","response":"present","rt":"2672.299999997","correct":false,"confidence":3},{"trial_n":57,"span":12,"encoder":"321954049619","distractor":"321954149619","target":"absent","response":"present","rt":"6369.6000000015","correct":false,"confidence":3},{"trial_n":58,"span":11,"encoder":"24178982565","distractor":"24678982565","target":"present","response":"present","rt":"10504","correct":true,"confidence":1},{"trial_n":59,"span":11,"encoder":"96126158273","distractor":"96526158273","target":"present","response":"present","rt":"29675","correct":true,"confidence":1},{"trial_n":60,"span":12,"encoder":"819112969624","distractor":"819122969624","target":"present","response":"present","rt":"2644","correct":true,"confidence":2},{"trial_n":61,"span":12,"encoder":"881399066865","distractor":"881399066885","target":"present","response":"present","rt":"3185.6000000015","correct":true,"confidence":2},{"trial_n":62,"span":13,"encoder":"8364791692273","distractor":"1364791692273","target":"present","response":"present","rt":"2352.1000000015","correct":true,"confidence":5},{"trial_n":63,"span":13,"encoder":"9943444697649","distractor":"9913444697649","target":"absent","response":"present","rt":"2236.299999997","correct":false,"confidence":3},{"trial_n":64,"span":12,"encoder":"764894448092","distractor":"724894448092","target":"absent","response":"present","rt":"4676.1000000015","correct":false,"confidence":2},{"trial_n":65,"span":11,"encoder":"45276744823","distractor":"45276744829","target":"absent","response":"present","rt":"1903.6000000015","correct":false,"confidence":3},{"trial_n":66,"span":10,"encoder":"5081095035","distractor":"5081095032","target":"absent","response":"present","rt":"2249.200000003","correct":false,"confidence":3},{"trial_n":67,"span":9,"encoder":"302353827","distractor":"302953827","target":"absent","response":"absent","rt":"3456.299999997","correct":true,"confidence":5},{"trial_n":68,"span":9,"encoder":"500855644","distractor":"300855644","target":"absent","response":"present","rt":"1696.3999999985","correct":false,"confidence":4},{"trial_n":69,"span":8,"encoder":"58071521","distractor":"58071501","target":"absent","response":"present","rt":"2325.5","correct":false,"confidence":3},{"trial_n":70,"span":7,"encoder":"1867375","distractor":"8867375","target":"present","response":"present","rt":"1958.200000003","correct":true,"confidence":3},{"trial_n":71,"span":8,"encoder":"15578702","distractor":"15578706","target":"present","response":"present","rt":"6932.599999994","correct":true,"confidence":-1},{"trial_n":72,"span":8,"encoder":"48120889","distractor":"48120882","target":"present","response":"absent","rt":"3400.799999997","correct":false,"confidence":-1},{"trial_n":73,"span":7,"encoder":"9687088","distractor":"9687080","target":"absent","response":"absent","rt":"7156","correct":true,"confidence":-1},{"trial_n":74,"span":7,"encoder":"1283790","distractor":"1283760","target":"absent","response":"absent","rt":"1863.5","correct":true,"confidence":-1},{"trial_n":75,"span":8,"encoder":"75848887","distractor":"75848847","target":"present","response":"present","rt":"2790.299999997","correct":true,"confidence":-1},{"trial_n":76,"span":8,"encoder":"84514708","distractor":"84519708","target":"present","response":"present","rt":"3136.1000000015","correct":true,"confidence":-1},{"trial_n":77,"span":9,"encoder":"248021451","distractor":"248021458","target":"absent","response":"absent","rt":"6736.6999999955","correct":true,"confidence":-1},{"trial_n":78,"span":9,"encoder":"389335260","distractor":"389335270","target":"present","response":"present","rt":"3923.3999999985","correct":true,"confidence":-1},{"trial_n":79,"span":10,"encoder":"9113326834","distractor":"9113396834","target":"present","response":"present","rt":"5764.8999999985","correct":true,"confidence":-1},{"trial_n":80,"span":10,"encoder":"4488266294","distractor":"1488266294","target":"present","response":"absent","rt":"2593","correct":false,"confidence":-1},{"trial_n":81,"span":9,"encoder":"376909969","distractor":"376989969","target":"present","response":"present","rt":"6514.1999999955","correct":true,"confidence":-1},{"trial_n":82,"span":9,"encoder":"627049564","distractor":"627649564","target":"present","response":"present","rt":"5358.8000000045","correct":true,"confidence":-1},{"trial_n":83,"span":10,"encoder":"7625692570","distractor":"7625622570","target":"absent","response":"absent","rt":"3452","correct":true,"confidence":-1},{"trial_n":84,"span":10,"encoder":"5115190465","distractor":"5115190495","target":"absent","response":"absent","rt":"2592.6999999955","correct":true,"confidence":-1},{"trial_n":85,"span":11,"encoder":"24178608805","distractor":"24177608805","target":"present","response":"present","rt":"19104.300000004","correct":true,"confidence":-1},{"trial_n":86,"span":11,"encoder":"71879934339","distractor":"71819934339","target":"absent","response":"present","rt":"22557.799999997","correct":false,"confidence":-1},{"trial_n":87,"span":10,"encoder":"6419159530","distractor":"6419159531","target":"absent","response":"absent","rt":"2648.1999999955","correct":true,"confidence":-1},{"trial_n":88,"span":10,"encoder":"9588537969","distractor":"9588531969","target":"present","response":"present","rt":"5023.3999999985","correct":true,"confidence":-1},{"trial_n":89,"span":11,"encoder":"42449806258","distractor":"42249806258","target":"present","response":"present","rt":"5162.799999997","correct":true,"confidence":-1},{"trial_n":90,"span":11,"encoder":"49343472983","distractor":"49346472983","target":"absent","response":"absent","rt":"8666.8999999985","correct":true,"confidence":-1},{"trial_n":91,"span":12,"encoder":"989656387763","distractor":"989656381763","target":"present","response":"present","rt":"3128.299999997","correct":true,"confidence":5},{"trial_n":92,"span":12,"encoder":"992233755128","distractor":"292233755128","target":"present","response":"present","rt":"9010.1999999955","correct":true,"confidence":3},{"trial_n":93,"span":13,"encoder":"4274389985833","distractor":"4276389985833","target":"present","response":"present","rt":"17976.5","correct":true,"confidence":2},{"trial_n":94,"span":13,"encoder":"1421179719740","distractor":"1441179719740","target":"present","response":"absent","rt":"17969.700000003","correct":false,"confidence":2},{"trial_n":95,"span":12,"encoder":"006453742979","distractor":"006353742979","target":"present","response":"present","rt":"4510.5","correct":true,"confidence":5},{"trial_n":96,"span":12,"encoder":"715831103048","distractor":"715031103048","target":"absent","response":"absent","rt":"15086.600000001","correct":true,"confidence":3},{"trial_n":97,"span":13,"encoder":"6880315147557","distractor":"6880015147557","target":"absent","response":"absent","rt":"15798.699999996","correct":true,"confidence":2},{"trial_n":98,"span":13,"encoder":"0640897708013","distractor":"3640897708013","target":"absent","response":"present","rt":"7639.1000000015","correct":false,"confidence":2},{"trial_n":99,"span":12,"encoder":"527055489104","distractor":"527055459104","target":"absent","response":"absent","rt":"6297","correct":true,"confidence":5},{"trial_n":100,"span":12,"encoder":"322044848874","distractor":"322044848374","target":"absent","response":"absent","rt":"5371.599999994","correct":true,"confidence":5},{"trial_n":101,"span":13,"encoder":"5773955073963","distractor":"5783955073963","target":"present","response":"present","rt":"4430.799999997","correct":true,"confidence":3},{"trial_n":102,"span":13,"encoder":"3149269901952","distractor":"3149269911952","target":"present","response":"absent","rt":"5003.5","correct":false,"confidence":4},{"trial_n":103,"span":12,"encoder":"530634640037","distractor":"530634644037","target":"present","response":"present","rt":"6783.6999999955","correct":true,"confidence":1},{"trial_n":104,"span":12,"encoder":"130215110072","distractor":"130215010072","target":"present","response":"present","rt":"6972.299999997","correct":true,"confidence":3},{"trial_n":105,"span":13,"encoder":"2693135095230","distractor":"2693135095237","target":"absent","response":"present","rt":"1952.799999997","correct":false,"confidence":3},{"trial_n":106,"span":12,"encoder":"961098319044","distractor":"961018319044","target":"present","response":"present","rt":"3737.700000003","correct":true,"confidence":3},{"trial_n":107,"span":12,"encoder":"083495726608","distractor":"083495726638","target":"absent","response":"present","rt":"9742.099999994","correct":false,"confidence":1},{"trial_n":108,"span":11,"encoder":"42887885458","distractor":"42887885478","target":"absent","response":"absent","rt":"4615.299999997","correct":true,"confidence":1},{"trial_n":109,"span":11,"encoder":"52356077100","distractor":"52356977100","target":"absent","response":"absent","rt":"8457.6999999955","correct":true,"confidence":2},{"trial_n":110,"span":12,"encoder":"047706967487","distractor":"047706367487","target":"absent","response":"present","rt":"5893.099999994","correct":false,"confidence":2},{"trial_n":111,"span":11,"encoder":"59771930621","distractor":"53771930621","target":"present","response":"present","rt":"8321.3999999985","correct":true,"confidence":5},{"trial_n":112,"span":11,"encoder":"70856785172","distractor":"70856787172","target":"present","response":"present","rt":"7133.799999997","correct":true,"confidence":2},{"trial_n":113,"span":12,"encoder":"189469202537","distractor":"189469202539","target":"present","response":"present","rt":"12081.899999999","correct":true,"confidence":1},{"trial_n":114,"span":12,"encoder":"703632821464","distractor":"703632823464","target":"absent","response":"absent","rt":"4739.6999999955","correct":true,"confidence":2},{"trial_n":115,"span":13,"encoder":"2059158315963","distractor":"2059158415963","target":"absent","response":"present","rt":"47988","correct":false,"confidence":2},{"trial_n":116,"span":12,"encoder":"903710449847","distractor":"003710449847","target":"absent","response":"absent","rt":"6559.3000000045","correct":true,"confidence":3},{"trial_n":117,"span":12,"encoder":"854157344984","distractor":"853157344984","target":"absent","response":"present","rt":"3027.700000003","correct":false,"confidence":3},{"trial_n":118,"span":11,"encoder":"73140609046","distractor":"73140909046","target":"absent","response":"absent","rt":"13289.699999996","correct":true,"confidence":2},{"trial_n":119,"span":11,"encoder":"63036660670","distractor":"63036260670","target":"absent","response":"absent","rt":"3938.799999997","correct":true,"confidence":4},{"trial_n":120,"span":12,"encoder":"436665448827","distractor":"436665448847","target":"absent","response":"absent","rt":"7371.6999999955","correct":true,"confidence":3},{"trial_n":121,"span":12,"encoder":"018664914156","distractor":"018664934156","target":"absent","response":"absent","rt":"2795.299999997","correct":true,"confidence":5},{"trial_n":122,"span":13,"encoder":"5938811697970","distractor":"5938811699970","target":"present","response":"present","rt":"7610.3999999985","correct":true,"confidence":5},{"trial_n":123,"span":13,"encoder":"2744194024616","distractor":"2754194024616","target":"absent","response":"present","rt":"8575.099999994","correct":false,"confidence":3},{"trial_n":124,"span":12,"encoder":"483004108300","distractor":"485004108300","target":"absent","response":"absent","rt":"6302.8999999985","correct":true,"confidence":3},{"trial_n":125,"span":12,"encoder":"031130326205","distractor":"030130326205","target":"present","response":"present","rt":"4218.1000000015","correct":true,"confidence":3},{"trial_n":126,"span":13,"encoder":"1333873340798","distractor":"0333873340798","target":"present","response":"absent","rt":"5098.3999999985","correct":false,"confidence":3},{"trial_n":127,"span":12,"encoder":"347104995615","distractor":"347404995615","target":"absent","response":"present","rt":"3761.5","correct":false,"confidence":2},{"trial_n":128,"span":11,"encoder":"01393449131","distractor":"01393449136","target":"present","response":"absent","rt":"9523.3999999985","correct":false,"confidence":1},{"trial_n":129,"span":10,"encoder":"3398884320","distractor":"3398684320","target":"present","response":"absent","rt":"13357.399999999","correct":false,"confidence":3},{"trial_n":130,"span":9,"encoder":"969085264","distractor":"969085274","target":"present","response":"present","rt":"6863.5","correct":true,"confidence":3},{"trial_n":131,"span":9,"encoder":"381598269","distractor":"381598289","target":"present","response":"present","rt":"4072","correct":true,"confidence":2},{"trial_n":132,"span":10,"encoder":"8140541988","distractor":"8143541988","target":"absent","response":"present","rt":"4730","correct":false,"confidence":2},{"trial_n":133,"span":9,"encoder":"077186363","distractor":"077186364","target":"present","response":"present","rt":"4783.299999997","correct":true,"confidence":3},{"trial_n":134,"span":9,"encoder":"383009547","distractor":"353009547","target":"absent","response":"absent","rt":"9279.3999999985","correct":true,"confidence":5},{"trial_n":135,"span":10,"encoder":"3663951712","distractor":"3663953712","target":"present","response":"present","rt":"3279.8999999985","correct":true,"confidence":5},{"trial_n":136,"span":10,"encoder":"0740001553","distractor":"0749001553","target":"present","response":"absent","rt":"3315.6999999955","correct":false,"confidence":3},{"trial_n":137,"span":9,"encoder":"352357110","distractor":"352307110","target":"present","response":"present","rt":"5747.5","correct":true,"confidence":2},{"trial_n":138,"span":9,"encoder":"864795584","distractor":"864790584","target":"absent","response":"present","rt":"5880.3999999985","correct":false,"confidence":3},{"trial_n":139,"span":8,"encoder":"45500299","distractor":"45800299","target":"absent","response":"present","rt":"5510.5","correct":false,"confidence":3},{"trial_n":140,"span":7,"encoder":"6505865","distractor":"6505885","target":"absent","response":"present","rt":"3841.299999997","correct":false,"confidence":3}]