[{"trial_n":1,"min":25,"max":230,"target":"present","response":"absent","rt":3529.3000000119,"correct":false,"confidence":-1},{"trial_n":2,"min":25,"max":230,"target":"present","response":"present","rt":2847.7999999821,"correct":true,"confidence":-1},{"trial_n":3,"min":25,"max":230,"target":"absent","response":"present","rt":772.09999999404,"correct":false,"confidence":-1},{"trial_n":4,"min":9,"max":246,"target":"absent","response":"absent","rt":1120.1999999881,"correct":true,"confidence":-1},{"trial_n":5,"min":9,"max":246,"target":"present","response":"absent","rt":804.10000002384,"correct":false,"confidence":-1},{"trial_n":6,"min":0,"max":255,"target":"present","response":"present","rt":1465,"correct":true,"confidence":-1},{"trial_n":7,"min":0,"max":255,"target":"present","response":"present","rt":397643.29999998,"correct":true,"confidence":-1},{"trial_n":8,"min":16,"max":239,"target":"present","response":"present","rt":1909.1999999881,"correct":true,"confidence":-1},{"trial_n":9,"min":16,"max":239,"target":"absent","response":"present","rt":504.60000002384,"correct":false,"confidence":-1},{"trial_n":10,"min":0,"max":255,"target":"absent","response":"absent","rt":848.40000000596,"correct":true,"confidence":-1},{"trial_n":11,"min":0,"max":255,"target":"present","response":"absent","rt":557,"correct":false,"confidence":-1},{"trial_n":12,"min":0,"max":255,"target":"present","response":"present","rt":2800.099999994,"correct":true,"confidence":-1},{"trial_n":13,"min":0,"max":255,"target":"present","response":"present","rt":598.80000001192,"correct":true,"confidence":-1},{"trial_n":14,"min":8,"max":247,"target":"absent","response":"absent","rt":1017.8000000119,"correct":true,"confidence":-1},{"trial_n":15,"min":8,"max":247,"target":"present","response":"present","rt":758.39999997616,"correct":true,"confidence":-1},{"trial_n":16,"min":16,"max":239,"target":"present","response":"present","rt":756.90000000596,"correct":true,"confidence":-1},{"trial_n":17,"min":16,"max":239,"target":"absent","response":"absent","rt":953.29999998212,"correct":true,"confidence":-1},{"trial_n":18,"min":24,"max":231,"target":"present","response":"present","rt":906.5,"correct":true,"confidence":-1},{"trial_n":19,"min":24,"max":231,"target":"present","response":"present","rt":765.79999998212,"correct":true,"confidence":-1},{"trial_n":20,"min":32,"max":223,"target":"absent","response":"absent","rt":868.69999998808,"correct":true,"confidence":-1},{"trial_n":21,"min":32,"max":223,"target":"absent","response":"absent","rt":944,"correct":true,"confidence":5},{"trial_n":22,"min":36,"max":219,"target":"present","response":"present","rt":960.59999999404,"correct":true,"confidence":5},{"trial_n":23,"min":36,"max":219,"target":"present","response":"present","rt":1477.8000000119,"correct":true,"confidence":5},{"trial_n":24,"min":40,"max":215,"target":"absent","response":"absent","rt":784.69999998808,"correct":true,"confidence":5},{"trial_n":25,"min":40,"max":215,"target":"absent","response":"absent","rt":916.60000002384,"correct":true,"confidence":5},{"trial_n":26,"min":44,"max":211,"target":"absent","response":"absent","rt":1289.1999999881,"correct":true,"confidence":5},{"trial_n":27,"min":44,"max":211,"target":"absent","response":"absent","rt":803,"correct":true,"confidence":5},{"trial_n":28,"min":48,"max":207,"target":"absent","response":"absent","rt":958.29999998212,"correct":true,"confidence":5},{"trial_n":29,"min":48,"max":207,"target":"absent","response":"absent","rt":1119.3999999762,"correct":true,"confidence":5},{"trial_n":30,"min":52,"max":203,"target":"present","response":"present","rt":992.79999998212,"correct":true,"confidence":5},{"trial_n":31,"min":52,"max":203,"target":"present","response":"present","rt":961.60000002384,"correct":true,"confidence":5},{"trial_n":32,"min":54,"max":201,"target":"present","response":"present","rt":1396.599999994,"correct":true,"confidence":5},{"trial_n":33,"min":54,"max":201,"target":"present","response":"present","rt":1202.099999994,"correct":true,"confidence":1},{"trial_n":34,"min":56,"max":199,"target":"present","response":"present","rt":971.5,"correct":true,"confidence":1},{"trial_n":35,"min":56,"max":199,"target":"present","response":"present","rt":1578.5,"correct":true,"confidence":5},{"trial_n":36,"min":58,"max":197,"target":"present","response":"present","rt":1580.400000006,"correct":true,"confidence":5},{"trial_n":37,"min":58,"max":197,"target":"absent","response":"absent","rt":862.19999998808,"correct":true,"confidence":5},{"trial_n":38,"min":60,"max":195,"target":"absent","response":"absent","rt":916.10000002384,"correct":true,"confidence":5},{"trial_n":39,"min":60,"max":195,"target":"present","response":"present","rt":1410.6999999881,"correct":true,"confidence":5},{"trial_n":40,"min":62,"max":193,"target":"present","response":"present","rt":971.90000000596,"correct":true,"confidence":5},{"trial_n":41,"min":62,"max":193,"target":"absent","response":"absent","rt":1559.2999999821,"correct":true,"confidence":5},{"trial_n":42,"min":63,"max":192,"target":"absent","response":"absent","rt":575.5,"correct":true,"confidence":5},{"trial_n":43,"min":63,"max":192,"target":"present","response":"present","rt":1562,"correct":true,"confidence":5},{"trial_n":44,"min":64,"max":191,"target":"present","response":"present","rt":1124.2000000179,"correct":true,"confidence":5},{"trial_n":45,"min":64,"max":191,"target":"absent","response":"absent","rt":1055.599999994,"correct":true,"confidence":1},{"trial_n":46,"min":65,"max":190,"target":"absent","response":"absent","rt":1233.2000000179,"correct":true,"confidence":5},{"trial_n":47,"min":65,"max":190,"target":"present","response":"present","rt":1071.099999994,"correct":true,"confidence":5},{"trial_n":48,"min":66,"max":189,"target":"absent","response":"absent","rt":797.29999998212,"correct":true,"confidence":5},{"trial_n":49,"min":66,"max":189,"target":"present","response":"absent","rt":520.59999999404,"correct":false,"confidence":5},{"trial_n":50,"min":65,"max":190,"target":"absent","response":"absent","rt":658.59999999404,"correct":true,"confidence":5},{"trial_n":51,"min":65,"max":190,"target":"absent","response":"absent","rt":784.39999997616,"correct":true,"confidence":5},{"trial_n":52,"min":66,"max":189,"target":"absent","response":"absent","rt":462.10000002384,"correct":true,"confidence":5},{"trial_n":53,"min":66,"max":189,"target":"present","response":"present","rt":969.5,"correct":true,"confidence":5},{"trial_n":54,"min":67,"max":188,"target":"present","response":"present","rt":1208.599999994,"correct":true,"confidence":5},{"trial_n":55,"min":67,"max":188,"target":"present","response":"present","rt":1208.400000006,"correct":true,"confidence":5},{"trial_n":56,"min":68,"max":187,"target":"absent","response":"absent","rt":797.29999998212,"correct":true,"confidence":5},{"trial_n":57,"min":68,"max":187,"target":"absent","response":"absent","rt":687.29999998212,"correct":true,"confidence":5},{"trial_n":58,"min":69,"max":186,"target":"absent","response":"absent","rt":518.40000000596,"correct":true,"confidence":5},{"trial_n":59,"min":69,"max":186,"target":"absent","response":"absent","rt":311.19999998808,"correct":true,"confidence":5},{"trial_n":60,"min":70,"max":185,"target":"absent","response":"absent","rt":482.30000001192,"correct":true,"confidence":5},{"trial_n":61,"min":70,"max":185,"target":"present","response":"present","rt":1120.7999999821,"correct":true,"confidence":5},{"trial_n":62,"min":71,"max":184,"target":"absent","response":"absent","rt":1112.400000006,"correct":true,"confidence":5},{"trial_n":63,"min":71,"max":184,"target":"present","response":"present","rt":690.19999998808,"correct":true,"confidence":5},{"trial_n":64,"min":72,"max":183,"target":"absent","response":"absent","rt":1376.7999999821,"correct":true,"confidence":1},{"trial_n":65,"min":72,"max":183,"target":"present","response":"present","rt":1371.5,"correct":true,"confidence":5},{"trial_n":66,"min":73,"max":182,"target":"absent","response":"absent","rt":640.5,"correct":true,"confidence":5},{"trial_n":67,"min":73,"max":182,"target":"absent","response":"absent","rt":507.29999998212,"correct":true,"confidence":5},{"trial_n":68,"min":74,"max":181,"target":"present","response":"present","rt":839.39999997616,"correct":true,"confidence":5},{"trial_n":69,"min":74,"max":181,"target":"present","response":"absent","rt":879.89999997616,"correct":false,"confidence":5},{"trial_n":70,"min":73,"max":182,"target":"absent","response":"absent","rt":1121.5,"correct":true,"confidence":5},{"trial_n":71,"min":41,"max":214,"target":"present","response":"present","rt":2692.6999999881,"correct":true,"confidence":-1},{"trial_n":72,"min":41,"max":214,"target":"present","response":"present","rt":666.40000000596,"correct":true,"confidence":-1},{"trial_n":73,"min":57,"max":198,"target":"absent","response":"absent","rt":2573.6999999881,"correct":true,"confidence":-1},{"trial_n":74,"min":57,"max":198,"target":"absent","response":"absent","rt":711.20000001788,"correct":true,"confidence":-1},{"trial_n":75,"min":73,"max":182,"target":"present","response":"absent","rt":915.19999998808,"correct":false,"confidence":-1},{"trial_n":76,"min":57,"max":198,"target":"absent","response":"absent","rt":664.29999998212,"correct":true,"confidence":-1},{"trial_n":77,"min":57,"max":198,"target":"absent","response":"absent","rt":494.09999999404,"correct":true,"confidence":-1},{"trial_n":78,"min":73,"max":182,"target":"absent","response":"absent","rt":532.79999998212,"correct":true,"confidence":-1},{"trial_n":79,"min":73,"max":182,"target":"present","response":"present","rt":349.30000001192,"correct":true,"confidence":-1},{"trial_n":80,"min":89,"max":166,"target":"present","response":"present","rt":807.69999998808,"correct":true,"confidence":-1},{"trial_n":81,"min":89,"max":166,"target":"absent","response":"absent","rt":1221.1999999881,"correct":true,"confidence":-1},{"trial_n":82,"min":97,"max":158,"target":"present","response":"present","rt":479.5,"correct":true,"confidence":-1},{"trial_n":83,"min":97,"max":158,"target":"present","response":"present","rt":1409.1999999881,"correct":true,"confidence":-1},{"trial_n":84,"min":105,"max":150,"target":"absent","response":"present","rt":577.09999999404,"correct":false,"confidence":-1},{"trial_n":85,"min":97,"max":158,"target":"present","response":"absent","rt":550.80000001192,"correct":false,"confidence":-1},{"trial_n":86,"min":89,"max":166,"target":"present","response":"present","rt":620.5,"correct":true,"confidence":-1},{"trial_n":87,"min":89,"max":166,"target":"present","response":"present","rt":754.90000000596,"correct":true,"confidence":-1},{"trial_n":88,"min":97,"max":158,"target":"absent","response":"present","rt":465.5,"correct":false,"confidence":-1},{"trial_n":89,"min":89,"max":166,"target":"present","response":"absent","rt":688.40000000596,"correct":false,"confidence":-1},{"trial_n":90,"min":81,"max":174,"target":"present","response":"present","rt":691.19999998808,"correct":true,"confidence":-1},{"trial_n":91,"min":81,"max":174,"target":"absent","response":"present","rt":894.40000000596,"correct":false,"confidence":1},{"trial_n":92,"min":77,"max":178,"target":"absent","response":"absent","rt":748.5,"correct":true,"confidence":5},{"trial_n":93,"min":77,"max":178,"target":"absent","response":"present","rt":655,"correct":false,"confidence":4},{"trial_n":94,"min":73,"max":182,"target":"absent","response":"absent","rt":898.5,"correct":true,"confidence":5},{"trial_n":95,"min":73,"max":182,"target":"present","response":"present","rt":767.40000000596,"correct":true,"confidence":1},{"trial_n":96,"min":77,"max":178,"target":"absent","response":"absent","rt":956.79999998212,"correct":true,"confidence":1},{"trial_n":97,"min":77,"max":178,"target":"absent","response":"present","rt":522.20000001788,"correct":false,"confidence":4},{"trial_n":98,"min":73,"max":182,"target":"absent","response":"absent","rt":1989.8000000119,"correct":true,"confidence":3},{"trial_n":99,"min":73,"max":182,"target":"present","response":"present","rt":646.40000000596,"correct":true,"confidence":5},{"trial_n":100,"min":77,"max":178,"target":"present","response":"present","rt":584.19999998808,"correct":true,"confidence":5},{"trial_n":101,"min":77,"max":178,"target":"absent","response":"absent","rt":1541.599999994,"correct":true,"confidence":3},{"trial_n":102,"min":79,"max":176,"target":"absent","response":"present","rt":628.10000002384,"correct":false,"confidence":1},{"trial_n":103,"min":77,"max":178,"target":"present","response":"present","rt":577.70000001788,"correct":true,"confidence":5},{"trial_n":104,"min":77,"max":178,"target":"absent","response":"present","rt":673.20000001788,"correct":false,"confidence":2},{"trial_n":105,"min":75,"max":180,"target":"absent","response":"present","rt":961.09999999404,"correct":false,"confidence":1},{"trial_n":106,"min":73,"max":182,"target":"absent","response":"absent","rt":1066.6000000238,"correct":true,"confidence":3},{"trial_n":107,"min":73,"max":182,"target":"present","response":"present","rt":683.5,"correct":true,"confidence":1},{"trial_n":108,"min":75,"max":180,"target":"absent","response":"absent","rt":1565.1999999881,"correct":true,"confidence":3},{"trial_n":109,"min":75,"max":180,"target":"absent","response":"present","rt":879.69999998808,"correct":false,"confidence":1},{"trial_n":110,"min":73,"max":182,"target":"absent","response":"absent","rt":923.39999997616,"correct":true,"confidence":3},{"trial_n":111,"min":73,"max":182,"target":"present","response":"present","rt":609.90000000596,"correct":true,"confidence":5},{"trial_n":112,"min":74,"max":181,"target":"present","response":"present","rt":450.90000000596,"correct":true,"confidence":5},{"trial_n":113,"min":74,"max":181,"target":"present","response":"present","rt":286.09999999404,"correct":true,"confidence":1},{"trial_n":114,"min":75,"max":180,"target":"present","response":"present","rt":693.69999998808,"correct":true,"confidence":5},{"trial_n":115,"min":75,"max":180,"target":"absent","response":"absent","rt":884.59999999404,"correct":true,"confidence":1},{"trial_n":116,"min":76,"max":179,"target":"present","response":"present","rt":475.60000002384,"correct":true,"confidence":5},{"trial_n":117,"min":76,"max":179,"target":"present","response":"present","rt":428.5,"correct":true,"confidence":4},{"trial_n":118,"min":77,"max":178,"target":"present","response":"present","rt":644.09999999404,"correct":true,"confidence":4},{"trial_n":119,"min":77,"max":178,"target":"present","response":"present","rt":425.79999998212,"correct":true,"confidence":4},{"trial_n":120,"min":78,"max":177,"target":"absent","response":"absent","rt":1119.400000006,"correct":true,"confidence":4},{"trial_n":121,"min":78,"max":177,"target":"present","response":"present","rt":369.29999998212,"correct":true,"confidence":4},{"trial_n":122,"min":79,"max":176,"target":"present","response":"present","rt":567.29999998212,"correct":true,"confidence":1},{"trial_n":123,"min":79,"max":176,"target":"absent","response":"absent","rt":811.29999998212,"correct":true,"confidence":5},{"trial_n":124,"min":80,"max":175,"target":"absent","response":"absent","rt":825,"correct":true,"confidence":4},{"trial_n":125,"min":80,"max":175,"target":"absent","response":"present","rt":558.90000000596,"correct":false,"confidence":4},{"trial_n":126,"min":79,"max":176,"target":"present","response":"present","rt":247.30000001192,"correct":true,"confidence":2},{"trial_n":127,"min":79,"max":176,"target":"absent","response":"absent","rt":630,"correct":true,"confidence":1},{"trial_n":128,"min":80,"max":175,"target":"present","response":"present","rt":666.79999998212,"correct":true,"confidence":1},{"trial_n":129,"min":80,"max":175,"target":"present","response":"present","rt":2367.2999999821,"correct":true,"confidence":4},{"trial_n":130,"min":81,"max":174,"target":"absent","response":"present","rt":593.59999999404,"correct":false,"confidence":4},{"trial_n":131,"min":80,"max":175,"target":"absent","response":"present","rt":1930,"correct":false,"confidence":1},{"trial_n":132,"min":79,"max":176,"target":"present","response":"present","rt":424.59999999404,"correct":true,"confidence":4},{"trial_n":133,"min":79,"max":176,"target":"present","response":"present","rt":275.5,"correct":true,"confidence":4},{"trial_n":134,"min":80,"max":175,"target":"present","response":"present","rt":480.09999999404,"correct":true,"confidence":5},{"trial_n":135,"min":80,"max":175,"target":"absent","response":"absent","rt":2101.900000006,"correct":true,"confidence":1},{"trial_n":136,"min":81,"max":174,"target":"present","response":"present","rt":333.5,"correct":true,"confidence":4},{"trial_n":137,"min":81,"max":174,"target":"absent","response":"present","rt":883.20000001788,"correct":false,"confidence":3},{"trial_n":138,"min":80,"max":175,"target":"present","response":"present","rt":252.90000000596,"correct":true,"confidence":3},{"trial_n":139,"min":80,"max":175,"target":"absent","response":"present","rt":348.79999998212,"correct":false,"confidence":1},{"trial_n":140,"min":79,"max":176,"target":"present","response":"present","rt":413.60000002384,"correct":true,"confidence":4}]