[{"trial_n":1,"min":25,"max":230,"target":"present","response":"present","rt":2976,"correct":true,"confidence":-1},{"trial_n":2,"min":25,"max":230,"target":"present","response":"absent","rt":1309,"correct":false,"confidence":-1},{"trial_n":3,"min":9,"max":246,"target":"absent","response":"present","rt":2824,"correct":false,"confidence":-1},{"trial_n":4,"min":0,"max":255,"target":"absent","response":"present","rt":1640,"correct":false,"confidence":-1},{"trial_n":5,"min":0,"max":255,"target":"present","response":"absent","rt":3991,"correct":false,"confidence":-1},{"trial_n":6,"min":0,"max":255,"target":"present","response":"present","rt":715,"correct":true,"confidence":-1},{"trial_n":7,"min":0,"max":255,"target":"present","response":"present","rt":482,"correct":true,"confidence":-1},{"trial_n":8,"min":16,"max":239,"target":"present","response":"present","rt":319,"correct":true,"confidence":-1},{"trial_n":9,"min":16,"max":239,"target":"present","response":"present","rt":197,"correct":true,"confidence":-1},{"trial_n":10,"min":32,"max":223,"target":"absent","response":"absent","rt":337,"correct":true,"confidence":-1},{"trial_n":11,"min":32,"max":223,"target":"present","response":"absent","rt":332,"correct":false,"confidence":-1},{"trial_n":12,"min":24,"max":231,"target":"present","response":"present","rt":158,"correct":true,"confidence":-1},{"trial_n":13,"min":24,"max":231,"target":"present","response":"present","rt":401,"correct":true,"confidence":-1},{"trial_n":14,"min":32,"max":223,"target":"present","response":"present","rt":320,"correct":true,"confidence":-1},{"trial_n":15,"min":32,"max":223,"target":"absent","response":"absent","rt":531,"correct":true,"confidence":-1},{"trial_n":16,"min":40,"max":215,"target":"absent","response":"absent","rt":766,"correct":true,"confidence":-1},{"trial_n":17,"min":40,"max":215,"target":"absent","response":"absent","rt":421,"correct":true,"confidence":-1},{"trial_n":18,"min":48,"max":207,"target":"present","response":"present","rt":355,"correct":true,"confidence":-1},{"trial_n":19,"min":48,"max":207,"target":"absent","response":"absent","rt":407.00000000001,"correct":true,"confidence":-1},{"trial_n":20,"min":56,"max":199,"target":"present","response":"present","rt":494,"correct":true,"confidence":-1},{"trial_n":21,"min":56,"max":199,"target":"present","response":"present","rt":2503,"correct":true,"confidence":4},{"trial_n":22,"min":60,"max":195,"target":"present","response":"present","rt":1403,"correct":true,"confidence":4},{"trial_n":23,"min":60,"max":195,"target":"absent","response":"absent","rt":1641,"correct":true,"confidence":4},{"trial_n":24,"min":64,"max":191,"target":"absent","response":"absent","rt":884,"correct":true,"confidence":4},{"trial_n":25,"min":64,"max":191,"target":"present","response":"present","rt":1726,"correct":true,"confidence":2},{"trial_n":26,"min":68,"max":187,"target":"absent","response":"present","rt":1211,"correct":false,"confidence":3},{"trial_n":27,"min":64,"max":191,"target":"absent","response":"present","rt":1889,"correct":false,"confidence":3},{"trial_n":28,"min":60,"max":195,"target":"absent","response":"absent","rt":1149,"correct":true,"confidence":4},{"trial_n":29,"min":60,"max":195,"target":"absent","response":"present","rt":958.99999999999,"correct":false,"confidence":3},{"trial_n":30,"min":56,"max":199,"target":"absent","response":"present","rt":814,"correct":false,"confidence":3},{"trial_n":31,"min":54,"max":201,"target":"present","response":"present","rt":1538,"correct":true,"confidence":4},{"trial_n":32,"min":54,"max":201,"target":"present","response":"present","rt":4561,"correct":true,"confidence":5},{"trial_n":33,"min":56,"max":199,"target":"absent","response":"absent","rt":1907,"correct":true,"confidence":5},{"trial_n":34,"min":56,"max":199,"target":"absent","response":"present","rt":3050,"correct":false,"confidence":1},{"trial_n":35,"min":54,"max":201,"target":"absent","response":"present","rt":4583,"correct":false,"confidence":1},{"trial_n":36,"min":52,"max":203,"target":"absent","response":"absent","rt":1831,"correct":true,"confidence":1},{"trial_n":37,"min":52,"max":203,"target":"absent","response":"absent","rt":1925,"correct":true,"confidence":1},{"trial_n":38,"min":54,"max":201,"target":"absent","response":"absent","rt":2822,"correct":true,"confidence":1},{"trial_n":39,"min":54,"max":201,"target":"present","response":"present","rt":1095,"correct":true,"confidence":5},{"trial_n":40,"min":56,"max":199,"target":"absent","response":"absent","rt":1235,"correct":true,"confidence":5},{"trial_n":41,"min":56,"max":199,"target":"absent","response":"absent","rt":1369,"correct":true,"confidence":1},{"trial_n":42,"min":57,"max":198,"target":"present","response":"present","rt":958,"correct":true,"confidence":5},{"trial_n":43,"min":57,"max":198,"target":"present","response":"present","rt":877,"correct":true,"confidence":5},{"trial_n":44,"min":58,"max":197,"target":"absent","response":"absent","rt":1301,"correct":true,"confidence":5},{"trial_n":45,"min":58,"max":197,"target":"absent","response":"absent","rt":913,"correct":true,"confidence":5},{"trial_n":46,"min":59,"max":196,"target":"present","response":"present","rt":735,"correct":true,"confidence":5},{"trial_n":47,"min":59,"max":196,"target":"present","response":"present","rt":1077,"correct":true,"confidence":5},{"trial_n":48,"min":60,"max":195,"target":"present","response":"present","rt":788.00000000003,"correct":true,"confidence":5},{"trial_n":49,"min":60,"max":195,"target":"present","response":"present","rt":658.00000000003,"correct":true,"confidence":5},{"trial_n":50,"min":61,"max":194,"target":"present","response":"present","rt":519,"correct":true,"confidence":5},{"trial_n":51,"min":61,"max":194,"target":"present","response":"present","rt":2591,"correct":true,"confidence":5},{"trial_n":52,"min":62,"max":193,"target":"absent","response":"absent","rt":1448,"correct":true,"confidence":5},{"trial_n":53,"min":62,"max":193,"target":"present","response":"present","rt":865,"correct":true,"confidence":5},{"trial_n":54,"min":63,"max":192,"target":"present","response":"present","rt":717,"correct":true,"confidence":5},{"trial_n":55,"min":63,"max":192,"target":"absent","response":"absent","rt":1316,"correct":true,"confidence":5},{"trial_n":56,"min":64,"max":191,"target":"present","response":"present","rt":747,"correct":true,"confidence":5},{"trial_n":57,"min":64,"max":191,"target":"absent","response":"absent","rt":1194,"correct":true,"confidence":5},{"trial_n":58,"min":65,"max":190,"target":"absent","response":"absent","rt":1249,"correct":true,"confidence":5},{"trial_n":59,"min":65,"max":190,"target":"absent","response":"absent","rt":1542,"correct":true,"confidence":5},{"trial_n":60,"min":66,"max":189,"target":"present","response":"present","rt":708,"correct":true,"confidence":5},{"trial_n":61,"min":66,"max":189,"target":"absent","response":"absent","rt":888,"correct":true,"confidence":5},{"trial_n":62,"min":67,"max":188,"target":"absent","response":"absent","rt":813,"correct":true,"confidence":5},{"trial_n":63,"min":67,"max":188,"target":"absent","response":"absent","rt":902,"correct":true,"confidence":5},{"trial_n":64,"min":68,"max":187,"target":"present","response":"present","rt":761,"correct":true,"confidence":5},{"trial_n":65,"min":68,"max":187,"target":"present","response":"present","rt":794,"correct":true,"confidence":5},{"trial_n":66,"min":69,"max":186,"target":"present","response":"present","rt":659.99999999997,"correct":true,"confidence":5},{"trial_n":67,"min":69,"max":186,"target":"present","response":"present","rt":780.00000000003,"correct":true,"confidence":5},{"trial_n":68,"min":70,"max":185,"target":"present","response":"present","rt":744,"correct":true,"confidence":5},{"trial_n":69,"min":70,"max":185,"target":"absent","response":"absent","rt":928,"correct":true,"confidence":5},{"trial_n":70,"min":71,"max":184,"target":"absent","response":"absent","rt":759,"correct":true,"confidence":5},{"trial_n":71,"min":41,"max":214,"target":"present","response":"absent","rt":4457,"correct":false,"confidence":-1},{"trial_n":72,"min":41,"max":214,"target":"present","response":"present","rt":1215,"correct":true,"confidence":-1},{"trial_n":73,"min":41,"max":214,"target":"absent","response":"absent","rt":701,"correct":true,"confidence":-1},{"trial_n":74,"min":57,"max":198,"target":"absent","response":"absent","rt":396,"correct":true,"confidence":-1},{"trial_n":75,"min":57,"max":198,"target":"present","response":"present","rt":868,"correct":true,"confidence":-1},{"trial_n":76,"min":73,"max":182,"target":"absent","response":"absent","rt":405.00000000006,"correct":true,"confidence":-1},{"trial_n":77,"min":73,"max":182,"target":"absent","response":"absent","rt":771,"correct":true,"confidence":-1},{"trial_n":78,"min":89,"max":166,"target":"absent","response":"present","rt":799,"correct":false,"confidence":-1},{"trial_n":79,"min":73,"max":182,"target":"present","response":"absent","rt":105.99999999994,"correct":false,"confidence":-1},{"trial_n":80,"min":57,"max":198,"target":"absent","response":"present","rt":123,"correct":false,"confidence":-1},{"trial_n":81,"min":49,"max":206,"target":"absent","response":"absent","rt":-33,"correct":true,"confidence":-1},{"trial_n":82,"min":49,"max":206,"target":"present","response":"present","rt":28,"correct":true,"confidence":-1},{"trial_n":83,"min":57,"max":198,"target":"absent","response":"absent","rt":58,"correct":true,"confidence":-1},{"trial_n":84,"min":57,"max":198,"target":"absent","response":"present","rt":251,"correct":false,"confidence":-1},{"trial_n":85,"min":49,"max":206,"target":"absent","response":"absent","rt":249.00000000006,"correct":true,"confidence":-1},{"trial_n":86,"min":49,"max":206,"target":"absent","response":"present","rt":207,"correct":false,"confidence":-1},{"trial_n":87,"min":41,"max":214,"target":"absent","response":"absent","rt":12,"correct":true,"confidence":-1},{"trial_n":88,"min":41,"max":214,"target":"absent","response":"absent","rt":49,"correct":true,"confidence":-1},{"trial_n":89,"min":49,"max":206,"target":"absent","response":"absent","rt":165,"correct":true,"confidence":-1},{"trial_n":90,"min":49,"max":206,"target":"present","response":"present","rt":666,"correct":true,"confidence":-1},{"trial_n":91,"min":53,"max":202,"target":"present","response":"absent","rt":1781.9999999999,"correct":false,"confidence":5},{"trial_n":92,"min":49,"max":206,"target":"absent","response":"absent","rt":967.00000000006,"correct":true,"confidence":5},{"trial_n":93,"min":49,"max":206,"target":"present","response":"absent","rt":424,"correct":false,"confidence":1},{"trial_n":94,"min":45,"max":210,"target":"absent","response":"absent","rt":991.99999999994,"correct":true,"confidence":5},{"trial_n":95,"min":45,"max":210,"target":"absent","response":"absent","rt":857,"correct":true,"confidence":5},{"trial_n":96,"min":49,"max":206,"target":"absent","response":"absent","rt":775,"correct":true,"confidence":5},{"trial_n":97,"min":49,"max":206,"target":"absent","response":"absent","rt":744.99999999994,"correct":true,"confidence":5},{"trial_n":98,"min":53,"max":202,"target":"present","response":"present","rt":425,"correct":true,"confidence":5},{"trial_n":99,"min":53,"max":202,"target":"present","response":"present","rt":590,"correct":true,"confidence":5},{"trial_n":100,"min":57,"max":198,"target":"absent","response":"absent","rt":806,"correct":true,"confidence":5},{"trial_n":101,"min":57,"max":198,"target":"present","response":"present","rt":827.99999999994,"correct":true,"confidence":5},{"trial_n":102,"min":59,"max":196,"target":"absent","response":"absent","rt":777.99999999994,"correct":true,"confidence":5},{"trial_n":103,"min":59,"max":196,"target":"present","response":"present","rt":679,"correct":true,"confidence":5},{"trial_n":104,"min":61,"max":194,"target":"present","response":"present","rt":900.00000000006,"correct":true,"confidence":5},{"trial_n":105,"min":61,"max":194,"target":"present","response":"present","rt":590.99999999994,"correct":true,"confidence":5},{"trial_n":106,"min":63,"max":192,"target":"present","response":"present","rt":891,"correct":true,"confidence":5},{"trial_n":107,"min":63,"max":192,"target":"absent","response":"absent","rt":591,"correct":true,"confidence":5},{"trial_n":108,"min":65,"max":190,"target":"absent","response":"absent","rt":583,"correct":true,"confidence":5},{"trial_n":109,"min":65,"max":190,"target":"present","response":"present","rt":394,"correct":true,"confidence":5},{"trial_n":110,"min":67,"max":188,"target":"present","response":"present","rt":250,"correct":true,"confidence":5},{"trial_n":111,"min":67,"max":188,"target":"present","response":"present","rt":5339,"correct":true,"confidence":5},{"trial_n":112,"min":68,"max":187,"target":"present","response":"absent","rt":2512,"correct":false,"confidence":1},{"trial_n":113,"min":67,"max":188,"target":"absent","response":"absent","rt":934,"correct":true,"confidence":5},{"trial_n":114,"min":67,"max":188,"target":"present","response":"present","rt":305.99999999994,"correct":true,"confidence":5},{"trial_n":115,"min":68,"max":187,"target":"absent","response":"present","rt":654,"correct":false,"confidence":1},{"trial_n":116,"min":67,"max":188,"target":"absent","response":"absent","rt":1094,"correct":true,"confidence":1},{"trial_n":117,"min":67,"max":188,"target":"present","response":"present","rt":232,"correct":true,"confidence":5},{"trial_n":118,"min":68,"max":187,"target":"present","response":"present","rt":986,"correct":true,"confidence":5},{"trial_n":119,"min":68,"max":187,"target":"present","response":"present","rt":762.99999999994,"correct":true,"confidence":5},{"trial_n":120,"min":69,"max":186,"target":"present","response":"absent","rt":820.00000000006,"correct":false,"confidence":5},{"trial_n":121,"min":68,"max":187,"target":"absent","response":"absent","rt":1078.0000000001,"correct":true,"confidence":1},{"trial_n":122,"min":68,"max":187,"target":"present","response":"present","rt":868,"correct":true,"confidence":1},{"trial_n":123,"min":69,"max":186,"target":"absent","response":"absent","rt":777,"correct":true,"confidence":1},{"trial_n":124,"min":69,"max":186,"target":"present","response":"present","rt":658,"correct":true,"confidence":5},{"trial_n":125,"min":70,"max":185,"target":"absent","response":"absent","rt":813,"correct":true,"confidence":5},{"trial_n":126,"min":70,"max":185,"target":"present","response":"present","rt":686.00000000006,"correct":true,"confidence":5},{"trial_n":127,"min":71,"max":184,"target":"present","response":"present","rt":756.00000000006,"correct":true,"confidence":5},{"trial_n":128,"min":71,"max":184,"target":"present","response":"present","rt":757.99999999994,"correct":true,"confidence":5},{"trial_n":129,"min":72,"max":183,"target":"present","response":"present","rt":756,"correct":true,"confidence":5},{"trial_n":130,"min":72,"max":183,"target":"present","response":"present","rt":907,"correct":true,"confidence":5},{"trial_n":131,"min":73,"max":182,"target":"absent","response":"absent","rt":1177,"correct":true,"confidence":1},{"trial_n":132,"min":73,"max":182,"target":"present","response":"present","rt":846,"correct":true,"confidence":5},{"trial_n":133,"min":74,"max":181,"target":"present","response":"present","rt":712.00000000006,"correct":true,"confidence":5},{"trial_n":134,"min":74,"max":181,"target":"present","response":"present","rt":646.00000000006,"correct":true,"confidence":5},{"trial_n":135,"min":75,"max":180,"target":"present","response":"present","rt":715.00000000006,"correct":true,"confidence":5},{"trial_n":136,"min":75,"max":180,"target":"present","response":"present","rt":493.99999999994,"correct":true,"confidence":5},{"trial_n":137,"min":76,"max":179,"target":"absent","response":"absent","rt":778,"correct":true,"confidence":5},{"trial_n":138,"min":76,"max":179,"target":"absent","response":"present","rt":1209.9999999999,"correct":false,"confidence":1},{"trial_n":139,"min":75,"max":180,"target":"absent","response":"absent","rt":923,"correct":true,"confidence":5},{"trial_n":140,"min":75,"max":180,"target":"absent","response":"present","rt":1177,"correct":false,"confidence":1}]