[{"trial_n":1,"min":25,"max":230,"target":"present","response":"absent","rt":16050.200000003,"correct":false,"confidence":-1},{"trial_n":2,"min":25,"max":230,"target":"present","response":"present","rt":1469.5,"correct":true,"confidence":-1},{"trial_n":3,"min":25,"max":230,"target":"absent","response":"present","rt":3554.299999997,"correct":false,"confidence":-1},{"trial_n":4,"min":9,"max":246,"target":"absent","response":"absent","rt":2448,"correct":true,"confidence":-1},{"trial_n":5,"min":9,"max":246,"target":"present","response":"present","rt":757.39999999851,"correct":true,"confidence":-1},{"trial_n":6,"min":25,"max":230,"target":"present","response":"present","rt":667.20000000298,"correct":true,"confidence":-1},{"trial_n":7,"min":25,"max":230,"target":"absent","response":"absent","rt":542.10000000149,"correct":true,"confidence":-1},{"trial_n":8,"min":41,"max":214,"target":"present","response":"present","rt":390.09999999404,"correct":true,"confidence":-1},{"trial_n":9,"min":41,"max":214,"target":"absent","response":"absent","rt":461,"correct":true,"confidence":-1},{"trial_n":10,"min":57,"max":198,"target":"absent","response":"absent","rt":349.40000000596,"correct":true,"confidence":-1},{"trial_n":11,"min":57,"max":198,"target":"absent","response":"absent","rt":393.20000000298,"correct":true,"confidence":-1},{"trial_n":12,"min":65,"max":190,"target":"absent","response":"present","rt":929.89999999851,"correct":false,"confidence":-1},{"trial_n":13,"min":57,"max":198,"target":"present","response":"present","rt":653.79999999702,"correct":true,"confidence":-1},{"trial_n":14,"min":57,"max":198,"target":"present","response":"present","rt":482.19999999553,"correct":true,"confidence":-1},{"trial_n":15,"min":65,"max":190,"target":"present","response":"present","rt":668.5,"correct":true,"confidence":-1},{"trial_n":16,"min":65,"max":190,"target":"present","response":"present","rt":803.79999999702,"correct":true,"confidence":-1},{"trial_n":17,"min":73,"max":182,"target":"absent","response":"absent","rt":489.5,"correct":true,"confidence":-1},{"trial_n":18,"min":73,"max":182,"target":"absent","response":"absent","rt":483.79999999702,"correct":true,"confidence":-1},{"trial_n":19,"min":81,"max":174,"target":"present","response":"present","rt":467.70000000298,"correct":true,"confidence":-1},{"trial_n":20,"min":81,"max":174,"target":"present","response":"absent","rt":548.89999999851,"correct":false,"confidence":-1},{"trial_n":21,"min":77,"max":178,"target":"present","response":"present","rt":455.59999999404,"correct":true,"confidence":3},{"trial_n":22,"min":77,"max":178,"target":"present","response":"absent","rt":883,"correct":false,"confidence":2},{"trial_n":23,"min":73,"max":182,"target":"absent","response":"absent","rt":2096.5,"correct":true,"confidence":4},{"trial_n":24,"min":73,"max":182,"target":"present","response":"present","rt":687.69999999553,"correct":true,"confidence":4},{"trial_n":25,"min":77,"max":178,"target":"present","response":"absent","rt":808.70000000298,"correct":false,"confidence":4},{"trial_n":26,"min":73,"max":182,"target":"present","response":"absent","rt":1114.8999999985,"correct":false,"confidence":4},{"trial_n":27,"min":69,"max":186,"target":"present","response":"present","rt":2055.5,"correct":true,"confidence":4},{"trial_n":28,"min":69,"max":186,"target":"present","response":"present","rt":1113.6000000015,"correct":true,"confidence":4},{"trial_n":29,"min":73,"max":182,"target":"present","response":"present","rt":1314.6000000015,"correct":true,"confidence":4},{"trial_n":30,"min":73,"max":182,"target":"present","response":"present","rt":796.60000000149,"correct":true,"confidence":4},{"trial_n":31,"min":75,"max":180,"target":"present","response":"present","rt":1144.799999997,"correct":true,"confidence":4},{"trial_n":32,"min":75,"max":180,"target":"absent","response":"present","rt":1976.5,"correct":false,"confidence":4},{"trial_n":33,"min":73,"max":182,"target":"absent","response":"absent","rt":473.19999999553,"correct":true,"confidence":5},{"trial_n":34,"min":73,"max":182,"target":"absent","response":"present","rt":1342.1000000015,"correct":false,"confidence":4},{"trial_n":35,"min":71,"max":184,"target":"absent","response":"absent","rt":681.89999999851,"correct":true,"confidence":4},{"trial_n":36,"min":71,"max":184,"target":"absent","response":"absent","rt":642.59999999404,"correct":true,"confidence":4},{"trial_n":37,"min":73,"max":182,"target":"present","response":"present","rt":948.30000000447,"correct":true,"confidence":1},{"trial_n":38,"min":73,"max":182,"target":"present","response":"present","rt":1660.099999994,"correct":true,"confidence":2},{"trial_n":39,"min":75,"max":180,"target":"present","response":"present","rt":593.39999999851,"correct":true,"confidence":5},{"trial_n":40,"min":75,"max":180,"target":"present","response":"present","rt":762.90000000596,"correct":true,"confidence":4},{"trial_n":41,"min":76,"max":179,"target":"present","response":"present","rt":767.39999999851,"correct":true,"confidence":5},{"trial_n":42,"min":76,"max":179,"target":"absent","response":"absent","rt":561.10000000149,"correct":true,"confidence":4},{"trial_n":43,"min":77,"max":178,"target":"absent","response":"absent","rt":768.29999999702,"correct":true,"confidence":4},{"trial_n":44,"min":77,"max":178,"target":"absent","response":"present","rt":4216.5,"correct":false,"confidence":4},{"trial_n":45,"min":76,"max":179,"target":"absent","response":"absent","rt":668.40000000596,"correct":true,"confidence":3},{"trial_n":46,"min":76,"max":179,"target":"present","response":"absent","rt":942.5,"correct":false,"confidence":4},{"trial_n":47,"min":75,"max":180,"target":"absent","response":"absent","rt":635.69999999553,"correct":true,"confidence":4},{"trial_n":48,"min":75,"max":180,"target":"present","response":"present","rt":669.20000000298,"correct":true,"confidence":5},{"trial_n":49,"min":76,"max":179,"target":"absent","response":"absent","rt":854.39999999851,"correct":true,"confidence":3},{"trial_n":50,"min":76,"max":179,"target":"present","response":"present","rt":1292.6000000015,"correct":true,"confidence":4},{"trial_n":51,"min":77,"max":178,"target":"present","response":"present","rt":811,"correct":true,"confidence":3},{"trial_n":52,"min":77,"max":178,"target":"present","response":"present","rt":874.5,"correct":true,"confidence":5},{"trial_n":53,"min":78,"max":177,"target":"present","response":"absent","rt":570.70000000298,"correct":false,"confidence":3},{"trial_n":54,"min":77,"max":178,"target":"present","response":"present","rt":1168.8999999985,"correct":true,"confidence":5},{"trial_n":55,"min":77,"max":178,"target":"absent","response":"absent","rt":2863.299999997,"correct":true,"confidence":2},{"trial_n":56,"min":78,"max":177,"target":"absent","response":"absent","rt":1291.1999999955,"correct":true,"confidence":2},{"trial_n":57,"min":78,"max":177,"target":"absent","response":"absent","rt":3265.8000000045,"correct":true,"confidence":5},{"trial_n":58,"min":79,"max":176,"target":"absent","response":"absent","rt":1656.700000003,"correct":true,"confidence":5},{"trial_n":59,"min":79,"max":176,"target":"absent","response":"present","rt":3388.8999999985,"correct":false,"confidence":1},{"trial_n":60,"min":78,"max":177,"target":"present","response":"absent","rt":6484.3999999985,"correct":false,"confidence":1},{"trial_n":61,"min":77,"max":178,"target":"absent","response":"present","rt":1120.8999999985,"correct":false,"confidence":3},{"trial_n":62,"min":76,"max":179,"target":"absent","response":"absent","rt":795.80000000447,"correct":true,"confidence":5},{"trial_n":63,"min":76,"max":179,"target":"present","response":"present","rt":1403.6000000015,"correct":true,"confidence":2},{"trial_n":64,"min":77,"max":178,"target":"absent","response":"absent","rt":4863.6999999955,"correct":true,"confidence":1},{"trial_n":65,"min":77,"max":178,"target":"absent","response":"absent","rt":1704.6000000015,"correct":true,"confidence":3},{"trial_n":66,"min":78,"max":177,"target":"absent","response":"absent","rt":1304.1000000015,"correct":true,"confidence":3},{"trial_n":67,"min":78,"max":177,"target":"present","response":"present","rt":1989.5,"correct":true,"confidence":3},{"trial_n":68,"min":79,"max":176,"target":"absent","response":"absent","rt":3997.3000000045,"correct":true,"confidence":1},{"trial_n":69,"min":79,"max":176,"target":"absent","response":"present","rt":1166,"correct":false,"confidence":3},{"trial_n":70,"min":78,"max":177,"target":"absent","response":"absent","rt":777.19999999553,"correct":true,"confidence":3},{"trial_n":71,"min":41,"max":214,"target":"present","response":"present","rt":5351.299999997,"correct":true,"confidence":-1},{"trial_n":72,"min":41,"max":214,"target":"present","response":"present","rt":1179.1999999955,"correct":true,"confidence":-1},{"trial_n":73,"min":57,"max":198,"target":"absent","response":"absent","rt":755,"correct":true,"confidence":-1},{"trial_n":74,"min":57,"max":198,"target":"absent","response":"absent","rt":560.20000000298,"correct":true,"confidence":-1},{"trial_n":75,"min":73,"max":182,"target":"present","response":"present","rt":534.79999999702,"correct":true,"confidence":-1},{"trial_n":76,"min":73,"max":182,"target":"present","response":"present","rt":458.10000000149,"correct":true,"confidence":-1},{"trial_n":77,"min":89,"max":166,"target":"present","response":"present","rt":905.60000000149,"correct":true,"confidence":-1},{"trial_n":78,"min":89,"max":166,"target":"present","response":"present","rt":610.89999999851,"correct":true,"confidence":-1},{"trial_n":79,"min":105,"max":150,"target":"absent","response":"absent","rt":2571.8999999985,"correct":true,"confidence":-1},{"trial_n":80,"min":105,"max":150,"target":"present","response":"present","rt":1624.799999997,"correct":true,"confidence":-1},{"trial_n":81,"min":113,"max":142,"target":"present","response":"present","rt":570.89999999851,"correct":true,"confidence":-1},{"trial_n":82,"min":113,"max":142,"target":"absent","response":"present","rt":871.5,"correct":false,"confidence":-1},{"trial_n":83,"min":105,"max":150,"target":"present","response":"present","rt":1923.200000003,"correct":true,"confidence":-1},{"trial_n":84,"min":105,"max":150,"target":"absent","response":"absent","rt":981.79999999702,"correct":true,"confidence":-1},{"trial_n":85,"min":113,"max":142,"target":"absent","response":"absent","rt":899.90000000596,"correct":true,"confidence":-1},{"trial_n":86,"min":113,"max":142,"target":"present","response":"absent","rt":1344.8999999985,"correct":false,"confidence":-1},{"trial_n":87,"min":105,"max":150,"target":"present","response":"present","rt":757.70000000298,"correct":true,"confidence":-1},{"trial_n":88,"min":105,"max":150,"target":"present","response":"present","rt":467.10000000149,"correct":true,"confidence":-1},{"trial_n":89,"min":113,"max":142,"target":"absent","response":"present","rt":410.39999999851,"correct":false,"confidence":-1},{"trial_n":90,"min":105,"max":150,"target":"absent","response":"absent","rt":629.60000000149,"correct":true,"confidence":-1},{"trial_n":91,"min":105,"max":150,"target":"absent","response":"absent","rt":1286.6000000015,"correct":true,"confidence":2},{"trial_n":92,"min":109,"max":146,"target":"absent","response":"present","rt":535.29999999702,"correct":false,"confidence":5},{"trial_n":93,"min":105,"max":150,"target":"absent","response":"present","rt":925.39999999851,"correct":false,"confidence":3},{"trial_n":94,"min":101,"max":154,"target":"absent","response":"present","rt":234.39999999851,"correct":false,"confidence":5},{"trial_n":95,"min":97,"max":158,"target":"present","response":"present","rt":2245.3999999985,"correct":true,"confidence":2},{"trial_n":96,"min":97,"max":158,"target":"absent","response":"present","rt":230.29999999702,"correct":false,"confidence":5},{"trial_n":97,"min":93,"max":162,"target":"absent","response":"absent","rt":873.30000000447,"correct":true,"confidence":2},{"trial_n":98,"min":93,"max":162,"target":"present","response":"present","rt":1763.3999999985,"correct":true,"confidence":2},{"trial_n":99,"min":97,"max":158,"target":"present","response":"present","rt":498.69999999553,"correct":true,"confidence":5},{"trial_n":100,"min":97,"max":158,"target":"present","response":"absent","rt":1490.8999999985,"correct":false,"confidence":3},{"trial_n":101,"min":95,"max":160,"target":"present","response":"present","rt":216.89999999851,"correct":true,"confidence":5},{"trial_n":102,"min":95,"max":160,"target":"absent","response":"absent","rt":3694,"correct":true,"confidence":2},{"trial_n":103,"min":97,"max":158,"target":"present","response":"absent","rt":2176.700000003,"correct":false,"confidence":2},{"trial_n":104,"min":95,"max":160,"target":"absent","response":"present","rt":313.5,"correct":false,"confidence":5},{"trial_n":105,"min":93,"max":162,"target":"present","response":"absent","rt":1633.700000003,"correct":false,"confidence":4},{"trial_n":106,"min":91,"max":164,"target":"present","response":"absent","rt":682.10000000149,"correct":false,"confidence":2},{"trial_n":107,"min":89,"max":166,"target":"present","response":"present","rt":453.5,"correct":true,"confidence":2},{"trial_n":108,"min":89,"max":166,"target":"absent","response":"absent","rt":1075.799999997,"correct":true,"confidence":5},{"trial_n":109,"min":91,"max":164,"target":"absent","response":"present","rt":475.60000000149,"correct":false,"confidence":5},{"trial_n":110,"min":89,"max":166,"target":"absent","response":"absent","rt":2731.8999999985,"correct":true,"confidence":3},{"trial_n":111,"min":89,"max":166,"target":"absent","response":"absent","rt":1644.5,"correct":true,"confidence":2},{"trial_n":112,"min":90,"max":165,"target":"present","response":"present","rt":233.39999999851,"correct":true,"confidence":5},{"trial_n":113,"min":90,"max":165,"target":"present","response":"present","rt":1355.6999999955,"correct":true,"confidence":3},{"trial_n":114,"min":91,"max":164,"target":"absent","response":"absent","rt":718.5,"correct":true,"confidence":2},{"trial_n":115,"min":91,"max":164,"target":"present","response":"present","rt":937.89999999851,"correct":true,"confidence":3},{"trial_n":116,"min":92,"max":163,"target":"present","response":"absent","rt":1013,"correct":false,"confidence":3},{"trial_n":117,"min":91,"max":164,"target":"absent","response":"absent","rt":1508.3000000045,"correct":true,"confidence":5},{"trial_n":118,"min":91,"max":164,"target":"absent","response":"absent","rt":2959.3999999985,"correct":true,"confidence":5},{"trial_n":119,"min":92,"max":163,"target":"absent","response":"absent","rt":1922.1999999955,"correct":true,"confidence":3},{"trial_n":120,"min":92,"max":163,"target":"present","response":"absent","rt":1997.5,"correct":false,"confidence":3},{"trial_n":121,"min":91,"max":164,"target":"present","response":"absent","rt":1249.200000003,"correct":false,"confidence":3},{"trial_n":122,"min":90,"max":165,"target":"absent","response":"absent","rt":838.20000000298,"correct":true,"confidence":2},{"trial_n":123,"min":90,"max":165,"target":"present","response":"absent","rt":816.69999999553,"correct":false,"confidence":2},{"trial_n":124,"min":89,"max":166,"target":"present","response":"absent","rt":1609.1000000015,"correct":false,"confidence":2},{"trial_n":125,"min":88,"max":167,"target":"present","response":"absent","rt":2750.3000000045,"correct":false,"confidence":2},{"trial_n":126,"min":87,"max":168,"target":"absent","response":"present","rt":355.90000000596,"correct":false,"confidence":5},{"trial_n":127,"min":86,"max":169,"target":"absent","response":"absent","rt":1476.6000000015,"correct":true,"confidence":5},{"trial_n":128,"min":86,"max":169,"target":"present","response":"present","rt":364.5,"correct":true,"confidence":5},{"trial_n":129,"min":87,"max":168,"target":"absent","response":"absent","rt":1051.299999997,"correct":true,"confidence":2},{"trial_n":130,"min":87,"max":168,"target":"present","response":"present","rt":251.10000000149,"correct":true,"confidence":5},{"trial_n":131,"min":88,"max":167,"target":"present","response":"absent","rt":1232.200000003,"correct":false,"confidence":2},{"trial_n":132,"min":87,"max":168,"target":"absent","response":"absent","rt":1041.799999997,"correct":true,"confidence":5},{"trial_n":133,"min":87,"max":168,"target":"absent","response":"present","rt":571.10000000149,"correct":false,"confidence":2},{"trial_n":134,"min":86,"max":169,"target":"absent","response":"absent","rt":1955.799999997,"correct":true,"confidence":3},{"trial_n":135,"min":86,"max":169,"target":"present","response":"present","rt":486.69999999553,"correct":true,"confidence":4},{"trial_n":136,"min":87,"max":168,"target":"absent","response":"present","rt":497.89999999851,"correct":false,"confidence":4},{"trial_n":137,"min":86,"max":169,"target":"absent","response":"absent","rt":931.80000000447,"correct":true,"confidence":3},{"trial_n":138,"min":86,"max":169,"target":"present","response":"present","rt":1963.700000003,"correct":true,"confidence":1},{"trial_n":139,"min":87,"max":168,"target":"present","response":"present","rt":231.70000000298,"correct":true,"confidence":4},{"trial_n":140,"min":87,"max":168,"target":"absent","response":"absent","rt":1237.8000000045,"correct":true,"confidence":2}]