[{"trial_n":1,"n_dots":4.25,"target":"left","response":"left","rt":1630.2000002861,"correct":true,"confidence":-1},{"trial_n":2,"n_dots":4.25,"target":"left","response":"right","rt":1876.9000000954,"correct":false,"confidence":-1},{"trial_n":3,"n_dots":4.65,"target":"right","response":"left","rt":895.40000009537,"correct":false,"confidence":-1},{"trial_n":4,"n_dots":5.05,"target":"right","response":"right","rt":763.80000019073,"correct":true,"confidence":-1},{"trial_n":5,"n_dots":5.05,"target":"right","response":"left","rt":372.90000009537,"correct":false,"confidence":-1},{"trial_n":6,"n_dots":5.45,"target":"right","response":"left","rt":374.40000009537,"correct":false,"confidence":-1},{"trial_n":7,"n_dots":5.743,"target":"left","response":"left","rt":337.59999990463,"correct":true,"confidence":-1},{"trial_n":8,"n_dots":5.743,"target":"left","response":"left","rt":726.09999990463,"correct":true,"confidence":-1},{"trial_n":9,"n_dots":5.543,"target":"right","response":"right","rt":1132.9000000954,"correct":true,"confidence":-1},{"trial_n":10,"n_dots":5.543,"target":"left","response":"left","rt":489.7999997139,"correct":true,"confidence":-1},{"trial_n":11,"n_dots":5.343,"target":"right","response":"right","rt":570,"correct":true,"confidence":-1},{"trial_n":12,"n_dots":5.343,"target":"left","response":"left","rt":671.5,"correct":true,"confidence":-1},{"trial_n":13,"n_dots":5.243,"target":"left","response":"left","rt":411.2999997139,"correct":true,"confidence":-1},{"trial_n":14,"n_dots":5.243,"target":"left","response":"left","rt":422.40000009537,"correct":true,"confidence":-1},{"trial_n":15,"n_dots":5.143,"target":"right","response":"right","rt":393.60000038147,"correct":true,"confidence":-1},{"trial_n":16,"n_dots":5.143,"target":"left","response":"left","rt":395.09999990463,"correct":true,"confidence":-1},{"trial_n":17,"n_dots":5.043,"target":"right","response":"right","rt":230.59999990463,"correct":true,"confidence":-1},{"trial_n":18,"n_dots":5.043,"target":"left","response":"left","rt":332.40000009537,"correct":true,"confidence":-1},{"trial_n":19,"n_dots":4.943,"target":"right","response":"right","rt":380.5,"correct":true,"confidence":-1},{"trial_n":20,"n_dots":4.943,"target":"left","response":"left","rt":180.2999997139,"correct":true,"confidence":-1},{"trial_n":21,"n_dots":4.843,"target":"right","response":"right","rt":211.40000009537,"correct":true,"confidence":3},{"trial_n":22,"n_dots":4.843,"target":"left","response":"left","rt":1983.3999996185,"correct":true,"confidence":1},{"trial_n":23,"n_dots":4.743,"target":"right","response":"right","rt":179.30000019073,"correct":true,"confidence":3},{"trial_n":24,"n_dots":4.743,"target":"right","response":"right","rt":282.5,"correct":true,"confidence":3},{"trial_n":25,"n_dots":4.643,"target":"right","response":"left","rt":1098.8000001907,"correct":false,"confidence":3},{"trial_n":26,"n_dots":4.743,"target":"right","response":"right","rt":443.80000019073,"correct":true,"confidence":4},{"trial_n":27,"n_dots":4.743,"target":"left","response":"left","rt":553.5,"correct":true,"confidence":3},{"trial_n":28,"n_dots":4.643,"target":"left","response":"left","rt":637.30000019073,"correct":true,"confidence":2},{"trial_n":29,"n_dots":4.643,"target":"left","response":"left","rt":1111.6000003815,"correct":true,"confidence":3},{"trial_n":30,"n_dots":4.543,"target":"left","response":"left","rt":472.39999961853,"correct":true,"confidence":3},{"trial_n":31,"n_dots":4.543,"target":"right","response":"right","rt":352.39999961853,"correct":true,"confidence":4},{"trial_n":32,"n_dots":4.443,"target":"left","response":"left","rt":263.59999990463,"correct":true,"confidence":2},{"trial_n":33,"n_dots":4.443,"target":"right","response":"right","rt":229,"correct":true,"confidence":3},{"trial_n":34,"n_dots":4.343,"target":"left","response":"left","rt":438.5,"correct":true,"confidence":3},{"trial_n":35,"n_dots":4.343,"target":"left","response":"left","rt":243.80000019073,"correct":true,"confidence":4},{"trial_n":36,"n_dots":4.243,"target":"left","response":"left","rt":396.5,"correct":true,"confidence":3},{"trial_n":37,"n_dots":4.243,"target":"right","response":"right","rt":167.90000009537,"correct":true,"confidence":4},{"trial_n":38,"n_dots":4.143,"target":"right","response":"left","rt":753.2999997139,"correct":false,"confidence":3},{"trial_n":39,"n_dots":4.243,"target":"left","response":"left","rt":280.7000002861,"correct":true,"confidence":2},{"trial_n":40,"n_dots":4.243,"target":"right","response":"right","rt":310.5,"correct":true,"confidence":3},{"trial_n":41,"n_dots":4.143,"target":"left","response":"left","rt":432.09999990463,"correct":true,"confidence":1},{"trial_n":42,"n_dots":4.143,"target":"left","response":"left","rt":619.5,"correct":true,"confidence":2},{"trial_n":43,"n_dots":4.043,"target":"left","response":"left","rt":202,"correct":true,"confidence":4},{"trial_n":44,"n_dots":4.043,"target":"left","response":"right","rt":351.09999990463,"correct":false,"confidence":1},{"trial_n":45,"n_dots":4.143,"target":"right","response":"right","rt":575.40000009537,"correct":true,"confidence":2},{"trial_n":46,"n_dots":4.143,"target":"right","response":"right","rt":285.19999980927,"correct":true,"confidence":4},{"trial_n":47,"n_dots":4.043,"target":"left","response":"left","rt":292.59999990463,"correct":true,"confidence":2},{"trial_n":48,"n_dots":4.043,"target":"right","response":"left","rt":69.5,"correct":false,"confidence":1},{"trial_n":49,"n_dots":4.143,"target":"left","response":"right","rt":553.7000002861,"correct":false,"confidence":2},{"trial_n":50,"n_dots":4.243,"target":"right","response":"left","rt":918.7000002861,"correct":false,"confidence":2},{"trial_n":51,"n_dots":4.343,"target":"right","response":"right","rt":253.90000009537,"correct":true,"confidence":3},{"trial_n":52,"n_dots":4.343,"target":"right","response":"left","rt":1293.0999999046,"correct":false,"confidence":2},{"trial_n":53,"n_dots":4.443,"target":"left","response":"right","rt":364.39999961853,"correct":false,"confidence":3},{"trial_n":54,"n_dots":4.543,"target":"right","response":"left","rt":793.19999980927,"correct":false,"confidence":2},{"trial_n":55,"n_dots":4.643,"target":"left","response":"left","rt":250.69999980927,"correct":true,"confidence":1},{"trial_n":56,"n_dots":4.643,"target":"left","response":"left","rt":613.09999990463,"correct":true,"confidence":3},{"trial_n":57,"n_dots":4.543,"target":"right","response":"right","rt":21.900000095367,"correct":true,"confidence":3},{"trial_n":58,"n_dots":4.543,"target":"right","response":"right","rt":46,"correct":true,"confidence":3},{"trial_n":59,"n_dots":4.443,"target":"right","response":"right","rt":289.09999990463,"correct":true,"confidence":3},{"trial_n":60,"n_dots":4.443,"target":"right","response":"right","rt":462.7999997139,"correct":true,"confidence":3},{"trial_n":61,"n_dots":4.343,"target":"right","response":"left","rt":487.90000009537,"correct":false,"confidence":3},{"trial_n":62,"n_dots":4.443,"target":"right","response":"left","rt":219,"correct":false,"confidence":3},{"trial_n":63,"n_dots":4.543,"target":"left","response":"left","rt":578.30000019073,"correct":true,"confidence":3},{"trial_n":64,"n_dots":4.543,"target":"left","response":"left","rt":335.19999980927,"correct":true,"confidence":2},{"trial_n":65,"n_dots":4.443,"target":"right","response":"right","rt":358.7999997139,"correct":true,"confidence":4},{"trial_n":66,"n_dots":4.443,"target":"right","response":"right","rt":126.19999980927,"correct":true,"confidence":4},{"trial_n":67,"n_dots":4.343,"target":"left","response":"left","rt":311.5,"correct":true,"confidence":4},{"trial_n":68,"n_dots":4.343,"target":"right","response":"right","rt":435.09999990463,"correct":true,"confidence":4},{"trial_n":69,"n_dots":4.243,"target":"left","response":"left","rt":337.2999997139,"correct":true,"confidence":3},{"trial_n":70,"n_dots":4.243,"target":"left","response":"left","rt":596.90000009537,"correct":true,"confidence":4},{"trial_n":71,"n_dots":4.143,"target":"right","response":"right","rt":162.80000019073,"correct":true,"confidence":3},{"trial_n":72,"n_dots":4.143,"target":"left","response":"left","rt":108,"correct":true,"confidence":3},{"trial_n":73,"n_dots":4.043,"target":"right","response":"right","rt":60.200000286102,"correct":true,"confidence":1},{"trial_n":74,"n_dots":4.043,"target":"left","response":"left","rt":39.099999904633,"correct":true,"confidence":3},{"trial_n":75,"n_dots":3.943,"target":"left","response":"left","rt":164.30000019073,"correct":true,"confidence":3},{"trial_n":76,"n_dots":3.943,"target":"right","response":"left","rt":560.19999980927,"correct":false,"confidence":3},{"trial_n":77,"n_dots":4.043,"target":"right","response":"left","rt":178.19999980927,"correct":false,"confidence":4},{"trial_n":78,"n_dots":4.143,"target":"left","response":"left","rt":300.60000038147,"correct":true,"confidence":4},{"trial_n":79,"n_dots":4.143,"target":"right","response":"left","rt":126.30000019073,"correct":false,"confidence":3},{"trial_n":80,"n_dots":4.243,"target":"right","response":"right","rt":466.2000002861,"correct":true,"confidence":1},{"trial_n":81,"n_dots":4.243,"target":"right","response":"left","rt":456.40000009537,"correct":false,"confidence":3},{"trial_n":82,"n_dots":4.343,"target":"left","response":"left","rt":71.5,"correct":true,"confidence":4},{"trial_n":83,"n_dots":4.343,"target":"right","response":"right","rt":158.30000019073,"correct":true,"confidence":4},{"trial_n":84,"n_dots":4.243,"target":"right","response":"right","rt":129.59999990463,"correct":true,"confidence":1},{"trial_n":85,"n_dots":4.243,"target":"right","response":"right","rt":17,"correct":true,"confidence":3},{"trial_n":86,"n_dots":4.143,"target":"right","response":"right","rt":325.2000002861,"correct":true,"confidence":3},{"trial_n":87,"n_dots":4.143,"target":"right","response":"left","rt":769.40000009537,"correct":false,"confidence":1},{"trial_n":88,"n_dots":4.243,"target":"right","response":"right","rt":401.30000019073,"correct":true,"confidence":3},{"trial_n":89,"n_dots":4.243,"target":"right","response":"left","rt":11.699999809265,"correct":false,"confidence":3},{"trial_n":90,"n_dots":4.343,"target":"right","response":"right","rt":166.19999980927,"correct":true,"confidence":3},{"trial_n":91,"n_dots":4.343,"target":"right","response":"right","rt":22.200000286102,"correct":true,"confidence":3},{"trial_n":92,"n_dots":4.243,"target":"right","response":"right","rt":183.40000009537,"correct":true,"confidence":4},{"trial_n":93,"n_dots":4.243,"target":"left","response":"left","rt":788.40000009537,"correct":true,"confidence":3},{"trial_n":94,"n_dots":4.143,"target":"left","response":"left","rt":402.2999997139,"correct":true,"confidence":5},{"trial_n":95,"n_dots":4.143,"target":"right","response":"right","rt":130.09999990463,"correct":true,"confidence":2},{"trial_n":96,"n_dots":4.043,"target":"right","response":"right","rt":100.10000038147,"correct":true,"confidence":2},{"trial_n":97,"n_dots":4.043,"target":"left","response":"left","rt":530.19999980927,"correct":true,"confidence":3},{"trial_n":98,"n_dots":3.943,"target":"left","response":"left","rt":565.30000019073,"correct":true,"confidence":2},{"trial_n":99,"n_dots":3.943,"target":"right","response":"right","rt":332.19999980927,"correct":true,"confidence":2},{"trial_n":100,"n_dots":3.843,"target":"right","response":"left","rt":1.6999998092651,"correct":false,"confidence":2},{"trial_n":101,"n_dots":3.943,"target":"left","response":"left","rt":229.89999961853,"correct":true,"confidence":3},{"trial_n":102,"n_dots":3.943,"target":"left","response":"left","rt":921.19999980927,"correct":true,"confidence":3},{"trial_n":103,"n_dots":3.843,"target":"right","response":"left","rt":142.59999990463,"correct":false,"confidence":3},{"trial_n":104,"n_dots":3.943,"target":"right","response":"right","rt":192,"correct":true,"confidence":3},{"trial_n":105,"n_dots":3.943,"target":"left","response":"left","rt":226.90000009537,"correct":true,"confidence":3},{"trial_n":106,"n_dots":3.843,"target":"left","response":"left","rt":445.7999997139,"correct":true,"confidence":4},{"trial_n":107,"n_dots":3.843,"target":"left","response":"left","rt":408.7000002861,"correct":true,"confidence":4},{"trial_n":108,"n_dots":3.743,"target":"left","response":"left","rt":481,"correct":true,"confidence":3},{"trial_n":109,"n_dots":3.743,"target":"right","response":"left","rt":205.39999961853,"correct":false,"confidence":3},{"trial_n":110,"n_dots":3.843,"target":"left","response":"left","rt":129.09999990463,"correct":true,"confidence":4},{"trial_n":111,"n_dots":3.843,"target":"left","response":"left","rt":20.200000286102,"correct":true,"confidence":5},{"trial_n":112,"n_dots":3.743,"target":"left","response":"right","rt":193.5,"correct":false,"confidence":3},{"trial_n":113,"n_dots":3.843,"target":"left","response":"left","rt":455.60000038147,"correct":true,"confidence":3},{"trial_n":114,"n_dots":3.843,"target":"left","response":"left","rt":461.59999990463,"correct":true,"confidence":3},{"trial_n":115,"n_dots":3.743,"target":"right","response":"left","rt":289.5,"correct":false,"confidence":3},{"trial_n":116,"n_dots":3.843,"target":"left","response":"left","rt":466,"correct":true,"confidence":4},{"trial_n":117,"n_dots":3.843,"target":"left","response":"left","rt":393.2999997139,"correct":true,"confidence":5},{"trial_n":118,"n_dots":3.743,"target":"left","response":"left","rt":199.5,"correct":true,"confidence":3},{"trial_n":119,"n_dots":3.743,"target":"left","response":"left","rt":17,"correct":true,"confidence":1},{"trial_n":120,"n_dots":3.643,"target":"left","response":"left","rt":470.59999990463,"correct":true,"confidence":2}]