[{"trial_n":1,"span":8,"encoder":"00890541","distractor":"00890641","target":"present","response":"present","rt":"8900","correct":true,"confidence":-1},{"trial_n":2,"span":8,"encoder":"90455103","distractor":"90455108","target":"present","response":"present","rt":"4180","correct":true,"confidence":-1},{"trial_n":3,"span":10,"encoder":"6786943824","distractor":"6786943828","target":"absent","response":"absent","rt":"4975","correct":true,"confidence":-1},{"trial_n":4,"span":10,"encoder":"6182146832","distractor":"6182146836","target":"absent","response":"absent","rt":"4054","correct":true,"confidence":-1},{"trial_n":5,"span":12,"encoder":"303073244704","distractor":"303079244704","target":"present","response":"present","rt":"1935","correct":true,"confidence":-1},{"trial_n":6,"span":12,"encoder":"548456666101","distractor":"548456666103","target":"absent","response":"absent","rt":"2045","correct":true,"confidence":-1},{"trial_n":7,"span":14,"encoder":"96481982022878","distractor":"96481982022868","target":"absent","response":"absent","rt":"3500","correct":true,"confidence":-1},{"trial_n":8,"span":14,"encoder":"07926794235661","distractor":"07924794235661","target":"present","response":"present","rt":"4493","correct":true,"confidence":-1},{"trial_n":9,"span":16,"encoder":"3057921722585405","distractor":"3057921722585401","target":"absent","response":"absent","rt":"2723","correct":true,"confidence":-1},{"trial_n":10,"span":16,"encoder":"5100235190521887","distractor":"5100235194521887","target":"present","response":"present","rt":"1778","correct":true,"confidence":-1},{"trial_n":11,"span":18,"encoder":"455444514160504238","distractor":"455404514160504238","target":"absent","response":"present","rt":"6140","correct":false,"confidence":-1},{"trial_n":12,"span":17,"encoder":"60987310485407035","distractor":"60987310885407035","target":"present","response":"present","rt":"7276","correct":true,"confidence":-1},{"trial_n":13,"span":17,"encoder":"33904433834476046","distractor":"33904463834476046","target":"absent","response":"present","rt":"2022","correct":false,"confidence":-1},{"trial_n":14,"span":16,"encoder":"5336015035237273","distractor":"5936015035237273","target":"absent","response":"present","rt":"4209","correct":false,"confidence":-1},{"trial_n":15,"span":15,"encoder":"582289247061492","distractor":"582289247061462","target":"absent","response":"present","rt":"1913","correct":false,"confidence":-1},{"trial_n":16,"span":14,"encoder":"68974906125908","distractor":"68974906122908","target":"present","response":"present","rt":"2414","correct":true,"confidence":-1},{"trial_n":17,"span":14,"encoder":"56910142623124","distractor":"56910142624124","target":"present","response":"present","rt":"1934","correct":true,"confidence":-1},{"trial_n":18,"span":15,"encoder":"328510153031062","distractor":"328510153031462","target":"absent","response":"absent","rt":"3350","correct":true,"confidence":-1},{"trial_n":19,"span":15,"encoder":"140292574901903","distractor":"140298574901903","target":"present","response":"present","rt":"1962","correct":true,"confidence":-1},{"trial_n":20,"span":16,"encoder":"5130491476764597","distractor":"5130491476762597","target":"absent","response":"present","rt":"2159","correct":false,"confidence":-1},{"trial_n":21,"span":15,"encoder":"545850142231348","distractor":"545850182231348","target":"present","response":"present","rt":"2349","correct":true,"confidence":3},{"trial_n":22,"span":15,"encoder":"614906414694651","distractor":"614906414694751","target":"absent","response":"present","rt":"2267","correct":false,"confidence":3},{"trial_n":23,"span":14,"encoder":"70279757547606","distractor":"70279757547906","target":"present","response":"present","rt":"1979","correct":true,"confidence":3},{"trial_n":24,"span":14,"encoder":"40509811654935","distractor":"40509811654035","target":"present","response":"absent","rt":"5853","correct":false,"confidence":3},{"trial_n":25,"span":13,"encoder":"2608986763956","distractor":"5608986763956","target":"present","response":"absent","rt":"4237","correct":false,"confidence":3},{"trial_n":26,"span":12,"encoder":"406647639542","distractor":"406047639542","target":"present","response":"absent","rt":"3436","correct":false,"confidence":3},{"trial_n":27,"span":11,"encoder":"71123365194","distractor":"71123305194","target":"absent","response":"absent","rt":"3010","correct":true,"confidence":5},{"trial_n":28,"span":11,"encoder":"89775067353","distractor":"89775062353","target":"present","response":"absent","rt":"7505","correct":false,"confidence":4},{"trial_n":29,"span":10,"encoder":"4258100164","distractor":"4248100164","target":"present","response":"present","rt":"7151","correct":true,"confidence":3},{"trial_n":30,"span":10,"encoder":"4748915641","distractor":"4748925641","target":"present","response":"present","rt":"4655","correct":true,"confidence":5},{"trial_n":31,"span":11,"encoder":"21945941828","distractor":"27945941828","target":"present","response":"present","rt":"4175.9999999999","correct":true,"confidence":4},{"trial_n":32,"span":11,"encoder":"55853469331","distractor":"55853468331","target":"absent","response":"absent","rt":"116840","correct":true,"confidence":1},{"trial_n":33,"span":12,"encoder":"439773518728","distractor":"439773518928","target":"present","response":"absent","rt":"4404","correct":false,"confidence":4},{"trial_n":34,"span":11,"encoder":"40931133394","distractor":"40931133324","target":"absent","response":"absent","rt":"2594","correct":true,"confidence":5},{"trial_n":35,"span":11,"encoder":"72668622296","distractor":"72668622896","target":"absent","response":"present","rt":"4521","correct":false,"confidence":4},{"trial_n":36,"span":10,"encoder":"9626704745","distractor":"9628704745","target":"present","response":"present","rt":"3186","correct":true,"confidence":2},{"trial_n":37,"span":10,"encoder":"3829477324","distractor":"3869477324","target":"present","response":"present","rt":"3652","correct":true,"confidence":2},{"trial_n":38,"span":11,"encoder":"69148355534","distractor":"69108355534","target":"absent","response":"absent","rt":"3150","correct":true,"confidence":2},{"trial_n":39,"span":11,"encoder":"27703231746","distractor":"27703231786","target":"absent","response":"absent","rt":"3373","correct":true,"confidence":2},{"trial_n":40,"span":12,"encoder":"669720579726","distractor":"669620579726","target":"absent","response":"present","rt":"3159","correct":false,"confidence":2},{"trial_n":41,"span":11,"encoder":"86398770118","distractor":"86398770114","target":"present","response":"present","rt":"2170","correct":true,"confidence":4},{"trial_n":42,"span":11,"encoder":"82186416140","distractor":"82186415140","target":"absent","response":"present","rt":"2315.0000000002","correct":false,"confidence":3},{"trial_n":43,"span":10,"encoder":"7734958804","distractor":"7734958854","target":"absent","response":"absent","rt":"2473","correct":true,"confidence":5},{"trial_n":44,"span":10,"encoder":"5735397239","distractor":"5735397219","target":"absent","response":"absent","rt":"11059","correct":true,"confidence":5},{"trial_n":45,"span":11,"encoder":"86510815725","distractor":"86510715725","target":"absent","response":"present","rt":"3685.0000000002","correct":false,"confidence":3},{"trial_n":46,"span":10,"encoder":"6867366354","distractor":"6865366354","target":"absent","response":"absent","rt":"4513.0000000002","correct":true,"confidence":2},{"trial_n":47,"span":10,"encoder":"0078416647","distractor":"0078416657","target":"present","response":"present","rt":"4587.0000000002","correct":true,"confidence":3},{"trial_n":48,"span":11,"encoder":"35577586384","distractor":"35577582384","target":"present","response":"present","rt":"2568.9999999998","correct":true,"confidence":3},{"trial_n":49,"span":11,"encoder":"10334491044","distractor":"10330491044","target":"present","response":"present","rt":"2786","correct":true,"confidence":2},{"trial_n":50,"span":12,"encoder":"470152898949","distractor":"470152848949","target":"present","response":"present","rt":"2411","correct":true,"confidence":3},{"trial_n":51,"span":12,"encoder":"059822670694","distractor":"059822640694","target":"absent","response":"absent","rt":"4022","correct":true,"confidence":4},{"trial_n":52,"span":13,"encoder":"7583516918143","distractor":"7583516918140","target":"absent","response":"absent","rt":"2088","correct":true,"confidence":5},{"trial_n":53,"span":13,"encoder":"8021831988282","distractor":"8021831978282","target":"present","response":"absent","rt":"2428","correct":false,"confidence":3},{"trial_n":54,"span":12,"encoder":"798703450743","distractor":"798706450743","target":"absent","response":"absent","rt":"64365","correct":true,"confidence":2},{"trial_n":55,"span":12,"encoder":"604452972123","distractor":"204452972123","target":"present","response":"present","rt":"4477","correct":true,"confidence":4},{"trial_n":56,"span":13,"encoder":"1052363748977","distractor":"1052363748971","target":"present","response":"present","rt":"5917","correct":true,"confidence":2},{"trial_n":57,"span":13,"encoder":"4052358567651","distractor":"4052358557651","target":"present","response":"present","rt":"3769","correct":true,"confidence":3},{"trial_n":58,"span":14,"encoder":"00100532380699","distractor":"00100532320699","target":"present","response":"absent","rt":"2626","correct":false,"confidence":5},{"trial_n":59,"span":13,"encoder":"7405190754480","distractor":"1405190754480","target":"present","response":"present","rt":"3557","correct":true,"confidence":3},{"trial_n":60,"span":13,"encoder":"2098015319613","distractor":"8098015319613","target":"absent","response":"absent","rt":"3286.9999999998","correct":true,"confidence":1},{"trial_n":61,"span":14,"encoder":"08354379371423","distractor":"02354379371423","target":"present","response":"absent","rt":"4834","correct":false,"confidence":2},{"trial_n":62,"span":13,"encoder":"7347639074180","distractor":"7347339074180","target":"present","response":"present","rt":"2550","correct":true,"confidence":3},{"trial_n":63,"span":13,"encoder":"3080186209067","distractor":"3080786209067","target":"absent","response":"present","rt":"17330","correct":false,"confidence":3},{"trial_n":64,"span":12,"encoder":"397000032746","distractor":"397001032746","target":"present","response":"absent","rt":"2629","correct":false,"confidence":2},{"trial_n":65,"span":11,"encoder":"92179681793","distractor":"92179687793","target":"absent","response":"present","rt":"1839","correct":false,"confidence":3},{"trial_n":66,"span":10,"encoder":"5200927381","distractor":"5240927381","target":"absent","response":"absent","rt":"2919","correct":true,"confidence":2},{"trial_n":67,"span":10,"encoder":"0498019267","distractor":"0498119267","target":"absent","response":"present","rt":"1479","correct":false,"confidence":3},{"trial_n":68,"span":9,"encoder":"629757299","distractor":"609757299","target":"absent","response":"present","rt":"2015","correct":false,"confidence":3},{"trial_n":69,"span":8,"encoder":"82606685","distractor":"62606685","target":"present","response":"present","rt":"2023","correct":true,"confidence":4},{"trial_n":70,"span":8,"encoder":"30435568","distractor":"30435566","target":"absent","response":"present","rt":"1500","correct":false,"confidence":1},{"trial_n":71,"span":8,"encoder":"24507053","distractor":"34507053","target":"present","response":"absent","rt":"8709","correct":false,"confidence":-1},{"trial_n":72,"span":7,"encoder":"8772405","distractor":"8772400","target":"present","response":"present","rt":"716","correct":true,"confidence":-1},{"trial_n":73,"span":7,"encoder":"2129136","distractor":"2169136","target":"absent","response":"absent","rt":"540.00000000023","correct":true,"confidence":-1},{"trial_n":74,"span":8,"encoder":"70513115","distractor":"70613115","target":"absent","response":"present","rt":"662","correct":false,"confidence":-1},{"trial_n":75,"span":7,"encoder":"4644430","distractor":"4644130","target":"present","response":"absent","rt":"1717.0000000002","correct":false,"confidence":-1},{"trial_n":76,"span":6,"encoder":"261179","distractor":"261879","target":"absent","response":"absent","rt":"3627.9999999998","correct":true,"confidence":-1},{"trial_n":77,"span":6,"encoder":"824536","distractor":"824736","target":"present","response":"absent","rt":"1477","correct":false,"confidence":-1},{"trial_n":78,"span":5,"encoder":"31057","distractor":"31047","target":"absent","response":"absent","rt":"2496","correct":true,"confidence":-1},{"trial_n":79,"span":5,"encoder":"00870","distractor":"20870","target":"present","response":"present","rt":"15373","correct":true,"confidence":-1},{"trial_n":80,"span":6,"encoder":"076817","distractor":"076818","target":"absent","response":"absent","rt":"726","correct":true,"confidence":-1},{"trial_n":81,"span":6,"encoder":"756191","distractor":"758191","target":"absent","response":"absent","rt":"677","correct":true,"confidence":-1},{"trial_n":82,"span":7,"encoder":"1160690","distractor":"1260690","target":"present","response":"absent","rt":"699.00000000023","correct":false,"confidence":-1},{"trial_n":83,"span":6,"encoder":"153788","distractor":"151788","target":"absent","response":"present","rt":"791.00000000023","correct":false,"confidence":-1},{"trial_n":84,"span":5,"encoder":"08039","distractor":"08030","target":"absent","response":"absent","rt":"4243.9999999998","correct":true,"confidence":-1},{"trial_n":85,"span":5,"encoder":"89388","distractor":"89383","target":"absent","response":"absent","rt":"953.99999999977","correct":true,"confidence":-1},{"trial_n":86,"span":6,"encoder":"655350","distractor":"355350","target":"absent","response":"absent","rt":"706.00000000023","correct":true,"confidence":-1},{"trial_n":87,"span":6,"encoder":"093152","distractor":"093132","target":"present","response":"present","rt":"779.99999999977","correct":true,"confidence":-1},{"trial_n":88,"span":7,"encoder":"2975387","distractor":"2975337","target":"present","response":"absent","rt":"985.99999999977","correct":false,"confidence":-1},{"trial_n":89,"span":6,"encoder":"676245","distractor":"673245","target":"absent","response":"present","rt":"1135.0000000002","correct":false,"confidence":-1},{"trial_n":90,"span":5,"encoder":"03829","distractor":"53829","target":"absent","response":"absent","rt":"1072.9999999998","correct":true,"confidence":-1},{"trial_n":91,"span":5,"encoder":"33282","distractor":"32282","target":"present","response":"present","rt":"3424","correct":true,"confidence":5},{"trial_n":92,"span":6,"encoder":"174073","distractor":"174083","target":"present","response":"present","rt":"2490","correct":true,"confidence":5},{"trial_n":93,"span":6,"encoder":"254443","distractor":"054443","target":"absent","response":"absent","rt":"2080","correct":true,"confidence":5},{"trial_n":94,"span":7,"encoder":"9786886","distractor":"9782886","target":"present","response":"present","rt":"5009","correct":true,"confidence":5},{"trial_n":95,"span":7,"encoder":"5378200","distractor":"5378208","target":"present","response":"present","rt":"2368","correct":true,"confidence":5},{"trial_n":96,"span":8,"encoder":"45920738","distractor":"45920638","target":"absent","response":"absent","rt":"2900","correct":true,"confidence":5},{"trial_n":97,"span":8,"encoder":"66574327","distractor":"66574323","target":"absent","response":"absent","rt":"2668","correct":true,"confidence":5},{"trial_n":98,"span":9,"encoder":"755658733","distractor":"755638733","target":"present","response":"absent","rt":"1224.9999999995","correct":false,"confidence":3},{"trial_n":99,"span":8,"encoder":"91376533","distractor":"91376531","target":"absent","response":"absent","rt":"2275","correct":true,"confidence":5},{"trial_n":100,"span":8,"encoder":"52154709","distractor":"52154769","target":"present","response":"present","rt":"1818","correct":true,"confidence":5},{"trial_n":101,"span":9,"encoder":"305884895","distractor":"305884395","target":"present","response":"present","rt":"2621","correct":true,"confidence":2},{"trial_n":102,"span":9,"encoder":"983026876","distractor":"983026176","target":"present","response":"present","rt":"3434.9999999995","correct":true,"confidence":5},{"trial_n":103,"span":10,"encoder":"7082102155","distractor":"7082132155","target":"present","response":"present","rt":"2671","correct":true,"confidence":5},{"trial_n":104,"span":10,"encoder":"6837537863","distractor":"1837537863","target":"present","response":"present","rt":"5381.9999999995","correct":true,"confidence":5},{"trial_n":105,"span":11,"encoder":"81044432503","distractor":"81044472503","target":"present","response":"present","rt":"1238","correct":true,"confidence":2},{"trial_n":106,"span":11,"encoder":"54870073597","distractor":"54870073397","target":"absent","response":"absent","rt":"7818.9999999995","correct":true,"confidence":3},{"trial_n":107,"span":12,"encoder":"923372843143","distractor":"923371843143","target":"present","response":"present","rt":"5140","correct":true,"confidence":2},{"trial_n":108,"span":12,"encoder":"488743712998","distractor":"488703712998","target":"absent","response":"present","rt":"3041","correct":false,"confidence":2},{"trial_n":109,"span":11,"encoder":"83177617417","distractor":"83177617497","target":"present","response":"present","rt":"2272","correct":true,"confidence":5},{"trial_n":110,"span":11,"encoder":"90065272906","distractor":"90065202906","target":"absent","response":"present","rt":"8975","correct":false,"confidence":3},{"trial_n":111,"span":10,"encoder":"3349981172","distractor":"3389981172","target":"present","response":"present","rt":"2789","correct":true,"confidence":2},{"trial_n":112,"span":10,"encoder":"6006076307","distractor":"6006072307","target":"absent","response":"absent","rt":"5431","correct":true,"confidence":3},{"trial_n":113,"span":11,"encoder":"21980694075","distractor":"21980694005","target":"absent","response":"absent","rt":"3000","correct":true,"confidence":5},{"trial_n":114,"span":11,"encoder":"99249208229","distractor":"89249208229","target":"present","response":"present","rt":"11916","correct":true,"confidence":2},{"trial_n":115,"span":12,"encoder":"601582850763","distractor":"601582830763","target":"present","response":"present","rt":"14784","correct":true,"confidence":3},{"trial_n":116,"span":12,"encoder":"741023190803","distractor":"741023190807","target":"absent","response":"absent","rt":"2961","correct":true,"confidence":5},{"trial_n":117,"span":13,"encoder":"8522583193085","distractor":"8522183193085","target":"absent","response":"absent","rt":"3036","correct":true,"confidence":1},{"trial_n":118,"span":13,"encoder":"3286103916328","distractor":"3286103916324","target":"absent","response":"absent","rt":"1761.0000000005","correct":true,"confidence":5},{"trial_n":119,"span":14,"encoder":"19055902311261","distractor":"19055902311241","target":"absent","response":"absent","rt":"1553","correct":true,"confidence":5},{"trial_n":120,"span":14,"encoder":"39099575053415","distractor":"39069575053415","target":"absent","response":"present","rt":"9437","correct":false,"confidence":2},{"trial_n":121,"span":13,"encoder":"2806884904671","distractor":"2806884944671","target":"present","response":"absent","rt":"3829.9999999995","correct":false,"confidence":1},{"trial_n":122,"span":12,"encoder":"050169192708","distractor":"050162192708","target":"present","response":"present","rt":"6570.9999999995","correct":true,"confidence":3},{"trial_n":123,"span":12,"encoder":"673677052698","distractor":"673677057698","target":"absent","response":"absent","rt":"4298","correct":true,"confidence":3},{"trial_n":124,"span":13,"encoder":"7651161860715","distractor":"7661161860715","target":"absent","response":"absent","rt":"7169","correct":true,"confidence":1},{"trial_n":125,"span":13,"encoder":"4382408834405","distractor":"9382408834405","target":"absent","response":"present","rt":"5368","correct":false,"confidence":1},{"trial_n":126,"span":12,"encoder":"025482860668","distractor":"025482860608","target":"present","response":"present","rt":"4738","correct":true,"confidence":3},{"trial_n":127,"span":12,"encoder":"005161310062","distractor":"005161310060","target":"present","response":"present","rt":"3010","correct":true,"confidence":5},{"trial_n":128,"span":13,"encoder":"1157980527118","distractor":"1157982527118","target":"present","response":"absent","rt":"5589","correct":false,"confidence":1},{"trial_n":129,"span":12,"encoder":"233694771069","distractor":"733694771069","target":"present","response":"present","rt":"4820","correct":true,"confidence":4},{"trial_n":130,"span":12,"encoder":"603975020708","distractor":"603975021708","target":"absent","response":"present","rt":"5940","correct":false,"confidence":1},{"trial_n":131,"span":11,"encoder":"84808090040","distractor":"84808097040","target":"absent","response":"absent","rt":"4855","correct":true,"confidence":3},{"trial_n":132,"span":11,"encoder":"20114795828","distractor":"20114195828","target":"absent","response":"absent","rt":"6420","correct":true,"confidence":1},{"trial_n":133,"span":12,"encoder":"025421525974","distractor":"025421525973","target":"present","response":"present","rt":"2063","correct":true,"confidence":3},{"trial_n":134,"span":12,"encoder":"526448199052","distractor":"526442199052","target":"absent","response":"present","rt":"8455","correct":false,"confidence":3},{"trial_n":135,"span":11,"encoder":"93335748055","distractor":"93335748085","target":"present","response":"present","rt":"2171.0000000005","correct":true,"confidence":5},{"trial_n":136,"span":11,"encoder":"83259159928","distractor":"83259159921","target":"present","response":"present","rt":"1976","correct":true,"confidence":5},{"trial_n":137,"span":12,"encoder":"918337734627","distractor":"918237734627","target":"present","response":"present","rt":"5800","correct":true,"confidence":5},{"trial_n":138,"span":12,"encoder":"608226640082","distractor":"608226640022","target":"present","response":"present","rt":"6353","correct":true,"confidence":5},{"trial_n":139,"span":13,"encoder":"8530511485071","distractor":"8530511483071","target":"present","response":"absent","rt":"8324","correct":false,"confidence":1},{"trial_n":140,"span":12,"encoder":"782890033195","distractor":"582890033195","target":"absent","response":"absent","rt":"6159","correct":true,"confidence":1}]