[{"trial_n":1,"min":25,"max":230,"target":"present","response":"present","rt":6656.4000000954,"correct":true,"confidence":-1},{"trial_n":2,"min":25,"max":230,"target":"present","response":"present","rt":2801.3000001907,"correct":true,"confidence":-1},{"trial_n":3,"min":41,"max":214,"target":"absent","response":"present","rt":1423.3000001907,"correct":false,"confidence":-1},{"trial_n":4,"min":25,"max":230,"target":"absent","response":"absent","rt":598.10000014305,"correct":true,"confidence":-1},{"trial_n":5,"min":25,"max":230,"target":"present","response":"present","rt":944.5,"correct":true,"confidence":-1},{"trial_n":6,"min":41,"max":214,"target":"absent","response":"absent","rt":916.09999990463,"correct":true,"confidence":-1},{"trial_n":7,"min":41,"max":214,"target":"present","response":"present","rt":792.5,"correct":true,"confidence":-1},{"trial_n":8,"min":57,"max":198,"target":"absent","response":"absent","rt":1315.5999999046,"correct":true,"confidence":-1},{"trial_n":9,"min":57,"max":198,"target":"absent","response":"absent","rt":400.59999990463,"correct":true,"confidence":-1},{"trial_n":10,"min":73,"max":182,"target":"present","response":"present","rt":667.5,"correct":true,"confidence":-1},{"trial_n":11,"min":73,"max":182,"target":"absent","response":"absent","rt":472.29999995232,"correct":true,"confidence":-1},{"trial_n":12,"min":81,"max":174,"target":"present","response":"absent","rt":639.79999995232,"correct":false,"confidence":-1},{"trial_n":13,"min":73,"max":182,"target":"absent","response":"absent","rt":723.79999995232,"correct":true,"confidence":-1},{"trial_n":14,"min":73,"max":182,"target":"absent","response":"absent","rt":430.29999995232,"correct":true,"confidence":-1},{"trial_n":15,"min":81,"max":174,"target":"absent","response":"absent","rt":240.20000004768,"correct":true,"confidence":-1},{"trial_n":16,"min":81,"max":174,"target":"present","response":"absent","rt":105,"correct":false,"confidence":-1},{"trial_n":17,"min":73,"max":182,"target":"present","response":"present","rt":684.30000019073,"correct":true,"confidence":-1},{"trial_n":18,"min":73,"max":182,"target":"present","response":"absent","rt":140,"correct":false,"confidence":-1},{"trial_n":19,"min":65,"max":190,"target":"present","response":"present","rt":140.5,"correct":true,"confidence":-1},{"trial_n":20,"min":65,"max":190,"target":"absent","response":"absent","rt":48.5,"correct":true,"confidence":-1},{"trial_n":21,"min":69,"max":186,"target":"absent","response":"absent","rt":414.70000004768,"correct":true,"confidence":3},{"trial_n":22,"min":69,"max":186,"target":"present","response":"present","rt":661.59999990463,"correct":true,"confidence":1},{"trial_n":23,"min":73,"max":182,"target":"absent","response":"absent","rt":813.5,"correct":true,"confidence":3},{"trial_n":24,"min":73,"max":182,"target":"absent","response":"absent","rt":473.59999990463,"correct":true,"confidence":4},{"trial_n":25,"min":77,"max":178,"target":"present","response":"absent","rt":406.59999990463,"correct":false,"confidence":4},{"trial_n":26,"min":73,"max":182,"target":"present","response":"absent","rt":46.899999856949,"correct":false,"confidence":1},{"trial_n":27,"min":69,"max":186,"target":"present","response":"present","rt":1244.2999999523,"correct":true,"confidence":3},{"trial_n":28,"min":69,"max":186,"target":"present","response":"absent","rt":193,"correct":false,"confidence":1},{"trial_n":29,"min":65,"max":190,"target":"absent","response":"present","rt":835.20000004768,"correct":false,"confidence":3},{"trial_n":30,"min":61,"max":194,"target":"absent","response":"absent","rt":343.59999990463,"correct":true,"confidence":5},{"trial_n":31,"min":61,"max":194,"target":"present","response":"present","rt":1093.2999999523,"correct":true,"confidence":5},{"trial_n":32,"min":63,"max":192,"target":"absent","response":"absent","rt":386.10000014305,"correct":true,"confidence":5},{"trial_n":33,"min":63,"max":192,"target":"present","response":"present","rt":389.29999995232,"correct":true,"confidence":5},{"trial_n":34,"min":65,"max":190,"target":"absent","response":"absent","rt":660.40000009537,"correct":true,"confidence":1},{"trial_n":35,"min":65,"max":190,"target":"present","response":"present","rt":876.39999985695,"correct":true,"confidence":4},{"trial_n":36,"min":67,"max":188,"target":"absent","response":"absent","rt":472.59999990463,"correct":true,"confidence":4},{"trial_n":37,"min":67,"max":188,"target":"present","response":"present","rt":1132.2000000477,"correct":true,"confidence":1},{"trial_n":38,"min":69,"max":186,"target":"present","response":"present","rt":627.70000004768,"correct":true,"confidence":4},{"trial_n":39,"min":69,"max":186,"target":"absent","response":"absent","rt":510.90000009537,"correct":true,"confidence":5},{"trial_n":40,"min":71,"max":184,"target":"present","response":"present","rt":392.59999990463,"correct":true,"confidence":5},{"trial_n":41,"min":71,"max":184,"target":"present","response":"absent","rt":2149.5,"correct":false,"confidence":3},{"trial_n":42,"min":70,"max":185,"target":"absent","response":"absent","rt":466.09999990463,"correct":true,"confidence":5},{"trial_n":43,"min":70,"max":185,"target":"absent","response":"absent","rt":512.79999995232,"correct":true,"confidence":3},{"trial_n":44,"min":71,"max":184,"target":"present","response":"present","rt":425.79999995232,"correct":true,"confidence":5},{"trial_n":45,"min":71,"max":184,"target":"present","response":"present","rt":549.89999985695,"correct":true,"confidence":4},{"trial_n":46,"min":72,"max":183,"target":"absent","response":"absent","rt":494.5,"correct":true,"confidence":5},{"trial_n":47,"min":72,"max":183,"target":"absent","response":"absent","rt":474.59999990463,"correct":true,"confidence":4},{"trial_n":48,"min":73,"max":182,"target":"absent","response":"absent","rt":391.59999990463,"correct":true,"confidence":4},{"trial_n":49,"min":73,"max":182,"target":"absent","response":"present","rt":633.70000004768,"correct":false,"confidence":3},{"trial_n":50,"min":72,"max":183,"target":"present","response":"present","rt":297.70000004768,"correct":true,"confidence":5},{"trial_n":51,"min":72,"max":183,"target":"present","response":"present","rt":623.30000019073,"correct":true,"confidence":5},{"trial_n":52,"min":73,"max":182,"target":"absent","response":"absent","rt":459.59999990463,"correct":true,"confidence":5},{"trial_n":53,"min":73,"max":182,"target":"present","response":"present","rt":360.10000014305,"correct":true,"confidence":5},{"trial_n":54,"min":74,"max":181,"target":"absent","response":"absent","rt":486.59999990463,"correct":true,"confidence":3},{"trial_n":55,"min":74,"max":181,"target":"present","response":"present","rt":388.90000009537,"correct":true,"confidence":5},{"trial_n":56,"min":75,"max":180,"target":"present","response":"present","rt":346.5,"correct":true,"confidence":5},{"trial_n":57,"min":75,"max":180,"target":"present","response":"present","rt":248.60000014305,"correct":true,"confidence":5},{"trial_n":58,"min":76,"max":179,"target":"absent","response":"absent","rt":653.89999985695,"correct":true,"confidence":3},{"trial_n":59,"min":76,"max":179,"target":"absent","response":"absent","rt":527.09999990463,"correct":true,"confidence":4},{"trial_n":60,"min":77,"max":178,"target":"present","response":"absent","rt":508413.10000014,"correct":false,"confidence":2},{"trial_n":61,"min":76,"max":179,"target":"present","response":"present","rt":722.90000009537,"correct":true,"confidence":3},{"trial_n":62,"min":76,"max":179,"target":"absent","response":"absent","rt":363.20000004768,"correct":true,"confidence":4},{"trial_n":63,"min":77,"max":178,"target":"present","response":"present","rt":415.90000009537,"correct":true,"confidence":5},{"trial_n":64,"min":77,"max":178,"target":"absent","response":"absent","rt":251.20000004768,"correct":true,"confidence":4},{"trial_n":65,"min":78,"max":177,"target":"absent","response":"absent","rt":409.29999995232,"correct":true,"confidence":3},{"trial_n":66,"min":78,"max":177,"target":"absent","response":"absent","rt":815,"correct":true,"confidence":3},{"trial_n":67,"min":79,"max":176,"target":"absent","response":"absent","rt":453.20000004768,"correct":true,"confidence":3},{"trial_n":68,"min":79,"max":176,"target":"present","response":"present","rt":518.39999985695,"correct":true,"confidence":4},{"trial_n":69,"min":80,"max":175,"target":"present","response":"present","rt":658.09999990463,"correct":true,"confidence":4},{"trial_n":70,"min":80,"max":175,"target":"present","response":"present","rt":425.59999990463,"correct":true,"confidence":5},{"trial_n":71,"min":41,"max":214,"target":"present","response":"present","rt":6899.5,"correct":true,"confidence":-1},{"trial_n":72,"min":41,"max":214,"target":"present","response":"absent","rt":167.5,"correct":false,"confidence":-1},{"trial_n":73,"min":25,"max":230,"target":"absent","response":"absent","rt":1508.5,"correct":true,"confidence":-1},{"trial_n":74,"min":25,"max":230,"target":"absent","response":"absent","rt":472.09999990463,"correct":true,"confidence":-1},{"trial_n":75,"min":41,"max":214,"target":"present","response":"present","rt":109.39999985695,"correct":true,"confidence":-1},{"trial_n":76,"min":41,"max":214,"target":"absent","response":"absent","rt":289.20000004768,"correct":true,"confidence":-1},{"trial_n":77,"min":57,"max":198,"target":"present","response":"present","rt":594.20000004768,"correct":true,"confidence":-1},{"trial_n":78,"min":57,"max":198,"target":"absent","response":"present","rt":180.29999995232,"correct":false,"confidence":-1},{"trial_n":79,"min":41,"max":214,"target":"absent","response":"absent","rt":255.20000004768,"correct":true,"confidence":-1},{"trial_n":80,"min":41,"max":214,"target":"present","response":"absent","rt":1921.9000000954,"correct":false,"confidence":-1},{"trial_n":81,"min":33,"max":222,"target":"absent","response":"absent","rt":111.5,"correct":true,"confidence":-1},{"trial_n":82,"min":33,"max":222,"target":"present","response":"present","rt":161.89999985695,"correct":true,"confidence":-1},{"trial_n":83,"min":41,"max":214,"target":"present","response":"absent","rt":25.799999952316,"correct":false,"confidence":-1},{"trial_n":84,"min":33,"max":222,"target":"absent","response":"present","rt":341.90000009537,"correct":false,"confidence":-1},{"trial_n":85,"min":25,"max":230,"target":"absent","response":"absent","rt":392.09999990463,"correct":true,"confidence":-1},{"trial_n":86,"min":25,"max":230,"target":"absent","response":"present","rt":51.399999856949,"correct":false,"confidence":-1},{"trial_n":87,"min":17,"max":238,"target":"present","response":"present","rt":425,"correct":true,"confidence":-1},{"trial_n":88,"min":17,"max":238,"target":"absent","response":"absent","rt":270.89999985695,"correct":true,"confidence":-1},{"trial_n":89,"min":25,"max":230,"target":"absent","response":"absent","rt":310.20000004768,"correct":true,"confidence":-1},{"trial_n":90,"min":25,"max":230,"target":"absent","response":"present","rt":283.20000004768,"correct":false,"confidence":-1},{"trial_n":91,"min":21,"max":234,"target":"present","response":"present","rt":289.29999995232,"correct":true,"confidence":5},{"trial_n":92,"min":21,"max":234,"target":"absent","response":"absent","rt":630.29999995232,"correct":true,"confidence":5},{"trial_n":93,"min":25,"max":230,"target":"absent","response":"absent","rt":496,"correct":true,"confidence":5},{"trial_n":94,"min":25,"max":230,"target":"present","response":"present","rt":422.39999985695,"correct":true,"confidence":5},{"trial_n":95,"min":29,"max":226,"target":"present","response":"present","rt":575.20000004768,"correct":true,"confidence":5},{"trial_n":96,"min":29,"max":226,"target":"present","response":"present","rt":325.79999995232,"correct":true,"confidence":5},{"trial_n":97,"min":33,"max":222,"target":"absent","response":"present","rt":501.10000014305,"correct":false,"confidence":3},{"trial_n":98,"min":29,"max":226,"target":"present","response":"present","rt":540.79999995232,"correct":true,"confidence":5},{"trial_n":99,"min":29,"max":226,"target":"absent","response":"absent","rt":219,"correct":true,"confidence":5},{"trial_n":100,"min":33,"max":222,"target":"absent","response":"present","rt":1509.5999999046,"correct":false,"confidence":4},{"trial_n":101,"min":31,"max":224,"target":"present","response":"present","rt":368,"correct":true,"confidence":5},{"trial_n":102,"min":31,"max":224,"target":"present","response":"present","rt":517.80000019073,"correct":true,"confidence":5},{"trial_n":103,"min":33,"max":222,"target":"present","response":"present","rt":410.79999995232,"correct":true,"confidence":5},{"trial_n":104,"min":33,"max":222,"target":"present","response":"present","rt":425.09999990463,"correct":true,"confidence":5},{"trial_n":105,"min":35,"max":220,"target":"present","response":"present","rt":523.09999990463,"correct":true,"confidence":5},{"trial_n":106,"min":35,"max":220,"target":"present","response":"present","rt":269,"correct":true,"confidence":5},{"trial_n":107,"min":37,"max":218,"target":"present","response":"present","rt":408.40000009537,"correct":true,"confidence":5},{"trial_n":108,"min":37,"max":218,"target":"absent","response":"absent","rt":573.70000004768,"correct":true,"confidence":4},{"trial_n":109,"min":39,"max":216,"target":"absent","response":"absent","rt":448.39999985695,"correct":true,"confidence":5},{"trial_n":110,"min":39,"max":216,"target":"absent","response":"absent","rt":421.79999995232,"correct":true,"confidence":5},{"trial_n":111,"min":40,"max":215,"target":"present","response":"present","rt":254.29999995232,"correct":true,"confidence":5},{"trial_n":112,"min":40,"max":215,"target":"present","response":"present","rt":450.5,"correct":true,"confidence":2},{"trial_n":113,"min":41,"max":214,"target":"absent","response":"absent","rt":2230.5999999046,"correct":true,"confidence":3},{"trial_n":114,"min":41,"max":214,"target":"present","response":"present","rt":607.70000004768,"correct":true,"confidence":5},{"trial_n":115,"min":42,"max":213,"target":"absent","response":"absent","rt":253.60000014305,"correct":true,"confidence":5},{"trial_n":116,"min":42,"max":213,"target":"absent","response":"present","rt":407,"correct":false,"confidence":1},{"trial_n":117,"min":41,"max":214,"target":"present","response":"present","rt":442.29999995232,"correct":true,"confidence":5},{"trial_n":118,"min":41,"max":214,"target":"absent","response":"absent","rt":239,"correct":true,"confidence":5},{"trial_n":119,"min":42,"max":213,"target":"present","response":"present","rt":109.70000004768,"correct":true,"confidence":5},{"trial_n":120,"min":42,"max":213,"target":"present","response":"present","rt":297.20000004768,"correct":true,"confidence":5},{"trial_n":121,"min":43,"max":212,"target":"absent","response":"absent","rt":289.59999990463,"correct":true,"confidence":5},{"trial_n":122,"min":43,"max":212,"target":"present","response":"present","rt":305,"correct":true,"confidence":5},{"trial_n":123,"min":44,"max":211,"target":"present","response":"present","rt":105.09999990463,"correct":true,"confidence":5},{"trial_n":124,"min":44,"max":211,"target":"absent","response":"absent","rt":129.79999995232,"correct":true,"confidence":4},{"trial_n":125,"min":45,"max":210,"target":"absent","response":"absent","rt":318.69999980927,"correct":true,"confidence":5},{"trial_n":126,"min":45,"max":210,"target":"absent","response":"absent","rt":404.79999995232,"correct":true,"confidence":5},{"trial_n":127,"min":46,"max":209,"target":"present","response":"present","rt":265.39999985695,"correct":true,"confidence":5},{"trial_n":128,"min":46,"max":209,"target":"present","response":"present","rt":182,"correct":true,"confidence":5},{"trial_n":129,"min":47,"max":208,"target":"absent","response":"absent","rt":226.10000014305,"correct":true,"confidence":5},{"trial_n":130,"min":47,"max":208,"target":"present","response":"present","rt":162.89999985695,"correct":true,"confidence":5},{"trial_n":131,"min":48,"max":207,"target":"absent","response":"present","rt":454.70000004768,"correct":false,"confidence":5},{"trial_n":132,"min":47,"max":208,"target":"absent","response":"absent","rt":214.79999995232,"correct":true,"confidence":5},{"trial_n":133,"min":47,"max":208,"target":"present","response":"present","rt":309.70000004768,"correct":true,"confidence":5},{"trial_n":134,"min":48,"max":207,"target":"absent","response":"absent","rt":318.30000019073,"correct":true,"confidence":5},{"trial_n":135,"min":48,"max":207,"target":"present","response":"present","rt":36.5,"correct":true,"confidence":5},{"trial_n":136,"min":49,"max":206,"target":"present","response":"present","rt":470.20000004768,"correct":true,"confidence":4},{"trial_n":137,"min":49,"max":206,"target":"absent","response":"absent","rt":484.29999995232,"correct":true,"confidence":5},{"trial_n":138,"min":50,"max":205,"target":"present","response":"present","rt":1018.8999998569,"correct":true,"confidence":5},{"trial_n":139,"min":50,"max":205,"target":"present","response":"present","rt":247.09999990463,"correct":true,"confidence":5},{"trial_n":140,"min":51,"max":204,"target":"absent","response":"present","rt":504,"correct":false,"confidence":5}]