[{"trial_n":1,"n_dots":4.25,"target":"left","response":"left","rt":2070.299999997,"correct":true,"confidence":-1},{"trial_n":2,"n_dots":4.25,"target":"right","response":"right","rt":56.5,"correct":true,"confidence":-1},{"trial_n":3,"n_dots":3.85,"target":"right","response":"right","rt":116.79999999702,"correct":true,"confidence":-1},{"trial_n":4,"n_dots":3.85,"target":"right","response":"right","rt":-1.2000000029802,"correct":true,"confidence":-1},{"trial_n":5,"n_dots":3.45,"target":"right","response":"right","rt":19.5,"correct":true,"confidence":-1},{"trial_n":6,"n_dots":3.45,"target":"left","response":"right","rt":333.89999999851,"correct":false,"confidence":-1},{"trial_n":7,"n_dots":3.85,"target":"right","response":"right","rt":97.80000000447,"correct":true,"confidence":-1},{"trial_n":8,"n_dots":3.85,"target":"left","response":"right","rt":1629.700000003,"correct":false,"confidence":-1},{"trial_n":9,"n_dots":4.05,"target":"left","response":"left","rt":660.80000000447,"correct":true,"confidence":-1},{"trial_n":10,"n_dots":4.05,"target":"left","response":"left","rt":579.20000000298,"correct":true,"confidence":-1},{"trial_n":11,"n_dots":3.85,"target":"right","response":"right","rt":191.29999999702,"correct":true,"confidence":-1},{"trial_n":12,"n_dots":3.85,"target":"left","response":"left","rt":152.39999999851,"correct":true,"confidence":-1},{"trial_n":13,"n_dots":3.75,"target":"left","response":"left","rt":72.39999999851,"correct":true,"confidence":-1},{"trial_n":14,"n_dots":3.75,"target":"right","response":"left","rt":119.5,"correct":false,"confidence":-1},{"trial_n":15,"n_dots":3.85,"target":"right","response":"right","rt":82.39999999851,"correct":true,"confidence":-1},{"trial_n":16,"n_dots":3.85,"target":"right","response":"right","rt":769.20000000298,"correct":true,"confidence":-1},{"trial_n":17,"n_dots":3.75,"target":"right","response":"right","rt":909.29999999702,"correct":true,"confidence":-1},{"trial_n":18,"n_dots":3.75,"target":"right","response":"right","rt":610.30000000447,"correct":true,"confidence":-1},{"trial_n":19,"n_dots":3.65,"target":"left","response":"right","rt":216.10000000149,"correct":false,"confidence":-1},{"trial_n":20,"n_dots":3.75,"target":"right","response":"right","rt":766.60000000149,"correct":true,"confidence":-1},{"trial_n":21,"n_dots":3.75,"target":"left","response":"right","rt":381,"correct":false,"confidence":2},{"trial_n":22,"n_dots":3.85,"target":"right","response":"right","rt":249.59999999404,"correct":true,"confidence":2},{"trial_n":23,"n_dots":3.85,"target":"left","response":"right","rt":500.89999999851,"correct":false,"confidence":3},{"trial_n":24,"n_dots":3.95,"target":"left","response":"left","rt":41.20000000298,"correct":true,"confidence":5},{"trial_n":25,"n_dots":3.95,"target":"left","response":"left","rt":59,"correct":true,"confidence":4},{"trial_n":26,"n_dots":3.85,"target":"left","response":"left","rt":181.60000000149,"correct":true,"confidence":5},{"trial_n":27,"n_dots":3.85,"target":"left","response":"right","rt":1132.200000003,"correct":false,"confidence":4},{"trial_n":28,"n_dots":3.95,"target":"right","response":"right","rt":168.60000000149,"correct":true,"confidence":4},{"trial_n":29,"n_dots":3.95,"target":"right","response":"right","rt":-0.89999999850988,"correct":true,"confidence":4},{"trial_n":30,"n_dots":3.85,"target":"left","response":"left","rt":53.39999999851,"correct":true,"confidence":5},{"trial_n":31,"n_dots":3.85,"target":"left","response":"left","rt":531.10000000149,"correct":true,"confidence":4},{"trial_n":32,"n_dots":3.75,"target":"right","response":"right","rt":65.60000000149,"correct":true,"confidence":4},{"trial_n":33,"n_dots":3.75,"target":"right","response":"right","rt":-1.5,"correct":true,"confidence":4},{"trial_n":34,"n_dots":3.65,"target":"right","response":"right","rt":376.89999999851,"correct":true,"confidence":4},{"trial_n":35,"n_dots":3.65,"target":"left","response":"right","rt":639,"correct":false,"confidence":3},{"trial_n":36,"n_dots":3.75,"target":"right","response":"right","rt":180.30000000447,"correct":true,"confidence":3},{"trial_n":37,"n_dots":3.75,"target":"right","response":"right","rt":66.39999999851,"correct":true,"confidence":3},{"trial_n":38,"n_dots":3.65,"target":"right","response":"right","rt":53.69999999553,"correct":true,"confidence":3},{"trial_n":39,"n_dots":3.65,"target":"right","response":"right","rt":131.19999999553,"correct":true,"confidence":5},{"trial_n":40,"n_dots":3.55,"target":"right","response":"right","rt":159.89999999851,"correct":true,"confidence":4},{"trial_n":41,"n_dots":3.55,"target":"left","response":"right","rt":-2.2000000029802,"correct":false,"confidence":3},{"trial_n":42,"n_dots":3.65,"target":"left","response":"right","rt":82.70000000298,"correct":false,"confidence":4},{"trial_n":43,"n_dots":3.75,"target":"left","response":"left","rt":183.80000000447,"correct":true,"confidence":2},{"trial_n":44,"n_dots":3.75,"target":"right","response":"right","rt":18.60000000149,"correct":true,"confidence":2},{"trial_n":45,"n_dots":3.65,"target":"left","response":"left","rt":61.5,"correct":true,"confidence":4},{"trial_n":46,"n_dots":3.65,"target":"right","response":"right","rt":75.20000000298,"correct":true,"confidence":4},{"trial_n":47,"n_dots":3.55,"target":"right","response":"left","rt":183.10000000149,"correct":false,"confidence":3},{"trial_n":48,"n_dots":3.65,"target":"right","response":"right","rt":14.19999999553,"correct":true,"confidence":3},{"trial_n":49,"n_dots":3.65,"target":"left","response":"left","rt":576.5,"correct":true,"confidence":5},{"trial_n":50,"n_dots":3.55,"target":"left","response":"left","rt":143.19999999553,"correct":true,"confidence":3},{"trial_n":51,"n_dots":3.55,"target":"left","response":"left","rt":138.70000000298,"correct":true,"confidence":4},{"trial_n":52,"n_dots":3.45,"target":"right","response":"right","rt":2,"correct":true,"confidence":4},{"trial_n":53,"n_dots":3.45,"target":"right","response":"right","rt":1117,"correct":true,"confidence":3},{"trial_n":54,"n_dots":3.35,"target":"left","response":"left","rt":231.80000000447,"correct":true,"confidence":3},{"trial_n":55,"n_dots":3.35,"target":"left","response":"right","rt":142.60000000149,"correct":false,"confidence":3},{"trial_n":56,"n_dots":3.45,"target":"left","response":"left","rt":484.89999999851,"correct":true,"confidence":3},{"trial_n":57,"n_dots":3.45,"target":"left","response":"left","rt":464,"correct":true,"confidence":3},{"trial_n":58,"n_dots":3.35,"target":"left","response":"right","rt":152.10000000149,"correct":false,"confidence":4},{"trial_n":59,"n_dots":3.45,"target":"right","response":"right","rt":1026.700000003,"correct":true,"confidence":3},{"trial_n":60,"n_dots":3.45,"target":"right","response":"right","rt":144.60000000149,"correct":true,"confidence":3},{"trial_n":61,"n_dots":3.35,"target":"left","response":"left","rt":137.29999999702,"correct":true,"confidence":4},{"trial_n":62,"n_dots":3.35,"target":"right","response":"right","rt":-9.4000000059605,"correct":true,"confidence":4},{"trial_n":63,"n_dots":3.25,"target":"left","response":"right","rt":193.60000000149,"correct":false,"confidence":1},{"trial_n":64,"n_dots":3.35,"target":"left","response":"left","rt":8822.200000003,"correct":true,"confidence":2},{"trial_n":65,"n_dots":3.35,"target":"left","response":"right","rt":2247.900000006,"correct":false,"confidence":2},{"trial_n":66,"n_dots":3.45,"target":"left","response":"left","rt":722.89999999851,"correct":true,"confidence":2},{"trial_n":67,"n_dots":3.45,"target":"left","response":"left","rt":512,"correct":true,"confidence":2},{"trial_n":68,"n_dots":3.35,"target":"left","response":"left","rt":857.19999999553,"correct":true,"confidence":3},{"trial_n":69,"n_dots":3.35,"target":"right","response":"right","rt":430.60000000149,"correct":true,"confidence":3},{"trial_n":70,"n_dots":3.25,"target":"left","response":"right","rt":608.89999999851,"correct":false,"confidence":4},{"trial_n":71,"n_dots":3.35,"target":"right","response":"right","rt":468,"correct":true,"confidence":3},{"trial_n":72,"n_dots":3.35,"target":"right","response":"left","rt":477.5,"correct":false,"confidence":3},{"trial_n":73,"n_dots":3.45,"target":"left","response":"left","rt":-0.90000000596046,"correct":true,"confidence":3},{"trial_n":74,"n_dots":3.45,"target":"right","response":"left","rt":-5.5999999940395,"correct":false,"confidence":1},{"trial_n":75,"n_dots":3.55,"target":"right","response":"right","rt":21.29999999702,"correct":true,"confidence":3},{"trial_n":76,"n_dots":3.55,"target":"left","response":"right","rt":243.39999999851,"correct":false,"confidence":4},{"trial_n":77,"n_dots":3.65,"target":"left","response":"left","rt":159.79999999702,"correct":true,"confidence":3},{"trial_n":78,"n_dots":3.65,"target":"right","response":"left","rt":309.20000000298,"correct":false,"confidence":3},{"trial_n":79,"n_dots":3.75,"target":"left","response":"left","rt":108.79999999702,"correct":true,"confidence":2},{"trial_n":80,"n_dots":3.75,"target":"right","response":"left","rt":73.89999999851,"correct":false,"confidence":3},{"trial_n":81,"n_dots":3.85,"target":"right","response":"right","rt":14.39999999851,"correct":true,"confidence":4},{"trial_n":82,"n_dots":3.85,"target":"right","response":"right","rt":48.70000000298,"correct":true,"confidence":4},{"trial_n":83,"n_dots":3.75,"target":"right","response":"left","rt":198.39999999851,"correct":false,"confidence":2},{"trial_n":84,"n_dots":3.85,"target":"right","response":"right","rt":131.20000000298,"correct":true,"confidence":4},{"trial_n":85,"n_dots":3.85,"target":"left","response":"left","rt":242.5,"correct":true,"confidence":3},{"trial_n":86,"n_dots":3.75,"target":"right","response":"right","rt":133.5,"correct":true,"confidence":2},{"trial_n":87,"n_dots":3.75,"target":"left","response":"left","rt":24.89999999851,"correct":true,"confidence":2},{"trial_n":88,"n_dots":3.65,"target":"right","response":"right","rt":176.70000000298,"correct":true,"confidence":4},{"trial_n":89,"n_dots":3.65,"target":"right","response":"right","rt":252.70000000298,"correct":true,"confidence":3},{"trial_n":90,"n_dots":3.55,"target":"left","response":"right","rt":133.20000000298,"correct":false,"confidence":2},{"trial_n":91,"n_dots":3.65,"target":"left","response":"right","rt":19.39999999851,"correct":false,"confidence":4},{"trial_n":92,"n_dots":3.75,"target":"right","response":"right","rt":195.70000000298,"correct":true,"confidence":5},{"trial_n":93,"n_dots":3.75,"target":"right","response":"right","rt":1393.5,"correct":true,"confidence":5},{"trial_n":94,"n_dots":3.65,"target":"left","response":"left","rt":1143.200000003,"correct":true,"confidence":3},{"trial_n":95,"n_dots":3.65,"target":"right","response":"right","rt":992.5,"correct":true,"confidence":4},{"trial_n":96,"n_dots":3.55,"target":"left","response":"left","rt":662.20000000298,"correct":true,"confidence":5},{"trial_n":97,"n_dots":3.55,"target":"left","response":"left","rt":331.89999999851,"correct":true,"confidence":3},{"trial_n":98,"n_dots":3.45,"target":"left","response":"right","rt":59.29999999702,"correct":false,"confidence":1},{"trial_n":99,"n_dots":3.55,"target":"left","response":"left","rt":727.39999999851,"correct":true,"confidence":3},{"trial_n":100,"n_dots":3.55,"target":"left","response":"left","rt":509.60000000149,"correct":true,"confidence":4},{"trial_n":101,"n_dots":3.45,"target":"left","response":"left","rt":807.70000000298,"correct":true,"confidence":3},{"trial_n":102,"n_dots":3.45,"target":"right","response":"right","rt":194,"correct":true,"confidence":5},{"trial_n":103,"n_dots":3.35,"target":"left","response":"left","rt":669.5,"correct":true,"confidence":5},{"trial_n":104,"n_dots":3.35,"target":"right","response":"right","rt":743.80000000447,"correct":true,"confidence":2},{"trial_n":105,"n_dots":3.25,"target":"left","response":"left","rt":605,"correct":true,"confidence":3},{"trial_n":106,"n_dots":3.25,"target":"right","response":"right","rt":-2.1999999955297,"correct":true,"confidence":5},{"trial_n":107,"n_dots":3.15,"target":"left","response":"right","rt":777.10000000149,"correct":false,"confidence":2},{"trial_n":108,"n_dots":3.25,"target":"right","response":"right","rt":140.10000000149,"correct":true,"confidence":4},{"trial_n":109,"n_dots":3.25,"target":"left","response":"right","rt":92.79999999702,"correct":false,"confidence":4},{"trial_n":110,"n_dots":3.35,"target":"left","response":"right","rt":668.89999999851,"correct":false,"confidence":3},{"trial_n":111,"n_dots":3.45,"target":"right","response":"right","rt":160,"correct":true,"confidence":5},{"trial_n":112,"n_dots":3.45,"target":"left","response":"left","rt":810.79999999702,"correct":true,"confidence":3},{"trial_n":113,"n_dots":3.35,"target":"right","response":"right","rt":91.70000000298,"correct":true,"confidence":4},{"trial_n":114,"n_dots":3.35,"target":"right","response":"right","rt":34,"correct":true,"confidence":4},{"trial_n":115,"n_dots":3.25,"target":"right","response":"right","rt":-5.1000000014901,"correct":true,"confidence":3},{"trial_n":116,"n_dots":3.25,"target":"left","response":"left","rt":533.79999999702,"correct":true,"confidence":3},{"trial_n":117,"n_dots":3.15,"target":"right","response":"left","rt":123.80000000447,"correct":false,"confidence":2},{"trial_n":118,"n_dots":3.25,"target":"right","response":"right","rt":0.29999999701977,"correct":true,"confidence":4},{"trial_n":119,"n_dots":3.25,"target":"right","response":"right","rt":62.39999999851,"correct":true,"confidence":4},{"trial_n":120,"n_dots":3.15,"target":"left","response":"left","rt":-5.1000000014901,"correct":true,"confidence":3}]