[{"trial_n":1,"n_dots":4.25,"target":"left","response":"left","rt":2669.099999994,"correct":true,"confidence":-1},{"trial_n":2,"n_dots":4.25,"target":"right","response":"right","rt":1977.1999999881,"correct":true,"confidence":-1},{"trial_n":3,"n_dots":3.85,"target":"left","response":"right","rt":907,"correct":false,"confidence":-1},{"trial_n":4,"n_dots":4.25,"target":"right","response":"right","rt":511.90000000596,"correct":true,"confidence":-1},{"trial_n":5,"n_dots":4.25,"target":"right","response":"right","rt":501.79999998212,"correct":true,"confidence":-1},{"trial_n":6,"n_dots":3.85,"target":"left","response":"left","rt":643.09999999404,"correct":true,"confidence":-1},{"trial_n":7,"n_dots":3.85,"target":"left","response":"left","rt":603.19999998808,"correct":true,"confidence":-1},{"trial_n":8,"n_dots":3.65,"target":"left","response":"left","rt":531.40000000596,"correct":true,"confidence":-1},{"trial_n":9,"n_dots":3.65,"target":"left","response":"left","rt":645.5,"correct":true,"confidence":-1},{"trial_n":10,"n_dots":3.45,"target":"right","response":"right","rt":527.69999998808,"correct":true,"confidence":-1},{"trial_n":11,"n_dots":3.45,"target":"left","response":"left","rt":308,"correct":true,"confidence":-1},{"trial_n":12,"n_dots":3.25,"target":"right","response":"left","rt":601.60000002384,"correct":false,"confidence":-1},{"trial_n":13,"n_dots":3.35,"target":"right","response":"right","rt":393,"correct":true,"confidence":-1},{"trial_n":14,"n_dots":3.35,"target":"right","response":"left","rt":856.10000002384,"correct":false,"confidence":-1},{"trial_n":15,"n_dots":3.45,"target":"right","response":"right","rt":514.19999998808,"correct":true,"confidence":-1},{"trial_n":16,"n_dots":3.45,"target":"left","response":"left","rt":450,"correct":true,"confidence":-1},{"trial_n":17,"n_dots":3.35,"target":"left","response":"left","rt":477.60000002384,"correct":true,"confidence":-1},{"trial_n":18,"n_dots":3.35,"target":"left","response":"left","rt":309.09999999404,"correct":true,"confidence":-1},{"trial_n":19,"n_dots":3.25,"target":"right","response":"right","rt":198.59999999404,"correct":true,"confidence":-1},{"trial_n":20,"n_dots":3.25,"target":"left","response":"left","rt":565.90000000596,"correct":true,"confidence":-1},{"trial_n":21,"n_dots":3.15,"target":"right","response":"right","rt":789.20000001788,"correct":true,"confidence":3},{"trial_n":22,"n_dots":3.15,"target":"left","response":"left","rt":503.09999999404,"correct":true,"confidence":3},{"trial_n":23,"n_dots":3.05,"target":"left","response":"left","rt":373.40000000596,"correct":true,"confidence":4},{"trial_n":24,"n_dots":3.05,"target":"left","response":"right","rt":1204.8000000119,"correct":false,"confidence":1},{"trial_n":25,"n_dots":3.15,"target":"right","response":"right","rt":1391.2000000179,"correct":true,"confidence":1},{"trial_n":26,"n_dots":3.15,"target":"left","response":"right","rt":875.69999998808,"correct":false,"confidence":4},{"trial_n":27,"n_dots":3.25,"target":"right","response":"right","rt":516.69999998808,"correct":true,"confidence":5},{"trial_n":28,"n_dots":3.25,"target":"right","response":"right","rt":1954.3999999762,"correct":true,"confidence":1},{"trial_n":29,"n_dots":3.15,"target":"left","response":"right","rt":770.09999999404,"correct":false,"confidence":5},{"trial_n":30,"n_dots":3.25,"target":"left","response":"right","rt":1379.599999994,"correct":false,"confidence":5},{"trial_n":31,"n_dots":3.35,"target":"left","response":"left","rt":252.89999997616,"correct":true,"confidence":3},{"trial_n":32,"n_dots":3.35,"target":"left","response":"right","rt":406.09999999404,"correct":false,"confidence":3},{"trial_n":33,"n_dots":3.45,"target":"right","response":"right","rt":370.70000001788,"correct":true,"confidence":5},{"trial_n":34,"n_dots":3.45,"target":"right","response":"right","rt":134.29999998212,"correct":true,"confidence":5},{"trial_n":35,"n_dots":3.35,"target":"left","response":"left","rt":891.59999999404,"correct":true,"confidence":5},{"trial_n":36,"n_dots":3.35,"target":"right","response":"right","rt":1073.6999999881,"correct":true,"confidence":3},{"trial_n":37,"n_dots":3.25,"target":"right","response":"right","rt":781.59999999404,"correct":true,"confidence":5},{"trial_n":38,"n_dots":3.25,"target":"left","response":"right","rt":1817.5,"correct":false,"confidence":5},{"trial_n":39,"n_dots":3.35,"target":"right","response":"right","rt":996,"correct":true,"confidence":3},{"trial_n":40,"n_dots":3.35,"target":"right","response":"right","rt":536.29999998212,"correct":true,"confidence":3},{"trial_n":41,"n_dots":3.25,"target":"right","response":"right","rt":939,"correct":true,"confidence":3},{"trial_n":42,"n_dots":3.25,"target":"left","response":"right","rt":897.29999998212,"correct":false,"confidence":3},{"trial_n":43,"n_dots":3.35,"target":"right","response":"right","rt":870,"correct":true,"confidence":5},{"trial_n":44,"n_dots":3.35,"target":"right","response":"right","rt":1189.5,"correct":true,"confidence":2},{"trial_n":45,"n_dots":3.25,"target":"left","response":"left","rt":618.89999997616,"correct":true,"confidence":3},{"trial_n":46,"n_dots":3.25,"target":"left","response":"right","rt":1329.400000006,"correct":false,"confidence":1},{"trial_n":47,"n_dots":3.35,"target":"left","response":"right","rt":1261,"correct":false,"confidence":1},{"trial_n":48,"n_dots":3.45,"target":"left","response":"left","rt":475.70000001788,"correct":true,"confidence":4},{"trial_n":49,"n_dots":3.45,"target":"right","response":"right","rt":513.60000002384,"correct":true,"confidence":5},{"trial_n":50,"n_dots":3.35,"target":"left","response":"left","rt":942.29999998212,"correct":true,"confidence":5},{"trial_n":51,"n_dots":3.35,"target":"right","response":"right","rt":1115.1999999881,"correct":true,"confidence":5},{"trial_n":52,"n_dots":3.25,"target":"left","response":"left","rt":367.09999999404,"correct":true,"confidence":5},{"trial_n":53,"n_dots":3.25,"target":"left","response":"left","rt":525.79999998212,"correct":true,"confidence":5},{"trial_n":54,"n_dots":3.15,"target":"right","response":"right","rt":595.59999999404,"correct":true,"confidence":5},{"trial_n":55,"n_dots":3.15,"target":"right","response":"right","rt":1502.7999999821,"correct":true,"confidence":5},{"trial_n":56,"n_dots":3.05,"target":"right","response":"left","rt":332,"correct":false,"confidence":5},{"trial_n":57,"n_dots":3.15,"target":"right","response":"right","rt":862.90000000596,"correct":true,"confidence":1},{"trial_n":58,"n_dots":3.15,"target":"left","response":"right","rt":1308,"correct":false,"confidence":2},{"trial_n":59,"n_dots":3.25,"target":"right","response":"right","rt":591.90000000596,"correct":true,"confidence":5},{"trial_n":60,"n_dots":3.25,"target":"right","response":"right","rt":368.5,"correct":true,"confidence":5},{"trial_n":61,"n_dots":3.15,"target":"right","response":"right","rt":664,"correct":true,"confidence":5},{"trial_n":62,"n_dots":3.15,"target":"left","response":"left","rt":552.09999999404,"correct":true,"confidence":5},{"trial_n":63,"n_dots":3.05,"target":"left","response":"left","rt":1555.1999999881,"correct":true,"confidence":3},{"trial_n":64,"n_dots":3.05,"target":"right","response":"right","rt":789.90000000596,"correct":true,"confidence":3},{"trial_n":65,"n_dots":2.95,"target":"right","response":"right","rt":924.69999998808,"correct":true,"confidence":3},{"trial_n":66,"n_dots":2.95,"target":"left","response":"left","rt":1867.8999999762,"correct":true,"confidence":4},{"trial_n":67,"n_dots":2.85,"target":"right","response":"right","rt":554.19999998808,"correct":true,"confidence":4},{"trial_n":68,"n_dots":2.85,"target":"right","response":"right","rt":459.29999998212,"correct":true,"confidence":4},{"trial_n":69,"n_dots":2.75,"target":"right","response":"right","rt":598.90000000596,"correct":true,"confidence":4},{"trial_n":70,"n_dots":2.75,"target":"left","response":"left","rt":1406.099999994,"correct":true,"confidence":4},{"trial_n":71,"n_dots":2.65,"target":"left","response":"left","rt":1223.7999999821,"correct":true,"confidence":1},{"trial_n":72,"n_dots":2.65,"target":"left","response":"left","rt":583.5,"correct":true,"confidence":1},{"trial_n":73,"n_dots":2.55,"target":"left","response":"left","rt":282.19999998808,"correct":true,"confidence":3},{"trial_n":74,"n_dots":2.55,"target":"left","response":"left","rt":487.30000001192,"correct":true,"confidence":1},{"trial_n":75,"n_dots":2.45,"target":"right","response":"right","rt":863.29999998212,"correct":true,"confidence":2},{"trial_n":76,"n_dots":2.45,"target":"right","response":"right","rt":410.19999998808,"correct":true,"confidence":5},{"trial_n":77,"n_dots":2.35,"target":"left","response":"right","rt":852,"correct":false,"confidence":4},{"trial_n":78,"n_dots":2.45,"target":"right","response":"right","rt":1094.1000000238,"correct":true,"confidence":5},{"trial_n":79,"n_dots":2.45,"target":"right","response":"left","rt":1044.8000000119,"correct":false,"confidence":2},{"trial_n":80,"n_dots":2.55,"target":"left","response":"left","rt":1213.900000006,"correct":true,"confidence":5},{"trial_n":81,"n_dots":2.55,"target":"left","response":"left","rt":549.90000000596,"correct":true,"confidence":5},{"trial_n":82,"n_dots":2.45,"target":"left","response":"right","rt":888.5,"correct":false,"confidence":2},{"trial_n":83,"n_dots":2.55,"target":"right","response":"left","rt":1287.6999999881,"correct":false,"confidence":5},{"trial_n":84,"n_dots":2.65,"target":"left","response":"left","rt":731.40000000596,"correct":true,"confidence":5},{"trial_n":85,"n_dots":2.65,"target":"left","response":"left","rt":871.59999999404,"correct":true,"confidence":4},{"trial_n":86,"n_dots":2.55,"target":"left","response":"left","rt":1020.7999999821,"correct":true,"confidence":1},{"trial_n":87,"n_dots":2.55,"target":"left","response":"left","rt":955.19999998808,"correct":true,"confidence":3},{"trial_n":88,"n_dots":2.45,"target":"left","response":"left","rt":730.90000000596,"correct":true,"confidence":5},{"trial_n":89,"n_dots":2.45,"target":"left","response":"right","rt":927.40000000596,"correct":false,"confidence":1},{"trial_n":90,"n_dots":2.55,"target":"left","response":"left","rt":534.79999998212,"correct":true,"confidence":4},{"trial_n":91,"n_dots":2.55,"target":"left","response":"left","rt":841.5,"correct":true,"confidence":4},{"trial_n":92,"n_dots":2.45,"target":"left","response":"left","rt":1174.2000000179,"correct":true,"confidence":4},{"trial_n":93,"n_dots":2.45,"target":"right","response":"left","rt":685.90000000596,"correct":false,"confidence":2},{"trial_n":94,"n_dots":2.55,"target":"left","response":"left","rt":741.90000000596,"correct":true,"confidence":4},{"trial_n":95,"n_dots":2.55,"target":"right","response":"right","rt":971.39999997616,"correct":true,"confidence":3},{"trial_n":96,"n_dots":2.45,"target":"left","response":"right","rt":1037.900000006,"correct":false,"confidence":3},{"trial_n":97,"n_dots":2.55,"target":"right","response":"left","rt":1117.2999999821,"correct":false,"confidence":3},{"trial_n":98,"n_dots":2.65,"target":"right","response":"left","rt":747.40000000596,"correct":false,"confidence":5},{"trial_n":99,"n_dots":2.75,"target":"right","response":"right","rt":1551.3000000119,"correct":true,"confidence":1},{"trial_n":100,"n_dots":2.75,"target":"right","response":"right","rt":735.40000000596,"correct":true,"confidence":4},{"trial_n":101,"n_dots":2.65,"target":"right","response":"left","rt":706.90000000596,"correct":false,"confidence":4},{"trial_n":102,"n_dots":2.75,"target":"right","response":"right","rt":766.19999998808,"correct":true,"confidence":2},{"trial_n":103,"n_dots":2.75,"target":"left","response":"right","rt":589.79999998212,"correct":false,"confidence":3},{"trial_n":104,"n_dots":2.85,"target":"right","response":"right","rt":831.59999999404,"correct":true,"confidence":4},{"trial_n":105,"n_dots":2.85,"target":"right","response":"left","rt":707.69999998808,"correct":false,"confidence":1},{"trial_n":106,"n_dots":2.95,"target":"right","response":"right","rt":891,"correct":true,"confidence":5},{"trial_n":107,"n_dots":2.95,"target":"left","response":"left","rt":919.59999999404,"correct":true,"confidence":4},{"trial_n":108,"n_dots":2.85,"target":"left","response":"left","rt":1260.3999999762,"correct":true,"confidence":4},{"trial_n":109,"n_dots":2.85,"target":"right","response":"right","rt":786.40000000596,"correct":true,"confidence":1},{"trial_n":110,"n_dots":2.75,"target":"right","response":"right","rt":834.90000000596,"correct":true,"confidence":1},{"trial_n":111,"n_dots":2.75,"target":"right","response":"right","rt":976.09999999404,"correct":true,"confidence":4},{"trial_n":112,"n_dots":2.65,"target":"left","response":"right","rt":1089.1999999881,"correct":false,"confidence":4},{"trial_n":113,"n_dots":2.75,"target":"right","response":"right","rt":817.59999999404,"correct":true,"confidence":3},{"trial_n":114,"n_dots":2.75,"target":"right","response":"left","rt":1508,"correct":false,"confidence":4},{"trial_n":115,"n_dots":2.85,"target":"right","response":"right","rt":768.60000002384,"correct":true,"confidence":3},{"trial_n":116,"n_dots":2.85,"target":"left","response":"right","rt":605.40000000596,"correct":false,"confidence":3},{"trial_n":117,"n_dots":2.95,"target":"left","response":"left","rt":696.20000001788,"correct":true,"confidence":4},{"trial_n":118,"n_dots":2.95,"target":"right","response":"left","rt":747.90000000596,"correct":false,"confidence":4},{"trial_n":119,"n_dots":3.05,"target":"right","response":"right","rt":1612.8999999762,"correct":true,"confidence":5},{"trial_n":120,"n_dots":3.05,"target":"left","response":"left","rt":532.59999999404,"correct":true,"confidence":4}]