[{"trial_n":1,"span":8,"encoder":"11223174","distractor":"41223174","target":"present","response":"present","rt":"5733.5","correct":true,"confidence":-1},{"trial_n":2,"span":8,"encoder":"65921723","distractor":"65921223","target":"present","response":"present","rt":"2267.5","correct":true,"confidence":-1},{"trial_n":3,"span":10,"encoder":"4867646578","distractor":"7867646578","target":"absent","response":"present","rt":"2872.7000002861","correct":false,"confidence":-1},{"trial_n":4,"span":8,"encoder":"81098756","distractor":"81098656","target":"absent","response":"absent","rt":"3600.5999999046","correct":true,"confidence":-1},{"trial_n":5,"span":8,"encoder":"68017987","distractor":"68017988","target":"present","response":"present","rt":"2599.5","correct":true,"confidence":-1},{"trial_n":6,"span":10,"encoder":"9439874441","distractor":"9436874441","target":"present","response":"present","rt":"1751.6000003815","correct":true,"confidence":-1},{"trial_n":7,"span":10,"encoder":"7802306488","distractor":"7802506488","target":"present","response":"absent","rt":"4565.8999996185","correct":false,"confidence":-1},{"trial_n":8,"span":8,"encoder":"35825764","distractor":"35822764","target":"absent","response":"absent","rt":"3484.6999998093","correct":true,"confidence":-1},{"trial_n":9,"span":8,"encoder":"47771648","distractor":"47751648","target":"present","response":"present","rt":"2233.6999998093","correct":true,"confidence":-1},{"trial_n":10,"span":10,"encoder":"4297502251","distractor":"0297502251","target":"present","response":"present","rt":"3985.0999999046","correct":true,"confidence":-1},{"trial_n":11,"span":10,"encoder":"4386465072","distractor":"4306465072","target":"absent","response":"absent","rt":"3672","correct":true,"confidence":-1},{"trial_n":12,"span":11,"encoder":"89581325839","distractor":"89581025839","target":"absent","response":"present","rt":"3068.6000003815","correct":false,"confidence":-1},{"trial_n":13,"span":10,"encoder":"4986717376","distractor":"4686717376","target":"absent","response":"absent","rt":"2734.0999999046","correct":true,"confidence":-1},{"trial_n":14,"span":10,"encoder":"2492486538","distractor":"2498486538","target":"absent","response":"present","rt":"3285.1999998093","correct":false,"confidence":-1},{"trial_n":15,"span":9,"encoder":"602000347","distractor":"602004347","target":"absent","response":"absent","rt":"2832.3000001907","correct":true,"confidence":-1},{"trial_n":16,"span":9,"encoder":"054825943","distractor":"059825943","target":"absent","response":"present","rt":"2610.1999998093","correct":false,"confidence":-1},{"trial_n":17,"span":8,"encoder":"99415019","distractor":"99415119","target":"present","response":"present","rt":"4051.0999999046","correct":true,"confidence":-1},{"trial_n":18,"span":8,"encoder":"16467668","distractor":"16467667","target":"present","response":"present","rt":"2956.2999997139","correct":true,"confidence":-1},{"trial_n":19,"span":9,"encoder":"188627766","distractor":"188627566","target":"absent","response":"present","rt":"2400.5","correct":false,"confidence":-1},{"trial_n":20,"span":8,"encoder":"86698853","distractor":"16698853","target":"present","response":"present","rt":"2787.5","correct":true,"confidence":-1},{"trial_n":21,"span":8,"encoder":"51466373","distractor":"53466373","target":"present","response":"present","rt":"2484.4000000954","correct":true,"confidence":4},{"trial_n":22,"span":9,"encoder":"369153567","distractor":"369123567","target":"absent","response":"absent","rt":"2984.1000003815","correct":true,"confidence":3},{"trial_n":23,"span":9,"encoder":"307444772","distractor":"307444172","target":"present","response":"present","rt":"2592.8000001907","correct":true,"confidence":4},{"trial_n":24,"span":10,"encoder":"4838637029","distractor":"4828637029","target":"present","response":"present","rt":"3516.3000001907","correct":true,"confidence":4},{"trial_n":25,"span":10,"encoder":"4887181954","distractor":"4887151954","target":"present","response":"absent","rt":"3335.4000000954","correct":false,"confidence":3},{"trial_n":26,"span":9,"encoder":"798679221","distractor":"798679291","target":"absent","response":"absent","rt":"3097.4000000954","correct":true,"confidence":4},{"trial_n":27,"span":9,"encoder":"063270984","distractor":"063270884","target":"present","response":"present","rt":"3366.6000003815","correct":true,"confidence":3},{"trial_n":28,"span":10,"encoder":"6285073683","distractor":"6285079683","target":"absent","response":"absent","rt":"3690.8999996185","correct":true,"confidence":3},{"trial_n":29,"span":10,"encoder":"3449744778","distractor":"3449744774","target":"present","response":"present","rt":"9108.6999998093","correct":true,"confidence":3},{"trial_n":30,"span":11,"encoder":"27463011695","distractor":"27463011696","target":"absent","response":"absent","rt":"4684.2000002861","correct":true,"confidence":2},{"trial_n":31,"span":11,"encoder":"10911611549","distractor":"15911611549","target":"absent","response":"absent","rt":"4861.4000000954","correct":true,"confidence":3},{"trial_n":32,"span":12,"encoder":"845124471524","distractor":"845124491524","target":"absent","response":"absent","rt":"4879.5999999046","correct":true,"confidence":3},{"trial_n":33,"span":12,"encoder":"396269598324","distractor":"396769598324","target":"present","response":"present","rt":"16285.099999905","correct":true,"confidence":2},{"trial_n":34,"span":13,"encoder":"3168330958661","distractor":"3168330958621","target":"present","response":"present","rt":"4114.5","correct":true,"confidence":3},{"trial_n":35,"span":13,"encoder":"9292647731163","distractor":"9293647731163","target":"absent","response":"absent","rt":"5200.5","correct":true,"confidence":2},{"trial_n":36,"span":14,"encoder":"32171982188521","distractor":"32171982108521","target":"present","response":"absent","rt":"4658.4000000954","correct":false,"confidence":3},{"trial_n":37,"span":13,"encoder":"7326310312818","distractor":"7726310312818","target":"present","response":"absent","rt":"1033.0999999046","correct":false,"confidence":2},{"trial_n":38,"span":12,"encoder":"455660889705","distractor":"455660889755","target":"absent","response":"absent","rt":"4071.9000000954","correct":true,"confidence":4},{"trial_n":39,"span":12,"encoder":"933938905050","distractor":"936938905050","target":"present","response":"present","rt":"3669.0999999046","correct":true,"confidence":4},{"trial_n":40,"span":13,"encoder":"6996853535285","distractor":"6996853535785","target":"absent","response":"absent","rt":"2516.5999999046","correct":true,"confidence":4},{"trial_n":41,"span":13,"encoder":"9286139817245","distractor":"9286139812245","target":"absent","response":"absent","rt":"3765.3000001907","correct":true,"confidence":3},{"trial_n":42,"span":14,"encoder":"08316576435840","distractor":"01316576435840","target":"absent","response":"present","rt":"4349.4000000954","correct":false,"confidence":2},{"trial_n":43,"span":13,"encoder":"9986038297995","distractor":"9986038297795","target":"present","response":"present","rt":"2268.3000001907","correct":true,"confidence":3},{"trial_n":44,"span":13,"encoder":"8302491899516","distractor":"8302451899516","target":"absent","response":"absent","rt":"6483.0999999046","correct":true,"confidence":2},{"trial_n":45,"span":14,"encoder":"98398948899778","distractor":"98338948899778","target":"absent","response":"absent","rt":"5357.5","correct":true,"confidence":4},{"trial_n":46,"span":14,"encoder":"25069225044386","distractor":"25069725044386","target":"absent","response":"present","rt":"4535.6999998093","correct":false,"confidence":3},{"trial_n":47,"span":13,"encoder":"6388215355846","distractor":"6388215345846","target":"absent","response":"present","rt":"88508","correct":false,"confidence":2},{"trial_n":48,"span":12,"encoder":"377327571035","distractor":"877327571035","target":"present","response":"present","rt":"2396.5999999046","correct":true,"confidence":3},{"trial_n":49,"span":12,"encoder":"949488658887","distractor":"949488688887","target":"absent","response":"present","rt":"4367.9000000954","correct":false,"confidence":3},{"trial_n":50,"span":11,"encoder":"22159995850","distractor":"22159995750","target":"present","response":"present","rt":"5204.6999998093","correct":true,"confidence":3},{"trial_n":51,"span":11,"encoder":"69651200851","distractor":"69653200851","target":"absent","response":"present","rt":"3123.8000001907","correct":false,"confidence":4},{"trial_n":52,"span":10,"encoder":"3928515825","distractor":"3922515825","target":"absent","response":"absent","rt":"2916.0999999046","correct":true,"confidence":3},{"trial_n":53,"span":10,"encoder":"3487648164","distractor":"3481648164","target":"absent","response":"absent","rt":"3477.4000000954","correct":true,"confidence":3},{"trial_n":54,"span":11,"encoder":"19883967286","distractor":"19883067286","target":"present","response":"present","rt":"7374.1999998093","correct":true,"confidence":3},{"trial_n":55,"span":11,"encoder":"78744372923","distractor":"78741372923","target":"absent","response":"present","rt":"4287","correct":false,"confidence":2},{"trial_n":56,"span":10,"encoder":"3022873134","distractor":"3062873134","target":"absent","response":"present","rt":"3730.9000000954","correct":false,"confidence":3},{"trial_n":57,"span":9,"encoder":"735778436","distractor":"935778436","target":"present","response":"present","rt":"4103.9000000954","correct":true,"confidence":2},{"trial_n":58,"span":9,"encoder":"532201494","distractor":"532207494","target":"present","response":"present","rt":"3017.9000000954","correct":true,"confidence":4},{"trial_n":59,"span":10,"encoder":"4346805581","distractor":"4346835581","target":"present","response":"present","rt":"4691.1999998093","correct":true,"confidence":2},{"trial_n":60,"span":10,"encoder":"7837305282","distractor":"7827305282","target":"present","response":"present","rt":"3856.6999998093","correct":true,"confidence":3},{"trial_n":61,"span":11,"encoder":"12890863738","distractor":"12890862738","target":"present","response":"absent","rt":"4593.4000000954","correct":false,"confidence":3},{"trial_n":62,"span":10,"encoder":"7472041486","distractor":"7472041484","target":"absent","response":"absent","rt":"9212.2000002861","correct":true,"confidence":2},{"trial_n":63,"span":10,"encoder":"1191267030","distractor":"1191667030","target":"absent","response":"present","rt":"9055.9000000954","correct":false,"confidence":2},{"trial_n":64,"span":9,"encoder":"325256137","distractor":"375256137","target":"present","response":"present","rt":"3200","correct":true,"confidence":4},{"trial_n":65,"span":9,"encoder":"655727324","distractor":"655707324","target":"present","response":"absent","rt":"4153.5","correct":false,"confidence":3},{"trial_n":66,"span":8,"encoder":"40794767","distractor":"40793767","target":"present","response":"present","rt":"4440.5999999046","correct":true,"confidence":3},{"trial_n":67,"span":8,"encoder":"02669105","distractor":"04669105","target":"present","response":"absent","rt":"2834.4000000954","correct":false,"confidence":3},{"trial_n":68,"span":7,"encoder":"0360383","distractor":"0360343","target":"absent","response":"absent","rt":"3104.5","correct":true,"confidence":4},{"trial_n":69,"span":7,"encoder":"5374443","distractor":"4374443","target":"present","response":"present","rt":"3392.3000001907","correct":true,"confidence":3},{"trial_n":70,"span":8,"encoder":"78697428","distractor":"78617428","target":"present","response":"absent","rt":"3499.2000002861","correct":false,"confidence":3},{"trial_n":71,"span":8,"encoder":"12192290","distractor":"12192090","target":"present","response":"present","rt":"6217.9000000954","correct":true,"confidence":-1},{"trial_n":72,"span":8,"encoder":"70636803","distractor":"70631803","target":"present","response":"present","rt":"8730.4000000954","correct":true,"confidence":-1},{"trial_n":73,"span":9,"encoder":"651048467","distractor":"651042467","target":"absent","response":"absent","rt":"2084.6999998093","correct":true,"confidence":-1},{"trial_n":74,"span":9,"encoder":"442419318","distractor":"442419312","target":"absent","response":"absent","rt":"2683.1999998093","correct":true,"confidence":-1},{"trial_n":75,"span":10,"encoder":"1552804046","distractor":"1552804047","target":"present","response":"present","rt":"2633.4000000954","correct":true,"confidence":-1},{"trial_n":76,"span":10,"encoder":"9966156344","distractor":"9966256344","target":"absent","response":"absent","rt":"3899.7000002861","correct":true,"confidence":-1},{"trial_n":77,"span":11,"encoder":"82893933602","distractor":"82893939602","target":"absent","response":"absent","rt":"7532.9000000954","correct":true,"confidence":-1},{"trial_n":78,"span":11,"encoder":"83938686545","distractor":"83938676545","target":"present","response":"present","rt":"1802.1999998093","correct":true,"confidence":-1},{"trial_n":79,"span":12,"encoder":"176084436926","distractor":"976084436926","target":"absent","response":"absent","rt":"2024.8000001907","correct":true,"confidence":-1},{"trial_n":80,"span":12,"encoder":"216096396051","distractor":"216096396041","target":"absent","response":"present","rt":"2218.4000000954","correct":false,"confidence":-1},{"trial_n":81,"span":11,"encoder":"60771422215","distractor":"60771422213","target":"absent","response":"absent","rt":"1461.9000000954","correct":true,"confidence":-1},{"trial_n":82,"span":11,"encoder":"49919186386","distractor":"49919186686","target":"present","response":"absent","rt":"1750.5999999046","correct":false,"confidence":-1},{"trial_n":83,"span":10,"encoder":"6984884725","distractor":"6584884725","target":"present","response":"absent","rt":"1790.9000000954","correct":false,"confidence":-1},{"trial_n":84,"span":9,"encoder":"041348641","distractor":"541348641","target":"absent","response":"absent","rt":"7134.1999998093","correct":true,"confidence":-1},{"trial_n":85,"span":9,"encoder":"924057638","distractor":"124057638","target":"present","response":"present","rt":"8452.5999999046","correct":true,"confidence":-1},{"trial_n":86,"span":10,"encoder":"2316464313","distractor":"2316564313","target":"absent","response":"absent","rt":"2666.5999999046","correct":true,"confidence":-1},{"trial_n":87,"span":10,"encoder":"3278698245","distractor":"3278698265","target":"present","response":"present","rt":"1629.1000003815","correct":true,"confidence":-1},{"trial_n":88,"span":11,"encoder":"31930780997","distractor":"21930780997","target":"present","response":"absent","rt":"1116.5","correct":false,"confidence":-1},{"trial_n":89,"span":10,"encoder":"8866916244","distractor":"8866916274","target":"absent","response":"present","rt":"652.09999990463","correct":false,"confidence":-1},{"trial_n":90,"span":9,"encoder":"880002517","distractor":"870002517","target":"present","response":"absent","rt":"672.80000019073","correct":false,"confidence":-1},{"trial_n":91,"span":8,"encoder":"34042288","distractor":"34042218","target":"absent","response":"absent","rt":"699","correct":true,"confidence":3},{"trial_n":92,"span":8,"encoder":"51417167","distractor":"50417167","target":"absent","response":"present","rt":"1076.2999997139","correct":false,"confidence":2},{"trial_n":93,"span":7,"encoder":"6386729","distractor":"6386722","target":"present","response":"present","rt":"1667.4000000954","correct":true,"confidence":4},{"trial_n":94,"span":7,"encoder":"4143149","distractor":"4145149","target":"present","response":"present","rt":"2252.2999997139","correct":true,"confidence":3},{"trial_n":95,"span":8,"encoder":"49926968","distractor":"46926968","target":"absent","response":"present","rt":"1661.9000000954","correct":false,"confidence":1},{"trial_n":96,"span":7,"encoder":"1728533","distractor":"1721533","target":"absent","response":"absent","rt":"2941.9000000954","correct":true,"confidence":4},{"trial_n":97,"span":7,"encoder":"1455543","distractor":"1455243","target":"absent","response":"present","rt":"1624.5999999046","correct":false,"confidence":2},{"trial_n":98,"span":6,"encoder":"437294","distractor":"407294","target":"absent","response":"absent","rt":"3298.5","correct":true,"confidence":3},{"trial_n":99,"span":6,"encoder":"622071","distractor":"692071","target":"present","response":"present","rt":"2090.7999997139","correct":true,"confidence":4},{"trial_n":100,"span":7,"encoder":"5408896","distractor":"5408894","target":"present","response":"present","rt":"1678.5999999046","correct":true,"confidence":4},{"trial_n":101,"span":7,"encoder":"1911739","distractor":"1311739","target":"absent","response":"present","rt":"3841.3000001907","correct":false,"confidence":3},{"trial_n":102,"span":6,"encoder":"189836","distractor":"119836","target":"absent","response":"absent","rt":"4839.2000002861","correct":true,"confidence":2},{"trial_n":103,"span":6,"encoder":"880209","distractor":"887209","target":"present","response":"present","rt":"3184.1999998093","correct":true,"confidence":3},{"trial_n":104,"span":7,"encoder":"9259203","distractor":"9259403","target":"present","response":"present","rt":"5043.6999998093","correct":true,"confidence":4},{"trial_n":105,"span":7,"encoder":"5971948","distractor":"5971968","target":"absent","response":"present","rt":"6901.6999998093","correct":false,"confidence":1},{"trial_n":106,"span":6,"encoder":"282091","distractor":"287091","target":"present","response":"present","rt":"2874","correct":true,"confidence":4},{"trial_n":107,"span":6,"encoder":"419813","distractor":"519813","target":"present","response":"present","rt":"3589.0999999046","correct":true,"confidence":5},{"trial_n":108,"span":7,"encoder":"4106157","distractor":"4106177","target":"present","response":"present","rt":"3009","correct":true,"confidence":4},{"trial_n":109,"span":7,"encoder":"8794521","distractor":"8794528","target":"present","response":"present","rt":"3117.4000000954","correct":true,"confidence":4},{"trial_n":110,"span":8,"encoder":"76783542","distractor":"76783042","target":"present","response":"present","rt":"5226.5999999046","correct":true,"confidence":3},{"trial_n":111,"span":8,"encoder":"08508096","distractor":"08508896","target":"present","response":"present","rt":"3916.8000001907","correct":true,"confidence":3},{"trial_n":112,"span":9,"encoder":"988764813","distractor":"988724813","target":"present","response":"absent","rt":"6884.2999997139","correct":false,"confidence":2},{"trial_n":113,"span":8,"encoder":"52640930","distractor":"52640530","target":"absent","response":"absent","rt":"3568.2999997139","correct":true,"confidence":2},{"trial_n":114,"span":8,"encoder":"45666632","distractor":"45666532","target":"present","response":"present","rt":"4832.8000001907","correct":true,"confidence":4},{"trial_n":115,"span":9,"encoder":"198697482","distractor":"193697482","target":"present","response":"absent","rt":"6835.4000000954","correct":false,"confidence":3},{"trial_n":116,"span":8,"encoder":"93895127","distractor":"93895120","target":"absent","response":"absent","rt":"4344.3000001907","correct":true,"confidence":3},{"trial_n":117,"span":8,"encoder":"34343938","distractor":"34343931","target":"absent","response":"absent","rt":"2402.0999999046","correct":true,"confidence":4},{"trial_n":118,"span":9,"encoder":"558280579","distractor":"558280379","target":"present","response":"present","rt":"1098.9000000954","correct":true,"confidence":2},{"trial_n":119,"span":9,"encoder":"637803135","distractor":"637805135","target":"absent","response":"absent","rt":"2767.7999997139","correct":true,"confidence":4},{"trial_n":120,"span":10,"encoder":"8811021382","distractor":"8819021382","target":"present","response":"present","rt":"3615.6999998093","correct":true,"confidence":3},{"trial_n":121,"span":10,"encoder":"1820576977","distractor":"1823576977","target":"present","response":"present","rt":"3651.4000000954","correct":true,"confidence":3},{"trial_n":122,"span":11,"encoder":"41066573166","distractor":"41066673166","target":"absent","response":"present","rt":"3633.8000001907","correct":false,"confidence":1},{"trial_n":123,"span":10,"encoder":"6814631288","distractor":"6914631288","target":"absent","response":"absent","rt":"3350.8000001907","correct":true,"confidence":3},{"trial_n":124,"span":10,"encoder":"9149247659","distractor":"9149247059","target":"present","response":"present","rt":"2098.9000000954","correct":true,"confidence":4},{"trial_n":125,"span":11,"encoder":"66301229311","distractor":"66301289311","target":"present","response":"present","rt":"4411.9000000954","correct":true,"confidence":3},{"trial_n":126,"span":11,"encoder":"85374070228","distractor":"85374070298","target":"absent","response":"absent","rt":"1714.3999996185","correct":true,"confidence":4},{"trial_n":127,"span":12,"encoder":"481095167635","distractor":"481095163635","target":"absent","response":"present","rt":"2867.9000000954","correct":false,"confidence":2},{"trial_n":128,"span":11,"encoder":"47427542016","distractor":"47427502016","target":"present","response":"absent","rt":"7234.6999998093","correct":false,"confidence":3},{"trial_n":129,"span":10,"encoder":"3579126189","distractor":"3579126789","target":"absent","response":"absent","rt":"2612.9000000954","correct":true,"confidence":5},{"trial_n":130,"span":10,"encoder":"3170988368","distractor":"3171988368","target":"present","response":"present","rt":"1162.5","correct":true,"confidence":1},{"trial_n":131,"span":11,"encoder":"70825868644","distractor":"70825858644","target":"absent","response":"absent","rt":"4223.8000001907","correct":true,"confidence":3},{"trial_n":132,"span":11,"encoder":"15277576892","distractor":"15277578892","target":"absent","response":"present","rt":"2597.5","correct":false,"confidence":2},{"trial_n":133,"span":10,"encoder":"1922330145","distractor":"1922333145","target":"present","response":"present","rt":"2215.9000000954","correct":true,"confidence":4},{"trial_n":134,"span":10,"encoder":"2517369520","distractor":"2517369220","target":"absent","response":"absent","rt":"1749.1999998093","correct":true,"confidence":4},{"trial_n":135,"span":11,"encoder":"71183930016","distractor":"71182930016","target":"present","response":"absent","rt":"3865.1999998093","correct":false,"confidence":3},{"trial_n":136,"span":10,"encoder":"2437139404","distractor":"2435139404","target":"present","response":"absent","rt":"3645","correct":false,"confidence":2},{"trial_n":137,"span":9,"encoder":"456887176","distractor":"456887174","target":"present","response":"present","rt":"2403","correct":true,"confidence":4},{"trial_n":138,"span":9,"encoder":"743205136","distractor":"740205136","target":"absent","response":"present","rt":"3840.5","correct":false,"confidence":3},{"trial_n":139,"span":8,"encoder":"16381525","distractor":"66381525","target":"absent","response":"present","rt":"2850","correct":false,"confidence":2},{"trial_n":140,"span":7,"encoder":"6307323","distractor":"6307383","target":"absent","response":"absent","rt":"4369.5999999046","correct":true,"confidence":4}]