[{"trial_n":1,"span":8,"encoder":"29343783","distractor":"79343783","target":"present","response":"present","rt":"3734.6000000238","correct":true,"confidence":-1},{"trial_n":2,"span":8,"encoder":"78160955","distractor":"78162955","target":"present","response":"present","rt":"2936.900000006","correct":true,"confidence":-1},{"trial_n":3,"span":10,"encoder":"7675508958","distractor":"7675508959","target":"absent","response":"present","rt":"2422","correct":false,"confidence":-1},{"trial_n":4,"span":8,"encoder":"11046920","distractor":"11046820","target":"absent","response":"absent","rt":"5837.8999999762","correct":true,"confidence":-1},{"trial_n":5,"span":8,"encoder":"78577105","distractor":"78577705","target":"present","response":"present","rt":"3012.2999999821","correct":true,"confidence":-1},{"trial_n":6,"span":10,"encoder":"2359763677","distractor":"2359763679","target":"absent","response":"absent","rt":"1430.1000000238","correct":true,"confidence":-1},{"trial_n":7,"span":10,"encoder":"3502834966","distractor":"3502830966","target":"present","response":"present","rt":"2434.6999999881","correct":true,"confidence":-1},{"trial_n":8,"span":12,"encoder":"403478395668","distractor":"403478355668","target":"absent","response":"present","rt":"547.59999999404","correct":false,"confidence":-1},{"trial_n":9,"span":10,"encoder":"3070839352","distractor":"3070831352","target":"present","response":"present","rt":"1233.599999994","correct":true,"confidence":-1},{"trial_n":10,"span":10,"encoder":"7588865158","distractor":"7588565158","target":"present","response":"present","rt":"1079","correct":true,"confidence":-1},{"trial_n":11,"span":12,"encoder":"342049551390","distractor":"342042551390","target":"absent","response":"present","rt":"1588.6000000238","correct":false,"confidence":-1},{"trial_n":12,"span":11,"encoder":"25085756801","distractor":"25085756804","target":"present","response":"absent","rt":"686.69999998808","correct":false,"confidence":-1},{"trial_n":13,"span":10,"encoder":"5716269903","distractor":"5716289903","target":"absent","response":"present","rt":"1693.8999999762","correct":false,"confidence":-1},{"trial_n":14,"span":9,"encoder":"929579474","distractor":"929569474","target":"absent","response":"present","rt":"1406.2999999821","correct":false,"confidence":-1},{"trial_n":15,"span":8,"encoder":"92977877","distractor":"93977877","target":"absent","response":"absent","rt":"2709.5","correct":true,"confidence":-1},{"trial_n":16,"span":8,"encoder":"46207641","distractor":"46207631","target":"present","response":"absent","rt":"1062","correct":false,"confidence":-1},{"trial_n":17,"span":7,"encoder":"9399674","distractor":"9393674","target":"present","response":"present","rt":"1134.5","correct":true,"confidence":-1},{"trial_n":18,"span":7,"encoder":"4510768","distractor":"4310768","target":"absent","response":"present","rt":"855.5","correct":false,"confidence":-1},{"trial_n":19,"span":6,"encoder":"009272","distractor":"049272","target":"absent","response":"present","rt":"447.59999999404","correct":false,"confidence":-1},{"trial_n":20,"span":5,"encoder":"31348","distractor":"35348","target":"absent","response":"absent","rt":"1445.099999994","correct":true,"confidence":-1},{"trial_n":21,"span":5,"encoder":"37404","distractor":"33404","target":"present","response":"present","rt":"1538.5","correct":true,"confidence":5},{"trial_n":22,"span":6,"encoder":"119737","distractor":"119731","target":"present","response":"absent","rt":"3877.5","correct":false,"confidence":5},{"trial_n":23,"span":5,"encoder":"07666","distractor":"07661","target":"present","response":"absent","rt":"2550.5","correct":false,"confidence":1},{"trial_n":24,"span":4,"encoder":"7526","distractor":"7566","target":"present","response":"present","rt":"2010.2999999821","correct":true,"confidence":5},{"trial_n":25,"span":4,"encoder":"7624","distractor":"1624","target":"present","response":"present","rt":"2488.2999999821","correct":true,"confidence":5},{"trial_n":26,"span":5,"encoder":"81270","distractor":"81271","target":"present","response":"present","rt":"1216.5","correct":true,"confidence":5},{"trial_n":27,"span":5,"encoder":"28335","distractor":"98335","target":"present","response":"absent","rt":"2245.8000000119","correct":false,"confidence":4},{"trial_n":28,"span":4,"encoder":"5402","distractor":"5422","target":"absent","response":"absent","rt":"1331.7999999821","correct":true,"confidence":5},{"trial_n":29,"span":4,"encoder":"2663","distractor":"2666","target":"absent","response":"absent","rt":"1270","correct":true,"confidence":5},{"trial_n":30,"span":5,"encoder":"86341","distractor":"81341","target":"absent","response":"absent","rt":"1586.2999999821","correct":true,"confidence":5},{"trial_n":31,"span":5,"encoder":"75503","distractor":"74503","target":"present","response":"present","rt":"3601.3000000119","correct":true,"confidence":5},{"trial_n":32,"span":6,"encoder":"262611","distractor":"262617","target":"present","response":"absent","rt":"1853.1000000238","correct":false,"confidence":1},{"trial_n":33,"span":5,"encoder":"41536","distractor":"41516","target":"absent","response":"absent","rt":"1594.5","correct":true,"confidence":1},{"trial_n":34,"span":5,"encoder":"88413","distractor":"85413","target":"absent","response":"absent","rt":"1695.3999999762","correct":true,"confidence":5},{"trial_n":35,"span":6,"encoder":"930596","distractor":"930590","target":"present","response":"absent","rt":"3584","correct":false,"confidence":5},{"trial_n":36,"span":5,"encoder":"49012","distractor":"49042","target":"present","response":"present","rt":"3138.8000000119","correct":true,"confidence":5},{"trial_n":37,"span":5,"encoder":"85443","distractor":"85444","target":"absent","response":"absent","rt":"2296.2000000179","correct":true,"confidence":5},{"trial_n":38,"span":6,"encoder":"158720","distractor":"558720","target":"absent","response":"absent","rt":"1412.900000006","correct":true,"confidence":5},{"trial_n":39,"span":6,"encoder":"180713","distractor":"180743","target":"present","response":"absent","rt":"2493.599999994","correct":false,"confidence":3},{"trial_n":40,"span":5,"encoder":"76164","distractor":"76166","target":"absent","response":"absent","rt":"1678.2999999821","correct":true,"confidence":5},{"trial_n":41,"span":5,"encoder":"42886","distractor":"48886","target":"absent","response":"absent","rt":"1488.3999999762","correct":true,"confidence":5},{"trial_n":42,"span":6,"encoder":"177258","distractor":"177158","target":"present","response":"present","rt":"2875.6999999881","correct":true,"confidence":5},{"trial_n":43,"span":6,"encoder":"623228","distractor":"620228","target":"absent","response":"absent","rt":"2365.6999999881","correct":true,"confidence":1},{"trial_n":44,"span":7,"encoder":"3269619","distractor":"3269119","target":"present","response":"absent","rt":"1600.599999994","correct":false,"confidence":1},{"trial_n":45,"span":6,"encoder":"243000","distractor":"243500","target":"absent","response":"absent","rt":"3018.599999994","correct":true,"confidence":2},{"trial_n":46,"span":6,"encoder":"613568","distractor":"613268","target":"present","response":"absent","rt":"3158","correct":false,"confidence":1},{"trial_n":47,"span":5,"encoder":"10097","distractor":"13097","target":"absent","response":"absent","rt":"1346.5","correct":true,"confidence":1},{"trial_n":48,"span":5,"encoder":"00818","distractor":"00018","target":"present","response":"absent","rt":"1465.7999999821","correct":false,"confidence":5},{"trial_n":49,"span":4,"encoder":"9559","distractor":"9555","target":"absent","response":"absent","rt":"1201.8999999762","correct":true,"confidence":5},{"trial_n":50,"span":4,"encoder":"6327","distractor":"6127","target":"present","response":"present","rt":"2288.2999999821","correct":true,"confidence":5},{"trial_n":51,"span":5,"encoder":"86010","distractor":"26010","target":"present","response":"present","rt":"1946.2999999821","correct":true,"confidence":5},{"trial_n":52,"span":5,"encoder":"24636","distractor":"74636","target":"absent","response":"absent","rt":"1885.599999994","correct":true,"confidence":5},{"trial_n":53,"span":6,"encoder":"891141","distractor":"891121","target":"absent","response":"absent","rt":"1613.1000000238","correct":true,"confidence":5},{"trial_n":54,"span":6,"encoder":"188214","distractor":"188244","target":"absent","response":"absent","rt":"1609.599999994","correct":true,"confidence":3},{"trial_n":55,"span":7,"encoder":"9708582","distractor":"8708582","target":"present","response":"present","rt":"3850.6000000238","correct":true,"confidence":4},{"trial_n":56,"span":7,"encoder":"1452021","distractor":"3452021","target":"absent","response":"absent","rt":"1771.1000000238","correct":true,"confidence":5},{"trial_n":57,"span":8,"encoder":"04663130","distractor":"08663130","target":"present","response":"present","rt":"3075.1999999881","correct":true,"confidence":5},{"trial_n":58,"span":8,"encoder":"00049698","distractor":"00089698","target":"absent","response":"absent","rt":"1522.099999994","correct":true,"confidence":5},{"trial_n":59,"span":9,"encoder":"671640490","distractor":"171640490","target":"present","response":"absent","rt":"1458.1999999881","correct":false,"confidence":4},{"trial_n":60,"span":8,"encoder":"66129010","distractor":"66139010","target":"present","response":"absent","rt":"1336.400000006","correct":false,"confidence":1},{"trial_n":61,"span":7,"encoder":"2811932","distractor":"3811932","target":"present","response":"present","rt":"2226.7999999821","correct":true,"confidence":5},{"trial_n":62,"span":7,"encoder":"8391793","distractor":"8391693","target":"absent","response":"absent","rt":"2095.1000000238","correct":true,"confidence":3},{"trial_n":63,"span":8,"encoder":"37645360","distractor":"30645360","target":"absent","response":"absent","rt":"1256.3000000119","correct":true,"confidence":5},{"trial_n":64,"span":8,"encoder":"01480025","distractor":"01486025","target":"absent","response":"absent","rt":"2998.599999994","correct":true,"confidence":4},{"trial_n":65,"span":9,"encoder":"773446739","distractor":"773446239","target":"absent","response":"present","rt":"3347.6999999881","correct":false,"confidence":5},{"trial_n":66,"span":8,"encoder":"23956073","distractor":"83956073","target":"present","response":"absent","rt":"3549.900000006","correct":false,"confidence":3},{"trial_n":67,"span":7,"encoder":"4078893","distractor":"2078893","target":"present","response":"absent","rt":"1866.099999994","correct":false,"confidence":5},{"trial_n":68,"span":6,"encoder":"360575","distractor":"360175","target":"present","response":"present","rt":"2538.3999999762","correct":true,"confidence":5},{"trial_n":69,"span":6,"encoder":"651424","distractor":"651444","target":"absent","response":"absent","rt":"1542.6999999881","correct":true,"confidence":1},{"trial_n":70,"span":7,"encoder":"0283409","distractor":"0285409","target":"present","response":"absent","rt":"1624.900000006","correct":false,"confidence":1},{"trial_n":71,"span":8,"encoder":"45952064","distractor":"45952464","target":"present","response":"absent","rt":"6373.599999994","correct":false,"confidence":-1},{"trial_n":72,"span":7,"encoder":"5950108","distractor":"5950104","target":"present","response":"absent","rt":"10779","correct":false,"confidence":-1},{"trial_n":73,"span":6,"encoder":"753763","distractor":"753863","target":"absent","response":"present","rt":"336.69999998808","correct":false,"confidence":-1},{"trial_n":74,"span":5,"encoder":"37339","distractor":"35339","target":"absent","response":"present","rt":"410.60000002384","correct":false,"confidence":-1},{"trial_n":75,"span":4,"encoder":"4421","distractor":"4411","target":"present","response":"present","rt":"456.59999999404","correct":true,"confidence":-1},{"trial_n":76,"span":4,"encoder":"5267","distractor":"5217","target":"present","response":"present","rt":"387.30000001192","correct":true,"confidence":-1},{"trial_n":77,"span":5,"encoder":"36422","distractor":"96422","target":"present","response":"present","rt":"253.5","correct":true,"confidence":-1},{"trial_n":78,"span":5,"encoder":"25821","distractor":"45821","target":"present","response":"absent","rt":"91.199999988079","correct":false,"confidence":-1},{"trial_n":79,"span":4,"encoder":"1799","distractor":"1499","target":"absent","response":"absent","rt":"3201.8000000119","correct":true,"confidence":-1},{"trial_n":80,"span":4,"encoder":"4281","distractor":"4781","target":"absent","response":"absent","rt":"777","correct":true,"confidence":-1},{"trial_n":81,"span":5,"encoder":"55341","distractor":"55371","target":"absent","response":"present","rt":"3293.7000000179","correct":false,"confidence":-1},{"trial_n":82,"span":4,"encoder":"5061","distractor":"5031","target":"absent","response":"absent","rt":"967.5","correct":true,"confidence":-1},{"trial_n":83,"span":4,"encoder":"1693","distractor":"2693","target":"absent","response":"present","rt":"405.80000001192","correct":false,"confidence":-1},{"trial_n":84,"span":3,"encoder":"039","distractor":"099","target":"present","response":"present","rt":"649.09999999404","correct":true,"confidence":-1},{"trial_n":85,"span":3,"encoder":"191","distractor":"197","target":"absent","response":"present","rt":"836","correct":false,"confidence":-1},{"trial_n":86,"span":2,"encoder":"27","distractor":"22","target":"present","response":"absent","rt":"1761.6999999881","correct":false,"confidence":-1},{"trial_n":87,"span":2,"encoder":"88","distractor":"08","target":"present","response":"absent","rt":"702.5","correct":false,"confidence":-1},{"trial_n":88,"span":2,"encoder":"62","distractor":"69","target":"present","response":"absent","rt":"863.70000001788","correct":false,"confidence":-1},{"trial_n":89,"span":2,"encoder":"51","distractor":"71","target":"absent","response":"present","rt":"319.29999998212","correct":false,"confidence":-1},{"trial_n":90,"span":2,"encoder":"85","distractor":"15","target":"absent","response":"present","rt":"257.29999998212","correct":false,"confidence":-1},{"trial_n":91,"span":2,"encoder":"81","distractor":"88","target":"present","response":"present","rt":"2936.3999999762","correct":true,"confidence":5},{"trial_n":92,"span":2,"encoder":"79","distractor":"39","target":"absent","response":"absent","rt":"4078.6999999881","correct":true,"confidence":5},{"trial_n":93,"span":3,"encoder":"103","distractor":"803","target":"absent","response":"absent","rt":"6130.599999994","correct":true,"confidence":5},{"trial_n":94,"span":3,"encoder":"260","distractor":"270","target":"present","response":"present","rt":"2805.599999994","correct":true,"confidence":5},{"trial_n":95,"span":4,"encoder":"7765","distractor":"7768","target":"absent","response":"absent","rt":"3845.400000006","correct":true,"confidence":5},{"trial_n":96,"span":4,"encoder":"7079","distractor":"7099","target":"absent","response":"absent","rt":"2155.8000000119","correct":true,"confidence":5},{"trial_n":97,"span":5,"encoder":"30092","distractor":"30042","target":"absent","response":"absent","rt":"3303","correct":true,"confidence":5},{"trial_n":98,"span":5,"encoder":"81817","distractor":"81815","target":"absent","response":"absent","rt":"2408.5","correct":true,"confidence":5},{"trial_n":99,"span":6,"encoder":"081481","distractor":"081081","target":"absent","response":"absent","rt":"4464.5","correct":true,"confidence":5},{"trial_n":100,"span":6,"encoder":"555982","distractor":"555782","target":"absent","response":"absent","rt":"4780","correct":true,"confidence":5},{"trial_n":101,"span":7,"encoder":"7721653","distractor":"7921653","target":"absent","response":"present","rt":"6321.5","correct":false,"confidence":5},{"trial_n":102,"span":6,"encoder":"993663","distractor":"993613","target":"present","response":"present","rt":"4126.5","correct":true,"confidence":5},{"trial_n":103,"span":6,"encoder":"174343","distractor":"174643","target":"present","response":"present","rt":"3493.400000006","correct":true,"confidence":5},{"trial_n":104,"span":7,"encoder":"0565558","distractor":"0560558","target":"absent","response":"absent","rt":"3143.099999994","correct":true,"confidence":5},{"trial_n":105,"span":7,"encoder":"7738951","distractor":"7438951","target":"absent","response":"absent","rt":"5302","correct":true,"confidence":1},{"trial_n":106,"span":8,"encoder":"64112943","distractor":"64112903","target":"present","response":"present","rt":"4163.5","correct":true,"confidence":5},{"trial_n":107,"span":8,"encoder":"40267655","distractor":"43267655","target":"present","response":"present","rt":"7274.599999994","correct":true,"confidence":5},{"trial_n":108,"span":9,"encoder":"285213984","distractor":"285113984","target":"absent","response":"absent","rt":"1793.2000000179","correct":true,"confidence":3},{"trial_n":109,"span":9,"encoder":"269452554","distractor":"269492554","target":"absent","response":"absent","rt":"6616","correct":true,"confidence":3},{"trial_n":110,"span":10,"encoder":"3617543014","distractor":"3617543016","target":"present","response":"absent","rt":"1468.3999999762","correct":false,"confidence":1},{"trial_n":111,"span":9,"encoder":"241225019","distractor":"241222019","target":"present","response":"present","rt":"4194.6999999881","correct":true,"confidence":5},{"trial_n":112,"span":9,"encoder":"244363229","distractor":"244363929","target":"absent","response":"absent","rt":"8401.900000006","correct":true,"confidence":3},{"trial_n":113,"span":10,"encoder":"7988870840","distractor":"7982870840","target":"absent","response":"absent","rt":"1976.8000000119","correct":true,"confidence":1},{"trial_n":114,"span":10,"encoder":"3476596554","distractor":"3476596654","target":"absent","response":"absent","rt":"3231.3000000119","correct":true,"confidence":1},{"trial_n":115,"span":11,"encoder":"22731435402","distractor":"22721435402","target":"present","response":"present","rt":"1294.8000000119","correct":true,"confidence":1},{"trial_n":116,"span":11,"encoder":"20386004312","distractor":"20386004712","target":"absent","response":"absent","rt":"415.59999999404","correct":true,"confidence":1},{"trial_n":117,"span":12,"encoder":"940386993062","distractor":"940386693062","target":"present","response":"present","rt":"788","correct":true,"confidence":2},{"trial_n":118,"span":12,"encoder":"790251861356","distractor":"790251861350","target":"present","response":"absent","rt":"4521.599999994","correct":false,"confidence":4},{"trial_n":119,"span":11,"encoder":"22488886894","distractor":"22488886874","target":"present","response":"present","rt":"4892.1999999881","correct":true,"confidence":5},{"trial_n":120,"span":11,"encoder":"98552809272","distractor":"98552809202","target":"present","response":"present","rt":"1441.900000006","correct":true,"confidence":1},{"trial_n":121,"span":12,"encoder":"774965458052","distractor":"734965458052","target":"absent","response":"absent","rt":"3563.599999994","correct":true,"confidence":5},{"trial_n":122,"span":12,"encoder":"370015775142","distractor":"370015705142","target":"present","response":"absent","rt":"5041.2999999821","correct":false,"confidence":5},{"trial_n":123,"span":11,"encoder":"50914581475","distractor":"50914571475","target":"present","response":"absent","rt":"1692.3000000119","correct":false,"confidence":4},{"trial_n":124,"span":10,"encoder":"6211735188","distractor":"6231735188","target":"present","response":"absent","rt":"5574.2999999821","correct":false,"confidence":4},{"trial_n":125,"span":9,"encoder":"533611879","distractor":"533619879","target":"present","response":"absent","rt":"2733.3000000119","correct":false,"confidence":1},{"trial_n":126,"span":8,"encoder":"97180151","distractor":"97100151","target":"absent","response":"present","rt":"2281.2999999821","correct":false,"confidence":1},{"trial_n":127,"span":7,"encoder":"5922215","distractor":"5922245","target":"present","response":"absent","rt":"464.80000001192","correct":false,"confidence":1},{"trial_n":128,"span":6,"encoder":"900684","distractor":"900284","target":"absent","response":"absent","rt":"4127.1999999881","correct":true,"confidence":5},{"trial_n":129,"span":6,"encoder":"323482","distractor":"623482","target":"present","response":"absent","rt":"2491","correct":false,"confidence":1},{"trial_n":130,"span":5,"encoder":"83134","distractor":"83135","target":"present","response":"present","rt":"2570.7999999821","correct":true,"confidence":5},{"trial_n":131,"span":5,"encoder":"58303","distractor":"58309","target":"absent","response":"absent","rt":"2230.7999999821","correct":true,"confidence":5},{"trial_n":132,"span":6,"encoder":"716336","distractor":"716736","target":"present","response":"present","rt":"3046.7999999821","correct":true,"confidence":5},{"trial_n":133,"span":6,"encoder":"159882","distractor":"059882","target":"present","response":"present","rt":"2985","correct":true,"confidence":5},{"trial_n":134,"span":7,"encoder":"2921087","distractor":"2221087","target":"present","response":"absent","rt":"400.20000001788","correct":false,"confidence":5},{"trial_n":135,"span":6,"encoder":"032919","distractor":"042919","target":"absent","response":"absent","rt":"2394.3000000119","correct":true,"confidence":5},{"trial_n":136,"span":6,"encoder":"393911","distractor":"393961","target":"absent","response":"absent","rt":"3946.2999999821","correct":true,"confidence":5},{"trial_n":137,"span":7,"encoder":"0879494","distractor":"0879294","target":"present","response":"absent","rt":"6519.5","correct":false,"confidence":5},{"trial_n":138,"span":6,"encoder":"880781","distractor":"880721","target":"present","response":"present","rt":"2831.7999999821","correct":true,"confidence":5},{"trial_n":139,"span":6,"encoder":"736629","distractor":"730629","target":"absent","response":"absent","rt":"3160.1999999881","correct":true,"confidence":4},{"trial_n":140,"span":7,"encoder":"6191796","distractor":"4191796","target":"present","response":"present","rt":"2007.2000000179","correct":true,"confidence":5}]