[{"trial_n":1,"min":25,"max":230,"target":"present","response":"present","rt":7048.1999999993,"correct":true,"confidence":-1},{"trial_n":2,"min":25,"max":230,"target":"present","response":"present","rt":1617.1999999993,"correct":true,"confidence":-1},{"trial_n":3,"min":41,"max":214,"target":"absent","response":"present","rt":96648.299999997,"correct":false,"confidence":-1},{"trial_n":4,"min":25,"max":230,"target":"absent","response":"present","rt":813.69999999925,"correct":false,"confidence":-1},{"trial_n":5,"min":9,"max":246,"target":"present","response":"present","rt":703.5,"correct":true,"confidence":-1},{"trial_n":6,"min":9,"max":246,"target":"absent","response":"absent","rt":609.5,"correct":true,"confidence":-1},{"trial_n":7,"min":25,"max":230,"target":"absent","response":"absent","rt":2580.4000000022,"correct":true,"confidence":-1},{"trial_n":8,"min":25,"max":230,"target":"present","response":"present","rt":1054.9000000022,"correct":true,"confidence":-1},{"trial_n":9,"min":41,"max":214,"target":"absent","response":"absent","rt":740.5,"correct":true,"confidence":-1},{"trial_n":10,"min":41,"max":214,"target":"present","response":"present","rt":545.19999999925,"correct":true,"confidence":-1},{"trial_n":11,"min":49,"max":206,"target":"present","response":"present","rt":1018.8000000007,"correct":true,"confidence":-1},{"trial_n":12,"min":49,"max":206,"target":"present","response":"present","rt":300.79999999702,"correct":true,"confidence":-1},{"trial_n":13,"min":57,"max":198,"target":"present","response":"present","rt":447.80000000075,"correct":true,"confidence":-1},{"trial_n":14,"min":57,"max":198,"target":"absent","response":"absent","rt":375,"correct":true,"confidence":-1},{"trial_n":15,"min":65,"max":190,"target":"present","response":"present","rt":271.30000000075,"correct":true,"confidence":-1},{"trial_n":16,"min":65,"max":190,"target":"absent","response":"absent","rt":292.80000000075,"correct":true,"confidence":-1},{"trial_n":17,"min":73,"max":182,"target":"absent","response":"absent","rt":251,"correct":true,"confidence":-1},{"trial_n":18,"min":73,"max":182,"target":"absent","response":"absent","rt":214.5,"correct":true,"confidence":-1},{"trial_n":19,"min":81,"max":174,"target":"absent","response":"absent","rt":203,"correct":true,"confidence":-1},{"trial_n":20,"min":81,"max":174,"target":"present","response":"absent","rt":235.20000000298,"correct":false,"confidence":-1},{"trial_n":21,"min":77,"max":178,"target":"present","response":"absent","rt":510.69999999925,"correct":false,"confidence":3},{"trial_n":22,"min":73,"max":182,"target":"present","response":"absent","rt":502.30000000075,"correct":false,"confidence":2},{"trial_n":23,"min":69,"max":186,"target":"present","response":"present","rt":797.39999999851,"correct":true,"confidence":5},{"trial_n":24,"min":69,"max":186,"target":"present","response":"present","rt":650.59999999776,"correct":true,"confidence":4},{"trial_n":25,"min":73,"max":182,"target":"present","response":"absent","rt":1152.6000000015,"correct":false,"confidence":3},{"trial_n":26,"min":69,"max":186,"target":"absent","response":"present","rt":539.10000000149,"correct":false,"confidence":4},{"trial_n":27,"min":65,"max":190,"target":"present","response":"present","rt":525.70000000298,"correct":true,"confidence":5},{"trial_n":28,"min":65,"max":190,"target":"absent","response":"present","rt":535.69999999925,"correct":false,"confidence":4},{"trial_n":29,"min":61,"max":194,"target":"absent","response":"absent","rt":674.59999999776,"correct":true,"confidence":2},{"trial_n":30,"min":61,"max":194,"target":"absent","response":"present","rt":1092.1999999993,"correct":false,"confidence":3},{"trial_n":31,"min":59,"max":196,"target":"absent","response":"present","rt":715,"correct":false,"confidence":3},{"trial_n":32,"min":57,"max":198,"target":"absent","response":"present","rt":563.10000000149,"correct":false,"confidence":3},{"trial_n":33,"min":55,"max":200,"target":"absent","response":"present","rt":607.89999999851,"correct":false,"confidence":4},{"trial_n":34,"min":53,"max":202,"target":"present","response":"present","rt":513.89999999851,"correct":true,"confidence":5},{"trial_n":35,"min":53,"max":202,"target":"present","response":"present","rt":536.29999999702,"correct":true,"confidence":5},{"trial_n":36,"min":55,"max":200,"target":"absent","response":"present","rt":711.19999999925,"correct":false,"confidence":3},{"trial_n":37,"min":53,"max":202,"target":"present","response":"present","rt":430.39999999851,"correct":true,"confidence":5},{"trial_n":38,"min":53,"max":202,"target":"present","response":"present","rt":632.89999999851,"correct":true,"confidence":5},{"trial_n":39,"min":55,"max":200,"target":"present","response":"present","rt":492,"correct":true,"confidence":5},{"trial_n":40,"min":55,"max":200,"target":"absent","response":"present","rt":729,"correct":false,"confidence":4},{"trial_n":41,"min":54,"max":201,"target":"present","response":"present","rt":481.60000000149,"correct":true,"confidence":4},{"trial_n":42,"min":54,"max":201,"target":"absent","response":"present","rt":482.80000000075,"correct":false,"confidence":4},{"trial_n":43,"min":53,"max":202,"target":"present","response":"present","rt":426.5,"correct":true,"confidence":5},{"trial_n":44,"min":53,"max":202,"target":"present","response":"present","rt":441.19999999925,"correct":true,"confidence":5},{"trial_n":45,"min":54,"max":201,"target":"absent","response":"present","rt":457,"correct":false,"confidence":4},{"trial_n":46,"min":53,"max":202,"target":"absent","response":"present","rt":1174.200000003,"correct":false,"confidence":3},{"trial_n":47,"min":52,"max":203,"target":"absent","response":"absent","rt":551.89999999851,"correct":true,"confidence":2},{"trial_n":48,"min":52,"max":203,"target":"present","response":"present","rt":574.30000000075,"correct":true,"confidence":5},{"trial_n":49,"min":53,"max":202,"target":"absent","response":"present","rt":579.80000000075,"correct":false,"confidence":3},{"trial_n":50,"min":52,"max":203,"target":"absent","response":"present","rt":724.5,"correct":false,"confidence":4},{"trial_n":51,"min":51,"max":204,"target":"absent","response":"present","rt":597.79999999702,"correct":false,"confidence":3},{"trial_n":52,"min":50,"max":205,"target":"present","response":"present","rt":603.10000000149,"correct":true,"confidence":5},{"trial_n":53,"min":50,"max":205,"target":"absent","response":"absent","rt":1733,"correct":true,"confidence":3},{"trial_n":54,"min":51,"max":204,"target":"absent","response":"absent","rt":631.10000000149,"correct":true,"confidence":4},{"trial_n":55,"min":51,"max":204,"target":"present","response":"present","rt":468.39999999851,"correct":true,"confidence":5},{"trial_n":56,"min":52,"max":203,"target":"present","response":"present","rt":385.39999999851,"correct":true,"confidence":5},{"trial_n":57,"min":52,"max":203,"target":"present","response":"present","rt":445,"correct":true,"confidence":5},{"trial_n":58,"min":53,"max":202,"target":"absent","response":"absent","rt":539.80000000075,"correct":true,"confidence":3},{"trial_n":59,"min":53,"max":202,"target":"present","response":"present","rt":579.09999999776,"correct":true,"confidence":5},{"trial_n":60,"min":54,"max":201,"target":"absent","response":"present","rt":609.5,"correct":false,"confidence":4},{"trial_n":61,"min":53,"max":202,"target":"absent","response":"absent","rt":675.59999999776,"correct":true,"confidence":3},{"trial_n":62,"min":53,"max":202,"target":"present","response":"present","rt":437.39999999851,"correct":true,"confidence":5},{"trial_n":63,"min":54,"max":201,"target":"present","response":"present","rt":571.5,"correct":true,"confidence":5},{"trial_n":64,"min":54,"max":201,"target":"absent","response":"present","rt":816.19999999925,"correct":false,"confidence":3},{"trial_n":65,"min":53,"max":202,"target":"present","response":"present","rt":448.39999999851,"correct":true,"confidence":4},{"trial_n":66,"min":53,"max":202,"target":"present","response":"present","rt":369.30000000075,"correct":true,"confidence":5},{"trial_n":67,"min":54,"max":201,"target":"present","response":"present","rt":432.5,"correct":true,"confidence":5},{"trial_n":68,"min":54,"max":201,"target":"present","response":"present","rt":352.5,"correct":true,"confidence":5},{"trial_n":69,"min":55,"max":200,"target":"absent","response":"absent","rt":563.40000000224,"correct":true,"confidence":4},{"trial_n":70,"min":55,"max":200,"target":"absent","response":"absent","rt":415.40000000224,"correct":true,"confidence":4},{"trial_n":71,"min":41,"max":214,"target":"present","response":"present","rt":3805.1999999993,"correct":true,"confidence":-1},{"trial_n":72,"min":41,"max":214,"target":"present","response":"present","rt":1096.3000000007,"correct":true,"confidence":-1},{"trial_n":73,"min":57,"max":198,"target":"absent","response":"absent","rt":1098.200000003,"correct":true,"confidence":-1},{"trial_n":74,"min":57,"max":198,"target":"absent","response":"absent","rt":321.80000000075,"correct":true,"confidence":-1},{"trial_n":75,"min":73,"max":182,"target":"present","response":"present","rt":330,"correct":true,"confidence":-1},{"trial_n":76,"min":73,"max":182,"target":"absent","response":"absent","rt":334.09999999776,"correct":true,"confidence":-1},{"trial_n":77,"min":89,"max":166,"target":"present","response":"present","rt":350,"correct":true,"confidence":-1},{"trial_n":78,"min":89,"max":166,"target":"present","response":"present","rt":487.19999999925,"correct":true,"confidence":-1},{"trial_n":79,"min":105,"max":150,"target":"present","response":"present","rt":450.80000000075,"correct":true,"confidence":-1},{"trial_n":80,"min":105,"max":150,"target":"absent","response":"present","rt":482.29999999702,"correct":false,"confidence":-1},{"trial_n":81,"min":97,"max":158,"target":"present","response":"absent","rt":287.89999999851,"correct":false,"confidence":-1},{"trial_n":82,"min":89,"max":166,"target":"absent","response":"absent","rt":72.199999999255,"correct":true,"confidence":-1},{"trial_n":83,"min":89,"max":166,"target":"absent","response":"present","rt":125,"correct":false,"confidence":-1},{"trial_n":84,"min":81,"max":174,"target":"present","response":"absent","rt":134.60000000149,"correct":false,"confidence":-1},{"trial_n":85,"min":73,"max":182,"target":"absent","response":"absent","rt":788.30000000075,"correct":true,"confidence":-1},{"trial_n":86,"min":73,"max":182,"target":"present","response":"present","rt":1043.5,"correct":true,"confidence":-1},{"trial_n":87,"min":81,"max":174,"target":"absent","response":"absent","rt":662.39999999851,"correct":true,"confidence":-1},{"trial_n":88,"min":81,"max":174,"target":"absent","response":"absent","rt":452.30000000075,"correct":true,"confidence":-1},{"trial_n":89,"min":89,"max":166,"target":"absent","response":"present","rt":251,"correct":false,"confidence":-1},{"trial_n":90,"min":81,"max":174,"target":"absent","response":"absent","rt":399.20000000298,"correct":true,"confidence":-1},{"trial_n":91,"min":81,"max":174,"target":"present","response":"present","rt":272.39999999851,"correct":true,"confidence":3},{"trial_n":92,"min":85,"max":170,"target":"present","response":"present","rt":563.5,"correct":true,"confidence":4},{"trial_n":93,"min":85,"max":170,"target":"absent","response":"absent","rt":815.19999999925,"correct":true,"confidence":2},{"trial_n":94,"min":89,"max":166,"target":"present","response":"present","rt":1109.3000000007,"correct":true,"confidence":5},{"trial_n":95,"min":89,"max":166,"target":"present","response":"present","rt":459.19999999925,"correct":true,"confidence":4},{"trial_n":96,"min":93,"max":162,"target":"absent","response":"present","rt":1402.1000000015,"correct":false,"confidence":1},{"trial_n":97,"min":89,"max":166,"target":"present","response":"present","rt":557,"correct":true,"confidence":3},{"trial_n":98,"min":89,"max":166,"target":"absent","response":"present","rt":628.29999999702,"correct":false,"confidence":4},{"trial_n":99,"min":85,"max":170,"target":"present","response":"present","rt":328,"correct":true,"confidence":5},{"trial_n":100,"min":85,"max":170,"target":"absent","response":"absent","rt":451.5,"correct":true,"confidence":4},{"trial_n":101,"min":87,"max":168,"target":"present","response":"present","rt":438.5,"correct":true,"confidence":4},{"trial_n":102,"min":87,"max":168,"target":"present","response":"present","rt":365.79999999702,"correct":true,"confidence":5},{"trial_n":103,"min":89,"max":166,"target":"present","response":"present","rt":513.19999999925,"correct":true,"confidence":2},{"trial_n":104,"min":89,"max":166,"target":"present","response":"present","rt":279.60000000149,"correct":true,"confidence":4},{"trial_n":105,"min":91,"max":164,"target":"present","response":"present","rt":420.69999999925,"correct":true,"confidence":4},{"trial_n":106,"min":91,"max":164,"target":"absent","response":"present","rt":345.89999999851,"correct":false,"confidence":3},{"trial_n":107,"min":89,"max":166,"target":"absent","response":"present","rt":439.60000000149,"correct":false,"confidence":3},{"trial_n":108,"min":87,"max":168,"target":"present","response":"absent","rt":1127.3000000007,"correct":false,"confidence":2},{"trial_n":109,"min":85,"max":170,"target":"absent","response":"present","rt":578.80000000075,"correct":false,"confidence":3},{"trial_n":110,"min":83,"max":172,"target":"present","response":"present","rt":349.30000000075,"correct":true,"confidence":4},{"trial_n":111,"min":83,"max":172,"target":"present","response":"present","rt":98.800000000745,"correct":true,"confidence":5},{"trial_n":112,"min":84,"max":171,"target":"absent","response":"present","rt":408.09999999776,"correct":false,"confidence":4},{"trial_n":113,"min":83,"max":172,"target":"absent","response":"absent","rt":574.39999999851,"correct":true,"confidence":5},{"trial_n":114,"min":83,"max":172,"target":"absent","response":"present","rt":466.40000000224,"correct":false,"confidence":4},{"trial_n":115,"min":82,"max":173,"target":"present","response":"present","rt":188.30000000075,"correct":true,"confidence":4},{"trial_n":116,"min":82,"max":173,"target":"absent","response":"present","rt":320.39999999851,"correct":false,"confidence":3},{"trial_n":117,"min":81,"max":174,"target":"present","response":"present","rt":231.69999999925,"correct":true,"confidence":2},{"trial_n":118,"min":81,"max":174,"target":"present","response":"present","rt":212.10000000149,"correct":true,"confidence":5},{"trial_n":119,"min":82,"max":173,"target":"present","response":"present","rt":273.30000000075,"correct":true,"confidence":5},{"trial_n":120,"min":82,"max":173,"target":"absent","response":"absent","rt":508.30000000075,"correct":true,"confidence":5},{"trial_n":121,"min":83,"max":172,"target":"absent","response":"absent","rt":517.5,"correct":true,"confidence":4},{"trial_n":122,"min":83,"max":172,"target":"present","response":"present","rt":184.39999999851,"correct":true,"confidence":3},{"trial_n":123,"min":84,"max":171,"target":"present","response":"present","rt":111,"correct":true,"confidence":3},{"trial_n":124,"min":84,"max":171,"target":"absent","response":"present","rt":496.79999999702,"correct":false,"confidence":4},{"trial_n":125,"min":83,"max":172,"target":"present","response":"present","rt":194.30000000075,"correct":true,"confidence":4},{"trial_n":126,"min":83,"max":172,"target":"present","response":"present","rt":237.39999999851,"correct":true,"confidence":5},{"trial_n":127,"min":84,"max":171,"target":"present","response":"absent","rt":734.19999999925,"correct":false,"confidence":5},{"trial_n":128,"min":83,"max":172,"target":"absent","response":"present","rt":1066.1000000015,"correct":false,"confidence":2},{"trial_n":129,"min":82,"max":173,"target":"absent","response":"present","rt":611.19999999925,"correct":false,"confidence":5},{"trial_n":130,"min":81,"max":174,"target":"present","response":"present","rt":211.60000000149,"correct":true,"confidence":5},{"trial_n":131,"min":81,"max":174,"target":"absent","response":"present","rt":492,"correct":false,"confidence":3},{"trial_n":132,"min":80,"max":175,"target":"absent","response":"absent","rt":611.80000000075,"correct":true,"confidence":2},{"trial_n":133,"min":80,"max":175,"target":"absent","response":"present","rt":511.80000000075,"correct":false,"confidence":2},{"trial_n":134,"min":79,"max":176,"target":"absent","response":"present","rt":483.19999999925,"correct":false,"confidence":1},{"trial_n":135,"min":78,"max":177,"target":"absent","response":"present","rt":972,"correct":false,"confidence":3},{"trial_n":136,"min":77,"max":178,"target":"absent","response":"absent","rt":460.39999999851,"correct":true,"confidence":4},{"trial_n":137,"min":77,"max":178,"target":"present","response":"present","rt":365.39999999851,"correct":true,"confidence":4},{"trial_n":138,"min":78,"max":177,"target":"present","response":"present","rt":200.30000000075,"correct":true,"confidence":5},{"trial_n":139,"min":78,"max":177,"target":"absent","response":"absent","rt":608.19999999925,"correct":true,"confidence":3},{"trial_n":140,"min":79,"max":176,"target":"present","response":"present","rt":211.60000000149,"correct":true,"confidence":4}]