[{"trial_n":1,"min":25,"max":230,"target":"present","response":"present","rt":7450.599999994,"correct":true,"confidence":-1},{"trial_n":2,"min":25,"max":230,"target":"present","response":"present","rt":5203.299999997,"correct":true,"confidence":-1},{"trial_n":3,"min":41,"max":214,"target":"absent","response":"present","rt":793.39999999106,"correct":false,"confidence":-1},{"trial_n":4,"min":25,"max":230,"target":"absent","response":"present","rt":1278.8999999911,"correct":false,"confidence":-1},{"trial_n":5,"min":9,"max":246,"target":"present","response":"absent","rt":1522.5,"correct":false,"confidence":-1},{"trial_n":6,"min":0,"max":255,"target":"present","response":"present","rt":830.20000000298,"correct":true,"confidence":-1},{"trial_n":7,"min":0,"max":255,"target":"present","response":"present","rt":1440.099999994,"correct":true,"confidence":-1},{"trial_n":8,"min":16,"max":239,"target":"absent","response":"absent","rt":1149.8999999911,"correct":true,"confidence":-1},{"trial_n":9,"min":16,"max":239,"target":"present","response":"present","rt":905.09999999404,"correct":true,"confidence":-1},{"trial_n":10,"min":32,"max":223,"target":"present","response":"present","rt":926.40000000596,"correct":true,"confidence":-1},{"trial_n":11,"min":32,"max":223,"target":"absent","response":"absent","rt":703.29999999702,"correct":true,"confidence":-1},{"trial_n":12,"min":40,"max":215,"target":"absent","response":"absent","rt":1429.900000006,"correct":true,"confidence":-1},{"trial_n":13,"min":40,"max":215,"target":"present","response":"present","rt":1018.1000000089,"correct":true,"confidence":-1},{"trial_n":14,"min":48,"max":207,"target":"absent","response":"absent","rt":993.10000000894,"correct":true,"confidence":-1},{"trial_n":15,"min":48,"max":207,"target":"present","response":"absent","rt":1395,"correct":false,"confidence":-1},{"trial_n":16,"min":40,"max":215,"target":"present","response":"present","rt":907.70000000298,"correct":true,"confidence":-1},{"trial_n":17,"min":40,"max":215,"target":"present","response":"present","rt":1055.599999994,"correct":true,"confidence":-1},{"trial_n":18,"min":48,"max":207,"target":"present","response":"present","rt":757.70000000298,"correct":true,"confidence":-1},{"trial_n":19,"min":48,"max":207,"target":"absent","response":"absent","rt":1004.799999997,"correct":true,"confidence":-1},{"trial_n":20,"min":56,"max":199,"target":"absent","response":"absent","rt":1726.6999999881,"correct":true,"confidence":-1},{"trial_n":21,"min":56,"max":199,"target":"present","response":"present","rt":813,"correct":true,"confidence":3},{"trial_n":22,"min":60,"max":195,"target":"absent","response":"absent","rt":1169.5,"correct":true,"confidence":3},{"trial_n":23,"min":60,"max":195,"target":"present","response":"present","rt":928,"correct":true,"confidence":4},{"trial_n":24,"min":64,"max":191,"target":"absent","response":"absent","rt":996,"correct":true,"confidence":1},{"trial_n":25,"min":64,"max":191,"target":"absent","response":"absent","rt":1586.200000003,"correct":true,"confidence":4},{"trial_n":26,"min":68,"max":187,"target":"absent","response":"absent","rt":1143.700000003,"correct":true,"confidence":3},{"trial_n":27,"min":68,"max":187,"target":"present","response":"present","rt":897.69999998808,"correct":true,"confidence":3},{"trial_n":28,"min":72,"max":183,"target":"absent","response":"absent","rt":964.5,"correct":true,"confidence":4},{"trial_n":29,"min":72,"max":183,"target":"present","response":"present","rt":1414.599999994,"correct":true,"confidence":3},{"trial_n":30,"min":76,"max":179,"target":"present","response":"present","rt":2342.700000003,"correct":true,"confidence":1},{"trial_n":31,"min":76,"max":179,"target":"present","response":"present","rt":1001.299999997,"correct":true,"confidence":3},{"trial_n":32,"min":78,"max":177,"target":"present","response":"present","rt":865.79999999702,"correct":true,"confidence":3},{"trial_n":33,"min":78,"max":177,"target":"absent","response":"present","rt":1042.299999997,"correct":false,"confidence":3},{"trial_n":34,"min":76,"max":179,"target":"absent","response":"absent","rt":1172.900000006,"correct":true,"confidence":4},{"trial_n":35,"min":76,"max":179,"target":"present","response":"present","rt":946.89999999106,"correct":true,"confidence":4},{"trial_n":36,"min":78,"max":177,"target":"present","response":"present","rt":1090.099999994,"correct":true,"confidence":4},{"trial_n":37,"min":78,"max":177,"target":"present","response":"present","rt":1857.1999999881,"correct":true,"confidence":4},{"trial_n":38,"min":80,"max":175,"target":"present","response":"absent","rt":924.90000000596,"correct":false,"confidence":3},{"trial_n":39,"min":78,"max":177,"target":"absent","response":"absent","rt":1187.200000003,"correct":true,"confidence":3},{"trial_n":40,"min":78,"max":177,"target":"present","response":"absent","rt":1016.3999999911,"correct":false,"confidence":2},{"trial_n":41,"min":77,"max":178,"target":"absent","response":"absent","rt":1381.900000006,"correct":true,"confidence":4},{"trial_n":42,"min":77,"max":178,"target":"absent","response":"absent","rt":1191.900000006,"correct":true,"confidence":4},{"trial_n":43,"min":78,"max":177,"target":"absent","response":"absent","rt":894.29999999702,"correct":true,"confidence":3},{"trial_n":44,"min":78,"max":177,"target":"absent","response":"absent","rt":854.39999999106,"correct":true,"confidence":4},{"trial_n":45,"min":79,"max":176,"target":"absent","response":"absent","rt":813.60000000894,"correct":true,"confidence":4},{"trial_n":46,"min":79,"max":176,"target":"absent","response":"absent","rt":897,"correct":true,"confidence":4},{"trial_n":47,"min":80,"max":175,"target":"present","response":"present","rt":1792.099999994,"correct":true,"confidence":2},{"trial_n":48,"min":80,"max":175,"target":"absent","response":"absent","rt":1324.900000006,"correct":true,"confidence":4},{"trial_n":49,"min":81,"max":174,"target":"absent","response":"absent","rt":918.29999999702,"correct":true,"confidence":3},{"trial_n":50,"min":81,"max":174,"target":"present","response":"present","rt":913.40000000596,"correct":true,"confidence":1},{"trial_n":51,"min":82,"max":173,"target":"absent","response":"absent","rt":1637,"correct":true,"confidence":3},{"trial_n":52,"min":82,"max":173,"target":"present","response":"present","rt":1299.8000000119,"correct":true,"confidence":2},{"trial_n":53,"min":83,"max":172,"target":"absent","response":"absent","rt":1240.5,"correct":true,"confidence":3},{"trial_n":54,"min":83,"max":172,"target":"present","response":"present","rt":1175.1000000089,"correct":true,"confidence":4},{"trial_n":55,"min":84,"max":171,"target":"absent","response":"absent","rt":788.20000000298,"correct":true,"confidence":4},{"trial_n":56,"min":84,"max":171,"target":"present","response":"present","rt":1088.400000006,"correct":true,"confidence":5},{"trial_n":57,"min":85,"max":170,"target":"absent","response":"present","rt":1203.5,"correct":false,"confidence":3},{"trial_n":58,"min":84,"max":171,"target":"absent","response":"absent","rt":1402.900000006,"correct":true,"confidence":1},{"trial_n":59,"min":84,"max":171,"target":"present","response":"absent","rt":869.5,"correct":false,"confidence":1},{"trial_n":60,"min":83,"max":172,"target":"absent","response":"absent","rt":893,"correct":true,"confidence":1},{"trial_n":61,"min":83,"max":172,"target":"present","response":"present","rt":1037.3000000119,"correct":true,"confidence":4},{"trial_n":62,"min":84,"max":171,"target":"absent","response":"present","rt":953.10000000894,"correct":false,"confidence":3},{"trial_n":63,"min":83,"max":172,"target":"present","response":"absent","rt":863,"correct":false,"confidence":3},{"trial_n":64,"min":82,"max":173,"target":"absent","response":"absent","rt":1306.299999997,"correct":true,"confidence":3},{"trial_n":65,"min":82,"max":173,"target":"absent","response":"absent","rt":3491.200000003,"correct":true,"confidence":4},{"trial_n":66,"min":83,"max":172,"target":"present","response":"present","rt":1011.3000000119,"correct":true,"confidence":4},{"trial_n":67,"min":83,"max":172,"target":"absent","response":"absent","rt":1609.8999999911,"correct":true,"confidence":1},{"trial_n":68,"min":84,"max":171,"target":"present","response":"absent","rt":1126.6000000089,"correct":false,"confidence":1},{"trial_n":69,"min":83,"max":172,"target":"present","response":"present","rt":1030.3000000119,"correct":true,"confidence":4},{"trial_n":70,"min":83,"max":172,"target":"present","response":"present","rt":974.09999999404,"correct":true,"confidence":4},{"trial_n":71,"min":41,"max":214,"target":"present","response":"absent","rt":6944.5,"correct":false,"confidence":-1},{"trial_n":72,"min":41,"max":214,"target":"present","response":"present","rt":1705.8999999911,"correct":true,"confidence":-1},{"trial_n":73,"min":41,"max":214,"target":"absent","response":"absent","rt":1103.799999997,"correct":true,"confidence":-1},{"trial_n":74,"min":57,"max":198,"target":"absent","response":"present","rt":1555.599999994,"correct":false,"confidence":-1},{"trial_n":75,"min":41,"max":214,"target":"present","response":"present","rt":893.09999999404,"correct":true,"confidence":-1},{"trial_n":76,"min":41,"max":214,"target":"present","response":"present","rt":2376.6000000089,"correct":true,"confidence":-1},{"trial_n":77,"min":57,"max":198,"target":"present","response":"present","rt":838.70000000298,"correct":true,"confidence":-1},{"trial_n":78,"min":57,"max":198,"target":"present","response":"present","rt":786.20000000298,"correct":true,"confidence":-1},{"trial_n":79,"min":73,"max":182,"target":"absent","response":"absent","rt":957.20000000298,"correct":true,"confidence":-1},{"trial_n":80,"min":73,"max":182,"target":"present","response":"present","rt":819.70000000298,"correct":true,"confidence":-1},{"trial_n":81,"min":81,"max":174,"target":"present","response":"present","rt":567.29999999702,"correct":true,"confidence":-1},{"trial_n":82,"min":81,"max":174,"target":"present","response":"absent","rt":1317.799999997,"correct":false,"confidence":-1},{"trial_n":83,"min":73,"max":182,"target":"absent","response":"present","rt":1027.799999997,"correct":false,"confidence":-1},{"trial_n":84,"min":65,"max":190,"target":"absent","response":"absent","rt":839.09999999404,"correct":true,"confidence":-1},{"trial_n":85,"min":65,"max":190,"target":"absent","response":"absent","rt":794.10000000894,"correct":true,"confidence":-1},{"trial_n":86,"min":73,"max":182,"target":"absent","response":"absent","rt":643.20000000298,"correct":true,"confidence":-1},{"trial_n":87,"min":73,"max":182,"target":"absent","response":"present","rt":1051.299999997,"correct":false,"confidence":-1},{"trial_n":88,"min":65,"max":190,"target":"present","response":"present","rt":905.10000000894,"correct":true,"confidence":-1},{"trial_n":89,"min":65,"max":190,"target":"absent","response":"present","rt":779.90000000596,"correct":false,"confidence":-1},{"trial_n":90,"min":57,"max":198,"target":"absent","response":"absent","rt":2349.799999997,"correct":true,"confidence":-1},{"trial_n":91,"min":57,"max":198,"target":"present","response":"absent","rt":2435.900000006,"correct":false,"confidence":3},{"trial_n":92,"min":53,"max":202,"target":"present","response":"absent","rt":1069.200000003,"correct":false,"confidence":1},{"trial_n":93,"min":49,"max":206,"target":"present","response":"present","rt":669.10000000894,"correct":true,"confidence":4},{"trial_n":94,"min":49,"max":206,"target":"absent","response":"absent","rt":626.80000001192,"correct":true,"confidence":4},{"trial_n":95,"min":53,"max":202,"target":"absent","response":"absent","rt":1562.200000003,"correct":true,"confidence":5},{"trial_n":96,"min":53,"max":202,"target":"present","response":"present","rt":857.70000000298,"correct":true,"confidence":5},{"trial_n":97,"min":57,"max":198,"target":"absent","response":"absent","rt":874.19999998808,"correct":true,"confidence":4},{"trial_n":98,"min":57,"max":198,"target":"present","response":"present","rt":757.59999999404,"correct":true,"confidence":4},{"trial_n":99,"min":61,"max":194,"target":"absent","response":"absent","rt":1083.5,"correct":true,"confidence":4},{"trial_n":100,"min":61,"max":194,"target":"absent","response":"absent","rt":661.29999999702,"correct":true,"confidence":5},{"trial_n":101,"min":63,"max":192,"target":"present","response":"present","rt":1166.3999999911,"correct":true,"confidence":5},{"trial_n":102,"min":63,"max":192,"target":"absent","response":"absent","rt":754.5,"correct":true,"confidence":3},{"trial_n":103,"min":65,"max":190,"target":"present","response":"present","rt":862.20000000298,"correct":true,"confidence":4},{"trial_n":104,"min":65,"max":190,"target":"present","response":"present","rt":914.40000000596,"correct":true,"confidence":5},{"trial_n":105,"min":67,"max":188,"target":"absent","response":"absent","rt":958,"correct":true,"confidence":3},{"trial_n":106,"min":67,"max":188,"target":"absent","response":"absent","rt":773.09999999404,"correct":true,"confidence":4},{"trial_n":107,"min":69,"max":186,"target":"present","response":"present","rt":679.39999999106,"correct":true,"confidence":3},{"trial_n":108,"min":69,"max":186,"target":"absent","response":"present","rt":2128.700000003,"correct":false,"confidence":3},{"trial_n":109,"min":67,"max":188,"target":"absent","response":"absent","rt":1332.799999997,"correct":true,"confidence":1},{"trial_n":110,"min":67,"max":188,"target":"present","response":"present","rt":1485.8999999911,"correct":true,"confidence":3},{"trial_n":111,"min":68,"max":187,"target":"absent","response":"absent","rt":986.09999999404,"correct":true,"confidence":4},{"trial_n":112,"min":68,"max":187,"target":"present","response":"absent","rt":1096.700000003,"correct":false,"confidence":3},{"trial_n":113,"min":67,"max":188,"target":"absent","response":"absent","rt":855.40000000596,"correct":true,"confidence":3},{"trial_n":114,"min":67,"max":188,"target":"absent","response":"absent","rt":1041.5,"correct":true,"confidence":1},{"trial_n":115,"min":68,"max":187,"target":"absent","response":"present","rt":908,"correct":false,"confidence":3},{"trial_n":116,"min":67,"max":188,"target":"present","response":"absent","rt":804.30000001192,"correct":false,"confidence":1},{"trial_n":117,"min":66,"max":189,"target":"present","response":"present","rt":913.79999999702,"correct":true,"confidence":4},{"trial_n":118,"min":66,"max":189,"target":"absent","response":"absent","rt":2239.099999994,"correct":true,"confidence":3},{"trial_n":119,"min":67,"max":188,"target":"absent","response":"absent","rt":740.79999999702,"correct":true,"confidence":4},{"trial_n":120,"min":67,"max":188,"target":"present","response":"absent","rt":833.89999999106,"correct":false,"confidence":3},{"trial_n":121,"min":66,"max":189,"target":"present","response":"present","rt":1416.799999997,"correct":true,"confidence":1},{"trial_n":122,"min":66,"max":189,"target":"absent","response":"absent","rt":2502,"correct":true,"confidence":3},{"trial_n":123,"min":67,"max":188,"target":"present","response":"present","rt":680.20000000298,"correct":true,"confidence":2},{"trial_n":124,"min":67,"max":188,"target":"absent","response":"absent","rt":1563.599999994,"correct":true,"confidence":2},{"trial_n":125,"min":68,"max":187,"target":"present","response":"present","rt":1001.400000006,"correct":true,"confidence":4},{"trial_n":126,"min":68,"max":187,"target":"present","response":"present","rt":734.5,"correct":true,"confidence":5},{"trial_n":127,"min":69,"max":186,"target":"present","response":"present","rt":3827.200000003,"correct":true,"confidence":1},{"trial_n":128,"min":69,"max":186,"target":"absent","response":"absent","rt":764.79999999702,"correct":true,"confidence":3},{"trial_n":129,"min":70,"max":185,"target":"present","response":"absent","rt":997.59999999404,"correct":false,"confidence":1},{"trial_n":130,"min":69,"max":186,"target":"present","response":"present","rt":538,"correct":true,"confidence":4},{"trial_n":131,"min":69,"max":186,"target":"present","response":"present","rt":978.59999999404,"correct":true,"confidence":4},{"trial_n":132,"min":70,"max":185,"target":"absent","response":"absent","rt":1074,"correct":true,"confidence":4},{"trial_n":133,"min":70,"max":185,"target":"present","response":"present","rt":927.40000000596,"correct":true,"confidence":3},{"trial_n":134,"min":71,"max":184,"target":"absent","response":"absent","rt":877,"correct":true,"confidence":1},{"trial_n":135,"min":71,"max":184,"target":"absent","response":"absent","rt":956.70000000298,"correct":true,"confidence":1},{"trial_n":136,"min":72,"max":183,"target":"present","response":"present","rt":865.20000000298,"correct":true,"confidence":4},{"trial_n":137,"min":72,"max":183,"target":"absent","response":"absent","rt":895.70000000298,"correct":true,"confidence":3},{"trial_n":138,"min":73,"max":182,"target":"present","response":"present","rt":671.5,"correct":true,"confidence":4},{"trial_n":139,"min":73,"max":182,"target":"absent","response":"present","rt":983.90000000596,"correct":false,"confidence":3},{"trial_n":140,"min":72,"max":183,"target":"present","response":"present","rt":545.59999999404,"correct":true,"confidence":2}]