[{"trial_n":1,"span":8,"encoder":"79715927","distractor":"79712927","target":"present","response":"present","rt":"4003.1000000015","correct":true,"confidence":-1},{"trial_n":2,"span":8,"encoder":"47140184","distractor":"47141184","target":"present","response":"present","rt":"2087.1999999993","correct":true,"confidence":-1},{"trial_n":3,"span":10,"encoder":"4213063319","distractor":"4293063319","target":"absent","response":"present","rt":"1024.799999997","correct":false,"confidence":-1},{"trial_n":4,"span":8,"encoder":"74750556","distractor":"74450556","target":"absent","response":"absent","rt":"2081.5999999978","correct":true,"confidence":-1},{"trial_n":5,"span":8,"encoder":"30007976","distractor":"20007976","target":"present","response":"present","rt":"1970.8000000007","correct":true,"confidence":-1},{"trial_n":6,"span":10,"encoder":"0778793629","distractor":"0778793628","target":"present","response":"present","rt":"3402.8999999985","correct":true,"confidence":-1},{"trial_n":7,"span":10,"encoder":"3327893567","distractor":"3326893567","target":"absent","response":"absent","rt":"2486.6000000015","correct":true,"confidence":-1},{"trial_n":8,"span":12,"encoder":"557950295128","distractor":"557950295118","target":"absent","response":"present","rt":"1471.6999999993","correct":false,"confidence":-1},{"trial_n":9,"span":10,"encoder":"4802406243","distractor":"4862406243","target":"absent","response":"absent","rt":"1648.700000003","correct":true,"confidence":-1},{"trial_n":10,"span":10,"encoder":"7205235434","distractor":"7205935434","target":"present","response":"absent","rt":"2276","correct":false,"confidence":-1},{"trial_n":11,"span":8,"encoder":"30216812","distractor":"30216312","target":"present","response":"present","rt":"1998.1999999993","correct":true,"confidence":-1},{"trial_n":12,"span":8,"encoder":"76161887","distractor":"76461887","target":"absent","response":"absent","rt":"1585.6999999993","correct":true,"confidence":-1},{"trial_n":13,"span":9,"encoder":"257200761","distractor":"257200461","target":"absent","response":"present","rt":"2042.1999999993","correct":false,"confidence":-1},{"trial_n":14,"span":8,"encoder":"66794617","distractor":"66794614","target":"absent","response":"absent","rt":"1511.1999999993","correct":true,"confidence":-1},{"trial_n":15,"span":8,"encoder":"91352454","distractor":"61352454","target":"present","response":"present","rt":"960.69999999925","correct":true,"confidence":-1},{"trial_n":16,"span":9,"encoder":"212302161","distractor":"212302131","target":"present","response":"absent","rt":"1413.1000000015","correct":false,"confidence":-1},{"trial_n":17,"span":8,"encoder":"31154602","distractor":"31154612","target":"present","response":"absent","rt":"1113.5","correct":false,"confidence":-1},{"trial_n":18,"span":7,"encoder":"9149267","distractor":"3149267","target":"present","response":"absent","rt":"1633.1999999993","correct":false,"confidence":-1},{"trial_n":19,"span":6,"encoder":"187108","distractor":"187508","target":"absent","response":"present","rt":"1694","correct":false,"confidence":-1},{"trial_n":20,"span":5,"encoder":"44504","distractor":"44404","target":"absent","response":"absent","rt":"1257.700000003","correct":true,"confidence":-1},{"trial_n":21,"span":5,"encoder":"80428","distractor":"60428","target":"absent","response":"absent","rt":"1282.5","correct":true,"confidence":5},{"trial_n":22,"span":6,"encoder":"145178","distractor":"175178","target":"present","response":"present","rt":"2370.8000000007","correct":true,"confidence":4},{"trial_n":23,"span":6,"encoder":"405646","distractor":"205646","target":"present","response":"present","rt":"1939.5","correct":true,"confidence":4},{"trial_n":24,"span":7,"encoder":"1437898","distractor":"1737898","target":"present","response":"present","rt":"1853.9000000022","correct":true,"confidence":3},{"trial_n":25,"span":7,"encoder":"0872634","distractor":"0879634","target":"present","response":"present","rt":"1898","correct":true,"confidence":3},{"trial_n":26,"span":8,"encoder":"61390404","distractor":"69390404","target":"absent","response":"absent","rt":"1581.1999999993","correct":true,"confidence":5},{"trial_n":27,"span":8,"encoder":"16690809","distractor":"16650809","target":"absent","response":"absent","rt":"2240.5","correct":true,"confidence":5},{"trial_n":28,"span":9,"encoder":"517842523","distractor":"518842523","target":"absent","response":"absent","rt":"1263","correct":true,"confidence":4},{"trial_n":29,"span":9,"encoder":"463695910","distractor":"463395910","target":"absent","response":"absent","rt":"3191.0999999978","correct":true,"confidence":5},{"trial_n":30,"span":10,"encoder":"5884855107","distractor":"5814855107","target":"present","response":"present","rt":"2961.3999999985","correct":true,"confidence":2},{"trial_n":31,"span":10,"encoder":"2068449602","distractor":"2063449602","target":"present","response":"present","rt":"2652.8999999985","correct":true,"confidence":3},{"trial_n":32,"span":11,"encoder":"84636656495","distractor":"44636656495","target":"absent","response":"absent","rt":"1238.5999999978","correct":true,"confidence":4},{"trial_n":33,"span":11,"encoder":"16910020943","distractor":"26910020943","target":"present","response":"absent","rt":"1193.6999999993","correct":false,"confidence":4},{"trial_n":34,"span":10,"encoder":"4330062725","distractor":"4330062125","target":"present","response":"present","rt":"1594.1999999993","correct":true,"confidence":3},{"trial_n":35,"span":10,"encoder":"4793995485","distractor":"4793595485","target":"present","response":"absent","rt":"2165.8999999985","correct":false,"confidence":1},{"trial_n":36,"span":9,"encoder":"541430844","distractor":"541430824","target":"absent","response":"present","rt":"2121.6999999993","correct":false,"confidence":4},{"trial_n":37,"span":8,"encoder":"71593334","distractor":"71593934","target":"present","response":"present","rt":"2912.6999999993","correct":true,"confidence":2},{"trial_n":38,"span":8,"encoder":"22853120","distractor":"22853920","target":"absent","response":"absent","rt":"2107.8999999985","correct":true,"confidence":4},{"trial_n":39,"span":9,"encoder":"571291523","distractor":"571291503","target":"present","response":"absent","rt":"1327.3000000007","correct":false,"confidence":4},{"trial_n":40,"span":8,"encoder":"08960394","distractor":"08965394","target":"absent","response":"present","rt":"3578.0999999978","correct":false,"confidence":3},{"trial_n":41,"span":7,"encoder":"2312168","distractor":"2322168","target":"present","response":"present","rt":"4668.1000000015","correct":true,"confidence":1},{"trial_n":42,"span":7,"encoder":"5657155","distractor":"5667155","target":"present","response":"present","rt":"2286.3000000007","correct":true,"confidence":5},{"trial_n":43,"span":8,"encoder":"99493522","distractor":"95493522","target":"absent","response":"absent","rt":"2559.5999999978","correct":true,"confidence":3},{"trial_n":44,"span":8,"encoder":"59151619","distractor":"59151689","target":"absent","response":"present","rt":"3986.1999999993","correct":false,"confidence":3},{"trial_n":45,"span":7,"encoder":"6215658","distractor":"6215698","target":"present","response":"present","rt":"2693.5","correct":true,"confidence":5},{"trial_n":46,"span":7,"encoder":"8131127","distractor":"8131197","target":"present","response":"present","rt":"1859.6999999993","correct":true,"confidence":3},{"trial_n":47,"span":8,"encoder":"78241090","distractor":"78241000","target":"present","response":"present","rt":"2411.6999999993","correct":true,"confidence":5},{"trial_n":48,"span":8,"encoder":"26540846","distractor":"25540846","target":"absent","response":"absent","rt":"2110.6999999993","correct":true,"confidence":5},{"trial_n":49,"span":9,"encoder":"740048445","distractor":"740048145","target":"absent","response":"absent","rt":"5235.9000000022","correct":true,"confidence":5},{"trial_n":50,"span":9,"encoder":"247439134","distractor":"247439194","target":"absent","response":"present","rt":"3507.6000000015","correct":false,"confidence":4},{"trial_n":51,"span":8,"encoder":"26334144","distractor":"26334124","target":"present","response":"present","rt":"2829.0999999978","correct":true,"confidence":5},{"trial_n":52,"span":8,"encoder":"08283199","distractor":"08282199","target":"present","response":"present","rt":"2214.6999999993","correct":true,"confidence":5},{"trial_n":53,"span":9,"encoder":"354444427","distractor":"354494427","target":"absent","response":"absent","rt":"2406.5","correct":true,"confidence":5},{"trial_n":54,"span":9,"encoder":"281485956","distractor":"281483956","target":"present","response":"present","rt":"3552.1999999993","correct":true,"confidence":4},{"trial_n":55,"span":10,"encoder":"1124350627","distractor":"1124390627","target":"absent","response":"absent","rt":"5808","correct":true,"confidence":4},{"trial_n":56,"span":10,"encoder":"8558888377","distractor":"8058888377","target":"absent","response":"present","rt":"4648.3000000007","correct":false,"confidence":4},{"trial_n":57,"span":9,"encoder":"289802579","distractor":"289802779","target":"present","response":"present","rt":"3094.5999999978","correct":true,"confidence":5},{"trial_n":58,"span":9,"encoder":"134185587","distractor":"134185580","target":"present","response":"present","rt":"3069.3999999985","correct":true,"confidence":3},{"trial_n":59,"span":10,"encoder":"6719095811","distractor":"6719295811","target":"absent","response":"absent","rt":"2865.200000003","correct":true,"confidence":5},{"trial_n":60,"span":10,"encoder":"5183177495","distractor":"5183177491","target":"absent","response":"present","rt":"2846.9000000022","correct":false,"confidence":5},{"trial_n":61,"span":9,"encoder":"914385798","distractor":"914385098","target":"present","response":"absent","rt":"3887.6999999993","correct":false,"confidence":3},{"trial_n":62,"span":8,"encoder":"74084376","distractor":"74084576","target":"absent","response":"present","rt":"1980.1999999993","correct":false,"confidence":2},{"trial_n":63,"span":7,"encoder":"0707152","distractor":"0207152","target":"absent","response":"absent","rt":"2698.8000000007","correct":true,"confidence":1},{"trial_n":64,"span":7,"encoder":"2358828","distractor":"2388828","target":"present","response":"present","rt":"1854.3999999985","correct":true,"confidence":4},{"trial_n":65,"span":8,"encoder":"22376652","distractor":"22371652","target":"present","response":"absent","rt":"2921.6999999993","correct":false,"confidence":4},{"trial_n":66,"span":7,"encoder":"4060583","distractor":"4080583","target":"absent","response":"absent","rt":"1787.0999999978","correct":true,"confidence":5},{"trial_n":67,"span":7,"encoder":"1880406","distractor":"1888406","target":"absent","response":"present","rt":"1904","correct":false,"confidence":4},{"trial_n":68,"span":6,"encoder":"298796","distractor":"298795","target":"present","response":"present","rt":"2499.8999999985","correct":true,"confidence":4},{"trial_n":69,"span":6,"encoder":"971994","distractor":"931994","target":"absent","response":"absent","rt":"1513.700000003","correct":true,"confidence":5},{"trial_n":70,"span":7,"encoder":"3757587","distractor":"3757787","target":"present","response":"present","rt":"2484.5999999978","correct":true,"confidence":3},{"trial_n":71,"span":8,"encoder":"73761883","distractor":"75761883","target":"present","response":"present","rt":"3490.3000000007","correct":true,"confidence":-1},{"trial_n":72,"span":8,"encoder":"00491011","distractor":"04491011","target":"present","response":"absent","rt":"618.20000000298","correct":false,"confidence":-1},{"trial_n":73,"span":7,"encoder":"7279788","distractor":"7209788","target":"absent","response":"present","rt":"563.30000000075","correct":false,"confidence":-1},{"trial_n":74,"span":6,"encoder":"972541","distractor":"972581","target":"absent","response":"absent","rt":"418.10000000149","correct":true,"confidence":-1},{"trial_n":75,"span":6,"encoder":"548254","distractor":"548854","target":"present","response":"absent","rt":"430.09999999776","correct":false,"confidence":-1},{"trial_n":76,"span":5,"encoder":"39016","distractor":"39516","target":"present","response":"present","rt":"261.90000000224","correct":true,"confidence":-1},{"trial_n":77,"span":5,"encoder":"62923","distractor":"62933","target":"present","response":"present","rt":"1342.5999999978","correct":true,"confidence":-1},{"trial_n":78,"span":6,"encoder":"314673","distractor":"814673","target":"present","response":"present","rt":"2076.6999999993","correct":true,"confidence":-1},{"trial_n":79,"span":6,"encoder":"574087","distractor":"174087","target":"present","response":"present","rt":"1270.6999999993","correct":true,"confidence":-1},{"trial_n":80,"span":7,"encoder":"7200172","distractor":"1200172","target":"absent","response":"absent","rt":"527.19999999925","correct":true,"confidence":-1},{"trial_n":81,"span":7,"encoder":"2116795","distractor":"2116705","target":"present","response":"absent","rt":"1244.1999999993","correct":false,"confidence":-1},{"trial_n":82,"span":6,"encoder":"730096","distractor":"770096","target":"present","response":"present","rt":"1073.5","correct":true,"confidence":-1},{"trial_n":83,"span":6,"encoder":"973341","distractor":"773341","target":"present","response":"absent","rt":"999","correct":false,"confidence":-1},{"trial_n":84,"span":5,"encoder":"73098","distractor":"73038","target":"present","response":"present","rt":"911.09999999776","correct":true,"confidence":-1},{"trial_n":85,"span":5,"encoder":"09733","distractor":"09763","target":"present","response":"absent","rt":"1115.6999999993","correct":false,"confidence":-1},{"trial_n":86,"span":4,"encoder":"3206","distractor":"3208","target":"absent","response":"absent","rt":"3083.5","correct":true,"confidence":-1},{"trial_n":87,"span":4,"encoder":"6258","distractor":"6238","target":"present","response":"present","rt":"1453.5999999978","correct":true,"confidence":-1},{"trial_n":88,"span":5,"encoder":"23868","distractor":"23068","target":"absent","response":"absent","rt":"836","correct":true,"confidence":-1},{"trial_n":89,"span":5,"encoder":"64790","distractor":"94790","target":"present","response":"present","rt":"1676","correct":true,"confidence":-1},{"trial_n":90,"span":6,"encoder":"330199","distractor":"330190","target":"absent","response":"absent","rt":"870.69999999925","correct":true,"confidence":-1},{"trial_n":91,"span":6,"encoder":"700568","distractor":"702568","target":"absent","response":"absent","rt":"2944","correct":true,"confidence":4},{"trial_n":92,"span":7,"encoder":"6161440","distractor":"6161449","target":"absent","response":"present","rt":"369.19999999925","correct":false,"confidence":3},{"trial_n":93,"span":6,"encoder":"703100","distractor":"702100","target":"present","response":"present","rt":"1949.8000000007","correct":true,"confidence":5},{"trial_n":94,"span":6,"encoder":"279976","distractor":"079976","target":"absent","response":"present","rt":"3107.5999999978","correct":false,"confidence":1},{"trial_n":95,"span":5,"encoder":"35675","distractor":"35676","target":"present","response":"absent","rt":"3450.3999999985","correct":false,"confidence":4},{"trial_n":96,"span":4,"encoder":"1520","distractor":"1620","target":"present","response":"present","rt":"2458.1999999993","correct":true,"confidence":5},{"trial_n":97,"span":4,"encoder":"6169","distractor":"6109","target":"present","response":"present","rt":"1313.6999999993","correct":true,"confidence":5},{"trial_n":98,"span":5,"encoder":"00594","distractor":"07594","target":"absent","response":"absent","rt":"2133.0999999978","correct":true,"confidence":5},{"trial_n":99,"span":5,"encoder":"95368","distractor":"95668","target":"absent","response":"absent","rt":"2070.6999999993","correct":true,"confidence":5},{"trial_n":100,"span":6,"encoder":"100847","distractor":"100547","target":"present","response":"present","rt":"1709.3000000007","correct":true,"confidence":5},{"trial_n":101,"span":6,"encoder":"167777","distractor":"167771","target":"absent","response":"present","rt":"3143.3999999985","correct":false,"confidence":4},{"trial_n":102,"span":5,"encoder":"11803","distractor":"11903","target":"present","response":"absent","rt":"2814.6000000015","correct":false,"confidence":4},{"trial_n":103,"span":4,"encoder":"1767","distractor":"1757","target":"present","response":"present","rt":"2624.4000000022","correct":true,"confidence":5},{"trial_n":104,"span":4,"encoder":"0783","distractor":"0383","target":"absent","response":"absent","rt":"1539.1000000015","correct":true,"confidence":3},{"trial_n":105,"span":5,"encoder":"96581","distractor":"96584","target":"present","response":"present","rt":"2395.8000000007","correct":true,"confidence":5},{"trial_n":106,"span":5,"encoder":"97958","distractor":"97955","target":"present","response":"absent","rt":"1569.6000000015","correct":false,"confidence":4},{"trial_n":107,"span":4,"encoder":"5265","distractor":"5268","target":"present","response":"present","rt":"1982.1000000015","correct":true,"confidence":3},{"trial_n":108,"span":4,"encoder":"9185","distractor":"9181","target":"absent","response":"absent","rt":"2662.6999999993","correct":true,"confidence":4},{"trial_n":109,"span":5,"encoder":"81254","distractor":"81654","target":"absent","response":"absent","rt":"2240.3000000007","correct":true,"confidence":4},{"trial_n":110,"span":5,"encoder":"71150","distractor":"71158","target":"absent","response":"absent","rt":"1400.1999999993","correct":true,"confidence":5},{"trial_n":111,"span":6,"encoder":"761948","distractor":"741948","target":"present","response":"present","rt":"1888.6000000015","correct":true,"confidence":4},{"trial_n":112,"span":6,"encoder":"781950","distractor":"781250","target":"present","response":"present","rt":"1857.3999999985","correct":true,"confidence":5},{"trial_n":113,"span":7,"encoder":"4470085","distractor":"4470985","target":"absent","response":"absent","rt":"1801.1999999993","correct":true,"confidence":4},{"trial_n":114,"span":7,"encoder":"8168097","distractor":"8068097","target":"absent","response":"absent","rt":"1582","correct":true,"confidence":1},{"trial_n":115,"span":8,"encoder":"08046476","distractor":"08046416","target":"absent","response":"absent","rt":"2894.3000000007","correct":true,"confidence":3},{"trial_n":116,"span":8,"encoder":"28192595","distractor":"28492595","target":"absent","response":"absent","rt":"2640.700000003","correct":true,"confidence":4},{"trial_n":117,"span":9,"encoder":"821496135","distractor":"221496135","target":"present","response":"present","rt":"2883.9000000022","correct":true,"confidence":5},{"trial_n":118,"span":9,"encoder":"530913395","distractor":"530912395","target":"present","response":"present","rt":"2429.5999999978","correct":true,"confidence":5},{"trial_n":119,"span":10,"encoder":"6985414480","distractor":"6585414480","target":"present","response":"present","rt":"5276.1999999993","correct":true,"confidence":4},{"trial_n":120,"span":10,"encoder":"3690506467","distractor":"3690500467","target":"present","response":"present","rt":"3685.3999999985","correct":true,"confidence":2},{"trial_n":121,"span":11,"encoder":"05200800741","distractor":"05240800741","target":"present","response":"present","rt":"1818.5","correct":true,"confidence":5},{"trial_n":122,"span":11,"encoder":"64664254619","distractor":"64604254619","target":"present","response":"present","rt":"1983.1000000015","correct":true,"confidence":5},{"trial_n":123,"span":12,"encoder":"768145257022","distractor":"768145257122","target":"absent","response":"present","rt":"8828.6000000015","correct":false,"confidence":2},{"trial_n":124,"span":11,"encoder":"96323035601","distractor":"96523035601","target":"absent","response":"absent","rt":"3249","correct":true,"confidence":1},{"trial_n":125,"span":11,"encoder":"31703188406","distractor":"31733188406","target":"absent","response":"absent","rt":"1623.1999999993","correct":true,"confidence":5},{"trial_n":126,"span":12,"encoder":"098343671761","distractor":"098443671761","target":"absent","response":"absent","rt":"1639.3000000007","correct":true,"confidence":5},{"trial_n":127,"span":12,"encoder":"371293734571","distractor":"371293734371","target":"absent","response":"present","rt":"855.10000000149","correct":false,"confidence":1},{"trial_n":128,"span":11,"encoder":"85522421852","distractor":"15522421852","target":"absent","response":"present","rt":"3141.1000000015","correct":false,"confidence":2},{"trial_n":129,"span":10,"encoder":"4368177941","distractor":"4368172941","target":"absent","response":"absent","rt":"2805.3000000007","correct":true,"confidence":4},{"trial_n":130,"span":10,"encoder":"4836309935","distractor":"9836309935","target":"absent","response":"absent","rt":"2337","correct":true,"confidence":5},{"trial_n":131,"span":11,"encoder":"17518724785","distractor":"27518724785","target":"absent","response":"absent","rt":"2193.3999999985","correct":true,"confidence":4},{"trial_n":132,"span":11,"encoder":"50243783191","distractor":"50243783190","target":"present","response":"present","rt":"2762.3999999985","correct":true,"confidence":1},{"trial_n":133,"span":12,"encoder":"459705015617","distractor":"459705015217","target":"present","response":"absent","rt":"2603.0999999978","correct":false,"confidence":4},{"trial_n":134,"span":11,"encoder":"12050421226","distractor":"12050421726","target":"present","response":"present","rt":"2218.3000000007","correct":true,"confidence":1},{"trial_n":135,"span":11,"encoder":"66728187175","distractor":"66728187185","target":"present","response":"present","rt":"2572.5999999978","correct":true,"confidence":2},{"trial_n":136,"span":12,"encoder":"643161745844","distractor":"683161745844","target":"absent","response":"absent","rt":"2098.3999999985","correct":true,"confidence":5},{"trial_n":137,"span":12,"encoder":"578558119719","distractor":"578538119719","target":"absent","response":"absent","rt":"1810.8000000007","correct":true,"confidence":2},{"trial_n":138,"span":13,"encoder":"6097142988244","distractor":"6097342988244","target":"absent","response":"absent","rt":"1722.6999999993","correct":true,"confidence":3},{"trial_n":139,"span":13,"encoder":"4295152999886","distractor":"4290152999886","target":"absent","response":"present","rt":"869.60000000149","correct":false,"confidence":5},{"trial_n":140,"span":12,"encoder":"280102410074","distractor":"282102410074","target":"absent","response":"present","rt":"1574.1999999993","correct":false,"confidence":2}]