[{"trial_n":1,"span":8,"encoder":"60113497","distractor":"60413497","target":"present","response":"absent","rt":"14094.799999997","correct":false,"confidence":-1},{"trial_n":2,"span":6,"encoder":"130256","distractor":"130236","target":"present","response":"present","rt":"2534.799999997","correct":true,"confidence":-1},{"trial_n":3,"span":6,"encoder":"515002","distractor":"515502","target":"absent","response":"present","rt":"1185.900000006","correct":false,"confidence":-1},{"trial_n":4,"span":4,"encoder":"5236","distractor":"5233","target":"absent","response":"absent","rt":"1775.299999997","correct":true,"confidence":-1},{"trial_n":5,"span":4,"encoder":"6731","distractor":"4731","target":"present","response":"present","rt":"2263.700000003","correct":true,"confidence":-1},{"trial_n":6,"span":6,"encoder":"666544","distractor":"646544","target":"present","response":"present","rt":"1199.3999999911","correct":true,"confidence":-1},{"trial_n":7,"span":6,"encoder":"883388","distractor":"083388","target":"absent","response":"absent","rt":"2607.700000003","correct":true,"confidence":-1},{"trial_n":8,"span":8,"encoder":"85796635","distractor":"85795635","target":"present","response":"present","rt":"2235.799999997","correct":true,"confidence":-1},{"trial_n":9,"span":8,"encoder":"75668879","distractor":"75668874","target":"absent","response":"absent","rt":"2253","correct":true,"confidence":-1},{"trial_n":10,"span":10,"encoder":"1224590501","distractor":"1224594501","target":"present","response":"absent","rt":"3041.5","correct":false,"confidence":-1},{"trial_n":11,"span":8,"encoder":"58926077","distractor":"58726077","target":"absent","response":"present","rt":"2257.5","correct":false,"confidence":-1},{"trial_n":12,"span":7,"encoder":"2129577","distractor":"2129477","target":"present","response":"present","rt":"1314.200000003","correct":true,"confidence":-1},{"trial_n":13,"span":7,"encoder":"0610889","distractor":"0610880","target":"absent","response":"absent","rt":"1762.8000000119","correct":true,"confidence":-1},{"trial_n":14,"span":8,"encoder":"73515949","distractor":"73715949","target":"absent","response":"present","rt":"1737.200000003","correct":false,"confidence":-1},{"trial_n":15,"span":7,"encoder":"9366527","distractor":"9366557","target":"present","response":"present","rt":"1953.700000003","correct":true,"confidence":-1},{"trial_n":16,"span":7,"encoder":"1668203","distractor":"4668203","target":"absent","response":"present","rt":"2509.099999994","correct":false,"confidence":-1},{"trial_n":17,"span":6,"encoder":"566406","distractor":"560406","target":"absent","response":"present","rt":"1044.700000003","correct":false,"confidence":-1},{"trial_n":18,"span":5,"encoder":"45723","distractor":"44723","target":"absent","response":"present","rt":"2074.900000006","correct":false,"confidence":-1},{"trial_n":19,"span":4,"encoder":"1834","distractor":"1814","target":"absent","response":"present","rt":"2718","correct":false,"confidence":-1},{"trial_n":20,"span":3,"encoder":"763","distractor":"263","target":"absent","response":"absent","rt":"1609.799999997","correct":true,"confidence":-1},{"trial_n":21,"span":3,"encoder":"913","distractor":"213","target":"absent","response":"absent","rt":"1768.700000003","correct":true,"confidence":5},{"trial_n":22,"span":4,"encoder":"9023","distractor":"9323","target":"present","response":"present","rt":"2091","correct":true,"confidence":5},{"trial_n":23,"span":4,"encoder":"6485","distractor":"8485","target":"present","response":"present","rt":"1336.099999994","correct":true,"confidence":5},{"trial_n":24,"span":5,"encoder":"57589","distractor":"59589","target":"present","response":"present","rt":"3119.6000000089","correct":true,"confidence":5},{"trial_n":25,"span":5,"encoder":"83712","distractor":"13712","target":"present","response":"present","rt":"2644","correct":true,"confidence":5},{"trial_n":26,"span":6,"encoder":"696474","distractor":"692474","target":"absent","response":"absent","rt":"2949.299999997","correct":true,"confidence":4},{"trial_n":27,"span":6,"encoder":"251090","distractor":"251060","target":"absent","response":"absent","rt":"4430","correct":true,"confidence":3},{"trial_n":28,"span":7,"encoder":"5572082","distractor":"5572982","target":"present","response":"present","rt":"3583.900000006","correct":true,"confidence":5},{"trial_n":29,"span":7,"encoder":"9539023","distractor":"9539093","target":"absent","response":"absent","rt":"2151.700000003","correct":true,"confidence":4},{"trial_n":30,"span":8,"encoder":"11715568","distractor":"11715528","target":"present","response":"present","rt":"4632.8000000119","correct":true,"confidence":5},{"trial_n":31,"span":8,"encoder":"55203996","distractor":"55703996","target":"absent","response":"present","rt":"6000.1000000089","correct":false,"confidence":3},{"trial_n":32,"span":7,"encoder":"5228502","distractor":"5224502","target":"present","response":"present","rt":"1518.900000006","correct":true,"confidence":3},{"trial_n":33,"span":7,"encoder":"8450121","distractor":"8460121","target":"absent","response":"absent","rt":"2983.400000006","correct":true,"confidence":3},{"trial_n":34,"span":8,"encoder":"59448675","distractor":"52448675","target":"absent","response":"absent","rt":"4343.6000000089","correct":true,"confidence":4},{"trial_n":35,"span":8,"encoder":"49470014","distractor":"42470014","target":"absent","response":"absent","rt":"2466","correct":true,"confidence":3},{"trial_n":36,"span":9,"encoder":"735584361","distractor":"735584261","target":"present","response":"present","rt":"4721.400000006","correct":true,"confidence":4},{"trial_n":37,"span":9,"encoder":"689068850","distractor":"689868850","target":"absent","response":"present","rt":"5914.099999994","correct":false,"confidence":2},{"trial_n":38,"span":8,"encoder":"19709708","distractor":"19709508","target":"absent","response":"absent","rt":"5239.799999997","correct":true,"confidence":2},{"trial_n":39,"span":8,"encoder":"91483741","distractor":"91473741","target":"present","response":"absent","rt":"5189.6000000089","correct":false,"confidence":3},{"trial_n":40,"span":7,"encoder":"1429017","distractor":"1029017","target":"present","response":"absent","rt":"8441.5","correct":false,"confidence":3},{"trial_n":41,"span":6,"encoder":"434410","distractor":"404410","target":"present","response":"present","rt":"2810.200000003","correct":true,"confidence":5},{"trial_n":42,"span":6,"encoder":"264700","distractor":"264701","target":"absent","response":"absent","rt":"3119.299999997","correct":true,"confidence":4},{"trial_n":43,"span":7,"encoder":"0186725","distractor":"0186785","target":"present","response":"present","rt":"4029.3999999911","correct":true,"confidence":4},{"trial_n":44,"span":7,"encoder":"9925545","distractor":"9925548","target":"present","response":"absent","rt":"5333.599999994","correct":false,"confidence":2},{"trial_n":45,"span":6,"encoder":"593091","distractor":"593081","target":"present","response":"absent","rt":"4137.700000003","correct":false,"confidence":2},{"trial_n":46,"span":5,"encoder":"98018","distractor":"98019","target":"present","response":"present","rt":"3079.1000000089","correct":true,"confidence":5},{"trial_n":47,"span":5,"encoder":"50738","distractor":"00738","target":"present","response":"present","rt":"1475.5","correct":true,"confidence":4},{"trial_n":48,"span":6,"encoder":"384424","distractor":"394424","target":"present","response":"present","rt":"3196.3999999911","correct":true,"confidence":4},{"trial_n":49,"span":6,"encoder":"501603","distractor":"508603","target":"present","response":"present","rt":"2910","correct":true,"confidence":4},{"trial_n":50,"span":7,"encoder":"7304939","distractor":"7304931","target":"absent","response":"absent","rt":"3464.200000003","correct":true,"confidence":2},{"trial_n":51,"span":7,"encoder":"5502767","distractor":"5502367","target":"absent","response":"present","rt":"3179.1000000089","correct":false,"confidence":4},{"trial_n":52,"span":6,"encoder":"324831","distractor":"324835","target":"absent","response":"absent","rt":"3087.700000003","correct":true,"confidence":5},{"trial_n":53,"span":6,"encoder":"879743","distractor":"879043","target":"absent","response":"present","rt":"3812.799999997","correct":false,"confidence":3},{"trial_n":54,"span":5,"encoder":"65292","distractor":"65293","target":"absent","response":"absent","rt":"4715.8999999911","correct":true,"confidence":2},{"trial_n":55,"span":5,"encoder":"72177","distractor":"72577","target":"absent","response":"absent","rt":"3095.900000006","correct":true,"confidence":5},{"trial_n":56,"span":6,"encoder":"018055","distractor":"018050","target":"present","response":"present","rt":"2016.8999999911","correct":true,"confidence":4},{"trial_n":57,"span":6,"encoder":"350465","distractor":"350405","target":"present","response":"present","rt":"4778","correct":true,"confidence":3},{"trial_n":58,"span":7,"encoder":"4523220","distractor":"4523229","target":"present","response":"absent","rt":"1957.5","correct":false,"confidence":2},{"trial_n":59,"span":6,"encoder":"932952","distractor":"932958","target":"present","response":"present","rt":"4786.5","correct":true,"confidence":3},{"trial_n":60,"span":6,"encoder":"504735","distractor":"504775","target":"absent","response":"absent","rt":"3368.8000000119","correct":true,"confidence":4},{"trial_n":61,"span":7,"encoder":"6462476","distractor":"6462376","target":"absent","response":"absent","rt":"5769.200000003","correct":true,"confidence":3},{"trial_n":62,"span":7,"encoder":"6716082","distractor":"6816082","target":"absent","response":"absent","rt":"6280.1999999881","correct":true,"confidence":2},{"trial_n":63,"span":8,"encoder":"47087554","distractor":"47187554","target":"present","response":"present","rt":"2678.700000003","correct":true,"confidence":3},{"trial_n":64,"span":8,"encoder":"99765445","distractor":"99765440","target":"absent","response":"absent","rt":"5000","correct":true,"confidence":4},{"trial_n":65,"span":9,"encoder":"611046578","distractor":"681046578","target":"present","response":"present","rt":"5668.1999999881","correct":true,"confidence":4},{"trial_n":66,"span":9,"encoder":"803104141","distractor":"203104141","target":"present","response":"present","rt":"7560.200000003","correct":true,"confidence":5},{"trial_n":67,"span":10,"encoder":"2992891021","distractor":"2912891021","target":"present","response":"present","rt":"4409.200000003","correct":true,"confidence":3},{"trial_n":68,"span":10,"encoder":"3279578404","distractor":"3279576404","target":"present","response":"absent","rt":"2483.599999994","correct":false,"confidence":3},{"trial_n":69,"span":9,"encoder":"929931728","distractor":"929331728","target":"present","response":"absent","rt":"3697.200000003","correct":false,"confidence":1},{"trial_n":70,"span":8,"encoder":"71130226","distractor":"71130229","target":"absent","response":"present","rt":"1964","correct":false,"confidence":3},{"trial_n":71,"span":8,"encoder":"19958060","distractor":"19958260","target":"present","response":"present","rt":"38560","correct":true,"confidence":-1},{"trial_n":72,"span":8,"encoder":"98432964","distractor":"28432964","target":"present","response":"absent","rt":"9353.799999997","correct":false,"confidence":-1},{"trial_n":73,"span":7,"encoder":"8272970","distractor":"8272972","target":"absent","response":"absent","rt":"8779.299999997","correct":true,"confidence":-1},{"trial_n":74,"span":7,"encoder":"0445632","distractor":"0445635","target":"absent","response":"present","rt":"9677.299999997","correct":false,"confidence":-1},{"trial_n":75,"span":6,"encoder":"119022","distractor":"419022","target":"present","response":"absent","rt":"1733.200000003","correct":false,"confidence":-1},{"trial_n":76,"span":5,"encoder":"61698","distractor":"61098","target":"absent","response":"absent","rt":"4242","correct":true,"confidence":-1},{"trial_n":77,"span":5,"encoder":"87054","distractor":"67054","target":"present","response":"present","rt":"2099.5","correct":true,"confidence":-1},{"trial_n":78,"span":6,"encoder":"616562","distractor":"613562","target":"absent","response":"present","rt":"1453.3999999911","correct":false,"confidence":-1},{"trial_n":79,"span":5,"encoder":"10879","distractor":"10899","target":"absent","response":"absent","rt":"752.10000000894","correct":true,"confidence":-1},{"trial_n":80,"span":5,"encoder":"97413","distractor":"97419","target":"present","response":"present","rt":"1568","correct":true,"confidence":-1},{"trial_n":81,"span":6,"encoder":"133904","distractor":"133901","target":"present","response":"present","rt":"1334","correct":true,"confidence":-1},{"trial_n":82,"span":6,"encoder":"219516","distractor":"219566","target":"present","response":"absent","rt":"1607.099999994","correct":false,"confidence":-1},{"trial_n":83,"span":5,"encoder":"79813","distractor":"79814","target":"absent","response":"absent","rt":"1426.1000000089","correct":true,"confidence":-1},{"trial_n":84,"span":5,"encoder":"69232","distractor":"65232","target":"present","response":"present","rt":"3763.799999997","correct":true,"confidence":-1},{"trial_n":85,"span":6,"encoder":"290824","distractor":"240824","target":"present","response":"present","rt":"1970","correct":true,"confidence":-1},{"trial_n":86,"span":6,"encoder":"742367","distractor":"742397","target":"absent","response":"present","rt":"1042.799999997","correct":false,"confidence":-1},{"trial_n":87,"span":5,"encoder":"64203","distractor":"64253","target":"present","response":"absent","rt":"802.20000000298","correct":false,"confidence":-1},{"trial_n":88,"span":4,"encoder":"0247","distractor":"1247","target":"absent","response":"present","rt":"1491.8000000119","correct":false,"confidence":-1},{"trial_n":89,"span":3,"encoder":"406","distractor":"409","target":"present","response":"present","rt":"3537.1999999881","correct":true,"confidence":-1},{"trial_n":90,"span":3,"encoder":"334","distractor":"364","target":"absent","response":"absent","rt":"2904.099999994","correct":true,"confidence":-1},{"trial_n":91,"span":4,"encoder":"0103","distractor":"0108","target":"absent","response":"absent","rt":"1884.5","correct":true,"confidence":5},{"trial_n":92,"span":4,"encoder":"6035","distractor":"6435","target":"absent","response":"absent","rt":"9082.6999999881","correct":true,"confidence":5},{"trial_n":93,"span":5,"encoder":"28635","distractor":"28935","target":"present","response":"present","rt":"4096.799999997","correct":true,"confidence":3},{"trial_n":94,"span":5,"encoder":"04670","distractor":"00670","target":"absent","response":"present","rt":"4063.900000006","correct":false,"confidence":4},{"trial_n":95,"span":4,"encoder":"5185","distractor":"5188","target":"present","response":"present","rt":"2494.299999997","correct":true,"confidence":4},{"trial_n":96,"span":4,"encoder":"9093","distractor":"3093","target":"present","response":"present","rt":"1020.299999997","correct":true,"confidence":3},{"trial_n":97,"span":5,"encoder":"25498","distractor":"25458","target":"present","response":"present","rt":"1042.900000006","correct":true,"confidence":2},{"trial_n":98,"span":5,"encoder":"82708","distractor":"12708","target":"present","response":"present","rt":"1516","correct":true,"confidence":4},{"trial_n":99,"span":6,"encoder":"526458","distractor":"526457","target":"absent","response":"absent","rt":"1605.1999999881","correct":true,"confidence":4},{"trial_n":100,"span":6,"encoder":"919019","distractor":"909019","target":"present","response":"present","rt":"4361.900000006","correct":true,"confidence":1},{"trial_n":101,"span":7,"encoder":"5858446","distractor":"2858446","target":"present","response":"present","rt":"3367.1000000089","correct":true,"confidence":4},{"trial_n":102,"span":7,"encoder":"9193454","distractor":"9193456","target":"absent","response":"absent","rt":"2678.6999999881","correct":true,"confidence":4},{"trial_n":103,"span":8,"encoder":"08552710","distractor":"08572710","target":"present","response":"present","rt":"6040.799999997","correct":true,"confidence":2},{"trial_n":104,"span":8,"encoder":"88880000","distractor":"88840000","target":"absent","response":"absent","rt":"2746.5","correct":true,"confidence":4},{"trial_n":105,"span":9,"encoder":"487985211","distractor":"487985511","target":"absent","response":"absent","rt":"3049.5","correct":true,"confidence":2},{"trial_n":106,"span":9,"encoder":"463469994","distractor":"463467994","target":"present","response":"present","rt":"1028.6000000089","correct":true,"confidence":1},{"trial_n":107,"span":10,"encoder":"6603185007","distractor":"6608185007","target":"present","response":"absent","rt":"6280.799999997","correct":false,"confidence":4},{"trial_n":108,"span":9,"encoder":"786004152","distractor":"986004152","target":"present","response":"absent","rt":"4346.8999999911","correct":false,"confidence":3},{"trial_n":109,"span":8,"encoder":"02257841","distractor":"02257847","target":"absent","response":"absent","rt":"2187.3999999911","correct":true,"confidence":5},{"trial_n":110,"span":8,"encoder":"90226675","distractor":"90426675","target":"present","response":"present","rt":"4810.799999997","correct":true,"confidence":4},{"trial_n":111,"span":9,"encoder":"515146150","distractor":"585146150","target":"present","response":"present","rt":"5111.799999997","correct":true,"confidence":5},{"trial_n":112,"span":9,"encoder":"159837130","distractor":"159837134","target":"present","response":"present","rt":"3000","correct":true,"confidence":5},{"trial_n":113,"span":10,"encoder":"3503330271","distractor":"1503330271","target":"absent","response":"absent","rt":"6568.3999999911","correct":true,"confidence":2},{"trial_n":114,"span":10,"encoder":"1558792194","distractor":"1558782194","target":"absent","response":"absent","rt":"6090.3999999911","correct":true,"confidence":4},{"trial_n":115,"span":11,"encoder":"84384502958","distractor":"84484502958","target":"present","response":"absent","rt":"4083.6999999881","correct":false,"confidence":4},{"trial_n":116,"span":10,"encoder":"3593894709","distractor":"3595894709","target":"absent","response":"absent","rt":"2320.1000000089","correct":true,"confidence":1},{"trial_n":117,"span":10,"encoder":"0865185087","distractor":"0865182087","target":"present","response":"present","rt":"1272.700000003","correct":true,"confidence":1},{"trial_n":118,"span":11,"encoder":"74722899269","distractor":"74729899269","target":"absent","response":"absent","rt":"3598.900000006","correct":true,"confidence":4},{"trial_n":119,"span":11,"encoder":"72980770086","distractor":"72940770086","target":"present","response":"absent","rt":"1631.700000003","correct":false,"confidence":4},{"trial_n":120,"span":10,"encoder":"9520177831","distractor":"9120177831","target":"present","response":"present","rt":"7165.5","correct":true,"confidence":1},{"trial_n":121,"span":10,"encoder":"6462848766","distractor":"6462848966","target":"present","response":"present","rt":"2817.5","correct":true,"confidence":5},{"trial_n":122,"span":11,"encoder":"40489772330","distractor":"40489772339","target":"present","response":"present","rt":"4704.6000000089","correct":true,"confidence":4},{"trial_n":123,"span":11,"encoder":"54539619623","distractor":"54539419623","target":"absent","response":"present","rt":"10477.700000003","correct":false,"confidence":2},{"trial_n":124,"span":10,"encoder":"6208040017","distractor":"6208000017","target":"absent","response":"absent","rt":"2550.400000006","correct":true,"confidence":4},{"trial_n":125,"span":10,"encoder":"2962686627","distractor":"2962686527","target":"present","response":"absent","rt":"1461.6000000089","correct":false,"confidence":2},{"trial_n":126,"span":9,"encoder":"104111858","distractor":"104211858","target":"absent","response":"absent","rt":"2524.299999997","correct":true,"confidence":5},{"trial_n":127,"span":9,"encoder":"771099876","distractor":"771099826","target":"present","response":"absent","rt":"7130.1999999881","correct":false,"confidence":4},{"trial_n":128,"span":8,"encoder":"61774169","distractor":"61274169","target":"absent","response":"absent","rt":"4130.900000006","correct":true,"confidence":5},{"trial_n":129,"span":8,"encoder":"87389998","distractor":"87387998","target":"absent","response":"present","rt":"7284.3000000119","correct":false,"confidence":3},{"trial_n":130,"span":7,"encoder":"2276674","distractor":"2276678","target":"absent","response":"absent","rt":"4793","correct":true,"confidence":5},{"trial_n":131,"span":7,"encoder":"3916621","distractor":"3916629","target":"absent","response":"absent","rt":"4517.099999994","correct":true,"confidence":4},{"trial_n":132,"span":8,"encoder":"52912951","distractor":"22912951","target":"absent","response":"absent","rt":"5843.8999999911","correct":true,"confidence":5},{"trial_n":133,"span":8,"encoder":"16617166","distractor":"16627166","target":"absent","response":"present","rt":"7172.5","correct":false,"confidence":3},{"trial_n":134,"span":7,"encoder":"5055438","distractor":"5055439","target":"absent","response":"absent","rt":"6923.700000003","correct":true,"confidence":1},{"trial_n":135,"span":7,"encoder":"4175751","distractor":"4125751","target":"present","response":"present","rt":"7305.5","correct":true,"confidence":4},{"trial_n":136,"span":8,"encoder":"23929633","distractor":"33929633","target":"absent","response":"absent","rt":"2779.8999999911","correct":true,"confidence":5},{"trial_n":137,"span":8,"encoder":"15431482","distractor":"12431482","target":"absent","response":"absent","rt":"2036.700000003","correct":true,"confidence":5},{"trial_n":138,"span":9,"encoder":"044919363","distractor":"044919663","target":"present","response":"present","rt":"12556.400000006","correct":true,"confidence":4},{"trial_n":139,"span":9,"encoder":"779290304","distractor":"179290304","target":"present","response":"present","rt":"6148.299999997","correct":true,"confidence":4},{"trial_n":140,"span":10,"encoder":"3960129743","distractor":"3960126743","target":"absent","response":"absent","rt":"4989.3999999911","correct":true,"confidence":1}]