[{"trial_n":1,"min":25,"max":230,"target":"present","response":"present","rt":7224,"correct":true,"confidence":-1},{"trial_n":2,"min":25,"max":230,"target":"present","response":"present","rt":3171,"correct":true,"confidence":-1},{"trial_n":3,"min":41,"max":214,"target":"absent","response":"present","rt":1087,"correct":false,"confidence":-1},{"trial_n":4,"min":25,"max":230,"target":"absent","response":"absent","rt":1744,"correct":true,"confidence":-1},{"trial_n":5,"min":25,"max":230,"target":"present","response":"present","rt":1336,"correct":true,"confidence":-1},{"trial_n":6,"min":41,"max":214,"target":"present","response":"present","rt":1131,"correct":true,"confidence":-1},{"trial_n":7,"min":41,"max":214,"target":"absent","response":"absent","rt":1062,"correct":true,"confidence":-1},{"trial_n":8,"min":57,"max":198,"target":"present","response":"present","rt":1097,"correct":true,"confidence":-1},{"trial_n":9,"min":57,"max":198,"target":"absent","response":"absent","rt":952,"correct":true,"confidence":-1},{"trial_n":10,"min":73,"max":182,"target":"present","response":"present","rt":1566,"correct":true,"confidence":-1},{"trial_n":11,"min":73,"max":182,"target":"present","response":"absent","rt":893,"correct":false,"confidence":-1},{"trial_n":12,"min":65,"max":190,"target":"present","response":"absent","rt":1570,"correct":false,"confidence":-1},{"trial_n":13,"min":57,"max":198,"target":"absent","response":"absent","rt":888,"correct":true,"confidence":-1},{"trial_n":14,"min":57,"max":198,"target":"absent","response":"absent","rt":733,"correct":true,"confidence":-1},{"trial_n":15,"min":65,"max":190,"target":"absent","response":"absent","rt":580,"correct":true,"confidence":-1},{"trial_n":16,"min":65,"max":190,"target":"present","response":"present","rt":999,"correct":true,"confidence":-1},{"trial_n":17,"min":73,"max":182,"target":"present","response":"absent","rt":1129,"correct":false,"confidence":-1},{"trial_n":18,"min":65,"max":190,"target":"absent","response":"present","rt":983,"correct":false,"confidence":-1},{"trial_n":19,"min":57,"max":198,"target":"present","response":"present","rt":789,"correct":true,"confidence":-1},{"trial_n":20,"min":57,"max":198,"target":"absent","response":"absent","rt":1250,"correct":true,"confidence":-1},{"trial_n":21,"min":61,"max":194,"target":"present","response":"present","rt":986.00000000001,"correct":true,"confidence":5},{"trial_n":22,"min":61,"max":194,"target":"present","response":"present","rt":938,"correct":true,"confidence":5},{"trial_n":23,"min":65,"max":190,"target":"present","response":"present","rt":993,"correct":true,"confidence":5},{"trial_n":24,"min":65,"max":190,"target":"absent","response":"present","rt":1505,"correct":false,"confidence":3},{"trial_n":25,"min":61,"max":194,"target":"present","response":"present","rt":977.99999999999,"correct":true,"confidence":4},{"trial_n":26,"min":61,"max":194,"target":"absent","response":"absent","rt":824,"correct":true,"confidence":4},{"trial_n":27,"min":65,"max":190,"target":"present","response":"present","rt":922,"correct":true,"confidence":4},{"trial_n":28,"min":65,"max":190,"target":"absent","response":"absent","rt":1254,"correct":true,"confidence":3},{"trial_n":29,"min":69,"max":186,"target":"present","response":"present","rt":1788,"correct":true,"confidence":2},{"trial_n":30,"min":69,"max":186,"target":"absent","response":"absent","rt":1020,"correct":true,"confidence":4},{"trial_n":31,"min":71,"max":184,"target":"absent","response":"absent","rt":3303,"correct":true,"confidence":2},{"trial_n":32,"min":71,"max":184,"target":"absent","response":"present","rt":1273,"correct":false,"confidence":2},{"trial_n":33,"min":69,"max":186,"target":"present","response":"present","rt":835.99999999997,"correct":true,"confidence":4},{"trial_n":34,"min":69,"max":186,"target":"absent","response":"absent","rt":1120,"correct":true,"confidence":4},{"trial_n":35,"min":71,"max":184,"target":"present","response":"present","rt":1087,"correct":true,"confidence":5},{"trial_n":36,"min":71,"max":184,"target":"present","response":"absent","rt":2810,"correct":false,"confidence":1},{"trial_n":37,"min":69,"max":186,"target":"present","response":"present","rt":925,"correct":true,"confidence":4},{"trial_n":38,"min":69,"max":186,"target":"present","response":"present","rt":902,"correct":true,"confidence":5},{"trial_n":39,"min":71,"max":184,"target":"absent","response":"absent","rt":3021,"correct":true,"confidence":1},{"trial_n":40,"min":71,"max":184,"target":"present","response":"present","rt":738,"correct":true,"confidence":4},{"trial_n":41,"min":72,"max":183,"target":"present","response":"present","rt":2272.9999999999,"correct":true,"confidence":1},{"trial_n":42,"min":72,"max":183,"target":"present","response":"present","rt":1086,"correct":true,"confidence":4},{"trial_n":43,"min":73,"max":182,"target":"absent","response":"absent","rt":1727,"correct":true,"confidence":3},{"trial_n":44,"min":73,"max":182,"target":"present","response":"present","rt":1395.0000000001,"correct":true,"confidence":3},{"trial_n":45,"min":74,"max":181,"target":"absent","response":"absent","rt":1202,"correct":true,"confidence":2},{"trial_n":46,"min":74,"max":181,"target":"absent","response":"absent","rt":1745,"correct":true,"confidence":4},{"trial_n":47,"min":75,"max":180,"target":"absent","response":"absent","rt":1599,"correct":true,"confidence":3},{"trial_n":48,"min":75,"max":180,"target":"present","response":"present","rt":1235,"correct":true,"confidence":3},{"trial_n":49,"min":76,"max":179,"target":"absent","response":"absent","rt":1241.9999999999,"correct":true,"confidence":4},{"trial_n":50,"min":76,"max":179,"target":"present","response":"present","rt":1785,"correct":true,"confidence":2},{"trial_n":51,"min":77,"max":178,"target":"present","response":"present","rt":996,"correct":true,"confidence":4},{"trial_n":52,"min":77,"max":178,"target":"absent","response":"absent","rt":814.99999999994,"correct":true,"confidence":5},{"trial_n":53,"min":78,"max":177,"target":"present","response":"present","rt":840,"correct":true,"confidence":3},{"trial_n":54,"min":78,"max":177,"target":"present","response":"present","rt":847,"correct":true,"confidence":3},{"trial_n":55,"min":79,"max":176,"target":"absent","response":"absent","rt":791,"correct":true,"confidence":5},{"trial_n":56,"min":79,"max":176,"target":"absent","response":"absent","rt":798,"correct":true,"confidence":4},{"trial_n":57,"min":80,"max":175,"target":"absent","response":"absent","rt":888,"correct":true,"confidence":5},{"trial_n":58,"min":80,"max":175,"target":"present","response":"present","rt":775.00000000006,"correct":true,"confidence":4},{"trial_n":59,"min":81,"max":174,"target":"absent","response":"absent","rt":734,"correct":true,"confidence":5},{"trial_n":60,"min":81,"max":174,"target":"absent","response":"absent","rt":839,"correct":true,"confidence":4},{"trial_n":61,"min":82,"max":173,"target":"absent","response":"absent","rt":869,"correct":true,"confidence":5},{"trial_n":62,"min":82,"max":173,"target":"absent","response":"absent","rt":904,"correct":true,"confidence":3},{"trial_n":63,"min":83,"max":172,"target":"absent","response":"present","rt":1211,"correct":false,"confidence":1},{"trial_n":64,"min":82,"max":173,"target":"present","response":"absent","rt":1268,"correct":false,"confidence":4},{"trial_n":65,"min":81,"max":174,"target":"present","response":"present","rt":928,"correct":true,"confidence":2},{"trial_n":66,"min":81,"max":174,"target":"absent","response":"absent","rt":865,"correct":true,"confidence":4},{"trial_n":67,"min":82,"max":173,"target":"absent","response":"present","rt":1107,"correct":false,"confidence":2},{"trial_n":68,"min":81,"max":174,"target":"absent","response":"absent","rt":775,"correct":true,"confidence":4},{"trial_n":69,"min":81,"max":174,"target":"present","response":"present","rt":856.99999999994,"correct":true,"confidence":5},{"trial_n":70,"min":82,"max":173,"target":"present","response":"absent","rt":881,"correct":false,"confidence":3},{"trial_n":71,"min":41,"max":214,"target":"present","response":"present","rt":5020,"correct":true,"confidence":-1},{"trial_n":72,"min":41,"max":214,"target":"present","response":"present","rt":1093,"correct":true,"confidence":-1},{"trial_n":73,"min":57,"max":198,"target":"absent","response":"absent","rt":1352.0000000001,"correct":true,"confidence":-1},{"trial_n":74,"min":57,"max":198,"target":"absent","response":"absent","rt":576,"correct":true,"confidence":-1},{"trial_n":75,"min":73,"max":182,"target":"present","response":"absent","rt":1433.0000000001,"correct":false,"confidence":-1},{"trial_n":76,"min":57,"max":198,"target":"absent","response":"present","rt":1580,"correct":false,"confidence":-1},{"trial_n":77,"min":41,"max":214,"target":"present","response":"present","rt":3659.9999999999,"correct":true,"confidence":-1},{"trial_n":78,"min":41,"max":214,"target":"present","response":"present","rt":1192,"correct":true,"confidence":-1},{"trial_n":79,"min":57,"max":198,"target":"absent","response":"present","rt":1206,"correct":false,"confidence":-1},{"trial_n":80,"min":41,"max":214,"target":"present","response":"present","rt":811.00000000006,"correct":true,"confidence":-1},{"trial_n":81,"min":41,"max":214,"target":"present","response":"present","rt":682,"correct":true,"confidence":-1},{"trial_n":82,"min":49,"max":206,"target":"absent","response":"present","rt":851,"correct":false,"confidence":-1},{"trial_n":83,"min":41,"max":214,"target":"present","response":"present","rt":844,"correct":true,"confidence":-1},{"trial_n":84,"min":41,"max":214,"target":"absent","response":"present","rt":715.00000000006,"correct":false,"confidence":-1},{"trial_n":85,"min":33,"max":222,"target":"absent","response":"absent","rt":1767,"correct":true,"confidence":-1},{"trial_n":86,"min":33,"max":222,"target":"present","response":"present","rt":1274,"correct":true,"confidence":-1},{"trial_n":87,"min":41,"max":214,"target":"absent","response":"absent","rt":1030,"correct":true,"confidence":-1},{"trial_n":88,"min":41,"max":214,"target":"absent","response":"present","rt":1322,"correct":false,"confidence":-1},{"trial_n":89,"min":33,"max":222,"target":"present","response":"present","rt":854,"correct":true,"confidence":-1},{"trial_n":90,"min":33,"max":222,"target":"present","response":"absent","rt":3102,"correct":false,"confidence":-1},{"trial_n":91,"min":29,"max":226,"target":"absent","response":"absent","rt":1189.9999999999,"correct":true,"confidence":3},{"trial_n":92,"min":29,"max":226,"target":"present","response":"present","rt":1867,"correct":true,"confidence":4},{"trial_n":93,"min":33,"max":222,"target":"present","response":"present","rt":1130,"correct":true,"confidence":3},{"trial_n":94,"min":33,"max":222,"target":"present","response":"present","rt":912,"correct":true,"confidence":3},{"trial_n":95,"min":37,"max":218,"target":"absent","response":"present","rt":1695,"correct":false,"confidence":3},{"trial_n":96,"min":33,"max":222,"target":"present","response":"present","rt":937,"correct":true,"confidence":3},{"trial_n":97,"min":33,"max":222,"target":"absent","response":"present","rt":1122.9999999999,"correct":false,"confidence":4},{"trial_n":98,"min":29,"max":226,"target":"present","response":"present","rt":960,"correct":true,"confidence":3},{"trial_n":99,"min":29,"max":226,"target":"present","response":"absent","rt":1115.9999999999,"correct":false,"confidence":2},{"trial_n":100,"min":25,"max":230,"target":"present","response":"present","rt":1205,"correct":true,"confidence":3},{"trial_n":101,"min":25,"max":230,"target":"absent","response":"present","rt":1008.0000000001,"correct":false,"confidence":4},{"trial_n":102,"min":23,"max":232,"target":"present","response":"present","rt":921,"correct":true,"confidence":3},{"trial_n":103,"min":23,"max":232,"target":"present","response":"present","rt":1358.0000000001,"correct":true,"confidence":4},{"trial_n":104,"min":25,"max":230,"target":"absent","response":"present","rt":1232,"correct":false,"confidence":4},{"trial_n":105,"min":23,"max":232,"target":"present","response":"absent","rt":1794,"correct":false,"confidence":3},{"trial_n":106,"min":21,"max":234,"target":"absent","response":"absent","rt":968,"correct":true,"confidence":1},{"trial_n":107,"min":21,"max":234,"target":"present","response":"present","rt":1083,"correct":true,"confidence":4},{"trial_n":108,"min":23,"max":232,"target":"absent","response":"present","rt":1344.0000000001,"correct":false,"confidence":3},{"trial_n":109,"min":21,"max":234,"target":"present","response":"absent","rt":1098.9999999999,"correct":false,"confidence":1},{"trial_n":110,"min":19,"max":236,"target":"absent","response":"present","rt":2198.9999999999,"correct":false,"confidence":1},{"trial_n":111,"min":18,"max":237,"target":"absent","response":"present","rt":1237.0000000001,"correct":false,"confidence":4},{"trial_n":112,"min":17,"max":238,"target":"absent","response":"present","rt":1488,"correct":false,"confidence":3},{"trial_n":113,"min":16,"max":239,"target":"absent","response":"absent","rt":1012,"correct":true,"confidence":4},{"trial_n":114,"min":16,"max":239,"target":"present","response":"present","rt":996,"correct":true,"confidence":3},{"trial_n":115,"min":17,"max":238,"target":"absent","response":"present","rt":892.00000000012,"correct":false,"confidence":1},{"trial_n":116,"min":16,"max":239,"target":"present","response":"present","rt":1295,"correct":true,"confidence":3},{"trial_n":117,"min":16,"max":239,"target":"present","response":"absent","rt":1262.9999999999,"correct":false,"confidence":1},{"trial_n":118,"min":15,"max":240,"target":"present","response":"present","rt":1176,"correct":true,"confidence":3},{"trial_n":119,"min":15,"max":240,"target":"present","response":"absent","rt":994.00000000012,"correct":false,"confidence":3},{"trial_n":120,"min":14,"max":241,"target":"absent","response":"present","rt":900,"correct":false,"confidence":4},{"trial_n":121,"min":13,"max":242,"target":"absent","response":"absent","rt":1021,"correct":true,"confidence":2},{"trial_n":122,"min":13,"max":242,"target":"present","response":"present","rt":899,"correct":true,"confidence":2},{"trial_n":123,"min":14,"max":241,"target":"present","response":"present","rt":1086,"correct":true,"confidence":3},{"trial_n":124,"min":14,"max":241,"target":"absent","response":"absent","rt":771.00000000012,"correct":true,"confidence":3},{"trial_n":125,"min":15,"max":240,"target":"absent","response":"absent","rt":771,"correct":true,"confidence":4},{"trial_n":126,"min":15,"max":240,"target":"absent","response":"present","rt":2026,"correct":false,"confidence":3},{"trial_n":127,"min":14,"max":241,"target":"absent","response":"present","rt":1071,"correct":false,"confidence":3},{"trial_n":128,"min":13,"max":242,"target":"present","response":"present","rt":1259,"correct":true,"confidence":3},{"trial_n":129,"min":13,"max":242,"target":"present","response":"present","rt":2213.0000000001,"correct":true,"confidence":5},{"trial_n":130,"min":14,"max":241,"target":"present","response":"absent","rt":766,"correct":false,"confidence":4},{"trial_n":131,"min":13,"max":242,"target":"absent","response":"absent","rt":794.99999999988,"correct":true,"confidence":3},{"trial_n":132,"min":13,"max":242,"target":"present","response":"absent","rt":1078,"correct":false,"confidence":3},{"trial_n":133,"min":12,"max":243,"target":"present","response":"absent","rt":893,"correct":false,"confidence":3},{"trial_n":134,"min":11,"max":244,"target":"present","response":"present","rt":773,"correct":true,"confidence":3},{"trial_n":135,"min":11,"max":244,"target":"absent","response":"absent","rt":1214.9999999999,"correct":true,"confidence":5},{"trial_n":136,"min":12,"max":243,"target":"absent","response":"absent","rt":812.00000000012,"correct":true,"confidence":5},{"trial_n":137,"min":12,"max":243,"target":"absent","response":"absent","rt":691.00000000012,"correct":true,"confidence":5},{"trial_n":138,"min":13,"max":242,"target":"absent","response":"absent","rt":862,"correct":true,"confidence":4},{"trial_n":139,"min":13,"max":242,"target":"absent","response":"present","rt":1177.0000000001,"correct":false,"confidence":1},{"trial_n":140,"min":12,"max":243,"target":"absent","response":"present","rt":1364,"correct":false,"confidence":4}]