[{"trial_n":1,"n_dots":4.25,"target":"right","response":"left","rt":3608.299999997,"correct":false,"confidence":-1},{"trial_n":2,"n_dots":4.25,"target":"left","response":"left","rt":1106.1999999881,"correct":true,"confidence":-1},{"trial_n":3,"n_dots":4.25,"target":"left","response":"left","rt":2183,"correct":true,"confidence":-1},{"trial_n":4,"n_dots":3.85,"target":"left","response":"left","rt":1290.1000000089,"correct":true,"confidence":-1},{"trial_n":5,"n_dots":3.85,"target":"left","response":"left","rt":528.20000000298,"correct":true,"confidence":-1},{"trial_n":6,"n_dots":3.45,"target":"left","response":"left","rt":1231.700000003,"correct":true,"confidence":-1},{"trial_n":7,"n_dots":3.45,"target":"right","response":"right","rt":1079,"correct":true,"confidence":-1},{"trial_n":8,"n_dots":3.25,"target":"right","response":"right","rt":566.59999999404,"correct":true,"confidence":-1},{"trial_n":9,"n_dots":3.25,"target":"right","response":"right","rt":506.5,"correct":true,"confidence":-1},{"trial_n":10,"n_dots":3.05,"target":"right","response":"right","rt":510.89999999106,"correct":true,"confidence":-1},{"trial_n":11,"n_dots":3.05,"target":"right","response":"right","rt":669.29999999702,"correct":true,"confidence":-1},{"trial_n":12,"n_dots":2.85,"target":"left","response":"left","rt":788.39999999106,"correct":true,"confidence":-1},{"trial_n":13,"n_dots":2.85,"target":"left","response":"left","rt":273,"correct":true,"confidence":-1},{"trial_n":14,"n_dots":2.75,"target":"right","response":"left","rt":515.39999999106,"correct":false,"confidence":-1},{"trial_n":15,"n_dots":2.85,"target":"right","response":"left","rt":431,"correct":false,"confidence":-1},{"trial_n":16,"n_dots":2.95,"target":"right","response":"left","rt":412.90000000596,"correct":false,"confidence":-1},{"trial_n":17,"n_dots":3.05,"target":"left","response":"left","rt":651.10000000894,"correct":true,"confidence":-1},{"trial_n":18,"n_dots":3.05,"target":"left","response":"left","rt":251.29999999702,"correct":true,"confidence":-1},{"trial_n":19,"n_dots":2.95,"target":"right","response":"right","rt":807.10000000894,"correct":true,"confidence":-1},{"trial_n":20,"n_dots":2.95,"target":"left","response":"left","rt":396.69999998808,"correct":true,"confidence":-1},{"trial_n":21,"n_dots":2.85,"target":"right","response":"left","rt":963.5,"correct":false,"confidence":3},{"trial_n":22,"n_dots":2.95,"target":"right","response":"right","rt":1086,"correct":true,"confidence":1},{"trial_n":23,"n_dots":2.95,"target":"left","response":"left","rt":1159.599999994,"correct":true,"confidence":3},{"trial_n":24,"n_dots":2.85,"target":"right","response":"right","rt":895.39999999106,"correct":true,"confidence":1},{"trial_n":25,"n_dots":2.85,"target":"right","response":"right","rt":763.59999999404,"correct":true,"confidence":1},{"trial_n":26,"n_dots":2.75,"target":"left","response":"left","rt":660.39999999106,"correct":true,"confidence":2},{"trial_n":27,"n_dots":2.75,"target":"right","response":"left","rt":603.29999999702,"correct":false,"confidence":2},{"trial_n":28,"n_dots":2.85,"target":"left","response":"right","rt":594.09999999404,"correct":false,"confidence":1},{"trial_n":29,"n_dots":2.95,"target":"right","response":"left","rt":908.20000000298,"correct":false,"confidence":2},{"trial_n":30,"n_dots":3.05,"target":"right","response":"right","rt":639.90000000596,"correct":true,"confidence":2},{"trial_n":31,"n_dots":3.05,"target":"left","response":"left","rt":317.90000000596,"correct":true,"confidence":3},{"trial_n":32,"n_dots":2.95,"target":"right","response":"right","rt":93.399999991059,"correct":true,"confidence":3},{"trial_n":33,"n_dots":2.95,"target":"right","response":"right","rt":319.59999999404,"correct":true,"confidence":3},{"trial_n":34,"n_dots":2.85,"target":"right","response":"right","rt":947.90000000596,"correct":true,"confidence":1},{"trial_n":35,"n_dots":2.85,"target":"right","response":"left","rt":640.5,"correct":false,"confidence":2},{"trial_n":36,"n_dots":2.95,"target":"left","response":"right","rt":48.300000011921,"correct":false,"confidence":2},{"trial_n":37,"n_dots":3.05,"target":"right","response":"right","rt":438.89999999106,"correct":true,"confidence":1},{"trial_n":38,"n_dots":3.05,"target":"right","response":"left","rt":835.29999999702,"correct":false,"confidence":2},{"trial_n":39,"n_dots":3.15,"target":"left","response":"right","rt":1266.3000000119,"correct":false,"confidence":2},{"trial_n":40,"n_dots":3.25,"target":"left","response":"right","rt":453.5,"correct":false,"confidence":1},{"trial_n":41,"n_dots":3.35,"target":"right","response":"right","rt":141.79999999702,"correct":true,"confidence":3},{"trial_n":42,"n_dots":3.35,"target":"right","response":"left","rt":280.69999998808,"correct":false,"confidence":1},{"trial_n":43,"n_dots":3.45,"target":"right","response":"right","rt":235.30000001192,"correct":true,"confidence":2},{"trial_n":44,"n_dots":3.45,"target":"left","response":"left","rt":251.90000000596,"correct":true,"confidence":3},{"trial_n":45,"n_dots":3.35,"target":"left","response":"left","rt":1065.5,"correct":true,"confidence":3},{"trial_n":46,"n_dots":3.35,"target":"left","response":"left","rt":1098.8999999911,"correct":true,"confidence":1},{"trial_n":47,"n_dots":3.25,"target":"right","response":"right","rt":1683.200000003,"correct":true,"confidence":3},{"trial_n":48,"n_dots":3.25,"target":"left","response":"left","rt":374.29999999702,"correct":true,"confidence":3},{"trial_n":49,"n_dots":3.15,"target":"right","response":"right","rt":1230.400000006,"correct":true,"confidence":3},{"trial_n":50,"n_dots":3.15,"target":"left","response":"left","rt":1.7000000029802,"correct":true,"confidence":4},{"trial_n":51,"n_dots":3.05,"target":"right","response":"right","rt":132.10000000894,"correct":true,"confidence":2},{"trial_n":52,"n_dots":3.05,"target":"right","response":"right","rt":3059.8999999911,"correct":true,"confidence":2},{"trial_n":53,"n_dots":2.95,"target":"left","response":"right","rt":769.69999998808,"correct":false,"confidence":2},{"trial_n":54,"n_dots":3.05,"target":"left","response":"right","rt":1300.6000000089,"correct":false,"confidence":2},{"trial_n":55,"n_dots":3.15,"target":"right","response":"right","rt":473.79999999702,"correct":true,"confidence":1},{"trial_n":56,"n_dots":3.15,"target":"left","response":"left","rt":510.70000000298,"correct":true,"confidence":2},{"trial_n":57,"n_dots":3.05,"target":"right","response":"left","rt":465.29999999702,"correct":false,"confidence":1},{"trial_n":58,"n_dots":3.15,"target":"left","response":"left","rt":800.40000000596,"correct":true,"confidence":3},{"trial_n":59,"n_dots":3.15,"target":"right","response":"right","rt":1274.099999994,"correct":true,"confidence":3},{"trial_n":60,"n_dots":3.05,"target":"right","response":"left","rt":1005.700000003,"correct":false,"confidence":1},{"trial_n":61,"n_dots":3.15,"target":"right","response":"right","rt":463.20000000298,"correct":true,"confidence":3},{"trial_n":62,"n_dots":3.15,"target":"right","response":"right","rt":662.59999999404,"correct":true,"confidence":3},{"trial_n":63,"n_dots":3.05,"target":"right","response":"left","rt":519.79999999702,"correct":false,"confidence":3},{"trial_n":64,"n_dots":3.15,"target":"right","response":"right","rt":1045.5,"correct":true,"confidence":1},{"trial_n":65,"n_dots":3.15,"target":"left","response":"right","rt":262,"correct":false,"confidence":1},{"trial_n":66,"n_dots":3.25,"target":"left","response":"right","rt":557.59999999404,"correct":false,"confidence":2},{"trial_n":67,"n_dots":3.35,"target":"left","response":"left","rt":622.30000001192,"correct":true,"confidence":1},{"trial_n":68,"n_dots":3.35,"target":"right","response":"right","rt":7.5,"correct":true,"confidence":4},{"trial_n":69,"n_dots":3.25,"target":"right","response":"right","rt":437.80000001192,"correct":true,"confidence":4},{"trial_n":70,"n_dots":3.25,"target":"right","response":"right","rt":324.39999999106,"correct":true,"confidence":3},{"trial_n":71,"n_dots":3.15,"target":"right","response":"left","rt":68.79999999702,"correct":false,"confidence":1},{"trial_n":72,"n_dots":3.25,"target":"right","response":"right","rt":572,"correct":true,"confidence":3},{"trial_n":73,"n_dots":3.25,"target":"left","response":"left","rt":195.59999999404,"correct":true,"confidence":3},{"trial_n":74,"n_dots":3.15,"target":"right","response":"right","rt":391.20000000298,"correct":true,"confidence":3},{"trial_n":75,"n_dots":3.15,"target":"left","response":"left","rt":24.100000008941,"correct":true,"confidence":3},{"trial_n":76,"n_dots":3.05,"target":"left","response":"right","rt":464.19999998808,"correct":false,"confidence":1},{"trial_n":77,"n_dots":3.15,"target":"right","response":"left","rt":300.59999999404,"correct":false,"confidence":2},{"trial_n":78,"n_dots":3.25,"target":"right","response":"right","rt":331.70000000298,"correct":true,"confidence":1},{"trial_n":79,"n_dots":3.25,"target":"left","response":"right","rt":676,"correct":false,"confidence":3},{"trial_n":80,"n_dots":3.35,"target":"left","response":"left","rt":602.70000000298,"correct":true,"confidence":3},{"trial_n":81,"n_dots":3.35,"target":"right","response":"right","rt":568.59999999404,"correct":true,"confidence":1},{"trial_n":82,"n_dots":3.25,"target":"left","response":"right","rt":489.10000000894,"correct":false,"confidence":3},{"trial_n":83,"n_dots":3.35,"target":"left","response":"left","rt":687.60000000894,"correct":true,"confidence":3},{"trial_n":84,"n_dots":3.35,"target":"left","response":"left","rt":611.30000001192,"correct":true,"confidence":3},{"trial_n":85,"n_dots":3.25,"target":"right","response":"right","rt":1579.700000003,"correct":true,"confidence":3},{"trial_n":86,"n_dots":3.25,"target":"right","response":"right","rt":728.29999999702,"correct":true,"confidence":3},{"trial_n":87,"n_dots":3.15,"target":"right","response":"left","rt":1224.6000000089,"correct":false,"confidence":1},{"trial_n":88,"n_dots":3.25,"target":"right","response":"right","rt":982.79999999702,"correct":true,"confidence":2},{"trial_n":89,"n_dots":3.25,"target":"left","response":"left","rt":1326,"correct":true,"confidence":1},{"trial_n":90,"n_dots":3.15,"target":"left","response":"right","rt":1313.700000003,"correct":false,"confidence":3},{"trial_n":91,"n_dots":3.25,"target":"right","response":"right","rt":716.80000001192,"correct":true,"confidence":3},{"trial_n":92,"n_dots":3.25,"target":"left","response":"left","rt":610.09999999404,"correct":true,"confidence":1},{"trial_n":93,"n_dots":3.15,"target":"left","response":"left","rt":832.5,"correct":true,"confidence":3},{"trial_n":94,"n_dots":3.15,"target":"left","response":"right","rt":281.90000000596,"correct":false,"confidence":3},{"trial_n":95,"n_dots":3.25,"target":"left","response":"right","rt":1098.700000003,"correct":false,"confidence":3},{"trial_n":96,"n_dots":3.35,"target":"right","response":"left","rt":475.69999998808,"correct":false,"confidence":2},{"trial_n":97,"n_dots":3.45,"target":"left","response":"left","rt":276.20000000298,"correct":true,"confidence":2},{"trial_n":98,"n_dots":3.45,"target":"left","response":"right","rt":324.29999999702,"correct":false,"confidence":1},{"trial_n":99,"n_dots":3.55,"target":"left","response":"left","rt":78.09999999404,"correct":true,"confidence":3},{"trial_n":100,"n_dots":3.55,"target":"right","response":"right","rt":549.29999999702,"correct":true,"confidence":1},{"trial_n":101,"n_dots":3.45,"target":"left","response":"right","rt":251,"correct":false,"confidence":2},{"trial_n":102,"n_dots":3.55,"target":"right","response":"right","rt":248.70000000298,"correct":true,"confidence":3},{"trial_n":103,"n_dots":3.55,"target":"left","response":"left","rt":667.39999999106,"correct":true,"confidence":2},{"trial_n":104,"n_dots":3.45,"target":"right","response":"right","rt":689.40000000596,"correct":true,"confidence":3},{"trial_n":105,"n_dots":3.45,"target":"left","response":"left","rt":514.29999999702,"correct":true,"confidence":2},{"trial_n":106,"n_dots":3.35,"target":"right","response":"right","rt":452.70000000298,"correct":true,"confidence":3},{"trial_n":107,"n_dots":3.35,"target":"left","response":"right","rt":488.69999998808,"correct":false,"confidence":2},{"trial_n":108,"n_dots":3.45,"target":"left","response":"left","rt":545.39999999106,"correct":true,"confidence":3},{"trial_n":109,"n_dots":3.45,"target":"left","response":"left","rt":598.59999999404,"correct":true,"confidence":1},{"trial_n":110,"n_dots":3.35,"target":"right","response":"right","rt":684.90000000596,"correct":true,"confidence":1},{"trial_n":111,"n_dots":3.35,"target":"right","response":"right","rt":1058.8999999911,"correct":true,"confidence":1},{"trial_n":112,"n_dots":3.25,"target":"left","response":"left","rt":996,"correct":true,"confidence":3},{"trial_n":113,"n_dots":3.25,"target":"left","response":"left","rt":2087.299999997,"correct":true,"confidence":1},{"trial_n":114,"n_dots":3.15,"target":"left","response":"left","rt":967.89999999106,"correct":true,"confidence":3},{"trial_n":115,"n_dots":3.15,"target":"left","response":"left","rt":728.39999999106,"correct":true,"confidence":2},{"trial_n":116,"n_dots":3.05,"target":"left","response":"left","rt":953,"correct":true,"confidence":2},{"trial_n":117,"n_dots":3.05,"target":"left","response":"right","rt":1180.599999994,"correct":false,"confidence":3},{"trial_n":118,"n_dots":3.15,"target":"right","response":"right","rt":594.59999999404,"correct":true,"confidence":3},{"trial_n":119,"n_dots":3.15,"target":"left","response":"left","rt":230,"correct":true,"confidence":1},{"trial_n":120,"n_dots":3.05,"target":"left","response":"left","rt":324.40000000596,"correct":true,"confidence":3}]