[{"trial_n":1,"n_dots":4.25,"target":"right","response":"right","rt":2753.8999999985,"correct":true,"confidence":-1},{"trial_n":2,"n_dots":4.25,"target":"right","response":"right","rt":673.80000000075,"correct":true,"confidence":-1},{"trial_n":3,"n_dots":3.85,"target":"left","response":"left","rt":382.40000000224,"correct":true,"confidence":-1},{"trial_n":4,"n_dots":3.85,"target":"right","response":"right","rt":322.80000000075,"correct":true,"confidence":-1},{"trial_n":5,"n_dots":3.45,"target":"right","response":"right","rt":328.10000000149,"correct":true,"confidence":-1},{"trial_n":6,"n_dots":3.45,"target":"left","response":"left","rt":303.60000000149,"correct":true,"confidence":-1},{"trial_n":7,"n_dots":3.05,"target":"right","response":"left","rt":60.599999997765,"correct":false,"confidence":-1},{"trial_n":8,"n_dots":3.25,"target":"right","response":"right","rt":26.20000000298,"correct":true,"confidence":-1},{"trial_n":9,"n_dots":3.25,"target":"left","response":"left","rt":266.5,"correct":true,"confidence":-1},{"trial_n":10,"n_dots":3.05,"target":"right","response":"right","rt":288.10000000149,"correct":true,"confidence":-1},{"trial_n":11,"n_dots":3.05,"target":"left","response":"left","rt":670.19999999925,"correct":true,"confidence":-1},{"trial_n":12,"n_dots":2.85,"target":"right","response":"right","rt":285,"correct":true,"confidence":-1},{"trial_n":13,"n_dots":2.85,"target":"left","response":"left","rt":350.89999999851,"correct":true,"confidence":-1},{"trial_n":14,"n_dots":2.75,"target":"left","response":"left","rt":211.19999999925,"correct":true,"confidence":-1},{"trial_n":15,"n_dots":2.75,"target":"right","response":"right","rt":182,"correct":true,"confidence":-1},{"trial_n":16,"n_dots":2.65,"target":"right","response":"right","rt":158.30000000075,"correct":true,"confidence":-1},{"trial_n":17,"n_dots":2.65,"target":"left","response":"right","rt":99.60000000149,"correct":false,"confidence":-1},{"trial_n":18,"n_dots":2.75,"target":"right","response":"left","rt":242.60000000149,"correct":false,"confidence":-1},{"trial_n":19,"n_dots":2.85,"target":"left","response":"left","rt":339.19999999925,"correct":true,"confidence":-1},{"trial_n":20,"n_dots":2.85,"target":"left","response":"left","rt":120.89999999851,"correct":true,"confidence":-1},{"trial_n":21,"n_dots":2.75,"target":"left","response":"left","rt":280.10000000149,"correct":true,"confidence":2},{"trial_n":22,"n_dots":2.75,"target":"right","response":"left","rt":1147.1999999993,"correct":false,"confidence":2},{"trial_n":23,"n_dots":2.85,"target":"left","response":"left","rt":376.30000000075,"correct":true,"confidence":3},{"trial_n":24,"n_dots":2.85,"target":"right","response":"right","rt":286,"correct":true,"confidence":3},{"trial_n":25,"n_dots":2.75,"target":"right","response":"left","rt":978.90000000224,"correct":false,"confidence":2},{"trial_n":26,"n_dots":2.85,"target":"left","response":"right","rt":375.39999999851,"correct":false,"confidence":1},{"trial_n":27,"n_dots":2.95,"target":"right","response":"left","rt":219.69999999925,"correct":false,"confidence":3},{"trial_n":28,"n_dots":3.05,"target":"left","response":"left","rt":724.60000000149,"correct":true,"confidence":3},{"trial_n":29,"n_dots":3.05,"target":"right","response":"left","rt":508.69999999925,"correct":false,"confidence":3},{"trial_n":30,"n_dots":3.15,"target":"right","response":"right","rt":362.39999999851,"correct":true,"confidence":2},{"trial_n":31,"n_dots":3.15,"target":"right","response":"left","rt":657.59999999776,"correct":false,"confidence":1},{"trial_n":32,"n_dots":3.25,"target":"right","response":"right","rt":346,"correct":true,"confidence":3},{"trial_n":33,"n_dots":3.25,"target":"right","response":"right","rt":961.90000000224,"correct":true,"confidence":3},{"trial_n":34,"n_dots":3.15,"target":"right","response":"right","rt":1407.3999999985,"correct":true,"confidence":1},{"trial_n":35,"n_dots":3.15,"target":"left","response":"left","rt":226.30000000075,"correct":true,"confidence":1},{"trial_n":36,"n_dots":3.05,"target":"left","response":"left","rt":250.39999999851,"correct":true,"confidence":4},{"trial_n":37,"n_dots":3.05,"target":"left","response":"left","rt":361,"correct":true,"confidence":5},{"trial_n":38,"n_dots":2.95,"target":"right","response":"right","rt":540.80000000075,"correct":true,"confidence":3},{"trial_n":39,"n_dots":2.95,"target":"left","response":"left","rt":438.30000000075,"correct":true,"confidence":3},{"trial_n":40,"n_dots":2.85,"target":"right","response":"left","rt":400.30000000075,"correct":false,"confidence":4},{"trial_n":41,"n_dots":2.95,"target":"left","response":"left","rt":461.5,"correct":true,"confidence":3},{"trial_n":42,"n_dots":2.95,"target":"right","response":"right","rt":137.39999999851,"correct":true,"confidence":4},{"trial_n":43,"n_dots":2.85,"target":"right","response":"left","rt":270.39999999851,"correct":false,"confidence":2},{"trial_n":44,"n_dots":2.95,"target":"right","response":"right","rt":481.30000000075,"correct":true,"confidence":4},{"trial_n":45,"n_dots":2.95,"target":"left","response":"right","rt":355.19999999925,"correct":false,"confidence":3},{"trial_n":46,"n_dots":3.05,"target":"left","response":"left","rt":521.30000000075,"correct":true,"confidence":2},{"trial_n":47,"n_dots":3.05,"target":"right","response":"left","rt":217.30000000075,"correct":false,"confidence":3},{"trial_n":48,"n_dots":3.15,"target":"left","response":"left","rt":306.80000000075,"correct":true,"confidence":4},{"trial_n":49,"n_dots":3.15,"target":"left","response":"right","rt":2606.200000003,"correct":false,"confidence":1},{"trial_n":50,"n_dots":3.25,"target":"left","response":"right","rt":809.80000000075,"correct":false,"confidence":5},{"trial_n":51,"n_dots":3.35,"target":"left","response":"left","rt":452.60000000149,"correct":true,"confidence":3},{"trial_n":52,"n_dots":3.35,"target":"left","response":"right","rt":637.69999999925,"correct":false,"confidence":4},{"trial_n":53,"n_dots":3.45,"target":"left","response":"right","rt":611,"correct":false,"confidence":3},{"trial_n":54,"n_dots":3.55,"target":"left","response":"left","rt":470.19999999925,"correct":true,"confidence":2},{"trial_n":55,"n_dots":3.55,"target":"right","response":"right","rt":571.30000000075,"correct":true,"confidence":4},{"trial_n":56,"n_dots":3.45,"target":"right","response":"right","rt":274.40000000224,"correct":true,"confidence":4},{"trial_n":57,"n_dots":3.45,"target":"right","response":"right","rt":707.29999999702,"correct":true,"confidence":2},{"trial_n":58,"n_dots":3.35,"target":"left","response":"left","rt":425.69999999925,"correct":true,"confidence":4},{"trial_n":59,"n_dots":3.35,"target":"left","response":"left","rt":339.5,"correct":true,"confidence":3},{"trial_n":60,"n_dots":3.25,"target":"right","response":"right","rt":446.60000000149,"correct":true,"confidence":4},{"trial_n":61,"n_dots":3.25,"target":"right","response":"right","rt":874.89999999851,"correct":true,"confidence":4},{"trial_n":62,"n_dots":3.15,"target":"right","response":"left","rt":394.90000000224,"correct":false,"confidence":4},{"trial_n":63,"n_dots":3.25,"target":"left","response":"left","rt":278.80000000075,"correct":true,"confidence":4},{"trial_n":64,"n_dots":3.25,"target":"right","response":"right","rt":595.60000000149,"correct":true,"confidence":4},{"trial_n":65,"n_dots":3.15,"target":"right","response":"left","rt":453.10000000149,"correct":false,"confidence":5},{"trial_n":66,"n_dots":3.25,"target":"right","response":"right","rt":356.60000000149,"correct":true,"confidence":4},{"trial_n":67,"n_dots":3.25,"target":"right","response":"left","rt":149.70000000298,"correct":false,"confidence":3},{"trial_n":68,"n_dots":3.35,"target":"right","response":"right","rt":738.10000000149,"correct":true,"confidence":4},{"trial_n":69,"n_dots":3.35,"target":"left","response":"left","rt":622.70000000298,"correct":true,"confidence":3},{"trial_n":70,"n_dots":3.25,"target":"left","response":"right","rt":415.80000000075,"correct":false,"confidence":1},{"trial_n":71,"n_dots":3.35,"target":"left","response":"left","rt":413.89999999851,"correct":true,"confidence":5},{"trial_n":72,"n_dots":3.35,"target":"right","response":"right","rt":303,"correct":true,"confidence":4},{"trial_n":73,"n_dots":3.25,"target":"right","response":"left","rt":1526.4000000022,"correct":false,"confidence":2},{"trial_n":74,"n_dots":3.35,"target":"right","response":"left","rt":443.69999999925,"correct":false,"confidence":4},{"trial_n":75,"n_dots":3.45,"target":"left","response":"left","rt":301.5,"correct":true,"confidence":4},{"trial_n":76,"n_dots":3.45,"target":"right","response":"right","rt":1422.8000000007,"correct":true,"confidence":2},{"trial_n":77,"n_dots":3.35,"target":"left","response":"left","rt":135.90000000224,"correct":true,"confidence":4},{"trial_n":78,"n_dots":3.35,"target":"left","response":"left","rt":264.69999999925,"correct":true,"confidence":2},{"trial_n":79,"n_dots":3.25,"target":"right","response":"right","rt":313.89999999851,"correct":true,"confidence":4},{"trial_n":80,"n_dots":3.25,"target":"right","response":"right","rt":367.59999999776,"correct":true,"confidence":2},{"trial_n":81,"n_dots":3.15,"target":"left","response":"left","rt":411.60000000149,"correct":true,"confidence":4},{"trial_n":82,"n_dots":3.15,"target":"left","response":"right","rt":304.20000000298,"correct":false,"confidence":4},{"trial_n":83,"n_dots":3.25,"target":"right","response":"left","rt":282.89999999851,"correct":false,"confidence":3},{"trial_n":84,"n_dots":3.35,"target":"left","response":"left","rt":277.5,"correct":true,"confidence":2},{"trial_n":85,"n_dots":3.35,"target":"left","response":"right","rt":323.89999999851,"correct":false,"confidence":4},{"trial_n":86,"n_dots":3.45,"target":"left","response":"left","rt":1970.1000000015,"correct":true,"confidence":4},{"trial_n":87,"n_dots":3.45,"target":"left","response":"left","rt":648.19999999925,"correct":true,"confidence":4},{"trial_n":88,"n_dots":3.35,"target":"right","response":"left","rt":690.5,"correct":false,"confidence":2},{"trial_n":89,"n_dots":3.45,"target":"left","response":"right","rt":293.5,"correct":false,"confidence":5},{"trial_n":90,"n_dots":3.55,"target":"right","response":"left","rt":237.80000000075,"correct":false,"confidence":4},{"trial_n":91,"n_dots":3.65,"target":"right","response":"right","rt":460.39999999851,"correct":true,"confidence":2},{"trial_n":92,"n_dots":3.65,"target":"left","response":"left","rt":433.59999999776,"correct":true,"confidence":3},{"trial_n":93,"n_dots":3.55,"target":"left","response":"right","rt":454.09999999776,"correct":false,"confidence":4},{"trial_n":94,"n_dots":3.65,"target":"left","response":"left","rt":201.30000000075,"correct":true,"confidence":3},{"trial_n":95,"n_dots":3.65,"target":"left","response":"left","rt":483.70000000298,"correct":true,"confidence":2},{"trial_n":96,"n_dots":3.55,"target":"left","response":"right","rt":345.29999999702,"correct":false,"confidence":4},{"trial_n":97,"n_dots":3.65,"target":"left","response":"left","rt":415.30000000075,"correct":true,"confidence":3},{"trial_n":98,"n_dots":3.65,"target":"right","response":"left","rt":455.69999999925,"correct":false,"confidence":3},{"trial_n":99,"n_dots":3.75,"target":"left","response":"left","rt":514.5,"correct":true,"confidence":4},{"trial_n":100,"n_dots":3.75,"target":"right","response":"right","rt":212.69999999925,"correct":true,"confidence":4},{"trial_n":101,"n_dots":3.65,"target":"right","response":"right","rt":51,"correct":true,"confidence":5},{"trial_n":102,"n_dots":3.65,"target":"left","response":"left","rt":280.09999999776,"correct":true,"confidence":4},{"trial_n":103,"n_dots":3.55,"target":"right","response":"left","rt":385.40000000224,"correct":false,"confidence":4},{"trial_n":104,"n_dots":3.65,"target":"left","response":"left","rt":469,"correct":true,"confidence":4},{"trial_n":105,"n_dots":3.65,"target":"right","response":"left","rt":431.10000000149,"correct":false,"confidence":4},{"trial_n":106,"n_dots":3.75,"target":"left","response":"left","rt":757.69999999925,"correct":true,"confidence":4},{"trial_n":107,"n_dots":3.75,"target":"left","response":"right","rt":432.59999999776,"correct":false,"confidence":4},{"trial_n":108,"n_dots":3.85,"target":"left","response":"left","rt":237.5,"correct":true,"confidence":3},{"trial_n":109,"n_dots":3.85,"target":"left","response":"left","rt":503.89999999851,"correct":true,"confidence":4},{"trial_n":110,"n_dots":3.75,"target":"right","response":"right","rt":361.5,"correct":true,"confidence":4},{"trial_n":111,"n_dots":3.75,"target":"right","response":"right","rt":607.89999999851,"correct":true,"confidence":2},{"trial_n":112,"n_dots":3.65,"target":"left","response":"left","rt":573.80000000075,"correct":true,"confidence":4},{"trial_n":113,"n_dots":3.65,"target":"right","response":"right","rt":536.30000000075,"correct":true,"confidence":4},{"trial_n":114,"n_dots":3.55,"target":"left","response":"left","rt":365.90000000224,"correct":true,"confidence":4},{"trial_n":115,"n_dots":3.55,"target":"left","response":"left","rt":1225.8000000007,"correct":true,"confidence":4},{"trial_n":116,"n_dots":3.45,"target":"left","response":"right","rt":298.90000000224,"correct":false,"confidence":3},{"trial_n":117,"n_dots":3.55,"target":"right","response":"right","rt":220.19999999925,"correct":true,"confidence":2},{"trial_n":118,"n_dots":3.55,"target":"right","response":"right","rt":234.29999999702,"correct":true,"confidence":4},{"trial_n":119,"n_dots":3.45,"target":"right","response":"right","rt":167.20000000298,"correct":true,"confidence":4},{"trial_n":120,"n_dots":3.45,"target":"right","response":"right","rt":20574.899999999,"correct":true,"confidence":1}]