[{"trial_n":1,"span":8,"encoder":"86425527","distractor":"86425520","target":"present","response":"present","rt":"3996","correct":true,"confidence":-1},{"trial_n":2,"span":8,"encoder":"73563887","distractor":"77563887","target":"present","response":"present","rt":"3158","correct":true,"confidence":-1},{"trial_n":3,"span":10,"encoder":"5316350227","distractor":"5316350727","target":"absent","response":"absent","rt":"2719","correct":true,"confidence":-1},{"trial_n":4,"span":10,"encoder":"3398738310","distractor":"3398738410","target":"absent","response":"absent","rt":"4685","correct":true,"confidence":-1},{"trial_n":5,"span":12,"encoder":"539926066496","distractor":"539929066496","target":"present","response":"present","rt":"2658","correct":true,"confidence":-1},{"trial_n":6,"span":12,"encoder":"340783991284","distractor":"340783981284","target":"absent","response":"present","rt":"3059","correct":false,"confidence":-1},{"trial_n":7,"span":10,"encoder":"3146360460","distractor":"3146860460","target":"absent","response":"present","rt":"3602","correct":false,"confidence":-1},{"trial_n":8,"span":8,"encoder":"00018554","distractor":"00318554","target":"absent","response":"absent","rt":"2399","correct":true,"confidence":-1},{"trial_n":9,"span":8,"encoder":"38407321","distractor":"38417321","target":"absent","response":"present","rt":"2294","correct":false,"confidence":-1},{"trial_n":10,"span":6,"encoder":"846635","distractor":"849635","target":"present","response":"absent","rt":"3506","correct":false,"confidence":-1},{"trial_n":11,"span":4,"encoder":"3390","distractor":"3890","target":"present","response":"absent","rt":"1423","correct":false,"confidence":-1},{"trial_n":12,"span":3,"encoder":"713","distractor":"712","target":"absent","response":"absent","rt":"1621","correct":true,"confidence":-1},{"trial_n":13,"span":3,"encoder":"839","distractor":"139","target":"absent","response":"absent","rt":"1488","correct":true,"confidence":-1},{"trial_n":14,"span":4,"encoder":"8171","distractor":"8170","target":"present","response":"present","rt":"1651","correct":true,"confidence":-1},{"trial_n":15,"span":4,"encoder":"8951","distractor":"8957","target":"absent","response":"absent","rt":"1872","correct":true,"confidence":-1},{"trial_n":16,"span":5,"encoder":"03548","distractor":"09548","target":"present","response":"present","rt":"1377","correct":true,"confidence":-1},{"trial_n":17,"span":5,"encoder":"80276","distractor":"82276","target":"absent","response":"present","rt":"1289","correct":false,"confidence":-1},{"trial_n":18,"span":4,"encoder":"1919","distractor":"1989","target":"absent","response":"absent","rt":"1278","correct":true,"confidence":-1},{"trial_n":19,"span":4,"encoder":"1213","distractor":"1219","target":"absent","response":"absent","rt":"1184","correct":true,"confidence":-1},{"trial_n":20,"span":5,"encoder":"85450","distractor":"85459","target":"present","response":"present","rt":"1493","correct":true,"confidence":-1},{"trial_n":21,"span":5,"encoder":"22124","distractor":"21124","target":"present","response":"absent","rt":"2179","correct":false,"confidence":5},{"trial_n":22,"span":4,"encoder":"9935","distractor":"9936","target":"absent","response":"absent","rt":"1782","correct":true,"confidence":5},{"trial_n":23,"span":4,"encoder":"5350","distractor":"5352","target":"present","response":"present","rt":"1821","correct":true,"confidence":5},{"trial_n":24,"span":5,"encoder":"89535","distractor":"89435","target":"absent","response":"absent","rt":"3004","correct":true,"confidence":4},{"trial_n":25,"span":5,"encoder":"53334","distractor":"53333","target":"absent","response":"absent","rt":"1705","correct":true,"confidence":5},{"trial_n":26,"span":6,"encoder":"177036","distractor":"107036","target":"present","response":"absent","rt":"5541","correct":false,"confidence":3},{"trial_n":27,"span":5,"encoder":"80696","distractor":"80626","target":"absent","response":"absent","rt":"1762","correct":true,"confidence":5},{"trial_n":28,"span":5,"encoder":"49411","distractor":"49911","target":"absent","response":"present","rt":"3380","correct":false,"confidence":4},{"trial_n":29,"span":4,"encoder":"3185","distractor":"3145","target":"present","response":"present","rt":"1863","correct":true,"confidence":5},{"trial_n":30,"span":4,"encoder":"5835","distractor":"5832","target":"present","response":"present","rt":"2197","correct":true,"confidence":5},{"trial_n":31,"span":5,"encoder":"49753","distractor":"49759","target":"present","response":"present","rt":"4193","correct":true,"confidence":5},{"trial_n":32,"span":5,"encoder":"51820","distractor":"51890","target":"present","response":"present","rt":"1649","correct":true,"confidence":5},{"trial_n":33,"span":6,"encoder":"621134","distractor":"651134","target":"present","response":"present","rt":"3184","correct":true,"confidence":3},{"trial_n":34,"span":6,"encoder":"504531","distractor":"504581","target":"present","response":"present","rt":"2250","correct":true,"confidence":4},{"trial_n":35,"span":7,"encoder":"4012269","distractor":"1012269","target":"absent","response":"absent","rt":"2146","correct":true,"confidence":4},{"trial_n":36,"span":7,"encoder":"7409748","distractor":"7409728","target":"absent","response":"absent","rt":"2044","correct":true,"confidence":3},{"trial_n":37,"span":8,"encoder":"23568038","distractor":"22568038","target":"absent","response":"absent","rt":"3413","correct":true,"confidence":2},{"trial_n":38,"span":8,"encoder":"26209039","distractor":"26259039","target":"present","response":"present","rt":"3524","correct":true,"confidence":4},{"trial_n":39,"span":9,"encoder":"123171932","distractor":"123179932","target":"present","response":"present","rt":"4961","correct":true,"confidence":4},{"trial_n":40,"span":9,"encoder":"772096054","distractor":"775096054","target":"absent","response":"absent","rt":"15223","correct":true,"confidence":3},{"trial_n":41,"span":10,"encoder":"1874598482","distractor":"1574598482","target":"present","response":"absent","rt":"7221","correct":false,"confidence":3},{"trial_n":42,"span":9,"encoder":"089805781","distractor":"089835781","target":"present","response":"present","rt":"5579","correct":true,"confidence":3},{"trial_n":43,"span":9,"encoder":"639738134","distractor":"639638134","target":"present","response":"present","rt":"2871","correct":true,"confidence":5},{"trial_n":44,"span":10,"encoder":"0867940116","distractor":"0897940116","target":"present","response":"absent","rt":"1794","correct":false,"confidence":4},{"trial_n":45,"span":9,"encoder":"858435057","distractor":"858495057","target":"absent","response":"absent","rt":"4609","correct":true,"confidence":3},{"trial_n":46,"span":9,"encoder":"850539067","distractor":"850539065","target":"absent","response":"absent","rt":"1832.9999999999","correct":true,"confidence":5},{"trial_n":47,"span":10,"encoder":"1046379588","distractor":"1046309588","target":"absent","response":"absent","rt":"3327","correct":true,"confidence":4},{"trial_n":48,"span":10,"encoder":"0635544395","distractor":"0635544295","target":"present","response":"absent","rt":"3689.0000000001","correct":false,"confidence":3},{"trial_n":49,"span":9,"encoder":"387945341","distractor":"987945341","target":"present","response":"present","rt":"4415","correct":true,"confidence":4},{"trial_n":50,"span":9,"encoder":"379853808","distractor":"779853808","target":"absent","response":"absent","rt":"3248.0000000001","correct":true,"confidence":2},{"trial_n":51,"span":10,"encoder":"9131171311","distractor":"9131371311","target":"absent","response":"absent","rt":"5135","correct":true,"confidence":4},{"trial_n":52,"span":10,"encoder":"6913841436","distractor":"6813841436","target":"present","response":"present","rt":"4585","correct":true,"confidence":4},{"trial_n":53,"span":11,"encoder":"41102787651","distractor":"41102781651","target":"absent","response":"absent","rt":"3787","correct":true,"confidence":4},{"trial_n":54,"span":11,"encoder":"23607186020","distractor":"23607186080","target":"present","response":"present","rt":"4453.0000000001","correct":true,"confidence":3},{"trial_n":55,"span":12,"encoder":"087044397649","distractor":"087044397749","target":"present","response":"absent","rt":"4731","correct":false,"confidence":3},{"trial_n":56,"span":11,"encoder":"69734206626","distractor":"69634206626","target":"present","response":"present","rt":"6166","correct":true,"confidence":2},{"trial_n":57,"span":11,"encoder":"94631450644","distractor":"99631450644","target":"absent","response":"absent","rt":"3172","correct":true,"confidence":1},{"trial_n":58,"span":12,"encoder":"858846756944","distractor":"852846756944","target":"present","response":"absent","rt":"3709","correct":false,"confidence":2},{"trial_n":59,"span":11,"encoder":"77381826828","distractor":"77381826821","target":"present","response":"absent","rt":"3222","correct":false,"confidence":2},{"trial_n":60,"span":10,"encoder":"5494459528","distractor":"5494459328","target":"present","response":"absent","rt":"5430","correct":false,"confidence":3},{"trial_n":61,"span":9,"encoder":"744577918","distractor":"744577998","target":"absent","response":"absent","rt":"2695.0000000001","correct":true,"confidence":5},{"trial_n":62,"span":9,"encoder":"587183129","distractor":"687183129","target":"absent","response":"absent","rt":"3263.9999999999","correct":true,"confidence":4},{"trial_n":63,"span":10,"encoder":"8134156334","distractor":"8134116334","target":"absent","response":"absent","rt":"6177","correct":true,"confidence":3},{"trial_n":64,"span":10,"encoder":"1970582842","distractor":"1960582842","target":"present","response":"absent","rt":"2529","correct":false,"confidence":1},{"trial_n":65,"span":9,"encoder":"978089828","distractor":"978029828","target":"absent","response":"present","rt":"2257","correct":false,"confidence":3},{"trial_n":66,"span":8,"encoder":"12987517","distractor":"12983517","target":"present","response":"present","rt":"2778","correct":true,"confidence":3},{"trial_n":67,"span":8,"encoder":"87434933","distractor":"87434953","target":"present","response":"absent","rt":"2026","correct":false,"confidence":3},{"trial_n":68,"span":7,"encoder":"9043982","distractor":"9043582","target":"present","response":"present","rt":"2345","correct":true,"confidence":4},{"trial_n":69,"span":7,"encoder":"7149767","distractor":"7149717","target":"absent","response":"absent","rt":"3606","correct":true,"confidence":5},{"trial_n":70,"span":8,"encoder":"06561229","distractor":"06521229","target":"absent","response":"absent","rt":"2931","correct":true,"confidence":2},{"trial_n":71,"span":8,"encoder":"39208354","distractor":"39218354","target":"present","response":"present","rt":"3919","correct":true,"confidence":-1},{"trial_n":72,"span":8,"encoder":"09195861","distractor":"09895861","target":"present","response":"absent","rt":"3017","correct":false,"confidence":-1},{"trial_n":73,"span":7,"encoder":"4913936","distractor":"4983936","target":"absent","response":"absent","rt":"3318","correct":true,"confidence":-1},{"trial_n":74,"span":7,"encoder":"0940520","distractor":"0900520","target":"absent","response":"absent","rt":"1762.0000000001","correct":true,"confidence":-1},{"trial_n":75,"span":8,"encoder":"01703276","distractor":"01203276","target":"present","response":"present","rt":"2873.0000000001","correct":true,"confidence":-1},{"trial_n":76,"span":8,"encoder":"94523615","distractor":"94522615","target":"absent","response":"absent","rt":"3256.9999999999","correct":true,"confidence":-1},{"trial_n":77,"span":9,"encoder":"751553035","distractor":"751593035","target":"absent","response":"present","rt":"4016","correct":false,"confidence":-1},{"trial_n":78,"span":8,"encoder":"74634902","distractor":"74637902","target":"present","response":"present","rt":"4134","correct":true,"confidence":-1},{"trial_n":79,"span":8,"encoder":"83574578","distractor":"83576578","target":"absent","response":"absent","rt":"2138","correct":true,"confidence":-1},{"trial_n":80,"span":9,"encoder":"872220793","distractor":"872220743","target":"present","response":"absent","rt":"3111","correct":false,"confidence":-1},{"trial_n":81,"span":8,"encoder":"56981319","distractor":"56981309","target":"absent","response":"absent","rt":"2450","correct":true,"confidence":-1},{"trial_n":82,"span":8,"encoder":"64423101","distractor":"64423801","target":"absent","response":"present","rt":"512","correct":false,"confidence":-1},{"trial_n":83,"span":7,"encoder":"6741848","distractor":"6741888","target":"present","response":"absent","rt":"689","correct":false,"confidence":-1},{"trial_n":84,"span":6,"encoder":"875009","distractor":"875029","target":"absent","response":"absent","rt":"1882","correct":true,"confidence":-1},{"trial_n":85,"span":6,"encoder":"637581","distractor":"737581","target":"present","response":"present","rt":"1759.9999999999","correct":true,"confidence":-1},{"trial_n":86,"span":7,"encoder":"1585812","distractor":"1585012","target":"absent","response":"absent","rt":"2172","correct":true,"confidence":-1},{"trial_n":87,"span":7,"encoder":"4829744","distractor":"4829746","target":"absent","response":"absent","rt":"5969","correct":true,"confidence":-1},{"trial_n":88,"span":8,"encoder":"10926529","distractor":"10926526","target":"present","response":"present","rt":"5879","correct":true,"confidence":-1},{"trial_n":89,"span":8,"encoder":"21753389","distractor":"29753389","target":"absent","response":"absent","rt":"392","correct":true,"confidence":-1},{"trial_n":90,"span":9,"encoder":"131469785","distractor":"131409785","target":"absent","response":"present","rt":"467","correct":false,"confidence":-1},{"trial_n":91,"span":8,"encoder":"93589748","distractor":"93589749","target":"present","response":"absent","rt":"2230","correct":false,"confidence":2},{"trial_n":92,"span":7,"encoder":"0444226","distractor":"0448226","target":"absent","response":"absent","rt":"4157.9999999999","correct":true,"confidence":4},{"trial_n":93,"span":7,"encoder":"9321621","distractor":"9321921","target":"present","response":"present","rt":"4698","correct":true,"confidence":3},{"trial_n":94,"span":8,"encoder":"03458043","distractor":"03458033","target":"absent","response":"absent","rt":"3227","correct":true,"confidence":5},{"trial_n":95,"span":8,"encoder":"87460292","distractor":"87460232","target":"present","response":"present","rt":"6433","correct":true,"confidence":5},{"trial_n":96,"span":9,"encoder":"796152075","distractor":"796132075","target":"absent","response":"absent","rt":"5946","correct":true,"confidence":3},{"trial_n":97,"span":9,"encoder":"867971896","distractor":"867971496","target":"present","response":"present","rt":"2347","correct":true,"confidence":5},{"trial_n":98,"span":10,"encoder":"5421254696","distractor":"5921254696","target":"present","response":"present","rt":"3343.9999999999","correct":true,"confidence":4},{"trial_n":99,"span":10,"encoder":"2870362333","distractor":"2870362337","target":"absent","response":"absent","rt":"3235.9999999999","correct":true,"confidence":3},{"trial_n":100,"span":11,"encoder":"30779429049","distractor":"30789429049","target":"present","response":"present","rt":"10243","correct":true,"confidence":3},{"trial_n":101,"span":11,"encoder":"70269636696","distractor":"70269636690","target":"absent","response":"absent","rt":"9005","correct":true,"confidence":4},{"trial_n":102,"span":12,"encoder":"551205752634","distractor":"551105752634","target":"present","response":"present","rt":"2768.9999999998","correct":true,"confidence":4},{"trial_n":103,"span":12,"encoder":"893970876443","distractor":"893970896443","target":"present","response":"present","rt":"5361.0000000002","correct":true,"confidence":2},{"trial_n":104,"span":13,"encoder":"7418344399239","distractor":"7418344392239","target":"absent","response":"absent","rt":"3506","correct":true,"confidence":1},{"trial_n":105,"span":13,"encoder":"9856736234404","distractor":"9856736234408","target":"present","response":"present","rt":"3063","correct":true,"confidence":5},{"trial_n":106,"span":14,"encoder":"06955275059839","distractor":"06954275059839","target":"absent","response":"present","rt":"3635","correct":false,"confidence":1},{"trial_n":107,"span":13,"encoder":"8890356524393","distractor":"8890356522393","target":"present","response":"present","rt":"3276","correct":true,"confidence":3},{"trial_n":108,"span":13,"encoder":"5718454008467","distractor":"5798454008467","target":"absent","response":"absent","rt":"6956.0000000002","correct":true,"confidence":2},{"trial_n":109,"span":14,"encoder":"17846071576673","distractor":"17846071576643","target":"present","response":"present","rt":"2684","correct":true,"confidence":4},{"trial_n":110,"span":14,"encoder":"20634755570738","distractor":"20834755570738","target":"absent","response":"absent","rt":"6941","correct":true,"confidence":3},{"trial_n":111,"span":15,"encoder":"650699345696729","distractor":"650699346696729","target":"present","response":"present","rt":"7529","correct":true,"confidence":2},{"trial_n":112,"span":15,"encoder":"088565160331080","distractor":"088585160331080","target":"present","response":"present","rt":"5811","correct":true,"confidence":1},{"trial_n":113,"span":16,"encoder":"3051697688646194","distractor":"3051647688646194","target":"present","response":"present","rt":"1053.9999999998","correct":true,"confidence":1},{"trial_n":114,"span":16,"encoder":"4110366717767952","distractor":"1110366717767952","target":"absent","response":"present","rt":"5224.0000000002","correct":false,"confidence":1},{"trial_n":115,"span":15,"encoder":"955194443692092","distractor":"951194443692092","target":"present","response":"absent","rt":"10076","correct":false,"confidence":2},{"trial_n":116,"span":14,"encoder":"12121277212845","distractor":"22121277212845","target":"absent","response":"absent","rt":"2710.0000000002","correct":true,"confidence":5},{"trial_n":117,"span":14,"encoder":"63438439889063","distractor":"63638439889063","target":"present","response":"present","rt":"9575.9999999998","correct":true,"confidence":3},{"trial_n":118,"span":15,"encoder":"639429800816932","distractor":"639429800816432","target":"present","response":"absent","rt":"6864","correct":false,"confidence":2},{"trial_n":119,"span":14,"encoder":"70955915749348","distractor":"00955915749348","target":"absent","response":"present","rt":"2127.0000000002","correct":false,"confidence":1},{"trial_n":120,"span":13,"encoder":"9749194445689","distractor":"9749124445689","target":"absent","response":"absent","rt":"6331","correct":true,"confidence":2},{"trial_n":121,"span":13,"encoder":"8150052802341","distractor":"9150052802341","target":"present","response":"present","rt":"2349","correct":true,"confidence":1},{"trial_n":122,"span":14,"encoder":"93236689476946","distractor":"93236689476746","target":"present","response":"present","rt":"2462","correct":true,"confidence":3},{"trial_n":123,"span":14,"encoder":"60734537191636","distractor":"60034537191636","target":"present","response":"absent","rt":"8383","correct":false,"confidence":2},{"trial_n":124,"span":13,"encoder":"8073381844533","distractor":"8073311844533","target":"present","response":"absent","rt":"11127","correct":false,"confidence":2},{"trial_n":125,"span":12,"encoder":"625516853357","distractor":"625016853357","target":"absent","response":"present","rt":"7419","correct":false,"confidence":1},{"trial_n":126,"span":11,"encoder":"14782030875","distractor":"14782030805","target":"present","response":"present","rt":"4795","correct":true,"confidence":4},{"trial_n":127,"span":11,"encoder":"91736422535","distractor":"91736422035","target":"present","response":"present","rt":"3620","correct":true,"confidence":3},{"trial_n":128,"span":12,"encoder":"628026407707","distractor":"628026405707","target":"present","response":"present","rt":"5719.0000000002","correct":true,"confidence":2},{"trial_n":129,"span":12,"encoder":"070000190614","distractor":"070000190611","target":"present","response":"present","rt":"2794.9999999998","correct":true,"confidence":4},{"trial_n":130,"span":13,"encoder":"4170634879342","distractor":"4170634879372","target":"absent","response":"absent","rt":"1686","correct":true,"confidence":5},{"trial_n":131,"span":13,"encoder":"0730756305396","distractor":"2730756305396","target":"absent","response":"absent","rt":"6762","correct":true,"confidence":2},{"trial_n":132,"span":14,"encoder":"25697898076653","distractor":"25097898076653","target":"present","response":"absent","rt":"8362.0000000002","correct":false,"confidence":1},{"trial_n":133,"span":13,"encoder":"0786447044877","distractor":"3786447044877","target":"absent","response":"present","rt":"7825","correct":false,"confidence":3},{"trial_n":134,"span":12,"encoder":"794231902663","distractor":"794231702663","target":"absent","response":"absent","rt":"4654","correct":true,"confidence":3},{"trial_n":135,"span":12,"encoder":"588871257431","distractor":"588871277431","target":"absent","response":"absent","rt":"11198","correct":true,"confidence":1},{"trial_n":136,"span":13,"encoder":"0840241669526","distractor":"0847241669526","target":"present","response":"present","rt":"2606","correct":true,"confidence":4},{"trial_n":137,"span":13,"encoder":"3566674761361","distractor":"6566674761361","target":"absent","response":"absent","rt":"7793.9999999998","correct":true,"confidence":2},{"trial_n":138,"span":14,"encoder":"84579106607118","distractor":"24579106607118","target":"present","response":"present","rt":"5540","correct":true,"confidence":3},{"trial_n":139,"span":14,"encoder":"45683560110875","distractor":"45623560110875","target":"absent","response":"present","rt":"6755","correct":false,"confidence":1},{"trial_n":140,"span":13,"encoder":"7041227885638","distractor":"7081227885638","target":"absent","response":"absent","rt":"2513","correct":true,"confidence":5}]