[{"trial_n":1,"n_dots":4.25,"target":"left","response":"left","rt":2213,"correct":true,"confidence":-1},{"trial_n":2,"n_dots":4.25,"target":"left","response":"right","rt":862,"correct":false,"confidence":-1},{"trial_n":3,"n_dots":4.65,"target":"right","response":"right","rt":622,"correct":true,"confidence":-1},{"trial_n":4,"n_dots":4.65,"target":"left","response":"left","rt":710,"correct":true,"confidence":-1},{"trial_n":5,"n_dots":4.25,"target":"left","response":"left","rt":623,"correct":true,"confidence":-1},{"trial_n":6,"n_dots":4.25,"target":"right","response":"left","rt":606,"correct":false,"confidence":-1},{"trial_n":7,"n_dots":4.65,"target":"left","response":"left","rt":612.00000000001,"correct":true,"confidence":-1},{"trial_n":8,"n_dots":4.65,"target":"right","response":"right","rt":580,"correct":true,"confidence":-1},{"trial_n":9,"n_dots":4.45,"target":"left","response":"left","rt":655.99999999999,"correct":true,"confidence":-1},{"trial_n":10,"n_dots":4.45,"target":"left","response":"left","rt":761,"correct":true,"confidence":-1},{"trial_n":11,"n_dots":4.25,"target":"right","response":"right","rt":643,"correct":true,"confidence":-1},{"trial_n":12,"n_dots":4.25,"target":"left","response":"left","rt":657,"correct":true,"confidence":-1},{"trial_n":13,"n_dots":4.15,"target":"left","response":"right","rt":612,"correct":false,"confidence":-1},{"trial_n":14,"n_dots":4.25,"target":"left","response":"left","rt":714,"correct":true,"confidence":-1},{"trial_n":15,"n_dots":4.25,"target":"left","response":"left","rt":600.99999999999,"correct":true,"confidence":-1},{"trial_n":16,"n_dots":4.15,"target":"left","response":"right","rt":614,"correct":false,"confidence":-1},{"trial_n":17,"n_dots":4.25,"target":"right","response":"right","rt":672,"correct":true,"confidence":-1},{"trial_n":18,"n_dots":4.25,"target":"right","response":"right","rt":623,"correct":true,"confidence":-1},{"trial_n":19,"n_dots":4.15,"target":"left","response":"left","rt":736.00000000001,"correct":true,"confidence":-1},{"trial_n":20,"n_dots":4.15,"target":"left","response":"left","rt":614,"correct":true,"confidence":-1},{"trial_n":21,"n_dots":4.05,"target":"left","response":"left","rt":604,"correct":true,"confidence":3},{"trial_n":22,"n_dots":4.05,"target":"right","response":"right","rt":592,"correct":true,"confidence":3},{"trial_n":23,"n_dots":3.95,"target":"right","response":"left","rt":1461,"correct":false,"confidence":2},{"trial_n":24,"n_dots":4.05,"target":"right","response":"right","rt":723,"correct":true,"confidence":3},{"trial_n":25,"n_dots":4.05,"target":"right","response":"right","rt":877,"correct":true,"confidence":4},{"trial_n":26,"n_dots":3.95,"target":"right","response":"right","rt":673.99999999999,"correct":true,"confidence":4},{"trial_n":27,"n_dots":3.95,"target":"right","response":"left","rt":942.00000000001,"correct":false,"confidence":2},{"trial_n":28,"n_dots":4.05,"target":"right","response":"right","rt":798,"correct":true,"confidence":4},{"trial_n":29,"n_dots":4.05,"target":"right","response":"right","rt":554.00000000001,"correct":true,"confidence":4},{"trial_n":30,"n_dots":3.95,"target":"left","response":"left","rt":618,"correct":true,"confidence":3},{"trial_n":31,"n_dots":3.95,"target":"right","response":"right","rt":676.99999999999,"correct":true,"confidence":4},{"trial_n":32,"n_dots":3.85,"target":"left","response":"left","rt":822,"correct":true,"confidence":3},{"trial_n":33,"n_dots":3.85,"target":"right","response":"right","rt":646,"correct":true,"confidence":4},{"trial_n":34,"n_dots":3.75,"target":"right","response":"left","rt":953,"correct":false,"confidence":3},{"trial_n":35,"n_dots":3.85,"target":"right","response":"right","rt":1276,"correct":true,"confidence":4},{"trial_n":36,"n_dots":3.85,"target":"right","response":"right","rt":677,"correct":true,"confidence":4},{"trial_n":37,"n_dots":3.75,"target":"right","response":"right","rt":945.00000000003,"correct":true,"confidence":4},{"trial_n":38,"n_dots":3.75,"target":"left","response":"left","rt":759.00000000003,"correct":true,"confidence":3},{"trial_n":39,"n_dots":3.65,"target":"right","response":"right","rt":661,"correct":true,"confidence":3},{"trial_n":40,"n_dots":3.65,"target":"right","response":"right","rt":613,"correct":true,"confidence":4},{"trial_n":41,"n_dots":3.55,"target":"right","response":"right","rt":1023,"correct":true,"confidence":4},{"trial_n":42,"n_dots":3.55,"target":"right","response":"right","rt":679,"correct":true,"confidence":3},{"trial_n":43,"n_dots":3.45,"target":"right","response":"left","rt":787,"correct":false,"confidence":3},{"trial_n":44,"n_dots":3.55,"target":"left","response":"left","rt":866,"correct":true,"confidence":4},{"trial_n":45,"n_dots":3.55,"target":"right","response":"left","rt":607,"correct":false,"confidence":3},{"trial_n":46,"n_dots":3.65,"target":"left","response":"left","rt":704,"correct":true,"confidence":4},{"trial_n":47,"n_dots":3.65,"target":"left","response":"left","rt":803,"correct":true,"confidence":3},{"trial_n":48,"n_dots":3.55,"target":"right","response":"right","rt":906,"correct":true,"confidence":4},{"trial_n":49,"n_dots":3.55,"target":"left","response":"left","rt":647.99999999997,"correct":true,"confidence":4},{"trial_n":50,"n_dots":3.45,"target":"right","response":"left","rt":884,"correct":false,"confidence":3},{"trial_n":51,"n_dots":3.55,"target":"right","response":"right","rt":664,"correct":true,"confidence":4},{"trial_n":52,"n_dots":3.55,"target":"left","response":"left","rt":621.00000000003,"correct":true,"confidence":4},{"trial_n":53,"n_dots":3.45,"target":"left","response":"left","rt":2813,"correct":true,"confidence":4},{"trial_n":54,"n_dots":3.45,"target":"left","response":"left","rt":698.99999999997,"correct":true,"confidence":4},{"trial_n":55,"n_dots":3.35,"target":"left","response":"left","rt":933,"correct":true,"confidence":4},{"trial_n":56,"n_dots":3.35,"target":"right","response":"left","rt":1102,"correct":false,"confidence":4},{"trial_n":57,"n_dots":3.45,"target":"left","response":"left","rt":797,"correct":true,"confidence":4},{"trial_n":58,"n_dots":3.45,"target":"left","response":"left","rt":723,"correct":true,"confidence":3},{"trial_n":59,"n_dots":3.35,"target":"left","response":"left","rt":771.99999999994,"correct":true,"confidence":5},{"trial_n":60,"n_dots":3.35,"target":"right","response":"right","rt":651.00000000006,"correct":true,"confidence":4},{"trial_n":61,"n_dots":3.25,"target":"right","response":"right","rt":706,"correct":true,"confidence":4},{"trial_n":62,"n_dots":3.25,"target":"left","response":"left","rt":839,"correct":true,"confidence":4},{"trial_n":63,"n_dots":3.15,"target":"left","response":"left","rt":1007,"correct":true,"confidence":4},{"trial_n":64,"n_dots":3.15,"target":"left","response":"left","rt":725,"correct":true,"confidence":4},{"trial_n":65,"n_dots":3.05,"target":"left","response":"left","rt":782,"correct":true,"confidence":4},{"trial_n":66,"n_dots":3.05,"target":"right","response":"right","rt":612,"correct":true,"confidence":3},{"trial_n":67,"n_dots":2.95,"target":"left","response":"left","rt":877.99999999994,"correct":true,"confidence":4},{"trial_n":68,"n_dots":2.95,"target":"right","response":"right","rt":726,"correct":true,"confidence":3},{"trial_n":69,"n_dots":2.85,"target":"left","response":"left","rt":693,"correct":true,"confidence":3},{"trial_n":70,"n_dots":2.85,"target":"right","response":"left","rt":978.00000000006,"correct":false,"confidence":3},{"trial_n":71,"n_dots":2.95,"target":"left","response":"left","rt":767,"correct":true,"confidence":4},{"trial_n":72,"n_dots":2.95,"target":"right","response":"right","rt":1262,"correct":true,"confidence":3},{"trial_n":73,"n_dots":2.85,"target":"left","response":"left","rt":647,"correct":true,"confidence":4},{"trial_n":74,"n_dots":2.85,"target":"left","response":"right","rt":717,"correct":false,"confidence":4},{"trial_n":75,"n_dots":2.95,"target":"left","response":"right","rt":614,"correct":false,"confidence":3},{"trial_n":76,"n_dots":3.05,"target":"left","response":"left","rt":768,"correct":true,"confidence":4},{"trial_n":77,"n_dots":3.05,"target":"right","response":"right","rt":663,"correct":true,"confidence":4},{"trial_n":78,"n_dots":2.95,"target":"right","response":"right","rt":1044,"correct":true,"confidence":4},{"trial_n":79,"n_dots":2.95,"target":"right","response":"right","rt":1010,"correct":true,"confidence":4},{"trial_n":80,"n_dots":2.85,"target":"left","response":"left","rt":778,"correct":true,"confidence":2},{"trial_n":81,"n_dots":2.85,"target":"left","response":"right","rt":775.99999999994,"correct":false,"confidence":4},{"trial_n":82,"n_dots":2.95,"target":"left","response":"right","rt":950.00000000006,"correct":false,"confidence":4},{"trial_n":83,"n_dots":3.05,"target":"right","response":"right","rt":796,"correct":true,"confidence":3},{"trial_n":84,"n_dots":3.05,"target":"right","response":"right","rt":822,"correct":true,"confidence":3},{"trial_n":85,"n_dots":2.95,"target":"right","response":"right","rt":749,"correct":true,"confidence":4},{"trial_n":86,"n_dots":2.95,"target":"left","response":"left","rt":710,"correct":true,"confidence":4},{"trial_n":87,"n_dots":2.85,"target":"right","response":"right","rt":1079.9999999999,"correct":true,"confidence":4},{"trial_n":88,"n_dots":2.85,"target":"right","response":"left","rt":766,"correct":false,"confidence":3},{"trial_n":89,"n_dots":2.95,"target":"right","response":"left","rt":1784,"correct":false,"confidence":3},{"trial_n":90,"n_dots":3.05,"target":"right","response":"right","rt":669.99999999994,"correct":true,"confidence":4},{"trial_n":91,"n_dots":3.05,"target":"right","response":"left","rt":1956,"correct":false,"confidence":4},{"trial_n":92,"n_dots":3.15,"target":"left","response":"left","rt":718,"correct":true,"confidence":4},{"trial_n":93,"n_dots":3.15,"target":"left","response":"left","rt":750,"correct":true,"confidence":4},{"trial_n":94,"n_dots":3.05,"target":"left","response":"left","rt":805.00000000012,"correct":true,"confidence":4},{"trial_n":95,"n_dots":3.05,"target":"right","response":"right","rt":1767.0000000001,"correct":true,"confidence":4},{"trial_n":96,"n_dots":2.95,"target":"right","response":"right","rt":1187,"correct":true,"confidence":2},{"trial_n":97,"n_dots":2.95,"target":"left","response":"right","rt":888,"correct":false,"confidence":3},{"trial_n":98,"n_dots":3.05,"target":"right","response":"right","rt":798.99999999988,"correct":true,"confidence":3},{"trial_n":99,"n_dots":3.05,"target":"left","response":"right","rt":776,"correct":false,"confidence":3},{"trial_n":100,"n_dots":3.15,"target":"right","response":"right","rt":763,"correct":true,"confidence":3},{"trial_n":101,"n_dots":3.15,"target":"right","response":"right","rt":752,"correct":true,"confidence":3},{"trial_n":102,"n_dots":3.05,"target":"right","response":"left","rt":753.99999999988,"correct":false,"confidence":4},{"trial_n":103,"n_dots":3.15,"target":"right","response":"right","rt":394,"correct":true,"confidence":4},{"trial_n":104,"n_dots":3.15,"target":"right","response":"right","rt":572,"correct":true,"confidence":4},{"trial_n":105,"n_dots":3.05,"target":"left","response":"left","rt":750,"correct":true,"confidence":4},{"trial_n":106,"n_dots":3.05,"target":"left","response":"left","rt":920,"correct":true,"confidence":4},{"trial_n":107,"n_dots":2.95,"target":"left","response":"right","rt":1173,"correct":false,"confidence":4},{"trial_n":108,"n_dots":3.05,"target":"left","response":"left","rt":944,"correct":true,"confidence":4},{"trial_n":109,"n_dots":3.05,"target":"left","response":"left","rt":780,"correct":true,"confidence":3},{"trial_n":110,"n_dots":2.95,"target":"left","response":"right","rt":921,"correct":false,"confidence":4},{"trial_n":111,"n_dots":3.05,"target":"right","response":"right","rt":477,"correct":true,"confidence":4},{"trial_n":112,"n_dots":3.05,"target":"left","response":"right","rt":1405.0000000001,"correct":false,"confidence":4},{"trial_n":113,"n_dots":3.15,"target":"left","response":"left","rt":1253.0000000001,"correct":true,"confidence":4},{"trial_n":114,"n_dots":3.15,"target":"left","response":"left","rt":711,"correct":true,"confidence":4},{"trial_n":115,"n_dots":3.05,"target":"right","response":"right","rt":1163.9999999999,"correct":true,"confidence":4},{"trial_n":116,"n_dots":3.05,"target":"left","response":"left","rt":760.99999999988,"correct":true,"confidence":4},{"trial_n":117,"n_dots":2.95,"target":"right","response":"right","rt":824,"correct":true,"confidence":4},{"trial_n":118,"n_dots":2.95,"target":"right","response":"right","rt":841,"correct":true,"confidence":4},{"trial_n":119,"n_dots":2.85,"target":"right","response":"left","rt":762,"correct":false,"confidence":4},{"trial_n":120,"n_dots":2.95,"target":"left","response":"left","rt":923.00000000012,"correct":true,"confidence":4}]