[{"trial_n":1,"min":25,"max":230,"target":"present","response":"present","rt":13211.200000018,"correct":true,"confidence":-1},{"trial_n":2,"min":25,"max":230,"target":"present","response":"present","rt":1338.1999999881,"correct":true,"confidence":-1},{"trial_n":3,"min":41,"max":214,"target":"absent","response":"absent","rt":696.69999998808,"correct":true,"confidence":-1},{"trial_n":4,"min":41,"max":214,"target":"absent","response":"absent","rt":513.30000001192,"correct":true,"confidence":-1},{"trial_n":5,"min":57,"max":198,"target":"present","response":"present","rt":362,"correct":true,"confidence":-1},{"trial_n":6,"min":57,"max":198,"target":"absent","response":"present","rt":385.19999998808,"correct":false,"confidence":-1},{"trial_n":7,"min":41,"max":214,"target":"present","response":"absent","rt":421.09999999404,"correct":false,"confidence":-1},{"trial_n":8,"min":25,"max":230,"target":"absent","response":"absent","rt":575.09999999404,"correct":true,"confidence":-1},{"trial_n":9,"min":25,"max":230,"target":"present","response":"present","rt":330.29999998212,"correct":true,"confidence":-1},{"trial_n":10,"min":41,"max":214,"target":"absent","response":"absent","rt":442.80000001192,"correct":true,"confidence":-1},{"trial_n":11,"min":41,"max":214,"target":"present","response":"present","rt":259.30000001192,"correct":true,"confidence":-1},{"trial_n":12,"min":49,"max":206,"target":"absent","response":"absent","rt":106.39999997616,"correct":true,"confidence":-1},{"trial_n":13,"min":49,"max":206,"target":"present","response":"present","rt":198.5,"correct":true,"confidence":-1},{"trial_n":14,"min":57,"max":198,"target":"absent","response":"absent","rt":244.09999999404,"correct":true,"confidence":-1},{"trial_n":15,"min":57,"max":198,"target":"present","response":"present","rt":251.39999997616,"correct":true,"confidence":-1},{"trial_n":16,"min":65,"max":190,"target":"absent","response":"absent","rt":330.09999999404,"correct":true,"confidence":-1},{"trial_n":17,"min":65,"max":190,"target":"present","response":"present","rt":304,"correct":true,"confidence":-1},{"trial_n":18,"min":73,"max":182,"target":"present","response":"absent","rt":71.299999982119,"correct":false,"confidence":-1},{"trial_n":19,"min":65,"max":190,"target":"present","response":"present","rt":416,"correct":true,"confidence":-1},{"trial_n":20,"min":65,"max":190,"target":"present","response":"present","rt":266.69999998808,"correct":true,"confidence":-1},{"trial_n":21,"min":69,"max":186,"target":"absent","response":"absent","rt":506.59999999404,"correct":true,"confidence":5},{"trial_n":22,"min":69,"max":186,"target":"absent","response":"absent","rt":513.39999997616,"correct":true,"confidence":5},{"trial_n":23,"min":73,"max":182,"target":"present","response":"present","rt":629,"correct":true,"confidence":5},{"trial_n":24,"min":73,"max":182,"target":"present","response":"present","rt":412.40000000596,"correct":true,"confidence":5},{"trial_n":25,"min":77,"max":178,"target":"absent","response":"absent","rt":349.39999997616,"correct":true,"confidence":5},{"trial_n":26,"min":77,"max":178,"target":"present","response":"present","rt":476,"correct":true,"confidence":5},{"trial_n":27,"min":81,"max":174,"target":"absent","response":"absent","rt":287.90000000596,"correct":true,"confidence":5},{"trial_n":28,"min":81,"max":174,"target":"absent","response":"absent","rt":415,"correct":true,"confidence":5},{"trial_n":29,"min":85,"max":170,"target":"absent","response":"absent","rt":534.79999998212,"correct":true,"confidence":5},{"trial_n":30,"min":85,"max":170,"target":"present","response":"present","rt":513.29999998212,"correct":true,"confidence":4},{"trial_n":31,"min":87,"max":168,"target":"absent","response":"absent","rt":544.39999997616,"correct":true,"confidence":5},{"trial_n":32,"min":87,"max":168,"target":"absent","response":"absent","rt":516.5,"correct":true,"confidence":5},{"trial_n":33,"min":89,"max":166,"target":"present","response":"absent","rt":477.90000000596,"correct":false,"confidence":5},{"trial_n":34,"min":87,"max":168,"target":"absent","response":"absent","rt":316.19999998808,"correct":true,"confidence":5},{"trial_n":35,"min":87,"max":168,"target":"absent","response":"absent","rt":176.80000001192,"correct":true,"confidence":5},{"trial_n":36,"min":89,"max":166,"target":"present","response":"absent","rt":310.09999999404,"correct":false,"confidence":5},{"trial_n":37,"min":87,"max":168,"target":"absent","response":"absent","rt":576,"correct":true,"confidence":5},{"trial_n":38,"min":87,"max":168,"target":"present","response":"present","rt":489.40000000596,"correct":true,"confidence":4},{"trial_n":39,"min":89,"max":166,"target":"absent","response":"absent","rt":449.59999999404,"correct":true,"confidence":5},{"trial_n":40,"min":89,"max":166,"target":"present","response":"absent","rt":1949.900000006,"correct":false,"confidence":3},{"trial_n":41,"min":88,"max":167,"target":"present","response":"absent","rt":587.5,"correct":false,"confidence":5},{"trial_n":42,"min":87,"max":168,"target":"present","response":"absent","rt":322.69999998808,"correct":false,"confidence":5},{"trial_n":43,"min":86,"max":169,"target":"absent","response":"absent","rt":382.29999998212,"correct":true,"confidence":5},{"trial_n":44,"min":86,"max":169,"target":"present","response":"present","rt":1125.6000000238,"correct":true,"confidence":3},{"trial_n":45,"min":87,"max":168,"target":"present","response":"absent","rt":395.69999998808,"correct":false,"confidence":5},{"trial_n":46,"min":86,"max":169,"target":"absent","response":"absent","rt":415.19999998808,"correct":true,"confidence":5},{"trial_n":47,"min":86,"max":169,"target":"present","response":"present","rt":882.69999998808,"correct":true,"confidence":3},{"trial_n":48,"min":87,"max":168,"target":"absent","response":"absent","rt":467.79999998212,"correct":true,"confidence":5},{"trial_n":49,"min":87,"max":168,"target":"present","response":"present","rt":527,"correct":true,"confidence":4},{"trial_n":50,"min":88,"max":167,"target":"absent","response":"absent","rt":459.69999998808,"correct":true,"confidence":5},{"trial_n":51,"min":88,"max":167,"target":"absent","response":"absent","rt":581.20000001788,"correct":true,"confidence":5},{"trial_n":52,"min":89,"max":166,"target":"present","response":"present","rt":5160.6000000238,"correct":true,"confidence":4},{"trial_n":53,"min":89,"max":166,"target":"absent","response":"absent","rt":420,"correct":true,"confidence":5},{"trial_n":54,"min":90,"max":165,"target":"absent","response":"absent","rt":379.39999997616,"correct":true,"confidence":5},{"trial_n":55,"min":90,"max":165,"target":"present","response":"absent","rt":766.40000000596,"correct":false,"confidence":5},{"trial_n":56,"min":89,"max":166,"target":"absent","response":"absent","rt":427.5,"correct":true,"confidence":5},{"trial_n":57,"min":89,"max":166,"target":"absent","response":"absent","rt":500,"correct":true,"confidence":5},{"trial_n":58,"min":90,"max":165,"target":"present","response":"absent","rt":1196.2999999821,"correct":false,"confidence":5},{"trial_n":59,"min":89,"max":166,"target":"absent","response":"absent","rt":1991.5,"correct":true,"confidence":4},{"trial_n":60,"min":89,"max":166,"target":"present","response":"absent","rt":1414.2999999821,"correct":false,"confidence":4},{"trial_n":61,"min":88,"max":167,"target":"present","response":"absent","rt":2027.400000006,"correct":false,"confidence":4},{"trial_n":62,"min":87,"max":168,"target":"present","response":"present","rt":477,"correct":true,"confidence":4},{"trial_n":63,"min":87,"max":168,"target":"absent","response":"present","rt":493.69999998808,"correct":false,"confidence":4},{"trial_n":64,"min":86,"max":169,"target":"absent","response":"absent","rt":1438,"correct":true,"confidence":3},{"trial_n":65,"min":86,"max":169,"target":"present","response":"present","rt":568,"correct":true,"confidence":5},{"trial_n":66,"min":87,"max":168,"target":"absent","response":"absent","rt":2324.3000000119,"correct":true,"confidence":2},{"trial_n":67,"min":87,"max":168,"target":"present","response":"absent","rt":1164,"correct":false,"confidence":4},{"trial_n":68,"min":86,"max":169,"target":"present","response":"absent","rt":1397.1999999881,"correct":false,"confidence":3},{"trial_n":69,"min":85,"max":170,"target":"absent","response":"absent","rt":1271.3999999762,"correct":true,"confidence":2},{"trial_n":70,"min":85,"max":170,"target":"present","response":"absent","rt":2079.6999999881,"correct":false,"confidence":3},{"trial_n":71,"min":41,"max":214,"target":"present","response":"present","rt":3566.2999999821,"correct":true,"confidence":-1},{"trial_n":72,"min":41,"max":214,"target":"present","response":"present","rt":2350.599999994,"correct":true,"confidence":-1},{"trial_n":73,"min":57,"max":198,"target":"absent","response":"present","rt":507.40000000596,"correct":false,"confidence":-1},{"trial_n":74,"min":41,"max":214,"target":"absent","response":"absent","rt":553.39999997616,"correct":true,"confidence":-1},{"trial_n":75,"min":41,"max":214,"target":"present","response":"present","rt":235.69999998808,"correct":true,"confidence":-1},{"trial_n":76,"min":57,"max":198,"target":"present","response":"present","rt":1048.1999999881,"correct":true,"confidence":-1},{"trial_n":77,"min":57,"max":198,"target":"absent","response":"present","rt":436.39999997616,"correct":false,"confidence":-1},{"trial_n":78,"min":41,"max":214,"target":"present","response":"present","rt":512.90000000596,"correct":true,"confidence":-1},{"trial_n":79,"min":41,"max":214,"target":"absent","response":"absent","rt":480.29999998212,"correct":true,"confidence":-1},{"trial_n":80,"min":57,"max":198,"target":"absent","response":"absent","rt":553.90000000596,"correct":true,"confidence":-1},{"trial_n":81,"min":57,"max":198,"target":"present","response":"present","rt":362.79999998212,"correct":true,"confidence":-1},{"trial_n":82,"min":65,"max":190,"target":"present","response":"present","rt":314.5,"correct":true,"confidence":-1},{"trial_n":83,"min":65,"max":190,"target":"absent","response":"absent","rt":339.90000000596,"correct":true,"confidence":-1},{"trial_n":84,"min":73,"max":182,"target":"absent","response":"absent","rt":485.19999998808,"correct":true,"confidence":-1},{"trial_n":85,"min":73,"max":182,"target":"absent","response":"absent","rt":494.39999997616,"correct":true,"confidence":-1},{"trial_n":86,"min":81,"max":174,"target":"absent","response":"absent","rt":380.80000001192,"correct":true,"confidence":-1},{"trial_n":87,"min":81,"max":174,"target":"present","response":"present","rt":356.40000000596,"correct":true,"confidence":-1},{"trial_n":88,"min":89,"max":166,"target":"present","response":"present","rt":553.40000000596,"correct":true,"confidence":-1},{"trial_n":89,"min":89,"max":166,"target":"absent","response":"present","rt":1144.5,"correct":false,"confidence":-1},{"trial_n":90,"min":81,"max":174,"target":"absent","response":"absent","rt":641.09999999404,"correct":true,"confidence":-1},{"trial_n":91,"min":81,"max":174,"target":"present","response":"present","rt":453.5,"correct":true,"confidence":5},{"trial_n":92,"min":85,"max":170,"target":"present","response":"present","rt":926.59999999404,"correct":true,"confidence":3},{"trial_n":93,"min":85,"max":170,"target":"present","response":"present","rt":342.59999999404,"correct":true,"confidence":5},{"trial_n":94,"min":89,"max":166,"target":"absent","response":"absent","rt":2696.599999994,"correct":true,"confidence":1},{"trial_n":95,"min":89,"max":166,"target":"present","response":"present","rt":822.40000000596,"correct":true,"confidence":1},{"trial_n":96,"min":93,"max":162,"target":"absent","response":"present","rt":1513.6999999881,"correct":false,"confidence":2},{"trial_n":97,"min":89,"max":166,"target":"absent","response":"present","rt":1035,"correct":false,"confidence":2},{"trial_n":98,"min":85,"max":170,"target":"present","response":"present","rt":510.59999999404,"correct":true,"confidence":5},{"trial_n":99,"min":85,"max":170,"target":"present","response":"present","rt":452,"correct":true,"confidence":5},{"trial_n":100,"min":89,"max":166,"target":"absent","response":"absent","rt":654,"correct":true,"confidence":3},{"trial_n":101,"min":89,"max":166,"target":"absent","response":"absent","rt":538.90000000596,"correct":true,"confidence":5},{"trial_n":102,"min":91,"max":164,"target":"present","response":"present","rt":647.5,"correct":true,"confidence":5},{"trial_n":103,"min":91,"max":164,"target":"absent","response":"absent","rt":981.90000000596,"correct":true,"confidence":1},{"trial_n":104,"min":93,"max":162,"target":"absent","response":"absent","rt":988.79999998212,"correct":true,"confidence":1},{"trial_n":105,"min":93,"max":162,"target":"present","response":"present","rt":2175.5,"correct":true,"confidence":1},{"trial_n":106,"min":95,"max":160,"target":"absent","response":"present","rt":608.5,"correct":false,"confidence":2},{"trial_n":107,"min":93,"max":162,"target":"absent","response":"present","rt":1366.6999999881,"correct":false,"confidence":1},{"trial_n":108,"min":91,"max":164,"target":"absent","response":"absent","rt":703.79999998212,"correct":true,"confidence":2},{"trial_n":109,"min":91,"max":164,"target":"absent","response":"present","rt":1310.1999999881,"correct":false,"confidence":1},{"trial_n":110,"min":89,"max":166,"target":"absent","response":"absent","rt":755.19999998808,"correct":true,"confidence":2},{"trial_n":111,"min":89,"max":166,"target":"absent","response":"absent","rt":621.69999998808,"correct":true,"confidence":2},{"trial_n":112,"min":90,"max":165,"target":"present","response":"present","rt":570,"correct":true,"confidence":4},{"trial_n":113,"min":90,"max":165,"target":"present","response":"absent","rt":1527.2000000179,"correct":false,"confidence":1},{"trial_n":114,"min":89,"max":166,"target":"absent","response":"absent","rt":614.20000001788,"correct":true,"confidence":3},{"trial_n":115,"min":89,"max":166,"target":"present","response":"present","rt":858.59999999404,"correct":true,"confidence":1},{"trial_n":116,"min":90,"max":165,"target":"present","response":"present","rt":2544.6999999881,"correct":true,"confidence":1},{"trial_n":117,"min":90,"max":165,"target":"absent","response":"absent","rt":523.09999999404,"correct":true,"confidence":1},{"trial_n":118,"min":91,"max":164,"target":"absent","response":"present","rt":766.59999999404,"correct":false,"confidence":1},{"trial_n":119,"min":90,"max":165,"target":"present","response":"present","rt":417.59999999404,"correct":true,"confidence":3},{"trial_n":120,"min":90,"max":165,"target":"present","response":"present","rt":408.59999999404,"correct":true,"confidence":3},{"trial_n":121,"min":91,"max":164,"target":"present","response":"present","rt":324.70000001788,"correct":true,"confidence":3},{"trial_n":122,"min":91,"max":164,"target":"absent","response":"absent","rt":1319.599999994,"correct":true,"confidence":1},{"trial_n":123,"min":92,"max":163,"target":"present","response":"present","rt":468.5,"correct":true,"confidence":3},{"trial_n":124,"min":92,"max":163,"target":"present","response":"present","rt":420.70000001788,"correct":true,"confidence":4},{"trial_n":125,"min":93,"max":162,"target":"present","response":"present","rt":643.80000001192,"correct":true,"confidence":2},{"trial_n":126,"min":93,"max":162,"target":"absent","response":"absent","rt":1129.5,"correct":true,"confidence":1},{"trial_n":127,"min":94,"max":161,"target":"present","response":"absent","rt":961.89999997616,"correct":false,"confidence":1},{"trial_n":128,"min":93,"max":162,"target":"absent","response":"present","rt":1154.5,"correct":false,"confidence":1},{"trial_n":129,"min":92,"max":163,"target":"present","response":"present","rt":1488.6999999881,"correct":true,"confidence":1},{"trial_n":130,"min":92,"max":163,"target":"present","response":"present","rt":1002.1999999881,"correct":true,"confidence":1},{"trial_n":131,"min":93,"max":162,"target":"absent","response":"present","rt":677.29999998212,"correct":false,"confidence":1},{"trial_n":132,"min":92,"max":163,"target":"present","response":"present","rt":719.19999998808,"correct":true,"confidence":2},{"trial_n":133,"min":92,"max":163,"target":"absent","response":"absent","rt":1304,"correct":true,"confidence":2},{"trial_n":134,"min":93,"max":162,"target":"absent","response":"present","rt":1794,"correct":false,"confidence":1},{"trial_n":135,"min":92,"max":163,"target":"present","response":"absent","rt":2284.1999999881,"correct":false,"confidence":1},{"trial_n":136,"min":91,"max":164,"target":"present","response":"present","rt":1376.1999999881,"correct":true,"confidence":1},{"trial_n":137,"min":91,"max":164,"target":"present","response":"present","rt":1618.900000006,"correct":true,"confidence":1},{"trial_n":138,"min":92,"max":163,"target":"present","response":"present","rt":1268.5,"correct":true,"confidence":2},{"trial_n":139,"min":92,"max":163,"target":"absent","response":"absent","rt":785.29999998212,"correct":true,"confidence":2},{"trial_n":140,"min":93,"max":162,"target":"present","response":"present","rt":760.5,"correct":true,"confidence":2}]