[{"trial_n":1,"n_dots":4.25,"target":"right","response":"left","rt":1960.2999999998,"correct":false,"confidence":-1},{"trial_n":2,"n_dots":4.25,"target":"right","response":"right","rt":376.20000000019,"correct":true,"confidence":-1},{"trial_n":3,"n_dots":4.25,"target":"left","response":"left","rt":6.5,"correct":true,"confidence":-1},{"trial_n":4,"n_dots":3.85,"target":"right","response":"right","rt":1268.5,"correct":true,"confidence":-1},{"trial_n":5,"n_dots":3.85,"target":"left","response":"left","rt":453,"correct":true,"confidence":-1},{"trial_n":6,"n_dots":3.45,"target":"right","response":"left","rt":555.89999999991,"correct":false,"confidence":-1},{"trial_n":7,"n_dots":3.85,"target":"left","response":"left","rt":486.39999999991,"correct":true,"confidence":-1},{"trial_n":8,"n_dots":3.85,"target":"right","response":"right","rt":685.70000000019,"correct":true,"confidence":-1},{"trial_n":9,"n_dots":3.65,"target":"left","response":"left","rt":445,"correct":true,"confidence":-1},{"trial_n":10,"n_dots":3.65,"target":"right","response":"right","rt":380.19999999972,"correct":true,"confidence":-1},{"trial_n":11,"n_dots":3.45,"target":"right","response":"right","rt":471.30000000028,"correct":true,"confidence":-1},{"trial_n":12,"n_dots":3.45,"target":"left","response":"left","rt":456.80000000028,"correct":true,"confidence":-1},{"trial_n":13,"n_dots":3.35,"target":"right","response":"left","rt":390.80000000028,"correct":false,"confidence":-1},{"trial_n":14,"n_dots":3.45,"target":"right","response":"left","rt":339.30000000028,"correct":false,"confidence":-1},{"trial_n":15,"n_dots":3.55,"target":"right","response":"left","rt":277.5,"correct":false,"confidence":-1},{"trial_n":16,"n_dots":3.65,"target":"right","response":"right","rt":471.5,"correct":true,"confidence":-1},{"trial_n":17,"n_dots":3.65,"target":"right","response":"left","rt":624,"correct":false,"confidence":-1},{"trial_n":18,"n_dots":3.75,"target":"right","response":"right","rt":343.5,"correct":true,"confidence":-1},{"trial_n":19,"n_dots":3.75,"target":"right","response":"right","rt":216.80000000028,"correct":true,"confidence":-1},{"trial_n":20,"n_dots":3.65,"target":"right","response":"right","rt":296.5,"correct":true,"confidence":-1},{"trial_n":21,"n_dots":3.65,"target":"right","response":"right","rt":413.60000000009,"correct":true,"confidence":3},{"trial_n":22,"n_dots":3.55,"target":"right","response":"right","rt":375.40000000037,"correct":true,"confidence":3},{"trial_n":23,"n_dots":3.55,"target":"left","response":"right","rt":397.10000000009,"correct":false,"confidence":4},{"trial_n":24,"n_dots":3.65,"target":"left","response":"left","rt":1106.2000000002,"correct":true,"confidence":5},{"trial_n":25,"n_dots":3.65,"target":"right","response":"right","rt":752.89999999991,"correct":true,"confidence":5},{"trial_n":26,"n_dots":3.55,"target":"left","response":"left","rt":729,"correct":true,"confidence":5},{"trial_n":27,"n_dots":3.55,"target":"right","response":"left","rt":853.29999999981,"correct":false,"confidence":4},{"trial_n":28,"n_dots":3.65,"target":"left","response":"left","rt":684.29999999981,"correct":true,"confidence":4},{"trial_n":29,"n_dots":3.65,"target":"left","response":"left","rt":853.89999999991,"correct":true,"confidence":5},{"trial_n":30,"n_dots":3.55,"target":"right","response":"left","rt":560.29999999981,"correct":false,"confidence":5},{"trial_n":31,"n_dots":3.65,"target":"left","response":"left","rt":733,"correct":true,"confidence":5},{"trial_n":32,"n_dots":3.65,"target":"right","response":"right","rt":811.79999999981,"correct":true,"confidence":5},{"trial_n":33,"n_dots":3.55,"target":"left","response":"left","rt":706.70000000019,"correct":true,"confidence":4},{"trial_n":34,"n_dots":3.55,"target":"right","response":"left","rt":596.5,"correct":false,"confidence":4},{"trial_n":35,"n_dots":3.65,"target":"right","response":"right","rt":435.89999999991,"correct":true,"confidence":4},{"trial_n":36,"n_dots":3.65,"target":"right","response":"left","rt":657.89999999991,"correct":false,"confidence":1},{"trial_n":37,"n_dots":3.75,"target":"right","response":"left","rt":717,"correct":false,"confidence":5},{"trial_n":38,"n_dots":3.85,"target":"left","response":"left","rt":626.09999999963,"correct":true,"confidence":5},{"trial_n":39,"n_dots":3.85,"target":"left","response":"left","rt":826,"correct":true,"confidence":5},{"trial_n":40,"n_dots":3.75,"target":"right","response":"left","rt":816.20000000019,"correct":false,"confidence":5},{"trial_n":41,"n_dots":3.85,"target":"left","response":"left","rt":881.5,"correct":true,"confidence":4},{"trial_n":42,"n_dots":3.85,"target":"left","response":"left","rt":526.10000000009,"correct":true,"confidence":3},{"trial_n":43,"n_dots":3.75,"target":"right","response":"left","rt":648.5,"correct":false,"confidence":3},{"trial_n":44,"n_dots":3.85,"target":"right","response":"right","rt":530.89999999991,"correct":true,"confidence":4},{"trial_n":45,"n_dots":3.85,"target":"left","response":"left","rt":494.09999999963,"correct":true,"confidence":3},{"trial_n":46,"n_dots":3.75,"target":"left","response":"left","rt":781.39999999991,"correct":true,"confidence":5},{"trial_n":47,"n_dots":3.75,"target":"right","response":"right","rt":783.69999999972,"correct":true,"confidence":5},{"trial_n":48,"n_dots":3.65,"target":"left","response":"left","rt":1229.7999999998,"correct":true,"confidence":5},{"trial_n":49,"n_dots":3.65,"target":"right","response":"left","rt":534,"correct":false,"confidence":5},{"trial_n":50,"n_dots":3.75,"target":"left","response":"left","rt":694.69999999972,"correct":true,"confidence":5},{"trial_n":51,"n_dots":3.75,"target":"right","response":"right","rt":677.89999999991,"correct":true,"confidence":5},{"trial_n":52,"n_dots":3.65,"target":"left","response":"left","rt":545.80000000028,"correct":true,"confidence":5},{"trial_n":53,"n_dots":3.65,"target":"left","response":"left","rt":524.10000000009,"correct":true,"confidence":5},{"trial_n":54,"n_dots":3.55,"target":"right","response":"right","rt":1167.3000000003,"correct":true,"confidence":5},{"trial_n":55,"n_dots":3.55,"target":"left","response":"left","rt":708.69999999972,"correct":true,"confidence":3},{"trial_n":56,"n_dots":3.45,"target":"left","response":"left","rt":618,"correct":true,"confidence":5},{"trial_n":57,"n_dots":3.45,"target":"right","response":"left","rt":653,"correct":false,"confidence":3},{"trial_n":58,"n_dots":3.55,"target":"left","response":"left","rt":725,"correct":true,"confidence":5},{"trial_n":59,"n_dots":3.55,"target":"right","response":"left","rt":724.60000000009,"correct":false,"confidence":5},{"trial_n":60,"n_dots":3.65,"target":"right","response":"left","rt":939.09999999963,"correct":false,"confidence":5},{"trial_n":61,"n_dots":3.75,"target":"left","response":"left","rt":801.30000000028,"correct":true,"confidence":5},{"trial_n":62,"n_dots":3.75,"target":"left","response":"left","rt":663.20000000019,"correct":true,"confidence":5},{"trial_n":63,"n_dots":3.65,"target":"left","response":"left","rt":1000,"correct":true,"confidence":5},{"trial_n":64,"n_dots":3.65,"target":"left","response":"left","rt":462.29999999981,"correct":true,"confidence":5},{"trial_n":65,"n_dots":3.55,"target":"left","response":"left","rt":391.69999999972,"correct":true,"confidence":5},{"trial_n":66,"n_dots":3.55,"target":"right","response":"left","rt":530.20000000019,"correct":false,"confidence":5},{"trial_n":67,"n_dots":3.65,"target":"right","response":"right","rt":994,"correct":true,"confidence":5},{"trial_n":68,"n_dots":3.65,"target":"left","response":"right","rt":1751.4000000004,"correct":false,"confidence":3},{"trial_n":69,"n_dots":3.75,"target":"right","response":"right","rt":550.29999999981,"correct":true,"confidence":5},{"trial_n":70,"n_dots":3.75,"target":"left","response":"left","rt":397.5,"correct":true,"confidence":5},{"trial_n":71,"n_dots":3.65,"target":"right","response":"right","rt":998,"correct":true,"confidence":5},{"trial_n":72,"n_dots":3.65,"target":"right","response":"right","rt":2723.1000000001,"correct":true,"confidence":5},{"trial_n":73,"n_dots":3.55,"target":"left","response":"left","rt":668.10000000009,"correct":true,"confidence":5},{"trial_n":74,"n_dots":3.55,"target":"left","response":"left","rt":514.89999999991,"correct":true,"confidence":5},{"trial_n":75,"n_dots":3.45,"target":"left","response":"left","rt":651.09999999963,"correct":true,"confidence":5},{"trial_n":76,"n_dots":3.45,"target":"left","response":"left","rt":622.10000000009,"correct":true,"confidence":5},{"trial_n":77,"n_dots":3.35,"target":"right","response":"right","rt":1570,"correct":true,"confidence":5},{"trial_n":78,"n_dots":3.35,"target":"left","response":"left","rt":442.70000000019,"correct":true,"confidence":5},{"trial_n":79,"n_dots":3.25,"target":"right","response":"right","rt":1021.8000000003,"correct":true,"confidence":5},{"trial_n":80,"n_dots":3.25,"target":"left","response":"left","rt":540.69999999972,"correct":true,"confidence":5},{"trial_n":81,"n_dots":3.15,"target":"left","response":"left","rt":847.09999999963,"correct":true,"confidence":5},{"trial_n":82,"n_dots":3.15,"target":"left","response":"left","rt":287.69999999972,"correct":true,"confidence":5},{"trial_n":83,"n_dots":3.05,"target":"left","response":"left","rt":390.60000000009,"correct":true,"confidence":5},{"trial_n":84,"n_dots":3.05,"target":"right","response":"left","rt":516.70000000019,"correct":false,"confidence":5},{"trial_n":85,"n_dots":3.15,"target":"left","response":"left","rt":338.40000000037,"correct":true,"confidence":5},{"trial_n":86,"n_dots":3.15,"target":"right","response":"left","rt":550.70000000019,"correct":false,"confidence":5},{"trial_n":87,"n_dots":3.25,"target":"left","response":"left","rt":331.20000000019,"correct":true,"confidence":5},{"trial_n":88,"n_dots":3.25,"target":"right","response":"left","rt":358.40000000037,"correct":false,"confidence":5},{"trial_n":89,"n_dots":3.35,"target":"right","response":"right","rt":664,"correct":true,"confidence":5},{"trial_n":90,"n_dots":3.35,"target":"right","response":"left","rt":597.69999999972,"correct":false,"confidence":5},{"trial_n":91,"n_dots":3.45,"target":"right","response":"right","rt":567.20000000019,"correct":true,"confidence":5},{"trial_n":92,"n_dots":3.45,"target":"right","response":"right","rt":393,"correct":true,"confidence":1},{"trial_n":93,"n_dots":3.35,"target":"left","response":"left","rt":428.20000000019,"correct":true,"confidence":5},{"trial_n":94,"n_dots":3.35,"target":"left","response":"left","rt":446,"correct":true,"confidence":5},{"trial_n":95,"n_dots":3.25,"target":"right","response":"left","rt":631.30000000028,"correct":false,"confidence":5},{"trial_n":96,"n_dots":3.35,"target":"right","response":"left","rt":318.89999999991,"correct":false,"confidence":5},{"trial_n":97,"n_dots":3.45,"target":"right","response":"right","rt":448.29999999981,"correct":true,"confidence":5},{"trial_n":98,"n_dots":3.45,"target":"right","response":"right","rt":361.19999999972,"correct":true,"confidence":5},{"trial_n":99,"n_dots":3.35,"target":"right","response":"right","rt":256.30000000028,"correct":true,"confidence":5},{"trial_n":100,"n_dots":3.35,"target":"left","response":"left","rt":231.20000000019,"correct":true,"confidence":5},{"trial_n":101,"n_dots":3.25,"target":"left","response":"left","rt":463.30000000028,"correct":true,"confidence":5},{"trial_n":102,"n_dots":3.25,"target":"right","response":"left","rt":815.70000000019,"correct":false,"confidence":5},{"trial_n":103,"n_dots":3.35,"target":"left","response":"left","rt":454,"correct":true,"confidence":5},{"trial_n":104,"n_dots":3.35,"target":"left","response":"left","rt":106.39999999991,"correct":true,"confidence":5},{"trial_n":105,"n_dots":3.25,"target":"left","response":"left","rt":371.70000000019,"correct":true,"confidence":5},{"trial_n":106,"n_dots":3.25,"target":"left","response":"left","rt":369.69999999972,"correct":true,"confidence":5},{"trial_n":107,"n_dots":3.15,"target":"left","response":"left","rt":40.100000000093,"correct":true,"confidence":5},{"trial_n":108,"n_dots":3.15,"target":"right","response":"left","rt":86.899999999907,"correct":false,"confidence":5},{"trial_n":109,"n_dots":3.25,"target":"left","response":"left","rt":276.30000000028,"correct":true,"confidence":5},{"trial_n":110,"n_dots":3.25,"target":"left","response":"left","rt":869.70000000019,"correct":true,"confidence":5},{"trial_n":111,"n_dots":3.15,"target":"left","response":"left","rt":435,"correct":true,"confidence":5},{"trial_n":112,"n_dots":3.15,"target":"left","response":"left","rt":41.099999999627,"correct":true,"confidence":5},{"trial_n":113,"n_dots":3.05,"target":"right","response":"right","rt":455.59999999963,"correct":true,"confidence":5},{"trial_n":114,"n_dots":3.05,"target":"right","response":"right","rt":802.89999999991,"correct":true,"confidence":5},{"trial_n":115,"n_dots":2.95,"target":"right","response":"left","rt":2034.3000000003,"correct":false,"confidence":5},{"trial_n":116,"n_dots":3.05,"target":"left","response":"left","rt":1048.8999999999,"correct":true,"confidence":5},{"trial_n":117,"n_dots":3.05,"target":"left","response":"left","rt":733.29999999981,"correct":true,"confidence":5},{"trial_n":118,"n_dots":2.95,"target":"left","response":"left","rt":634.89999999991,"correct":true,"confidence":5},{"trial_n":119,"n_dots":2.95,"target":"left","response":"left","rt":95.800000000279,"correct":true,"confidence":5},{"trial_n":120,"n_dots":2.85,"target":"right","response":"left","rt":230.10000000009,"correct":false,"confidence":5}]