[{"trial_n":1,"span":8,"encoder":"95129036","distractor":"95129038","target":"present","response":"present","rt":"3382.5","correct":true,"confidence":-1},{"trial_n":2,"span":8,"encoder":"81839807","distractor":"81889807","target":"present","response":"present","rt":"2393.5","correct":true,"confidence":-1},{"trial_n":3,"span":10,"encoder":"4796699552","distractor":"4796699554","target":"absent","response":"present","rt":"1595.7999999998","correct":false,"confidence":-1},{"trial_n":4,"span":8,"encoder":"71594335","distractor":"71594333","target":"absent","response":"absent","rt":"2446.9000000004","correct":true,"confidence":-1},{"trial_n":5,"span":8,"encoder":"61378426","distractor":"61978426","target":"present","response":"absent","rt":"1846","correct":false,"confidence":-1},{"trial_n":6,"span":6,"encoder":"376587","distractor":"326587","target":"present","response":"present","rt":"975.80000000028","correct":true,"confidence":-1},{"trial_n":7,"span":6,"encoder":"495575","distractor":"495475","target":"absent","response":"absent","rt":"2102.7000000002","correct":true,"confidence":-1},{"trial_n":8,"span":8,"encoder":"56311031","distractor":"16311031","target":"present","response":"absent","rt":"1736.0999999996","correct":false,"confidence":-1},{"trial_n":9,"span":6,"encoder":"313299","distractor":"313499","target":"present","response":"present","rt":"2364.2000000002","correct":true,"confidence":-1},{"trial_n":10,"span":6,"encoder":"616489","distractor":"616989","target":"absent","response":"present","rt":"1975.6999999997","correct":false,"confidence":-1},{"trial_n":11,"span":4,"encoder":"3163","distractor":"8163","target":"present","response":"present","rt":"1928.1000000001","correct":true,"confidence":-1},{"trial_n":12,"span":4,"encoder":"3828","distractor":"3628","target":"absent","response":"absent","rt":"2403.8999999999","correct":true,"confidence":-1},{"trial_n":13,"span":5,"encoder":"81045","distractor":"89045","target":"present","response":"present","rt":"1316","correct":true,"confidence":-1},{"trial_n":14,"span":5,"encoder":"74725","distractor":"84725","target":"absent","response":"present","rt":"2068.7999999998","correct":false,"confidence":-1},{"trial_n":15,"span":4,"encoder":"2494","distractor":"2498","target":"present","response":"present","rt":"976.30000000028","correct":true,"confidence":-1},{"trial_n":16,"span":4,"encoder":"3096","distractor":"3026","target":"absent","response":"absent","rt":"1444.9000000004","correct":true,"confidence":-1},{"trial_n":17,"span":5,"encoder":"82704","distractor":"82709","target":"present","response":"present","rt":"1478.3000000003","correct":true,"confidence":-1},{"trial_n":18,"span":5,"encoder":"19563","distractor":"19523","target":"absent","response":"absent","rt":"2838.7000000002","correct":true,"confidence":-1},{"trial_n":19,"span":6,"encoder":"671339","distractor":"677339","target":"present","response":"present","rt":"2443.7999999998","correct":true,"confidence":-1},{"trial_n":20,"span":6,"encoder":"360612","distractor":"360619","target":"absent","response":"absent","rt":"2914.5999999996","correct":true,"confidence":-1},{"trial_n":21,"span":7,"encoder":"9125031","distractor":"9125021","target":"absent","response":"absent","rt":"2043.3000000003","correct":true,"confidence":5},{"trial_n":22,"span":7,"encoder":"3986466","distractor":"3946466","target":"present","response":"present","rt":"1062.7999999998","correct":true,"confidence":3},{"trial_n":23,"span":8,"encoder":"95902746","distractor":"75902746","target":"present","response":"present","rt":"1945.6999999997","correct":true,"confidence":1},{"trial_n":24,"span":8,"encoder":"09167968","distractor":"09167965","target":"present","response":"absent","rt":"1336.3999999999","correct":false,"confidence":2},{"trial_n":25,"span":7,"encoder":"6239961","distractor":"6239661","target":"absent","response":"present","rt":"2023.2000000002","correct":false,"confidence":5},{"trial_n":26,"span":6,"encoder":"077478","distractor":"077471","target":"present","response":"present","rt":"379.69999999972","correct":true,"confidence":5},{"trial_n":27,"span":6,"encoder":"663695","distractor":"666695","target":"present","response":"absent","rt":"355.09999999963","correct":false,"confidence":4},{"trial_n":28,"span":5,"encoder":"88882","distractor":"68882","target":"absent","response":"present","rt":"2201.8000000003","correct":false,"confidence":5},{"trial_n":29,"span":4,"encoder":"1667","distractor":"0667","target":"absent","response":"absent","rt":"1962.2999999998","correct":true,"confidence":5},{"trial_n":30,"span":4,"encoder":"6737","distractor":"6717","target":"absent","response":"absent","rt":"1280.2999999998","correct":true,"confidence":5},{"trial_n":31,"span":5,"encoder":"03061","distractor":"03065","target":"present","response":"present","rt":"2496.7000000002","correct":true,"confidence":5},{"trial_n":32,"span":5,"encoder":"57253","distractor":"27253","target":"absent","response":"absent","rt":"2093.8999999999","correct":true,"confidence":5},{"trial_n":33,"span":6,"encoder":"202142","distractor":"202642","target":"present","response":"present","rt":"2261.3000000003","correct":true,"confidence":5},{"trial_n":34,"span":6,"encoder":"612720","distractor":"612726","target":"present","response":"present","rt":"1500.3999999999","correct":true,"confidence":5},{"trial_n":35,"span":7,"encoder":"4820089","distractor":"4820029","target":"absent","response":"present","rt":"1860.6000000001","correct":false,"confidence":3},{"trial_n":36,"span":6,"encoder":"962271","distractor":"962371","target":"present","response":"present","rt":"835.10000000009","correct":true,"confidence":2},{"trial_n":37,"span":6,"encoder":"155191","distractor":"555191","target":"absent","response":"absent","rt":"1789.3000000003","correct":true,"confidence":5},{"trial_n":38,"span":7,"encoder":"9429045","distractor":"9029045","target":"present","response":"absent","rt":"1319","correct":false,"confidence":4},{"trial_n":39,"span":6,"encoder":"526365","distractor":"526395","target":"present","response":"absent","rt":"3108.6999999997","correct":false,"confidence":4},{"trial_n":40,"span":5,"encoder":"63801","distractor":"65801","target":"absent","response":"present","rt":"1255.5","correct":false,"confidence":3},{"trial_n":41,"span":4,"encoder":"4626","distractor":"4026","target":"absent","response":"absent","rt":"1637.6000000001","correct":true,"confidence":5},{"trial_n":42,"span":4,"encoder":"2432","distractor":"2422","target":"present","response":"present","rt":"1362.6999999997","correct":true,"confidence":5},{"trial_n":43,"span":5,"encoder":"02113","distractor":"02913","target":"present","response":"present","rt":"1831.8999999999","correct":true,"confidence":5},{"trial_n":44,"span":5,"encoder":"82678","distractor":"82673","target":"present","response":"present","rt":"1542.3000000003","correct":true,"confidence":5},{"trial_n":45,"span":6,"encoder":"852498","distractor":"892498","target":"present","response":"present","rt":"2220.6000000001","correct":true,"confidence":5},{"trial_n":46,"span":6,"encoder":"816284","distractor":"876284","target":"absent","response":"present","rt":"955","correct":false,"confidence":5},{"trial_n":47,"span":5,"encoder":"56452","distractor":"56455","target":"present","response":"present","rt":"1140.1000000001","correct":true,"confidence":5},{"trial_n":48,"span":5,"encoder":"13222","distractor":"13292","target":"absent","response":"absent","rt":"1485.0999999996","correct":true,"confidence":4},{"trial_n":49,"span":6,"encoder":"305785","distractor":"805785","target":"present","response":"present","rt":"2103.6000000001","correct":true,"confidence":5},{"trial_n":50,"span":6,"encoder":"988787","distractor":"988788","target":"absent","response":"present","rt":"1402.2999999998","correct":false,"confidence":5},{"trial_n":51,"span":5,"encoder":"34553","distractor":"34558","target":"present","response":"present","rt":"1086.2999999998","correct":true,"confidence":5},{"trial_n":52,"span":5,"encoder":"51842","distractor":"51832","target":"absent","response":"present","rt":"1165","correct":false,"confidence":3},{"trial_n":53,"span":4,"encoder":"2206","distractor":"2106","target":"present","response":"present","rt":"1229.1000000001","correct":true,"confidence":5},{"trial_n":54,"span":4,"encoder":"2181","distractor":"0181","target":"absent","response":"absent","rt":"1537.1999999997","correct":true,"confidence":5},{"trial_n":55,"span":5,"encoder":"75109","distractor":"15109","target":"absent","response":"absent","rt":"1448.5","correct":true,"confidence":5},{"trial_n":56,"span":5,"encoder":"65643","distractor":"65693","target":"present","response":"present","rt":"1999.5","correct":true,"confidence":5},{"trial_n":57,"span":6,"encoder":"911855","distractor":"911852","target":"absent","response":"absent","rt":"1290.3999999999","correct":true,"confidence":5},{"trial_n":58,"span":6,"encoder":"477836","distractor":"277836","target":"present","response":"present","rt":"1954.2999999998","correct":true,"confidence":5},{"trial_n":59,"span":7,"encoder":"3926804","distractor":"3526804","target":"absent","response":"absent","rt":"1818.2999999998","correct":true,"confidence":5},{"trial_n":60,"span":7,"encoder":"2013249","distractor":"2013242","target":"present","response":"present","rt":"1890.8999999999","correct":true,"confidence":5},{"trial_n":61,"span":8,"encoder":"81726574","distractor":"81726578","target":"present","response":"absent","rt":"1090.6000000001","correct":false,"confidence":5},{"trial_n":62,"span":7,"encoder":"6262626","distractor":"6260626","target":"absent","response":"absent","rt":"1601.5","correct":true,"confidence":5},{"trial_n":63,"span":7,"encoder":"8417309","distractor":"8317309","target":"absent","response":"present","rt":"1709.3999999999","correct":false,"confidence":3},{"trial_n":64,"span":6,"encoder":"841033","distractor":"641033","target":"absent","response":"absent","rt":"1287.3999999999","correct":true,"confidence":5},{"trial_n":65,"span":6,"encoder":"013084","distractor":"713084","target":"absent","response":"absent","rt":"1220.7999999998","correct":true,"confidence":5},{"trial_n":66,"span":7,"encoder":"3856817","distractor":"3556817","target":"absent","response":"absent","rt":"1715.8999999999","correct":true,"confidence":3},{"trial_n":67,"span":7,"encoder":"9870332","distractor":"9876332","target":"present","response":"absent","rt":"1106.5","correct":false,"confidence":5},{"trial_n":68,"span":6,"encoder":"453185","distractor":"453085","target":"absent","response":"absent","rt":"2548.5","correct":true,"confidence":5},{"trial_n":69,"span":6,"encoder":"811634","distractor":"811654","target":"present","response":"present","rt":"2687.8000000003","correct":true,"confidence":5},{"trial_n":70,"span":7,"encoder":"2363785","distractor":"2363735","target":"absent","response":"absent","rt":"2722","correct":true,"confidence":5},{"trial_n":71,"span":8,"encoder":"06198210","distractor":"04198210","target":"present","response":"present","rt":"1180.3999999999","correct":true,"confidence":-1},{"trial_n":72,"span":8,"encoder":"65664901","distractor":"65634901","target":"present","response":"present","rt":"3705.6000000001","correct":true,"confidence":-1},{"trial_n":73,"span":9,"encoder":"409973914","distractor":"509973914","target":"absent","response":"present","rt":"2438.1000000001","correct":false,"confidence":-1},{"trial_n":74,"span":8,"encoder":"14528165","distractor":"14128165","target":"absent","response":"absent","rt":"1373","correct":true,"confidence":-1},{"trial_n":75,"span":8,"encoder":"78751447","distractor":"78751441","target":"present","response":"present","rt":"4551.1000000001","correct":true,"confidence":-1},{"trial_n":76,"span":9,"encoder":"532136655","distractor":"832136655","target":"present","response":"present","rt":"2539.3999999999","correct":true,"confidence":-1},{"trial_n":77,"span":9,"encoder":"612421591","distractor":"612421191","target":"absent","response":"present","rt":"3611.8999999999","correct":false,"confidence":-1},{"trial_n":78,"span":8,"encoder":"04277896","distractor":"04277866","target":"absent","response":"absent","rt":"823.79999999981","correct":true,"confidence":-1},{"trial_n":79,"span":8,"encoder":"75177252","distractor":"75137252","target":"absent","response":"absent","rt":"2621.1999999997","correct":true,"confidence":-1},{"trial_n":80,"span":9,"encoder":"315415133","distractor":"315415131","target":"absent","response":"absent","rt":"966.79999999981","correct":true,"confidence":-1},{"trial_n":81,"span":9,"encoder":"567723511","distractor":"567723411","target":"absent","response":"present","rt":"1096.5999999996","correct":false,"confidence":-1},{"trial_n":82,"span":8,"encoder":"53859926","distractor":"83859926","target":"present","response":"absent","rt":"1208.7000000002","correct":false,"confidence":-1},{"trial_n":83,"span":7,"encoder":"7435839","distractor":"3435839","target":"absent","response":"present","rt":"2458.1999999997","correct":false,"confidence":-1},{"trial_n":84,"span":6,"encoder":"094293","distractor":"094296","target":"present","response":"absent","rt":"940.5","correct":false,"confidence":-1},{"trial_n":85,"span":5,"encoder":"05500","distractor":"15500","target":"present","response":"present","rt":"965.90000000037","correct":true,"confidence":-1},{"trial_n":86,"span":5,"encoder":"83095","distractor":"63095","target":"present","response":"absent","rt":"1049.2000000002","correct":false,"confidence":-1},{"trial_n":87,"span":4,"encoder":"9435","distractor":"9455","target":"absent","response":"absent","rt":"2194.7000000002","correct":true,"confidence":-1},{"trial_n":88,"span":4,"encoder":"9540","distractor":"9590","target":"present","response":"absent","rt":"929","correct":false,"confidence":-1},{"trial_n":89,"span":3,"encoder":"821","distractor":"221","target":"present","response":"present","rt":"714.5","correct":true,"confidence":-1},{"trial_n":90,"span":3,"encoder":"916","distractor":"913","target":"present","response":"present","rt":"640.10000000009","correct":true,"confidence":-1},{"trial_n":91,"span":4,"encoder":"5426","distractor":"9426","target":"absent","response":"absent","rt":"1742.2000000002","correct":true,"confidence":5},{"trial_n":92,"span":4,"encoder":"0045","distractor":"0645","target":"absent","response":"absent","rt":"1514.6000000001","correct":true,"confidence":5},{"trial_n":93,"span":5,"encoder":"04658","distractor":"04158","target":"present","response":"present","rt":"2956.6999999997","correct":true,"confidence":5},{"trial_n":94,"span":5,"encoder":"76591","distractor":"76531","target":"absent","response":"absent","rt":"1853.8999999999","correct":true,"confidence":5},{"trial_n":95,"span":6,"encoder":"059624","distractor":"056624","target":"present","response":"present","rt":"5474.8000000003","correct":true,"confidence":5},{"trial_n":96,"span":6,"encoder":"567051","distractor":"567551","target":"present","response":"present","rt":"3616.7000000002","correct":true,"confidence":5},{"trial_n":97,"span":7,"encoder":"0218251","distractor":"0218221","target":"present","response":"present","rt":"1659.1999999997","correct":true,"confidence":5},{"trial_n":98,"span":7,"encoder":"8968562","distractor":"8968569","target":"present","response":"present","rt":"1570.7000000002","correct":true,"confidence":5},{"trial_n":99,"span":8,"encoder":"95778659","distractor":"95779659","target":"absent","response":"present","rt":"1607","correct":false,"confidence":3},{"trial_n":100,"span":7,"encoder":"7871208","distractor":"7871207","target":"present","response":"present","rt":"1257.3999999999","correct":true,"confidence":2},{"trial_n":101,"span":7,"encoder":"1507299","distractor":"2507299","target":"present","response":"present","rt":"1191.6000000001","correct":true,"confidence":5},{"trial_n":102,"span":8,"encoder":"06004517","distractor":"56004517","target":"absent","response":"absent","rt":"2362.1000000001","correct":true,"confidence":5},{"trial_n":103,"span":8,"encoder":"32681462","distractor":"32481462","target":"present","response":"absent","rt":"1363.5","correct":false,"confidence":4},{"trial_n":104,"span":7,"encoder":"2860420","distractor":"2360420","target":"absent","response":"absent","rt":"567.89999999991","correct":true,"confidence":2},{"trial_n":105,"span":7,"encoder":"2348838","distractor":"2348833","target":"present","response":"absent","rt":"1791.8000000003","correct":false,"confidence":3},{"trial_n":106,"span":6,"encoder":"044338","distractor":"044328","target":"absent","response":"absent","rt":"2799.2999999998","correct":true,"confidence":5},{"trial_n":107,"span":6,"encoder":"401159","distractor":"401459","target":"absent","response":"present","rt":"2706.7000000002","correct":false,"confidence":3},{"trial_n":108,"span":5,"encoder":"50253","distractor":"00253","target":"absent","response":"absent","rt":"1657.1000000001","correct":true,"confidence":5},{"trial_n":109,"span":5,"encoder":"45779","distractor":"45770","target":"absent","response":"absent","rt":"2432.1000000001","correct":true,"confidence":5},{"trial_n":110,"span":6,"encoder":"765435","distractor":"765425","target":"absent","response":"absent","rt":"2304.6999999997","correct":true,"confidence":5},{"trial_n":111,"span":6,"encoder":"250952","distractor":"750952","target":"present","response":"present","rt":"1984.3999999999","correct":true,"confidence":5},{"trial_n":112,"span":7,"encoder":"3969824","distractor":"3969828","target":"absent","response":"present","rt":"3199.2000000002","correct":false,"confidence":5},{"trial_n":113,"span":6,"encoder":"239024","distractor":"236024","target":"present","response":"present","rt":"2889.7000000002","correct":true,"confidence":4},{"trial_n":114,"span":6,"encoder":"206001","distractor":"246001","target":"present","response":"absent","rt":"4335.6000000001","correct":false,"confidence":5},{"trial_n":115,"span":5,"encoder":"50939","distractor":"50979","target":"present","response":"present","rt":"2203.7999999998","correct":true,"confidence":5},{"trial_n":116,"span":5,"encoder":"78507","distractor":"76507","target":"absent","response":"present","rt":"2424","correct":false,"confidence":4},{"trial_n":117,"span":4,"encoder":"6711","distractor":"6710","target":"absent","response":"absent","rt":"1994.6000000001","correct":true,"confidence":5},{"trial_n":118,"span":4,"encoder":"3284","distractor":"3214","target":"absent","response":"absent","rt":"2050.6000000001","correct":true,"confidence":5},{"trial_n":119,"span":5,"encoder":"91936","distractor":"91536","target":"present","response":"present","rt":"2372.7999999998","correct":true,"confidence":3},{"trial_n":120,"span":5,"encoder":"45369","distractor":"85369","target":"present","response":"present","rt":"2855.2999999998","correct":true,"confidence":5},{"trial_n":121,"span":6,"encoder":"024740","distractor":"024040","target":"absent","response":"absent","rt":"2566.7000000002","correct":true,"confidence":5},{"trial_n":122,"span":6,"encoder":"749560","distractor":"739560","target":"absent","response":"absent","rt":"2606.0999999996","correct":true,"confidence":5},{"trial_n":123,"span":7,"encoder":"3212217","distractor":"3212216","target":"present","response":"absent","rt":"1976.1999999997","correct":false,"confidence":5},{"trial_n":124,"span":6,"encoder":"816014","distractor":"856014","target":"present","response":"present","rt":"1927.2999999998","correct":true,"confidence":3},{"trial_n":125,"span":6,"encoder":"211416","distractor":"211410","target":"absent","response":"absent","rt":"993.30000000075","correct":true,"confidence":4},{"trial_n":126,"span":7,"encoder":"7127256","distractor":"7427256","target":"present","response":"present","rt":"5630.3000000007","correct":true,"confidence":3},{"trial_n":127,"span":7,"encoder":"3083475","distractor":"4083475","target":"absent","response":"present","rt":"1156","correct":false,"confidence":3},{"trial_n":128,"span":6,"encoder":"944489","distractor":"444489","target":"absent","response":"present","rt":"2171.3000000007","correct":false,"confidence":3},{"trial_n":129,"span":5,"encoder":"26337","distractor":"86337","target":"absent","response":"present","rt":"2315.8999999994","correct":false,"confidence":4},{"trial_n":130,"span":4,"encoder":"2562","distractor":"2542","target":"present","response":"present","rt":"1604.9000000004","correct":true,"confidence":3},{"trial_n":131,"span":4,"encoder":"6404","distractor":"6409","target":"absent","response":"present","rt":"1337.5999999996","correct":false,"confidence":3},{"trial_n":132,"span":3,"encoder":"180","distractor":"980","target":"present","response":"present","rt":"1675.8000000007","correct":true,"confidence":3},{"trial_n":133,"span":3,"encoder":"881","distractor":"781","target":"absent","response":"present","rt":"918.79999999981","correct":false,"confidence":3},{"trial_n":134,"span":2,"encoder":"00","distractor":"70","target":"present","response":"present","rt":"1565.2999999998","correct":true,"confidence":5},{"trial_n":135,"span":2,"encoder":"95","distractor":"96","target":"present","response":"present","rt":"1888.3999999994","correct":true,"confidence":5},{"trial_n":136,"span":3,"encoder":"550","distractor":"650","target":"absent","response":"absent","rt":"1439","correct":true,"confidence":5},{"trial_n":137,"span":3,"encoder":"672","distractor":"675","target":"present","response":"present","rt":"2264.1000000006","correct":true,"confidence":5},{"trial_n":138,"span":4,"encoder":"3191","distractor":"2191","target":"present","response":"present","rt":"1401.2000000002","correct":true,"confidence":5},{"trial_n":139,"span":4,"encoder":"6460","distractor":"5460","target":"absent","response":"absent","rt":"1557.7999999998","correct":true,"confidence":5},{"trial_n":140,"span":5,"encoder":"53520","distractor":"53524","target":"present","response":"present","rt":"3439.7999999998","correct":true,"confidence":5}]