[{"trial_n":1,"span":8,"encoder":"30119299","distractor":"30119294","target":"present","response":"present","rt":"3647.2999999523","correct":true,"confidence":-1},{"trial_n":2,"span":8,"encoder":"55624210","distractor":"55694210","target":"present","response":"present","rt":"3706.3999998569","correct":true,"confidence":-1},{"trial_n":3,"span":10,"encoder":"4593283361","distractor":"4593233361","target":"absent","response":"absent","rt":"2787.4000000954","correct":true,"confidence":-1},{"trial_n":4,"span":10,"encoder":"1713319037","distractor":"1710319037","target":"absent","response":"absent","rt":"1432.2999999523","correct":true,"confidence":-1},{"trial_n":5,"span":12,"encoder":"575778387292","distractor":"575748387292","target":"present","response":"absent","rt":"977.5","correct":false,"confidence":-1},{"trial_n":6,"span":10,"encoder":"4409843700","distractor":"4409843400","target":"absent","response":"absent","rt":"2058.4000000954","correct":true,"confidence":-1},{"trial_n":7,"span":10,"encoder":"7491308044","distractor":"7491301044","target":"absent","response":"present","rt":"1016.7999999523","correct":false,"confidence":-1},{"trial_n":8,"span":8,"encoder":"42846301","distractor":"42843301","target":"present","response":"present","rt":"1727.8999998569","correct":true,"confidence":-1},{"trial_n":9,"span":8,"encoder":"95176471","distractor":"95176171","target":"present","response":"present","rt":"964.89999985695","correct":true,"confidence":-1},{"trial_n":10,"span":10,"encoder":"2198017001","distractor":"2198317001","target":"absent","response":"absent","rt":"834.29999995232","correct":true,"confidence":-1},{"trial_n":11,"span":10,"encoder":"5891465709","distractor":"5891415709","target":"absent","response":"absent","rt":"1684.7999999523","correct":true,"confidence":-1},{"trial_n":12,"span":11,"encoder":"32612895107","distractor":"32612895147","target":"present","response":"absent","rt":"1828.7999999523","correct":false,"confidence":-1},{"trial_n":13,"span":10,"encoder":"3428190110","distractor":"3428140110","target":"absent","response":"absent","rt":"1702.9000000954","correct":true,"confidence":-1},{"trial_n":14,"span":10,"encoder":"5200369423","distractor":"5200349423","target":"absent","response":"present","rt":"833.59999990463","correct":false,"confidence":-1},{"trial_n":15,"span":9,"encoder":"152756063","distractor":"152753063","target":"absent","response":"present","rt":"2093.2000000477","correct":false,"confidence":-1},{"trial_n":16,"span":8,"encoder":"68351477","distractor":"38351477","target":"present","response":"present","rt":"741.70000004768","correct":true,"confidence":-1},{"trial_n":17,"span":8,"encoder":"68413166","distractor":"68613166","target":"absent","response":"present","rt":"1364.7999999523","correct":false,"confidence":-1},{"trial_n":18,"span":7,"encoder":"9668871","distractor":"9668872","target":"present","response":"absent","rt":"292.39999985695","correct":false,"confidence":-1},{"trial_n":19,"span":6,"encoder":"150510","distractor":"150514","target":"present","response":"present","rt":"413.70000004768","correct":true,"confidence":-1},{"trial_n":20,"span":6,"encoder":"473908","distractor":"473108","target":"present","response":"present","rt":"892.79999995232","correct":true,"confidence":-1},{"trial_n":21,"span":7,"encoder":"1627241","distractor":"1627245","target":"present","response":"present","rt":"1521.5","correct":true,"confidence":3},{"trial_n":22,"span":7,"encoder":"1964700","distractor":"1904700","target":"absent","response":"absent","rt":"2702.3999998569","correct":true,"confidence":5},{"trial_n":23,"span":8,"encoder":"64448258","distractor":"84448258","target":"absent","response":"absent","rt":"2959.2999999523","correct":true,"confidence":5},{"trial_n":24,"span":8,"encoder":"48375448","distractor":"48175448","target":"absent","response":"absent","rt":"2069.2999999523","correct":true,"confidence":5},{"trial_n":25,"span":9,"encoder":"005107000","distractor":"005507000","target":"absent","response":"absent","rt":"2065","correct":true,"confidence":5},{"trial_n":26,"span":9,"encoder":"674279349","distractor":"674279389","target":"absent","response":"present","rt":"2243.6999998093","correct":false,"confidence":3},{"trial_n":27,"span":8,"encoder":"50392845","distractor":"50392045","target":"present","response":"present","rt":"1942.2000000477","correct":true,"confidence":5},{"trial_n":28,"span":8,"encoder":"49083176","distractor":"49080176","target":"absent","response":"absent","rt":"1043.8000001907","correct":true,"confidence":5},{"trial_n":29,"span":9,"encoder":"118608193","distractor":"188608193","target":"absent","response":"present","rt":"2173.2999999523","correct":false,"confidence":4},{"trial_n":30,"span":8,"encoder":"86566758","distractor":"82566758","target":"present","response":"present","rt":"2872.7999999523","correct":true,"confidence":2},{"trial_n":31,"span":8,"encoder":"11576790","distractor":"81576790","target":"present","response":"present","rt":"2780","correct":true,"confidence":2},{"trial_n":32,"span":9,"encoder":"893258279","distractor":"873258279","target":"present","response":"present","rt":"1734.8999998569","correct":true,"confidence":3},{"trial_n":33,"span":9,"encoder":"075358760","distractor":"075358160","target":"present","response":"present","rt":"2346.1000001431","correct":true,"confidence":5},{"trial_n":34,"span":10,"encoder":"5159376524","distractor":"5159776524","target":"absent","response":"absent","rt":"2224.7999999523","correct":true,"confidence":5},{"trial_n":35,"span":10,"encoder":"6714991823","distractor":"6711991823","target":"present","response":"absent","rt":"3855.7999999523","correct":false,"confidence":5},{"trial_n":36,"span":9,"encoder":"071283263","distractor":"071288263","target":"absent","response":"absent","rt":"3958.7999999523","correct":true,"confidence":2},{"trial_n":37,"span":9,"encoder":"517467475","distractor":"517467275","target":"present","response":"present","rt":"2169.8999998569","correct":true,"confidence":4},{"trial_n":38,"span":10,"encoder":"7772501686","distractor":"7772551686","target":"present","response":"present","rt":"2500.0999999046","correct":true,"confidence":3},{"trial_n":39,"span":10,"encoder":"4434897384","distractor":"4434877384","target":"absent","response":"present","rt":"3217.2000000477","correct":false,"confidence":2},{"trial_n":40,"span":9,"encoder":"768439383","distractor":"768436383","target":"present","response":"present","rt":"1264.5","correct":true,"confidence":3},{"trial_n":41,"span":9,"encoder":"707037833","distractor":"307037833","target":"present","response":"present","rt":"1313.1000001431","correct":true,"confidence":3},{"trial_n":42,"span":10,"encoder":"6288127255","distractor":"6284127255","target":"present","response":"present","rt":"2722.2999999523","correct":true,"confidence":3},{"trial_n":43,"span":10,"encoder":"8289822531","distractor":"8284822531","target":"absent","response":"absent","rt":"2915.1000001431","correct":true,"confidence":4},{"trial_n":44,"span":11,"encoder":"36011465963","distractor":"36011465968","target":"present","response":"present","rt":"2400","correct":true,"confidence":3},{"trial_n":45,"span":11,"encoder":"61750082203","distractor":"61753082203","target":"present","response":"present","rt":"1839","correct":true,"confidence":3},{"trial_n":46,"span":12,"encoder":"895153974085","distractor":"895153974089","target":"present","response":"present","rt":"2488.1000001431","correct":true,"confidence":3},{"trial_n":47,"span":12,"encoder":"911642953900","distractor":"611642953900","target":"absent","response":"absent","rt":"2210.1000001431","correct":true,"confidence":3},{"trial_n":48,"span":13,"encoder":"5865700646845","distractor":"5867700646845","target":"present","response":"present","rt":"5186.4000000954","correct":true,"confidence":3},{"trial_n":49,"span":13,"encoder":"8666911998735","distractor":"8666911598735","target":"absent","response":"absent","rt":"6968.1000001431","correct":true,"confidence":2},{"trial_n":50,"span":14,"encoder":"18051991266264","distractor":"18051991266244","target":"present","response":"present","rt":"4511.4000000954","correct":true,"confidence":2},{"trial_n":51,"span":14,"encoder":"31903275445684","distractor":"33903275445684","target":"absent","response":"present","rt":"4421.7000000477","correct":false,"confidence":2},{"trial_n":52,"span":13,"encoder":"7556749111396","distractor":"7556749111336","target":"present","response":"absent","rt":"2239.3999998569","correct":false,"confidence":2},{"trial_n":53,"span":12,"encoder":"554284061568","distractor":"554294061568","target":"absent","response":"present","rt":"3308.8999998569","correct":false,"confidence":2},{"trial_n":54,"span":11,"encoder":"43297941269","distractor":"43298941269","target":"absent","response":"absent","rt":"3890.1000001431","correct":true,"confidence":5},{"trial_n":55,"span":11,"encoder":"10202351846","distractor":"10202351246","target":"present","response":"present","rt":"1972.2999999523","correct":true,"confidence":4},{"trial_n":56,"span":12,"encoder":"524449543293","distractor":"524149543293","target":"absent","response":"present","rt":"1564.4000000954","correct":false,"confidence":4},{"trial_n":57,"span":11,"encoder":"07694361208","distractor":"07694761208","target":"absent","response":"present","rt":"1353.9000000954","correct":false,"confidence":4},{"trial_n":58,"span":10,"encoder":"0460091723","distractor":"0464091723","target":"absent","response":"present","rt":"1598.2999999523","correct":false,"confidence":3},{"trial_n":59,"span":9,"encoder":"478860720","distractor":"479860720","target":"present","response":"present","rt":"1555.2000000477","correct":true,"confidence":4},{"trial_n":60,"span":9,"encoder":"168604286","distractor":"168604486","target":"present","response":"present","rt":"1852.9000000954","correct":true,"confidence":4},{"trial_n":61,"span":10,"encoder":"1614066538","distractor":"1614066568","target":"present","response":"present","rt":"1428.2999999523","correct":true,"confidence":4},{"trial_n":62,"span":10,"encoder":"6476838831","distractor":"6476838801","target":"present","response":"absent","rt":"2354.4000000954","correct":false,"confidence":4},{"trial_n":63,"span":9,"encoder":"264275817","distractor":"264175817","target":"present","response":"present","rt":"2086.9000000954","correct":true,"confidence":4},{"trial_n":64,"span":9,"encoder":"708749647","distractor":"708742647","target":"present","response":"present","rt":"2406.5999999046","correct":true,"confidence":3},{"trial_n":65,"span":10,"encoder":"9723757750","distractor":"3723757750","target":"absent","response":"present","rt":"1806","correct":false,"confidence":3},{"trial_n":66,"span":9,"encoder":"381676477","distractor":"381666477","target":"absent","response":"absent","rt":"1198","correct":true,"confidence":5},{"trial_n":67,"span":9,"encoder":"328675591","distractor":"324675591","target":"absent","response":"absent","rt":"6655","correct":true,"confidence":4},{"trial_n":68,"span":10,"encoder":"5429756988","distractor":"5429756968","target":"absent","response":"absent","rt":"1520.4000000954","correct":true,"confidence":4},{"trial_n":69,"span":10,"encoder":"5952939890","distractor":"5952939860","target":"present","response":"absent","rt":"5600.5","correct":false,"confidence":3},{"trial_n":70,"span":9,"encoder":"419650451","distractor":"439650451","target":"absent","response":"absent","rt":"3092.0999999046","correct":true,"confidence":5},{"trial_n":71,"span":8,"encoder":"86222917","distractor":"86222913","target":"present","response":"present","rt":"3728.2999999523","correct":true,"confidence":-1},{"trial_n":72,"span":8,"encoder":"37615971","distractor":"32615971","target":"present","response":"absent","rt":"2327.3000001907","correct":false,"confidence":-1},{"trial_n":73,"span":7,"encoder":"5555198","distractor":"5555498","target":"absent","response":"absent","rt":"3626.3999998569","correct":true,"confidence":-1},{"trial_n":74,"span":7,"encoder":"0707634","distractor":"0708634","target":"absent","response":"absent","rt":"3259.9000000954","correct":true,"confidence":-1},{"trial_n":75,"span":8,"encoder":"13949856","distractor":"13979856","target":"present","response":"present","rt":"4519.8999998569","correct":true,"confidence":-1},{"trial_n":76,"span":8,"encoder":"12925608","distractor":"22925608","target":"absent","response":"absent","rt":"1586","correct":true,"confidence":-1},{"trial_n":77,"span":9,"encoder":"263183541","distractor":"265183541","target":"present","response":"absent","rt":"4819.2000000477","correct":false,"confidence":-1},{"trial_n":78,"span":8,"encoder":"76822912","distractor":"76822913","target":"present","response":"absent","rt":"18174.5","correct":false,"confidence":-1},{"trial_n":79,"span":7,"encoder":"6252437","distractor":"6252737","target":"present","response":"present","rt":"43719.600000143","correct":true,"confidence":-1},{"trial_n":80,"span":7,"encoder":"0082993","distractor":"0088993","target":"absent","response":"absent","rt":"3936.1000001431","correct":true,"confidence":-1},{"trial_n":81,"span":8,"encoder":"63740678","distractor":"62740678","target":"present","response":"absent","rt":"3841.8000001907","correct":false,"confidence":-1},{"trial_n":82,"span":7,"encoder":"9040044","distractor":"9040054","target":"present","response":"absent","rt":"45.600000143051","correct":false,"confidence":-1},{"trial_n":83,"span":6,"encoder":"206665","distractor":"246665","target":"present","response":"absent","rt":"112.69999980927","correct":false,"confidence":-1},{"trial_n":84,"span":5,"encoder":"09424","distractor":"09420","target":"present","response":"present","rt":"87.600000143051","correct":true,"confidence":-1},{"trial_n":85,"span":5,"encoder":"66321","distractor":"66721","target":"absent","response":"present","rt":"21.599999904633","correct":false,"confidence":-1},{"trial_n":86,"span":4,"encoder":"3833","distractor":"2833","target":"present","response":"absent","rt":"11.899999856949","correct":false,"confidence":-1},{"trial_n":87,"span":3,"encoder":"351","distractor":"051","target":"absent","response":"absent","rt":"131.40000009537","correct":true,"confidence":-1},{"trial_n":88,"span":3,"encoder":"571","distractor":"971","target":"absent","response":"absent","rt":"90.899999856949","correct":true,"confidence":-1},{"trial_n":89,"span":4,"encoder":"9748","distractor":"9747","target":"absent","response":"absent","rt":"45.899999856949","correct":true,"confidence":-1},{"trial_n":90,"span":4,"encoder":"1473","distractor":"1453","target":"absent","response":"present","rt":"12.600000143051","correct":false,"confidence":-1},{"trial_n":91,"span":3,"encoder":"275","distractor":"295","target":"present","response":"present","rt":"650.79999995232","correct":true,"confidence":2},{"trial_n":92,"span":3,"encoder":"361","distractor":"061","target":"present","response":"present","rt":"1820.5999999046","correct":true,"confidence":5},{"trial_n":93,"span":4,"encoder":"9032","distractor":"4032","target":"absent","response":"absent","rt":"1763.2000000477","correct":true,"confidence":5},{"trial_n":94,"span":4,"encoder":"3423","distractor":"3483","target":"present","response":"present","rt":"2153","correct":true,"confidence":5},{"trial_n":95,"span":5,"encoder":"15376","distractor":"15316","target":"present","response":"present","rt":"2202.5999999046","correct":true,"confidence":5},{"trial_n":96,"span":5,"encoder":"71252","distractor":"71255","target":"present","response":"present","rt":"2836.7999999523","correct":true,"confidence":5},{"trial_n":97,"span":6,"encoder":"945666","distractor":"945660","target":"absent","response":"absent","rt":"1573.1000001431","correct":true,"confidence":5},{"trial_n":98,"span":6,"encoder":"226961","distractor":"226967","target":"absent","response":"absent","rt":"1929.4000000954","correct":true,"confidence":5},{"trial_n":99,"span":7,"encoder":"1167569","distractor":"1167529","target":"present","response":"present","rt":"2240.9000000954","correct":true,"confidence":5},{"trial_n":100,"span":7,"encoder":"9595493","distractor":"9597493","target":"present","response":"present","rt":"3066.7000000477","correct":true,"confidence":5},{"trial_n":101,"span":8,"encoder":"80304381","distractor":"80304341","target":"present","response":"present","rt":"3300.5","correct":true,"confidence":5},{"trial_n":102,"span":8,"encoder":"57892357","distractor":"87892357","target":"absent","response":"absent","rt":"5546.5","correct":true,"confidence":3},{"trial_n":103,"span":9,"encoder":"682311142","distractor":"882311142","target":"absent","response":"absent","rt":"693.79999995232","correct":true,"confidence":4},{"trial_n":104,"span":9,"encoder":"590769575","distractor":"550769575","target":"absent","response":"present","rt":"462.5","correct":false,"confidence":2},{"trial_n":105,"span":8,"encoder":"97179233","distractor":"37179233","target":"present","response":"present","rt":"4051.3000001907","correct":true,"confidence":3},{"trial_n":106,"span":8,"encoder":"75758493","distractor":"55758493","target":"absent","response":"present","rt":"2603.2999999523","correct":false,"confidence":5},{"trial_n":107,"span":7,"encoder":"3715842","distractor":"3715844","target":"absent","response":"present","rt":"4490.5","correct":false,"confidence":3},{"trial_n":108,"span":6,"encoder":"376899","distractor":"316899","target":"present","response":"present","rt":"1790","correct":true,"confidence":5},{"trial_n":109,"span":6,"encoder":"601221","distractor":"607221","target":"absent","response":"absent","rt":"1438.4000000954","correct":true,"confidence":5},{"trial_n":110,"span":7,"encoder":"8477570","distractor":"8477580","target":"absent","response":"absent","rt":"4166.7999999523","correct":true,"confidence":5},{"trial_n":111,"span":7,"encoder":"1783721","distractor":"1783021","target":"absent","response":"absent","rt":"349.70000004768","correct":true,"confidence":2},{"trial_n":112,"span":8,"encoder":"17423123","distractor":"17623123","target":"present","response":"present","rt":"2523","correct":true,"confidence":5},{"trial_n":113,"span":8,"encoder":"42604887","distractor":"42609887","target":"present","response":"absent","rt":"350.20000004768","correct":false,"confidence":1},{"trial_n":114,"span":7,"encoder":"6468565","distractor":"6468585","target":"absent","response":"present","rt":"454.39999985695","correct":false,"confidence":1},{"trial_n":115,"span":6,"encoder":"747252","distractor":"737252","target":"absent","response":"absent","rt":"538","correct":true,"confidence":1},{"trial_n":116,"span":6,"encoder":"012372","distractor":"062372","target":"absent","response":"absent","rt":"5622.9000000954","correct":true,"confidence":3},{"trial_n":117,"span":7,"encoder":"9210938","distractor":"6210938","target":"present","response":"present","rt":"5891","correct":true,"confidence":3},{"trial_n":118,"span":7,"encoder":"3966414","distractor":"3966314","target":"absent","response":"absent","rt":"4143.7000000477","correct":true,"confidence":4},{"trial_n":119,"span":8,"encoder":"19652823","distractor":"19657823","target":"absent","response":"absent","rt":"2896.7999999523","correct":true,"confidence":4},{"trial_n":120,"span":8,"encoder":"47345977","distractor":"47305977","target":"present","response":"present","rt":"6822.9000000954","correct":true,"confidence":2},{"trial_n":121,"span":9,"encoder":"984565122","distractor":"984535122","target":"present","response":"absent","rt":"7051.5","correct":false,"confidence":1},{"trial_n":122,"span":8,"encoder":"70953438","distractor":"80953438","target":"present","response":"present","rt":"774.70000004768","correct":true,"confidence":3},{"trial_n":123,"span":8,"encoder":"15065504","distractor":"15065514","target":"absent","response":"absent","rt":"1976.6999998093","correct":true,"confidence":2},{"trial_n":124,"span":9,"encoder":"212810125","distractor":"212812125","target":"present","response":"present","rt":"3197.2999999523","correct":true,"confidence":5},{"trial_n":125,"span":9,"encoder":"513716830","distractor":"543716830","target":"present","response":"absent","rt":"5797.7000000477","correct":false,"confidence":2},{"trial_n":126,"span":8,"encoder":"25562787","distractor":"25542787","target":"present","response":"present","rt":"4707.7999999523","correct":true,"confidence":4},{"trial_n":127,"span":8,"encoder":"45810020","distractor":"95810020","target":"absent","response":"absent","rt":"3443.2999999523","correct":true,"confidence":5},{"trial_n":128,"span":9,"encoder":"616852167","distractor":"611852167","target":"absent","response":"absent","rt":"2193","correct":true,"confidence":5},{"trial_n":129,"span":9,"encoder":"358054513","distractor":"358054533","target":"absent","response":"absent","rt":"5356","correct":true,"confidence":5},{"trial_n":130,"span":10,"encoder":"8124533764","distractor":"8124539764","target":"present","response":"absent","rt":"15817.599999905","correct":false,"confidence":3},{"trial_n":131,"span":9,"encoder":"244825500","distractor":"244825502","target":"present","response":"absent","rt":"4389.7999999523","correct":false,"confidence":3},{"trial_n":132,"span":8,"encoder":"06011805","distractor":"06011801","target":"absent","response":"absent","rt":"1583.7999999523","correct":true,"confidence":5},{"trial_n":133,"span":8,"encoder":"21545627","distractor":"71545627","target":"absent","response":"absent","rt":"6432.2000000477","correct":true,"confidence":3},{"trial_n":134,"span":9,"encoder":"723682816","distractor":"823682816","target":"present","response":"present","rt":"4629.5","correct":true,"confidence":5},{"trial_n":135,"span":9,"encoder":"136805807","distractor":"136800807","target":"absent","response":"absent","rt":"7798.3999998569","correct":true,"confidence":5},{"trial_n":136,"span":10,"encoder":"2675682989","distractor":"2672682989","target":"absent","response":"present","rt":"5323.1999998093","correct":false,"confidence":3},{"trial_n":137,"span":9,"encoder":"395863819","distractor":"395863519","target":"present","response":"present","rt":"3545.0999999046","correct":true,"confidence":1},{"trial_n":138,"span":9,"encoder":"973709428","distractor":"933709428","target":"present","response":"absent","rt":"365.40000009537","correct":false,"confidence":1},{"trial_n":139,"span":8,"encoder":"54212513","distractor":"54012513","target":"absent","response":"absent","rt":"422","correct":true,"confidence":1},{"trial_n":140,"span":8,"encoder":"35954502","distractor":"35954552","target":"present","response":"present","rt":"265.59999990463","correct":true,"confidence":2}]