[{"trial_n":1,"min":25,"max":230,"target":"present","response":"absent","rt":8339.3000001907,"correct":false,"confidence":-1},{"trial_n":2,"min":25,"max":230,"target":"present","response":"absent","rt":1545.7999999523,"correct":false,"confidence":-1},{"trial_n":3,"min":9,"max":246,"target":"absent","response":"present","rt":2094,"correct":false,"confidence":-1},{"trial_n":4,"min":0,"max":255,"target":"absent","response":"absent","rt":980,"correct":true,"confidence":-1},{"trial_n":5,"min":0,"max":255,"target":"present","response":"present","rt":1579.7000000477,"correct":true,"confidence":-1},{"trial_n":6,"min":16,"max":239,"target":"absent","response":"absent","rt":2677.5999999046,"correct":true,"confidence":-1},{"trial_n":7,"min":16,"max":239,"target":"present","response":"present","rt":505,"correct":true,"confidence":-1},{"trial_n":8,"min":32,"max":223,"target":"absent","response":"absent","rt":734.29999995232,"correct":true,"confidence":-1},{"trial_n":9,"min":32,"max":223,"target":"present","response":"present","rt":472.60000014305,"correct":true,"confidence":-1},{"trial_n":10,"min":48,"max":207,"target":"absent","response":"absent","rt":438.59999990463,"correct":true,"confidence":-1},{"trial_n":11,"min":48,"max":207,"target":"absent","response":"absent","rt":480.20000004768,"correct":true,"confidence":-1},{"trial_n":12,"min":56,"max":199,"target":"present","response":"present","rt":748.10000014305,"correct":true,"confidence":-1},{"trial_n":13,"min":56,"max":199,"target":"absent","response":"absent","rt":625.5,"correct":true,"confidence":-1},{"trial_n":14,"min":64,"max":191,"target":"present","response":"present","rt":700.59999990463,"correct":true,"confidence":-1},{"trial_n":15,"min":64,"max":191,"target":"absent","response":"absent","rt":382.39999985695,"correct":true,"confidence":-1},{"trial_n":16,"min":72,"max":183,"target":"present","response":"present","rt":2046.7000000477,"correct":true,"confidence":-1},{"trial_n":17,"min":72,"max":183,"target":"present","response":"absent","rt":537,"correct":false,"confidence":-1},{"trial_n":18,"min":64,"max":191,"target":"absent","response":"absent","rt":1081.5,"correct":true,"confidence":-1},{"trial_n":19,"min":64,"max":191,"target":"absent","response":"absent","rt":640.40000009537,"correct":true,"confidence":-1},{"trial_n":20,"min":72,"max":183,"target":"absent","response":"absent","rt":441.20000004768,"correct":true,"confidence":-1},{"trial_n":21,"min":72,"max":183,"target":"absent","response":"absent","rt":419.60000014305,"correct":true,"confidence":3},{"trial_n":22,"min":76,"max":179,"target":"present","response":"present","rt":826.40000009537,"correct":true,"confidence":3},{"trial_n":23,"min":76,"max":179,"target":"present","response":"absent","rt":535.20000004768,"correct":false,"confidence":2},{"trial_n":24,"min":72,"max":183,"target":"absent","response":"present","rt":2219.3999998569,"correct":false,"confidence":3},{"trial_n":25,"min":68,"max":187,"target":"present","response":"present","rt":728.70000004768,"correct":true,"confidence":3},{"trial_n":26,"min":68,"max":187,"target":"present","response":"present","rt":755.09999990463,"correct":true,"confidence":3},{"trial_n":27,"min":72,"max":183,"target":"present","response":"absent","rt":2562.2999999523,"correct":false,"confidence":3},{"trial_n":28,"min":68,"max":187,"target":"present","response":"present","rt":687.5,"correct":true,"confidence":4},{"trial_n":29,"min":68,"max":187,"target":"present","response":"present","rt":426.79999995232,"correct":true,"confidence":5},{"trial_n":30,"min":72,"max":183,"target":"present","response":"present","rt":2600,"correct":true,"confidence":4},{"trial_n":31,"min":72,"max":183,"target":"absent","response":"absent","rt":681.10000014305,"correct":true,"confidence":5},{"trial_n":32,"min":74,"max":181,"target":"absent","response":"absent","rt":554.70000004768,"correct":true,"confidence":5},{"trial_n":33,"min":74,"max":181,"target":"absent","response":"absent","rt":819.5,"correct":true,"confidence":5},{"trial_n":34,"min":76,"max":179,"target":"absent","response":"absent","rt":524.20000004768,"correct":true,"confidence":5},{"trial_n":35,"min":76,"max":179,"target":"absent","response":"absent","rt":1307.8000001907,"correct":true,"confidence":4},{"trial_n":36,"min":78,"max":177,"target":"present","response":"present","rt":401.40000009537,"correct":true,"confidence":3},{"trial_n":37,"min":78,"max":177,"target":"absent","response":"absent","rt":984.30000019073,"correct":true,"confidence":4},{"trial_n":38,"min":80,"max":175,"target":"absent","response":"absent","rt":750.80000019073,"correct":true,"confidence":4},{"trial_n":39,"min":80,"max":175,"target":"present","response":"absent","rt":1205.9000000954,"correct":false,"confidence":4},{"trial_n":40,"min":78,"max":177,"target":"absent","response":"absent","rt":663.09999990463,"correct":true,"confidence":4},{"trial_n":41,"min":78,"max":177,"target":"present","response":"absent","rt":607.70000004768,"correct":false,"confidence":3},{"trial_n":42,"min":77,"max":178,"target":"present","response":"present","rt":334.5,"correct":true,"confidence":4},{"trial_n":43,"min":77,"max":178,"target":"absent","response":"absent","rt":568.70000004768,"correct":true,"confidence":5},{"trial_n":44,"min":78,"max":177,"target":"present","response":"present","rt":1731.2000000477,"correct":true,"confidence":2},{"trial_n":45,"min":78,"max":177,"target":"present","response":"absent","rt":402,"correct":false,"confidence":1},{"trial_n":46,"min":77,"max":178,"target":"present","response":"present","rt":1376.7000000477,"correct":true,"confidence":4},{"trial_n":47,"min":77,"max":178,"target":"present","response":"absent","rt":709.30000019073,"correct":false,"confidence":5},{"trial_n":48,"min":76,"max":179,"target":"absent","response":"absent","rt":950.09999990463,"correct":true,"confidence":5},{"trial_n":49,"min":76,"max":179,"target":"absent","response":"absent","rt":428.70000004768,"correct":true,"confidence":5},{"trial_n":50,"min":77,"max":178,"target":"present","response":"absent","rt":484.80000019073,"correct":false,"confidence":5},{"trial_n":51,"min":76,"max":179,"target":"present","response":"present","rt":930,"correct":true,"confidence":4},{"trial_n":52,"min":76,"max":179,"target":"absent","response":"absent","rt":446,"correct":true,"confidence":4},{"trial_n":53,"min":77,"max":178,"target":"present","response":"absent","rt":661.10000014305,"correct":false,"confidence":4},{"trial_n":54,"min":76,"max":179,"target":"absent","response":"absent","rt":275.70000004768,"correct":true,"confidence":5},{"trial_n":55,"min":76,"max":179,"target":"present","response":"present","rt":620.10000014305,"correct":true,"confidence":5},{"trial_n":56,"min":77,"max":178,"target":"absent","response":"absent","rt":472.29999995232,"correct":true,"confidence":5},{"trial_n":57,"min":77,"max":178,"target":"absent","response":"absent","rt":855.79999995232,"correct":true,"confidence":4},{"trial_n":58,"min":78,"max":177,"target":"absent","response":"absent","rt":602.5,"correct":true,"confidence":5},{"trial_n":59,"min":78,"max":177,"target":"present","response":"present","rt":1016.8999998569,"correct":true,"confidence":3},{"trial_n":60,"min":79,"max":176,"target":"absent","response":"absent","rt":706,"correct":true,"confidence":3},{"trial_n":61,"min":79,"max":176,"target":"absent","response":"absent","rt":1191.2000000477,"correct":true,"confidence":4},{"trial_n":62,"min":80,"max":175,"target":"present","response":"absent","rt":804.29999995232,"correct":false,"confidence":3},{"trial_n":63,"min":79,"max":176,"target":"present","response":"absent","rt":1722.0999999046,"correct":false,"confidence":3},{"trial_n":64,"min":78,"max":177,"target":"present","response":"absent","rt":754.39999985695,"correct":false,"confidence":4},{"trial_n":65,"min":77,"max":178,"target":"present","response":"absent","rt":612.10000014305,"correct":false,"confidence":4},{"trial_n":66,"min":76,"max":179,"target":"present","response":"present","rt":917.60000014305,"correct":true,"confidence":4},{"trial_n":67,"min":76,"max":179,"target":"absent","response":"absent","rt":705.10000014305,"correct":true,"confidence":5},{"trial_n":68,"min":77,"max":178,"target":"present","response":"present","rt":787.79999995232,"correct":true,"confidence":3},{"trial_n":69,"min":77,"max":178,"target":"absent","response":"absent","rt":657,"correct":true,"confidence":4},{"trial_n":70,"min":78,"max":177,"target":"absent","response":"absent","rt":590.5,"correct":true,"confidence":4},{"trial_n":71,"min":41,"max":214,"target":"present","response":"present","rt":5553.3000001907,"correct":true,"confidence":-1},{"trial_n":72,"min":41,"max":214,"target":"present","response":"present","rt":1032.5,"correct":true,"confidence":-1},{"trial_n":73,"min":57,"max":198,"target":"absent","response":"absent","rt":70.099999904633,"correct":true,"confidence":-1},{"trial_n":74,"min":57,"max":198,"target":"absent","response":"absent","rt":701.89999985695,"correct":true,"confidence":-1},{"trial_n":75,"min":73,"max":182,"target":"present","response":"absent","rt":429.79999995232,"correct":false,"confidence":-1},{"trial_n":76,"min":57,"max":198,"target":"present","response":"present","rt":3695.9000000954,"correct":true,"confidence":-1},{"trial_n":77,"min":57,"max":198,"target":"absent","response":"absent","rt":832.5,"correct":true,"confidence":-1},{"trial_n":78,"min":73,"max":182,"target":"absent","response":"present","rt":1154.2999999523,"correct":false,"confidence":-1},{"trial_n":79,"min":57,"max":198,"target":"present","response":"present","rt":314.20000004768,"correct":true,"confidence":-1},{"trial_n":80,"min":57,"max":198,"target":"absent","response":"absent","rt":739.79999995232,"correct":true,"confidence":-1},{"trial_n":81,"min":65,"max":190,"target":"absent","response":"absent","rt":581.10000014305,"correct":true,"confidence":-1},{"trial_n":82,"min":65,"max":190,"target":"absent","response":"absent","rt":644.30000019073,"correct":true,"confidence":-1},{"trial_n":83,"min":73,"max":182,"target":"present","response":"present","rt":767.20000004768,"correct":true,"confidence":-1},{"trial_n":84,"min":73,"max":182,"target":"present","response":"present","rt":571,"correct":true,"confidence":-1},{"trial_n":85,"min":81,"max":174,"target":"present","response":"absent","rt":1322.2000000477,"correct":false,"confidence":-1},{"trial_n":86,"min":73,"max":182,"target":"present","response":"present","rt":173.39999985695,"correct":true,"confidence":-1},{"trial_n":87,"min":73,"max":182,"target":"present","response":"present","rt":1028.2000000477,"correct":true,"confidence":-1},{"trial_n":88,"min":81,"max":174,"target":"present","response":"present","rt":552.40000009537,"correct":true,"confidence":-1},{"trial_n":89,"min":81,"max":174,"target":"present","response":"present","rt":381.39999985695,"correct":true,"confidence":-1},{"trial_n":90,"min":89,"max":166,"target":"absent","response":"absent","rt":484.5,"correct":true,"confidence":-1},{"trial_n":91,"min":89,"max":166,"target":"absent","response":"present","rt":3170.8000001907,"correct":false,"confidence":3},{"trial_n":92,"min":85,"max":170,"target":"absent","response":"present","rt":949.79999995232,"correct":false,"confidence":3},{"trial_n":93,"min":81,"max":174,"target":"present","response":"present","rt":810.29999995232,"correct":true,"confidence":3},{"trial_n":94,"min":81,"max":174,"target":"present","response":"present","rt":347.70000004768,"correct":true,"confidence":5},{"trial_n":95,"min":85,"max":170,"target":"present","response":"present","rt":1262.5999999046,"correct":true,"confidence":3},{"trial_n":96,"min":85,"max":170,"target":"present","response":"present","rt":449,"correct":true,"confidence":1},{"trial_n":97,"min":89,"max":166,"target":"absent","response":"present","rt":950,"correct":false,"confidence":5},{"trial_n":98,"min":85,"max":170,"target":"absent","response":"present","rt":784.69999980927,"correct":false,"confidence":5},{"trial_n":99,"min":81,"max":174,"target":"present","response":"present","rt":368.10000014305,"correct":true,"confidence":5},{"trial_n":100,"min":81,"max":174,"target":"absent","response":"present","rt":1828.2999999523,"correct":false,"confidence":1},{"trial_n":101,"min":79,"max":176,"target":"present","response":"present","rt":202.10000014305,"correct":true,"confidence":5},{"trial_n":102,"min":79,"max":176,"target":"absent","response":"present","rt":656.5,"correct":false,"confidence":5},{"trial_n":103,"min":77,"max":178,"target":"absent","response":"present","rt":3747,"correct":false,"confidence":4},{"trial_n":104,"min":75,"max":180,"target":"absent","response":"present","rt":426.5,"correct":false,"confidence":4},{"trial_n":105,"min":73,"max":182,"target":"absent","response":"present","rt":877.79999995232,"correct":false,"confidence":4},{"trial_n":106,"min":71,"max":184,"target":"present","response":"present","rt":337.5,"correct":true,"confidence":4},{"trial_n":107,"min":71,"max":184,"target":"present","response":"present","rt":555.09999990463,"correct":true,"confidence":4},{"trial_n":108,"min":73,"max":182,"target":"absent","response":"absent","rt":1538.3999998569,"correct":true,"confidence":4},{"trial_n":109,"min":73,"max":182,"target":"absent","response":"absent","rt":1200.7999999523,"correct":true,"confidence":4},{"trial_n":110,"min":75,"max":180,"target":"absent","response":"absent","rt":6028.5999999046,"correct":true,"confidence":4},{"trial_n":111,"min":75,"max":180,"target":"absent","response":"present","rt":418.20000004768,"correct":false,"confidence":3},{"trial_n":112,"min":74,"max":181,"target":"present","response":"present","rt":4008.7999999523,"correct":true,"confidence":4},{"trial_n":113,"min":74,"max":181,"target":"absent","response":"absent","rt":697.59999990463,"correct":true,"confidence":4},{"trial_n":114,"min":75,"max":180,"target":"absent","response":"present","rt":1115,"correct":false,"confidence":4},{"trial_n":115,"min":74,"max":181,"target":"present","response":"present","rt":716.70000004768,"correct":true,"confidence":4},{"trial_n":116,"min":74,"max":181,"target":"absent","response":"present","rt":362,"correct":false,"confidence":4},{"trial_n":117,"min":73,"max":182,"target":"present","response":"present","rt":226.40000009537,"correct":true,"confidence":4},{"trial_n":118,"min":73,"max":182,"target":"present","response":"present","rt":389.09999990463,"correct":true,"confidence":4},{"trial_n":119,"min":74,"max":181,"target":"present","response":"present","rt":317.5,"correct":true,"confidence":4},{"trial_n":120,"min":74,"max":181,"target":"absent","response":"present","rt":578.60000014305,"correct":false,"confidence":4},{"trial_n":121,"min":73,"max":182,"target":"present","response":"present","rt":666.70000004768,"correct":true,"confidence":4},{"trial_n":122,"min":73,"max":182,"target":"absent","response":"absent","rt":769.90000009537,"correct":true,"confidence":4},{"trial_n":123,"min":74,"max":181,"target":"absent","response":"absent","rt":6496.5999999046,"correct":true,"confidence":3},{"trial_n":124,"min":74,"max":181,"target":"present","response":"present","rt":585.40000009537,"correct":true,"confidence":4},{"trial_n":125,"min":75,"max":180,"target":"present","response":"present","rt":901.89999985695,"correct":true,"confidence":3},{"trial_n":126,"min":75,"max":180,"target":"present","response":"present","rt":693.5,"correct":true,"confidence":3},{"trial_n":127,"min":76,"max":179,"target":"absent","response":"absent","rt":1146.4000000954,"correct":true,"confidence":3},{"trial_n":128,"min":76,"max":179,"target":"absent","response":"absent","rt":787.80000019073,"correct":true,"confidence":4},{"trial_n":129,"min":77,"max":178,"target":"present","response":"present","rt":427.29999995232,"correct":true,"confidence":3},{"trial_n":130,"min":77,"max":178,"target":"present","response":"present","rt":2016.4000000954,"correct":true,"confidence":5},{"trial_n":131,"min":78,"max":177,"target":"absent","response":"absent","rt":1086.7999999523,"correct":true,"confidence":4},{"trial_n":132,"min":78,"max":177,"target":"absent","response":"present","rt":2154.7999999523,"correct":false,"confidence":1},{"trial_n":133,"min":77,"max":178,"target":"absent","response":"present","rt":948.79999995232,"correct":false,"confidence":4},{"trial_n":134,"min":76,"max":179,"target":"present","response":"present","rt":1110.5,"correct":true,"confidence":5},{"trial_n":135,"min":76,"max":179,"target":"absent","response":"present","rt":1568.5,"correct":false,"confidence":1},{"trial_n":136,"min":75,"max":180,"target":"present","response":"present","rt":543,"correct":true,"confidence":5},{"trial_n":137,"min":75,"max":180,"target":"absent","response":"absent","rt":1670.6000001431,"correct":true,"confidence":1},{"trial_n":138,"min":76,"max":179,"target":"present","response":"present","rt":3240.4000000954,"correct":true,"confidence":5},{"trial_n":139,"min":76,"max":179,"target":"present","response":"absent","rt":1479.7000000477,"correct":false,"confidence":1},{"trial_n":140,"min":75,"max":180,"target":"present","response":"present","rt":382.39999985695,"correct":true,"confidence":5}]