[{"trial_n":1,"span":8,"encoder":"98497356","distractor":"98497396","target":"present","response":"present","rt":"6028.5","correct":true,"confidence":-1},{"trial_n":2,"span":8,"encoder":"99710120","distractor":"99770120","target":"present","response":"absent","rt":"2463","correct":false,"confidence":-1},{"trial_n":3,"span":6,"encoder":"396689","distractor":"396389","target":"absent","response":"absent","rt":"1973.7000000477","correct":true,"confidence":-1},{"trial_n":4,"span":6,"encoder":"406231","distractor":"106231","target":"absent","response":"absent","rt":"1220.0999999046","correct":true,"confidence":-1},{"trial_n":5,"span":8,"encoder":"30521285","distractor":"30528285","target":"present","response":"absent","rt":"927.89999985695","correct":false,"confidence":-1},{"trial_n":6,"span":6,"encoder":"201221","distractor":"201222","target":"absent","response":"absent","rt":"425.39999985695","correct":true,"confidence":-1},{"trial_n":7,"span":6,"encoder":"084130","distractor":"084230","target":"present","response":"present","rt":"3575.5999999046","correct":true,"confidence":-1},{"trial_n":8,"span":8,"encoder":"39187240","distractor":"49187240","target":"present","response":"present","rt":"1950.1999998093","correct":true,"confidence":-1},{"trial_n":9,"span":8,"encoder":"18846152","distractor":"18846452","target":"present","response":"present","rt":"1496.5999999046","correct":true,"confidence":-1},{"trial_n":10,"span":10,"encoder":"2056797967","distractor":"2006797967","target":"present","response":"present","rt":"1230.1999998093","correct":true,"confidence":-1},{"trial_n":11,"span":10,"encoder":"4059837650","distractor":"4051837650","target":"present","response":"present","rt":"1511.6999998093","correct":true,"confidence":-1},{"trial_n":12,"span":11,"encoder":"43994004530","distractor":"43998004530","target":"present","response":"present","rt":"1098","correct":true,"confidence":-1},{"trial_n":13,"span":11,"encoder":"41713821262","distractor":"41763821262","target":"present","response":"present","rt":"723.5","correct":true,"confidence":-1},{"trial_n":14,"span":12,"encoder":"215323797694","distractor":"215423797694","target":"present","response":"present","rt":"337","correct":true,"confidence":-1},{"trial_n":15,"span":12,"encoder":"690912299206","distractor":"690912296206","target":"present","response":"present","rt":"1017.5999999046","correct":true,"confidence":-1},{"trial_n":16,"span":13,"encoder":"4632169513250","distractor":"4632169514250","target":"present","response":"present","rt":"1053.0999999046","correct":true,"confidence":-1},{"trial_n":17,"span":13,"encoder":"0224003847505","distractor":"0224003847205","target":"present","response":"absent","rt":"1141.2999999523","correct":false,"confidence":-1},{"trial_n":18,"span":12,"encoder":"364858111817","distractor":"364858111217","target":"absent","response":"absent","rt":"832.90000009537","correct":true,"confidence":-1},{"trial_n":19,"span":12,"encoder":"028301263418","distractor":"228301263418","target":"absent","response":"absent","rt":"1233.3999998569","correct":true,"confidence":-1},{"trial_n":20,"span":13,"encoder":"6201999790789","distractor":"0201999790789","target":"absent","response":"absent","rt":"532.79999995232","correct":true,"confidence":-1},{"trial_n":21,"span":13,"encoder":"3501614355097","distractor":"3501614855097","target":"present","response":"absent","rt":"2597.1000001431","correct":false,"confidence":1},{"trial_n":22,"span":12,"encoder":"626495268300","distractor":"626465268300","target":"absent","response":"absent","rt":"2579.2999999523","correct":true,"confidence":1},{"trial_n":23,"span":12,"encoder":"511993496593","distractor":"511993496893","target":"present","response":"absent","rt":"416.29999995232","correct":false,"confidence":1},{"trial_n":24,"span":11,"encoder":"88577860891","distractor":"88577860191","target":"present","response":"absent","rt":"872.79999995232","correct":false,"confidence":1},{"trial_n":25,"span":10,"encoder":"0738188440","distractor":"0738188449","target":"present","response":"absent","rt":"6765.2999999523","correct":false,"confidence":1},{"trial_n":26,"span":9,"encoder":"288258251","distractor":"288254251","target":"absent","response":"absent","rt":"3330.3999998569","correct":true,"confidence":1},{"trial_n":27,"span":9,"encoder":"987738296","distractor":"987733296","target":"absent","response":"absent","rt":"566.20000004768","correct":true,"confidence":1},{"trial_n":28,"span":10,"encoder":"1653878028","distractor":"1653978028","target":"present","response":"present","rt":"319.29999995232","correct":true,"confidence":1},{"trial_n":29,"span":10,"encoder":"3732040782","distractor":"3732010782","target":"present","response":"absent","rt":"756.39999985695","correct":false,"confidence":1},{"trial_n":30,"span":9,"encoder":"774012579","distractor":"774012179","target":"absent","response":"present","rt":"485.90000009537","correct":false,"confidence":1},{"trial_n":31,"span":8,"encoder":"56438054","distractor":"56435054","target":"absent","response":"present","rt":"384.60000014305","correct":false,"confidence":1},{"trial_n":32,"span":7,"encoder":"9492132","distractor":"9992132","target":"present","response":"absent","rt":"656","correct":false,"confidence":1},{"trial_n":33,"span":6,"encoder":"418816","distractor":"418846","target":"present","response":"present","rt":"326.5","correct":true,"confidence":1},{"trial_n":34,"span":6,"encoder":"654747","distractor":"654717","target":"absent","response":"absent","rt":"347.89999985695","correct":true,"confidence":1},{"trial_n":35,"span":7,"encoder":"9416026","distractor":"9416726","target":"present","response":"present","rt":"357.5","correct":true,"confidence":1},{"trial_n":36,"span":7,"encoder":"2294046","distractor":"2299046","target":"absent","response":"absent","rt":"349","correct":true,"confidence":1},{"trial_n":37,"span":8,"encoder":"25998833","distractor":"25998837","target":"present","response":"present","rt":"2268.8000001907","correct":true,"confidence":1},{"trial_n":38,"span":8,"encoder":"01900411","distractor":"01990411","target":"absent","response":"absent","rt":"445.09999990463","correct":true,"confidence":1},{"trial_n":39,"span":9,"encoder":"754603601","distractor":"854603601","target":"absent","response":"present","rt":"188.69999980927","correct":false,"confidence":1},{"trial_n":40,"span":8,"encoder":"81001330","distractor":"81001530","target":"present","response":"absent","rt":"282.79999995232","correct":false,"confidence":1},{"trial_n":41,"span":7,"encoder":"5954528","distractor":"2954528","target":"absent","response":"absent","rt":"411.90000009537","correct":true,"confidence":1},{"trial_n":42,"span":7,"encoder":"5394904","distractor":"5394902","target":"absent","response":"absent","rt":"414.09999990463","correct":true,"confidence":1},{"trial_n":43,"span":8,"encoder":"11630569","distractor":"19630569","target":"present","response":"absent","rt":"366.79999995232","correct":false,"confidence":1},{"trial_n":44,"span":7,"encoder":"3380478","distractor":"3380408","target":"present","response":"present","rt":"322.79999995232","correct":true,"confidence":1},{"trial_n":45,"span":7,"encoder":"6565858","distractor":"6565358","target":"present","response":"present","rt":"506","correct":true,"confidence":1},{"trial_n":46,"span":8,"encoder":"66070697","distractor":"66073697","target":"present","response":"present","rt":"1228","correct":true,"confidence":1},{"trial_n":47,"span":8,"encoder":"79803991","distractor":"89803991","target":"absent","response":"present","rt":"1829.6000001431","correct":false,"confidence":1},{"trial_n":48,"span":7,"encoder":"2677913","distractor":"4677913","target":"absent","response":"present","rt":"1236.2999999523","correct":false,"confidence":1},{"trial_n":49,"span":6,"encoder":"973360","distractor":"973560","target":"absent","response":"present","rt":"3058.4000000954","correct":false,"confidence":1},{"trial_n":50,"span":5,"encoder":"93022","distractor":"53022","target":"absent","response":"present","rt":"2187.5999999046","correct":false,"confidence":1},{"trial_n":51,"span":4,"encoder":"6871","distractor":"6821","target":"absent","response":"present","rt":"7308.2999999523","correct":false,"confidence":1},{"trial_n":52,"span":3,"encoder":"227","distractor":"267","target":"absent","response":"present","rt":"4731.6999998093","correct":false,"confidence":1},{"trial_n":53,"span":2,"encoder":"74","distractor":"70","target":"absent","response":"present","rt":"676.30000019073","correct":false,"confidence":1},{"trial_n":54,"span":2,"encoder":"93","distractor":"91","target":"present","response":"absent","rt":"2071.2999999523","correct":false,"confidence":1},{"trial_n":55,"span":2,"encoder":"83","distractor":"82","target":"present","response":"present","rt":"1083.5999999046","correct":true,"confidence":1},{"trial_n":56,"span":2,"encoder":"98","distractor":"38","target":"absent","response":"absent","rt":"966.5","correct":true,"confidence":1},{"trial_n":57,"span":3,"encoder":"603","distractor":"693","target":"absent","response":"absent","rt":"1186.6999998093","correct":true,"confidence":1},{"trial_n":58,"span":3,"encoder":"970","distractor":"976","target":"present","response":"present","rt":"965.39999985695","correct":true,"confidence":1},{"trial_n":59,"span":4,"encoder":"6783","distractor":"6789","target":"present","response":"present","rt":"1272.7999999523","correct":true,"confidence":1},{"trial_n":60,"span":4,"encoder":"7096","distractor":"7097","target":"absent","response":"absent","rt":"1143.1000001431","correct":true,"confidence":1},{"trial_n":61,"span":5,"encoder":"70303","distractor":"70353","target":"absent","response":"absent","rt":"1951.6000001431","correct":true,"confidence":1},{"trial_n":62,"span":5,"encoder":"85063","distractor":"85363","target":"absent","response":"absent","rt":"1880.2999999523","correct":true,"confidence":1},{"trial_n":63,"span":6,"encoder":"096598","distractor":"096398","target":"absent","response":"absent","rt":"5972","correct":true,"confidence":1},{"trial_n":64,"span":6,"encoder":"175654","distractor":"176654","target":"absent","response":"absent","rt":"1658","correct":true,"confidence":1},{"trial_n":65,"span":7,"encoder":"5425223","distractor":"5425233","target":"present","response":"absent","rt":"1976.6000001431","correct":false,"confidence":1},{"trial_n":66,"span":6,"encoder":"498232","distractor":"496232","target":"absent","response":"absent","rt":"555","correct":true,"confidence":1},{"trial_n":67,"span":6,"encoder":"687665","distractor":"687685","target":"present","response":"present","rt":"316.60000014305","correct":true,"confidence":1},{"trial_n":68,"span":7,"encoder":"0427844","distractor":"0477844","target":"absent","response":"absent","rt":"587.20000004768","correct":true,"confidence":1},{"trial_n":69,"span":7,"encoder":"7704216","distractor":"7734216","target":"absent","response":"present","rt":"1053.2999999523","correct":false,"confidence":1},{"trial_n":70,"span":6,"encoder":"387901","distractor":"387951","target":"present","response":"absent","rt":"18751.299999952","correct":false,"confidence":1},{"trial_n":71,"span":8,"encoder":"99379583","distractor":"99079583","target":"present","response":"absent","rt":"5765.6999998093","correct":false,"confidence":-1},{"trial_n":72,"span":7,"encoder":"5802211","distractor":"8802211","target":"present","response":"absent","rt":"419","correct":false,"confidence":-1},{"trial_n":73,"span":6,"encoder":"516431","distractor":"516421","target":"absent","response":"absent","rt":"254.5","correct":true,"confidence":-1},{"trial_n":74,"span":6,"encoder":"032431","distractor":"032491","target":"absent","response":"absent","rt":"1412","correct":true,"confidence":-1},{"trial_n":75,"span":7,"encoder":"3495975","distractor":"3495985","target":"present","response":"present","rt":"312.79999995232","correct":true,"confidence":-1},{"trial_n":76,"span":7,"encoder":"8408032","distractor":"1408032","target":"present","response":"present","rt":"3387.6999998093","correct":true,"confidence":-1},{"trial_n":77,"span":8,"encoder":"39562353","distractor":"39562303","target":"present","response":"present","rt":"3111.5999999046","correct":true,"confidence":-1},{"trial_n":78,"span":8,"encoder":"77030189","distractor":"77030689","target":"present","response":"present","rt":"3182.0999999046","correct":true,"confidence":-1},{"trial_n":79,"span":9,"encoder":"808287316","distractor":"808287306","target":"present","response":"present","rt":"466.59999990463","correct":true,"confidence":-1},{"trial_n":80,"span":9,"encoder":"745675002","distractor":"725675002","target":"absent","response":"present","rt":"348.19999980927","correct":false,"confidence":-1},{"trial_n":81,"span":8,"encoder":"77968969","distractor":"77968869","target":"present","response":"present","rt":"2360.9000000954","correct":true,"confidence":-1},{"trial_n":82,"span":8,"encoder":"62775180","distractor":"61775180","target":"absent","response":"present","rt":"5259.8999998569","correct":false,"confidence":-1},{"trial_n":83,"span":7,"encoder":"0246928","distractor":"0242928","target":"absent","response":"present","rt":"443.5","correct":false,"confidence":-1},{"trial_n":84,"span":6,"encoder":"513507","distractor":"513597","target":"absent","response":"absent","rt":"4395.0999999046","correct":true,"confidence":-1},{"trial_n":85,"span":6,"encoder":"516433","distractor":"513433","target":"present","response":"absent","rt":"456.70000004768","correct":false,"confidence":-1},{"trial_n":86,"span":5,"encoder":"42526","distractor":"42626","target":"present","response":"absent","rt":"8784.2999999523","correct":false,"confidence":-1},{"trial_n":87,"span":4,"encoder":"6227","distractor":"6221","target":"present","response":"present","rt":"602.5","correct":true,"confidence":-1},{"trial_n":88,"span":4,"encoder":"4244","distractor":"3244","target":"present","response":"present","rt":"1194.5","correct":true,"confidence":-1},{"trial_n":89,"span":5,"encoder":"14836","distractor":"14136","target":"absent","response":"absent","rt":"1356.2000000477","correct":true,"confidence":-1},{"trial_n":90,"span":5,"encoder":"20341","distractor":"20342","target":"absent","response":"absent","rt":"2531.5","correct":true,"confidence":-1},{"trial_n":91,"span":6,"encoder":"225488","distractor":"825488","target":"present","response":"present","rt":"2328.7999999523","correct":true,"confidence":1},{"trial_n":92,"span":6,"encoder":"861377","distractor":"867377","target":"absent","response":"absent","rt":"2885.9000000954","correct":true,"confidence":1},{"trial_n":93,"span":7,"encoder":"5891126","distractor":"6891126","target":"present","response":"present","rt":"4173.1000001431","correct":true,"confidence":1},{"trial_n":94,"span":7,"encoder":"7906099","distractor":"7106099","target":"absent","response":"present","rt":"2209.6000001431","correct":false,"confidence":1},{"trial_n":95,"span":6,"encoder":"209665","distractor":"201665","target":"absent","response":"absent","rt":"386.79999995232","correct":true,"confidence":1},{"trial_n":96,"span":6,"encoder":"904620","distractor":"004620","target":"present","response":"absent","rt":"11.899999856949","correct":false,"confidence":1},{"trial_n":97,"span":5,"encoder":"48700","distractor":"48706","target":"present","response":"absent","rt":"368.39999985695","correct":false,"confidence":1},{"trial_n":98,"span":4,"encoder":"1258","distractor":"1252","target":"absent","response":"present","rt":"355.40000009537","correct":false,"confidence":1},{"trial_n":99,"span":3,"encoder":"822","distractor":"821","target":"absent","response":"absent","rt":"302.09999990463","correct":true,"confidence":1},{"trial_n":100,"span":3,"encoder":"747","distractor":"347","target":"present","response":"absent","rt":"406","correct":false,"confidence":1},{"trial_n":101,"span":2,"encoder":"06","distractor":"36","target":"absent","response":"present","rt":"369.60000014305","correct":false,"confidence":1},{"trial_n":102,"span":2,"encoder":"37","distractor":"67","target":"absent","response":"absent","rt":"835.40000009537","correct":true,"confidence":1},{"trial_n":103,"span":2,"encoder":"12","distractor":"72","target":"absent","response":"present","rt":"2269.2999999523","correct":false,"confidence":1},{"trial_n":104,"span":2,"encoder":"90","distractor":"10","target":"present","response":"present","rt":"1175.2000000477","correct":true,"confidence":1},{"trial_n":105,"span":2,"encoder":"94","distractor":"92","target":"absent","response":"absent","rt":"1100.7000000477","correct":true,"confidence":1},{"trial_n":106,"span":3,"encoder":"252","distractor":"202","target":"present","response":"present","rt":"1957.0999999046","correct":true,"confidence":1},{"trial_n":107,"span":3,"encoder":"735","distractor":"135","target":"present","response":"present","rt":"1068.5","correct":true,"confidence":1},{"trial_n":108,"span":4,"encoder":"3792","distractor":"3292","target":"present","response":"present","rt":"1355","correct":true,"confidence":1},{"trial_n":109,"span":4,"encoder":"9875","distractor":"9855","target":"present","response":"present","rt":"970.79999995232","correct":true,"confidence":1},{"trial_n":110,"span":5,"encoder":"77028","distractor":"77128","target":"absent","response":"absent","rt":"2313.6000001431","correct":true,"confidence":1},{"trial_n":111,"span":5,"encoder":"78310","distractor":"78340","target":"present","response":"present","rt":"2871.8999998569","correct":true,"confidence":1},{"trial_n":112,"span":6,"encoder":"836019","distractor":"836119","target":"absent","response":"absent","rt":"2789.7000000477","correct":true,"confidence":1},{"trial_n":113,"span":6,"encoder":"683268","distractor":"693268","target":"present","response":"absent","rt":"1523.1999998093","correct":false,"confidence":1},{"trial_n":114,"span":5,"encoder":"65896","distractor":"67896","target":"absent","response":"absent","rt":"3964.9000000954","correct":true,"confidence":1},{"trial_n":115,"span":5,"encoder":"27957","distractor":"27927","target":"absent","response":"absent","rt":"68","correct":true,"confidence":1},{"trial_n":116,"span":6,"encoder":"233730","distractor":"233736","target":"absent","response":"absent","rt":"306.5","correct":true,"confidence":1},{"trial_n":117,"span":6,"encoder":"700752","distractor":"705752","target":"absent","response":"absent","rt":"432","correct":true,"confidence":1},{"trial_n":118,"span":7,"encoder":"5201951","distractor":"5201954","target":"present","response":"absent","rt":"277.19999980927","correct":false,"confidence":1},{"trial_n":119,"span":6,"encoder":"063932","distractor":"053932","target":"present","response":"present","rt":"387","correct":true,"confidence":1},{"trial_n":120,"span":6,"encoder":"031820","distractor":"051820","target":"present","response":"absent","rt":"399.70000004768","correct":false,"confidence":1},{"trial_n":121,"span":5,"encoder":"39045","distractor":"33045","target":"present","response":"absent","rt":"492.5","correct":false,"confidence":1},{"trial_n":122,"span":4,"encoder":"8875","distractor":"8871","target":"absent","response":"absent","rt":"349","correct":true,"confidence":1},{"trial_n":123,"span":4,"encoder":"7003","distractor":"9003","target":"absent","response":"present","rt":"411","correct":false,"confidence":1},{"trial_n":124,"span":3,"encoder":"721","distractor":"771","target":"present","response":"absent","rt":"348","correct":false,"confidence":1},{"trial_n":125,"span":2,"encoder":"38","distractor":"28","target":"absent","response":"absent","rt":"1174.7999999523","correct":true,"confidence":1},{"trial_n":126,"span":2,"encoder":"28","distractor":"23","target":"absent","response":"absent","rt":"809.39999985695","correct":true,"confidence":1},{"trial_n":127,"span":3,"encoder":"561","distractor":"061","target":"absent","response":"absent","rt":"956.20000004768","correct":true,"confidence":1},{"trial_n":128,"span":3,"encoder":"493","distractor":"494","target":"present","response":"present","rt":"2251.5999999046","correct":true,"confidence":1},{"trial_n":129,"span":4,"encoder":"7880","distractor":"7886","target":"absent","response":"absent","rt":"1089.4000000954","correct":true,"confidence":1},{"trial_n":130,"span":4,"encoder":"1372","distractor":"6372","target":"absent","response":"absent","rt":"74.299999952316","correct":true,"confidence":1},{"trial_n":131,"span":5,"encoder":"70823","distractor":"70863","target":"absent","response":"absent","rt":"417.60000014305","correct":true,"confidence":1},{"trial_n":132,"span":5,"encoder":"57962","distractor":"53962","target":"present","response":"absent","rt":"281.10000014305","correct":false,"confidence":1},{"trial_n":133,"span":4,"encoder":"3863","distractor":"2863","target":"absent","response":"absent","rt":"284.79999995232","correct":true,"confidence":1},{"trial_n":134,"span":4,"encoder":"1200","distractor":"9200","target":"present","response":"absent","rt":"271.40000009537","correct":false,"confidence":1},{"trial_n":135,"span":3,"encoder":"598","distractor":"588","target":"absent","response":"present","rt":"304.5","correct":false,"confidence":1},{"trial_n":136,"span":2,"encoder":"48","distractor":"78","target":"present","response":"absent","rt":"344.19999980927","correct":false,"confidence":1},{"trial_n":137,"span":2,"encoder":"13","distractor":"18","target":"absent","response":"absent","rt":"722","correct":true,"confidence":1},{"trial_n":138,"span":2,"encoder":"20","distractor":"30","target":"present","response":"present","rt":"680","correct":true,"confidence":1},{"trial_n":139,"span":3,"encoder":"916","distractor":"976","target":"present","response":"present","rt":"812.59999990463","correct":true,"confidence":1},{"trial_n":140,"span":3,"encoder":"812","distractor":"852","target":"present","response":"present","rt":"668.79999995232","correct":true,"confidence":1}]