[{"trial_n":1,"min":25,"max":230,"target":"present","response":"absent","rt":13302.400000095,"correct":false,"confidence":-1},{"trial_n":2,"min":25,"max":230,"target":"present","response":"present","rt":1024.4000000954,"correct":true,"confidence":-1},{"trial_n":3,"min":25,"max":230,"target":"absent","response":"absent","rt":716.5,"correct":true,"confidence":-1},{"trial_n":4,"min":41,"max":214,"target":"absent","response":"absent","rt":465.90000009537,"correct":true,"confidence":-1},{"trial_n":5,"min":41,"max":214,"target":"present","response":"present","rt":592.5,"correct":true,"confidence":-1},{"trial_n":6,"min":57,"max":198,"target":"absent","response":"absent","rt":483.60000014305,"correct":true,"confidence":-1},{"trial_n":7,"min":57,"max":198,"target":"absent","response":"absent","rt":370.70000004768,"correct":true,"confidence":-1},{"trial_n":8,"min":73,"max":182,"target":"absent","response":"absent","rt":322.79999995232,"correct":true,"confidence":-1},{"trial_n":9,"min":73,"max":182,"target":"present","response":"absent","rt":291.29999995232,"correct":false,"confidence":-1},{"trial_n":10,"min":57,"max":198,"target":"present","response":"present","rt":615.40000009537,"correct":true,"confidence":-1},{"trial_n":11,"min":57,"max":198,"target":"present","response":"present","rt":499.89999985695,"correct":true,"confidence":-1},{"trial_n":12,"min":65,"max":190,"target":"present","response":"present","rt":491.40000009537,"correct":true,"confidence":-1},{"trial_n":13,"min":65,"max":190,"target":"present","response":"present","rt":1094.5,"correct":true,"confidence":-1},{"trial_n":14,"min":73,"max":182,"target":"present","response":"present","rt":464.5,"correct":true,"confidence":-1},{"trial_n":15,"min":73,"max":182,"target":"absent","response":"absent","rt":523.20000004768,"correct":true,"confidence":-1},{"trial_n":16,"min":81,"max":174,"target":"present","response":"present","rt":643.90000009537,"correct":true,"confidence":-1},{"trial_n":17,"min":81,"max":174,"target":"absent","response":"absent","rt":487.70000004768,"correct":true,"confidence":-1},{"trial_n":18,"min":89,"max":166,"target":"present","response":"absent","rt":458.20000004768,"correct":false,"confidence":-1},{"trial_n":19,"min":81,"max":174,"target":"absent","response":"absent","rt":1112.2999999523,"correct":true,"confidence":-1},{"trial_n":20,"min":81,"max":174,"target":"absent","response":"absent","rt":472.10000014305,"correct":true,"confidence":-1},{"trial_n":21,"min":85,"max":170,"target":"absent","response":"present","rt":783.70000004768,"correct":false,"confidence":3},{"trial_n":22,"min":81,"max":174,"target":"absent","response":"absent","rt":1196.5999999046,"correct":true,"confidence":2},{"trial_n":23,"min":81,"max":174,"target":"present","response":"present","rt":3198.5,"correct":true,"confidence":2},{"trial_n":24,"min":85,"max":170,"target":"absent","response":"present","rt":1360.7000000477,"correct":false,"confidence":2},{"trial_n":25,"min":81,"max":174,"target":"absent","response":"present","rt":5300.2999999523,"correct":false,"confidence":3},{"trial_n":26,"min":77,"max":178,"target":"present","response":"present","rt":688.30000019073,"correct":true,"confidence":5},{"trial_n":27,"min":77,"max":178,"target":"present","response":"present","rt":730.20000004768,"correct":true,"confidence":4},{"trial_n":28,"min":81,"max":174,"target":"absent","response":"absent","rt":703.40000009537,"correct":true,"confidence":2},{"trial_n":29,"min":81,"max":174,"target":"absent","response":"absent","rt":1056,"correct":true,"confidence":3},{"trial_n":30,"min":85,"max":170,"target":"present","response":"present","rt":623.60000014305,"correct":true,"confidence":4},{"trial_n":31,"min":85,"max":170,"target":"absent","response":"present","rt":5714.5,"correct":false,"confidence":2},{"trial_n":32,"min":83,"max":172,"target":"present","response":"present","rt":999.10000014305,"correct":true,"confidence":3},{"trial_n":33,"min":83,"max":172,"target":"present","response":"present","rt":596.10000014305,"correct":true,"confidence":5},{"trial_n":34,"min":85,"max":170,"target":"present","response":"present","rt":581.80000019073,"correct":true,"confidence":5},{"trial_n":35,"min":85,"max":170,"target":"present","response":"present","rt":1441.5,"correct":true,"confidence":4},{"trial_n":36,"min":87,"max":168,"target":"present","response":"absent","rt":1427.4000000954,"correct":false,"confidence":3},{"trial_n":37,"min":85,"max":170,"target":"present","response":"present","rt":742.70000004768,"correct":true,"confidence":4},{"trial_n":38,"min":85,"max":170,"target":"absent","response":"absent","rt":726,"correct":true,"confidence":4},{"trial_n":39,"min":87,"max":168,"target":"absent","response":"absent","rt":696,"correct":true,"confidence":4},{"trial_n":40,"min":87,"max":168,"target":"present","response":"present","rt":1971.7999999523,"correct":true,"confidence":3},{"trial_n":41,"min":88,"max":167,"target":"present","response":"present","rt":3312.6000001431,"correct":true,"confidence":1},{"trial_n":42,"min":88,"max":167,"target":"present","response":"present","rt":646.09999990463,"correct":true,"confidence":4},{"trial_n":43,"min":89,"max":166,"target":"absent","response":"absent","rt":841.89999985695,"correct":true,"confidence":4},{"trial_n":44,"min":89,"max":166,"target":"absent","response":"absent","rt":684.70000004768,"correct":true,"confidence":3},{"trial_n":45,"min":90,"max":165,"target":"present","response":"present","rt":649.20000004768,"correct":true,"confidence":4},{"trial_n":46,"min":90,"max":165,"target":"present","response":"present","rt":595.59999990463,"correct":true,"confidence":4},{"trial_n":47,"min":91,"max":164,"target":"present","response":"present","rt":764.30000019073,"correct":true,"confidence":4},{"trial_n":48,"min":91,"max":164,"target":"absent","response":"absent","rt":632.5,"correct":true,"confidence":2},{"trial_n":49,"min":92,"max":163,"target":"present","response":"absent","rt":660.59999990463,"correct":false,"confidence":2},{"trial_n":50,"min":91,"max":164,"target":"absent","response":"absent","rt":609.60000014305,"correct":true,"confidence":3},{"trial_n":51,"min":91,"max":164,"target":"present","response":"absent","rt":1292.0999999046,"correct":false,"confidence":3},{"trial_n":52,"min":90,"max":165,"target":"absent","response":"absent","rt":632.29999995232,"correct":true,"confidence":3},{"trial_n":53,"min":90,"max":165,"target":"present","response":"absent","rt":616.20000004768,"correct":false,"confidence":4},{"trial_n":54,"min":89,"max":166,"target":"absent","response":"absent","rt":555.70000004768,"correct":true,"confidence":4},{"trial_n":55,"min":89,"max":166,"target":"present","response":"present","rt":3087.9000000954,"correct":true,"confidence":2},{"trial_n":56,"min":90,"max":165,"target":"absent","response":"absent","rt":700.40000009537,"correct":true,"confidence":2},{"trial_n":57,"min":90,"max":165,"target":"absent","response":"absent","rt":639.5,"correct":true,"confidence":3},{"trial_n":58,"min":91,"max":164,"target":"absent","response":"absent","rt":546.39999985695,"correct":true,"confidence":3},{"trial_n":59,"min":91,"max":164,"target":"present","response":"present","rt":2870.7000000477,"correct":true,"confidence":3},{"trial_n":60,"min":92,"max":163,"target":"absent","response":"absent","rt":597.20000004768,"correct":true,"confidence":3},{"trial_n":61,"min":92,"max":163,"target":"present","response":"absent","rt":1119.2000000477,"correct":false,"confidence":2},{"trial_n":62,"min":91,"max":164,"target":"present","response":"absent","rt":1586.0999999046,"correct":false,"confidence":2},{"trial_n":63,"min":90,"max":165,"target":"absent","response":"absent","rt":580.79999995232,"correct":true,"confidence":3},{"trial_n":64,"min":90,"max":165,"target":"absent","response":"absent","rt":492.5,"correct":true,"confidence":4},{"trial_n":65,"min":91,"max":164,"target":"present","response":"present","rt":6558.0999999046,"correct":true,"confidence":2},{"trial_n":66,"min":91,"max":164,"target":"absent","response":"absent","rt":617.70000004768,"correct":true,"confidence":4},{"trial_n":67,"min":92,"max":163,"target":"absent","response":"absent","rt":599.10000014305,"correct":true,"confidence":4},{"trial_n":68,"min":92,"max":163,"target":"absent","response":"absent","rt":514.59999990463,"correct":true,"confidence":4},{"trial_n":69,"min":93,"max":162,"target":"present","response":"present","rt":2216.7000000477,"correct":true,"confidence":2},{"trial_n":70,"min":93,"max":162,"target":"absent","response":"absent","rt":707.80000019073,"correct":true,"confidence":3},{"trial_n":71,"min":41,"max":214,"target":"present","response":"present","rt":1248.5999999046,"correct":true,"confidence":-1},{"trial_n":72,"min":41,"max":214,"target":"present","response":"present","rt":560.09999990463,"correct":true,"confidence":-1},{"trial_n":73,"min":57,"max":198,"target":"absent","response":"absent","rt":526.5,"correct":true,"confidence":-1},{"trial_n":74,"min":57,"max":198,"target":"absent","response":"absent","rt":709.60000014305,"correct":true,"confidence":-1},{"trial_n":75,"min":73,"max":182,"target":"present","response":"present","rt":538.5,"correct":true,"confidence":-1},{"trial_n":76,"min":73,"max":182,"target":"absent","response":"present","rt":548.39999985695,"correct":false,"confidence":-1},{"trial_n":77,"min":57,"max":198,"target":"absent","response":"absent","rt":556.5,"correct":true,"confidence":-1},{"trial_n":78,"min":57,"max":198,"target":"absent","response":"absent","rt":447,"correct":true,"confidence":-1},{"trial_n":79,"min":73,"max":182,"target":"absent","response":"absent","rt":521.60000014305,"correct":true,"confidence":-1},{"trial_n":80,"min":73,"max":182,"target":"present","response":"present","rt":519.70000004768,"correct":true,"confidence":-1},{"trial_n":81,"min":81,"max":174,"target":"absent","response":"absent","rt":1390.3999998569,"correct":true,"confidence":-1},{"trial_n":82,"min":81,"max":174,"target":"present","response":"present","rt":564.10000014305,"correct":true,"confidence":-1},{"trial_n":83,"min":89,"max":166,"target":"absent","response":"present","rt":925.79999995232,"correct":false,"confidence":-1},{"trial_n":84,"min":81,"max":174,"target":"present","response":"present","rt":624.90000009537,"correct":true,"confidence":-1},{"trial_n":85,"min":81,"max":174,"target":"present","response":"present","rt":1037.6000001431,"correct":true,"confidence":-1},{"trial_n":86,"min":89,"max":166,"target":"absent","response":"absent","rt":573.79999995232,"correct":true,"confidence":-1},{"trial_n":87,"min":89,"max":166,"target":"absent","response":"absent","rt":566.30000019073,"correct":true,"confidence":-1},{"trial_n":88,"min":97,"max":158,"target":"present","response":"present","rt":2515.2000000477,"correct":true,"confidence":-1},{"trial_n":89,"min":97,"max":158,"target":"absent","response":"present","rt":1155,"correct":false,"confidence":-1},{"trial_n":90,"min":89,"max":166,"target":"present","response":"absent","rt":1195.3999998569,"correct":false,"confidence":-1},{"trial_n":91,"min":85,"max":170,"target":"absent","response":"absent","rt":715,"correct":true,"confidence":2},{"trial_n":92,"min":85,"max":170,"target":"present","response":"present","rt":1783.5,"correct":true,"confidence":2},{"trial_n":93,"min":89,"max":166,"target":"present","response":"present","rt":712,"correct":true,"confidence":4},{"trial_n":94,"min":89,"max":166,"target":"present","response":"present","rt":628.10000014305,"correct":true,"confidence":5},{"trial_n":95,"min":93,"max":162,"target":"absent","response":"present","rt":962.5,"correct":false,"confidence":5},{"trial_n":96,"min":89,"max":166,"target":"present","response":"present","rt":575.80000019073,"correct":true,"confidence":5},{"trial_n":97,"min":89,"max":166,"target":"absent","response":"present","rt":1288.5,"correct":false,"confidence":3},{"trial_n":98,"min":85,"max":170,"target":"present","response":"present","rt":554.89999985695,"correct":true,"confidence":5},{"trial_n":99,"min":85,"max":170,"target":"present","response":"present","rt":573.29999995232,"correct":true,"confidence":5},{"trial_n":100,"min":89,"max":166,"target":"present","response":"present","rt":506.70000004768,"correct":true,"confidence":5},{"trial_n":101,"min":89,"max":166,"target":"absent","response":"absent","rt":755.29999995232,"correct":true,"confidence":4},{"trial_n":102,"min":91,"max":164,"target":"absent","response":"absent","rt":3687.9000000954,"correct":true,"confidence":1},{"trial_n":103,"min":91,"max":164,"target":"absent","response":"absent","rt":1184.6000001431,"correct":true,"confidence":3},{"trial_n":104,"min":93,"max":162,"target":"present","response":"present","rt":786.19999980927,"correct":true,"confidence":4},{"trial_n":105,"min":93,"max":162,"target":"present","response":"present","rt":908.79999995232,"correct":true,"confidence":5},{"trial_n":106,"min":95,"max":160,"target":"absent","response":"present","rt":883.20000004768,"correct":false,"confidence":3},{"trial_n":107,"min":93,"max":162,"target":"present","response":"present","rt":667.20000004768,"correct":true,"confidence":4},{"trial_n":108,"min":93,"max":162,"target":"present","response":"present","rt":1573.0999999046,"correct":true,"confidence":2},{"trial_n":109,"min":95,"max":160,"target":"absent","response":"absent","rt":821.70000004768,"correct":true,"confidence":3},{"trial_n":110,"min":95,"max":160,"target":"present","response":"present","rt":2756.5,"correct":true,"confidence":3},{"trial_n":111,"min":96,"max":159,"target":"absent","response":"present","rt":1960.2999999523,"correct":false,"confidence":2},{"trial_n":112,"min":95,"max":160,"target":"absent","response":"present","rt":748.30000019073,"correct":false,"confidence":4},{"trial_n":113,"min":94,"max":161,"target":"present","response":"absent","rt":1834,"correct":false,"confidence":2},{"trial_n":114,"min":93,"max":162,"target":"present","response":"present","rt":677.20000004768,"correct":true,"confidence":4},{"trial_n":115,"min":93,"max":162,"target":"present","response":"present","rt":562.40000009537,"correct":true,"confidence":4},{"trial_n":116,"min":94,"max":161,"target":"present","response":"present","rt":1271.5,"correct":true,"confidence":3},{"trial_n":117,"min":94,"max":161,"target":"absent","response":"present","rt":2278.8000001907,"correct":false,"confidence":2},{"trial_n":118,"min":93,"max":162,"target":"absent","response":"absent","rt":1436.1000001431,"correct":true,"confidence":3},{"trial_n":119,"min":93,"max":162,"target":"absent","response":"absent","rt":858.70000004768,"correct":true,"confidence":2},{"trial_n":120,"min":94,"max":161,"target":"absent","response":"present","rt":980.80000019073,"correct":false,"confidence":2},{"trial_n":121,"min":93,"max":162,"target":"present","response":"present","rt":719.59999990463,"correct":true,"confidence":4},{"trial_n":122,"min":93,"max":162,"target":"present","response":"present","rt":775.10000014305,"correct":true,"confidence":4},{"trial_n":123,"min":94,"max":161,"target":"absent","response":"absent","rt":784.90000009537,"correct":true,"confidence":2},{"trial_n":124,"min":94,"max":161,"target":"present","response":"present","rt":2070.7999999523,"correct":true,"confidence":1},{"trial_n":125,"min":95,"max":160,"target":"absent","response":"present","rt":1013.6000001431,"correct":false,"confidence":3},{"trial_n":126,"min":94,"max":161,"target":"absent","response":"absent","rt":1264.8000001907,"correct":true,"confidence":2},{"trial_n":127,"min":94,"max":161,"target":"absent","response":"present","rt":2319.1999998093,"correct":false,"confidence":1},{"trial_n":128,"min":93,"max":162,"target":"absent","response":"absent","rt":711,"correct":true,"confidence":3},{"trial_n":129,"min":93,"max":162,"target":"present","response":"present","rt":875.5,"correct":true,"confidence":2},{"trial_n":130,"min":94,"max":161,"target":"absent","response":"absent","rt":735.5,"correct":true,"confidence":4},{"trial_n":131,"min":94,"max":161,"target":"absent","response":"present","rt":840.69999980927,"correct":false,"confidence":2},{"trial_n":132,"min":93,"max":162,"target":"absent","response":"present","rt":607.5,"correct":false,"confidence":3},{"trial_n":133,"min":92,"max":163,"target":"present","response":"present","rt":804.59999990463,"correct":true,"confidence":3},{"trial_n":134,"min":92,"max":163,"target":"present","response":"present","rt":625.5,"correct":true,"confidence":3},{"trial_n":135,"min":93,"max":162,"target":"present","response":"present","rt":821.29999995232,"correct":true,"confidence":2},{"trial_n":136,"min":93,"max":162,"target":"present","response":"present","rt":2080.2000000477,"correct":true,"confidence":1},{"trial_n":137,"min":94,"max":161,"target":"absent","response":"present","rt":2314.7999999523,"correct":false,"confidence":1},{"trial_n":138,"min":93,"max":162,"target":"present","response":"present","rt":729.40000009537,"correct":true,"confidence":4},{"trial_n":139,"min":93,"max":162,"target":"present","response":"present","rt":605.70000004768,"correct":true,"confidence":5},{"trial_n":140,"min":94,"max":161,"target":"present","response":"present","rt":824.5,"correct":true,"confidence":3}]