[{"trial_n":1,"n_dots":4.25,"target":"right","response":"left","rt":3377.400000006,"correct":false,"confidence":-1},{"trial_n":2,"n_dots":4.25,"target":"right","response":"right","rt":4105.599999994,"correct":true,"confidence":-1},{"trial_n":3,"n_dots":4.25,"target":"left","response":"left","rt":489.5,"correct":true,"confidence":-1},{"trial_n":4,"n_dots":3.85,"target":"left","response":"left","rt":636.20000001788,"correct":true,"confidence":-1},{"trial_n":5,"n_dots":3.85,"target":"right","response":"left","rt":662.69999998808,"correct":false,"confidence":-1},{"trial_n":6,"n_dots":4.25,"target":"right","response":"right","rt":467.59999999404,"correct":true,"confidence":-1},{"trial_n":7,"n_dots":4.25,"target":"left","response":"left","rt":246.69999998808,"correct":true,"confidence":-1},{"trial_n":8,"n_dots":4.05,"target":"right","response":"right","rt":377.80000001192,"correct":true,"confidence":-1},{"trial_n":9,"n_dots":4.05,"target":"right","response":"left","rt":761.69999998808,"correct":false,"confidence":-1},{"trial_n":10,"n_dots":4.25,"target":"right","response":"right","rt":494.5,"correct":true,"confidence":-1},{"trial_n":11,"n_dots":4.25,"target":"left","response":"left","rt":241.80000001192,"correct":true,"confidence":-1},{"trial_n":12,"n_dots":4.05,"target":"left","response":"left","rt":428.89999997616,"correct":true,"confidence":-1},{"trial_n":13,"n_dots":4.05,"target":"left","response":"left","rt":369,"correct":true,"confidence":-1},{"trial_n":14,"n_dots":3.95,"target":"right","response":"right","rt":845,"correct":true,"confidence":-1},{"trial_n":15,"n_dots":3.95,"target":"left","response":"left","rt":1092.7999999821,"correct":true,"confidence":-1},{"trial_n":16,"n_dots":3.85,"target":"right","response":"right","rt":516.30000001192,"correct":true,"confidence":-1},{"trial_n":17,"n_dots":3.85,"target":"left","response":"left","rt":223.89999997616,"correct":true,"confidence":-1},{"trial_n":18,"n_dots":3.75,"target":"right","response":"left","rt":514.89999997616,"correct":false,"confidence":-1},{"trial_n":19,"n_dots":3.85,"target":"right","response":"right","rt":328.90000000596,"correct":true,"confidence":-1},{"trial_n":20,"n_dots":3.85,"target":"left","response":"left","rt":316.89999997616,"correct":true,"confidence":-1},{"trial_n":21,"n_dots":3.75,"target":"right","response":"right","rt":384.30000001192,"correct":true,"confidence":3},{"trial_n":22,"n_dots":3.75,"target":"left","response":"left","rt":403.5,"correct":true,"confidence":3},{"trial_n":23,"n_dots":3.65,"target":"left","response":"left","rt":424.59999999404,"correct":true,"confidence":3},{"trial_n":24,"n_dots":3.65,"target":"left","response":"left","rt":408.30000001192,"correct":true,"confidence":3},{"trial_n":25,"n_dots":3.55,"target":"left","response":"left","rt":593.19999998808,"correct":true,"confidence":4},{"trial_n":26,"n_dots":3.55,"target":"left","response":"left","rt":344.10000002384,"correct":true,"confidence":4},{"trial_n":27,"n_dots":3.45,"target":"right","response":"left","rt":1193.3000000119,"correct":false,"confidence":3},{"trial_n":28,"n_dots":3.55,"target":"left","response":"left","rt":493.79999998212,"correct":true,"confidence":3},{"trial_n":29,"n_dots":3.55,"target":"right","response":"right","rt":703.89999997616,"correct":true,"confidence":3},{"trial_n":30,"n_dots":3.45,"target":"left","response":"left","rt":1787.6999999881,"correct":true,"confidence":3},{"trial_n":31,"n_dots":3.45,"target":"left","response":"right","rt":1713.5,"correct":false,"confidence":2},{"trial_n":32,"n_dots":3.55,"target":"right","response":"right","rt":1288.2000000179,"correct":true,"confidence":2},{"trial_n":33,"n_dots":3.55,"target":"left","response":"left","rt":1266.2000000179,"correct":true,"confidence":2},{"trial_n":34,"n_dots":3.45,"target":"left","response":"left","rt":932.20000001788,"correct":true,"confidence":2},{"trial_n":35,"n_dots":3.45,"target":"right","response":"right","rt":844.40000000596,"correct":true,"confidence":2},{"trial_n":36,"n_dots":3.35,"target":"left","response":"left","rt":1162.1999999881,"correct":true,"confidence":2},{"trial_n":37,"n_dots":3.35,"target":"right","response":"right","rt":1940.099999994,"correct":true,"confidence":1},{"trial_n":38,"n_dots":3.25,"target":"right","response":"right","rt":2221.6999999881,"correct":true,"confidence":1},{"trial_n":39,"n_dots":3.25,"target":"right","response":"left","rt":597.19999998808,"correct":false,"confidence":2},{"trial_n":40,"n_dots":3.35,"target":"right","response":"right","rt":594.79999998212,"correct":true,"confidence":2},{"trial_n":41,"n_dots":3.35,"target":"left","response":"right","rt":1407.099999994,"correct":false,"confidence":2},{"trial_n":42,"n_dots":3.45,"target":"right","response":"right","rt":637.10000002384,"correct":true,"confidence":3},{"trial_n":43,"n_dots":3.45,"target":"left","response":"left","rt":635.89999997616,"correct":true,"confidence":3},{"trial_n":44,"n_dots":3.35,"target":"right","response":"right","rt":322.79999998212,"correct":true,"confidence":3},{"trial_n":45,"n_dots":3.35,"target":"right","response":"right","rt":510.09999999404,"correct":true,"confidence":3},{"trial_n":46,"n_dots":3.25,"target":"right","response":"left","rt":1699.599999994,"correct":false,"confidence":1},{"trial_n":47,"n_dots":3.35,"target":"left","response":"left","rt":1263,"correct":true,"confidence":1},{"trial_n":48,"n_dots":3.35,"target":"left","response":"left","rt":1277.8999999762,"correct":true,"confidence":1},{"trial_n":49,"n_dots":3.25,"target":"right","response":"right","rt":1241.3000000119,"correct":true,"confidence":1},{"trial_n":50,"n_dots":3.25,"target":"right","response":"left","rt":652.09999999404,"correct":false,"confidence":2},{"trial_n":51,"n_dots":3.35,"target":"left","response":"right","rt":1254,"correct":false,"confidence":1},{"trial_n":52,"n_dots":3.45,"target":"right","response":"left","rt":990.29999998212,"correct":false,"confidence":1},{"trial_n":53,"n_dots":3.55,"target":"left","response":"left","rt":399.30000001192,"correct":true,"confidence":3},{"trial_n":54,"n_dots":3.55,"target":"left","response":"left","rt":864.69999998808,"correct":true,"confidence":2},{"trial_n":55,"n_dots":3.45,"target":"right","response":"right","rt":2281.7999999821,"correct":true,"confidence":1},{"trial_n":56,"n_dots":3.45,"target":"left","response":"left","rt":635.79999998212,"correct":true,"confidence":1},{"trial_n":57,"n_dots":3.35,"target":"left","response":"left","rt":375.29999998212,"correct":true,"confidence":3},{"trial_n":58,"n_dots":3.35,"target":"right","response":"left","rt":933.5,"correct":false,"confidence":2},{"trial_n":59,"n_dots":3.45,"target":"left","response":"left","rt":384.39999997616,"correct":true,"confidence":2},{"trial_n":60,"n_dots":3.45,"target":"right","response":"right","rt":319.80000001192,"correct":true,"confidence":2},{"trial_n":61,"n_dots":3.35,"target":"left","response":"left","rt":285.89999997616,"correct":true,"confidence":2},{"trial_n":62,"n_dots":3.35,"target":"right","response":"right","rt":786.10000002384,"correct":true,"confidence":1},{"trial_n":63,"n_dots":3.25,"target":"left","response":"left","rt":279.69999998808,"correct":true,"confidence":2},{"trial_n":64,"n_dots":3.25,"target":"right","response":"left","rt":957.79999998212,"correct":false,"confidence":1},{"trial_n":65,"n_dots":3.35,"target":"left","response":"left","rt":684.59999999404,"correct":true,"confidence":2},{"trial_n":66,"n_dots":3.35,"target":"left","response":"right","rt":795.09999999404,"correct":false,"confidence":1},{"trial_n":67,"n_dots":3.45,"target":"right","response":"left","rt":655.40000000596,"correct":false,"confidence":1},{"trial_n":68,"n_dots":3.55,"target":"right","response":"left","rt":374.09999999404,"correct":false,"confidence":2},{"trial_n":69,"n_dots":3.65,"target":"right","response":"left","rt":1296.1999999881,"correct":false,"confidence":1},{"trial_n":70,"n_dots":3.75,"target":"left","response":"left","rt":498.19999998808,"correct":true,"confidence":3},{"trial_n":71,"n_dots":3.75,"target":"left","response":"left","rt":338.09999999404,"correct":true,"confidence":3},{"trial_n":72,"n_dots":3.65,"target":"left","response":"left","rt":353.19999998808,"correct":true,"confidence":3},{"trial_n":73,"n_dots":3.65,"target":"left","response":"left","rt":558.29999998212,"correct":true,"confidence":3},{"trial_n":74,"n_dots":3.55,"target":"left","response":"left","rt":494.39999997616,"correct":true,"confidence":2},{"trial_n":75,"n_dots":3.55,"target":"right","response":"left","rt":1456.3000000119,"correct":false,"confidence":1},{"trial_n":76,"n_dots":3.65,"target":"left","response":"left","rt":1205.3999999762,"correct":true,"confidence":2},{"trial_n":77,"n_dots":3.65,"target":"left","response":"left","rt":1480.599999994,"correct":true,"confidence":1},{"trial_n":78,"n_dots":3.55,"target":"right","response":"right","rt":581.20000001788,"correct":true,"confidence":1},{"trial_n":79,"n_dots":3.55,"target":"right","response":"right","rt":793.70000001788,"correct":true,"confidence":2},{"trial_n":80,"n_dots":3.45,"target":"left","response":"left","rt":358.5,"correct":true,"confidence":3},{"trial_n":81,"n_dots":3.45,"target":"right","response":"left","rt":537.80000001192,"correct":false,"confidence":1},{"trial_n":82,"n_dots":3.55,"target":"left","response":"left","rt":297.89999997616,"correct":true,"confidence":3},{"trial_n":83,"n_dots":3.55,"target":"left","response":"left","rt":382.09999999404,"correct":true,"confidence":4},{"trial_n":84,"n_dots":3.45,"target":"left","response":"left","rt":523.19999998808,"correct":true,"confidence":3},{"trial_n":85,"n_dots":3.45,"target":"left","response":"left","rt":279,"correct":true,"confidence":3},{"trial_n":86,"n_dots":3.35,"target":"left","response":"left","rt":225.29999998212,"correct":true,"confidence":3},{"trial_n":87,"n_dots":3.35,"target":"right","response":"left","rt":399.40000000596,"correct":false,"confidence":2},{"trial_n":88,"n_dots":3.45,"target":"right","response":"right","rt":1332.2999999821,"correct":true,"confidence":2},{"trial_n":89,"n_dots":3.45,"target":"left","response":"left","rt":281.29999998212,"correct":true,"confidence":2},{"trial_n":90,"n_dots":3.35,"target":"right","response":"left","rt":1128.599999994,"correct":false,"confidence":2},{"trial_n":91,"n_dots":3.45,"target":"right","response":"right","rt":1302.7999999821,"correct":true,"confidence":1},{"trial_n":92,"n_dots":3.45,"target":"left","response":"left","rt":219.60000002384,"correct":true,"confidence":3},{"trial_n":93,"n_dots":3.35,"target":"right","response":"right","rt":927.59999999404,"correct":true,"confidence":1},{"trial_n":94,"n_dots":3.35,"target":"left","response":"right","rt":701.09999999404,"correct":false,"confidence":2},{"trial_n":95,"n_dots":3.45,"target":"right","response":"right","rt":268.69999998808,"correct":true,"confidence":2},{"trial_n":96,"n_dots":3.45,"target":"left","response":"left","rt":1080.3000000119,"correct":true,"confidence":1},{"trial_n":97,"n_dots":3.35,"target":"right","response":"right","rt":486.69999998808,"correct":true,"confidence":2},{"trial_n":98,"n_dots":3.35,"target":"left","response":"left","rt":507.30000001192,"correct":true,"confidence":2},{"trial_n":99,"n_dots":3.25,"target":"right","response":"left","rt":356.80000001192,"correct":false,"confidence":2},{"trial_n":100,"n_dots":3.35,"target":"left","response":"right","rt":980.5,"correct":false,"confidence":1},{"trial_n":101,"n_dots":3.45,"target":"right","response":"right","rt":1427.2000000179,"correct":true,"confidence":1},{"trial_n":102,"n_dots":3.45,"target":"left","response":"left","rt":323.90000000596,"correct":true,"confidence":2},{"trial_n":103,"n_dots":3.35,"target":"right","response":"right","rt":1020.2999999821,"correct":true,"confidence":2},{"trial_n":104,"n_dots":3.35,"target":"right","response":"left","rt":302.89999997616,"correct":false,"confidence":1},{"trial_n":105,"n_dots":3.45,"target":"left","response":"left","rt":1067.599999994,"correct":true,"confidence":1},{"trial_n":106,"n_dots":3.45,"target":"right","response":"right","rt":1421.3000000119,"correct":true,"confidence":1},{"trial_n":107,"n_dots":3.35,"target":"right","response":"right","rt":751.19999998808,"correct":true,"confidence":1},{"trial_n":108,"n_dots":3.35,"target":"right","response":"left","rt":544.40000000596,"correct":false,"confidence":2},{"trial_n":109,"n_dots":3.45,"target":"left","response":"left","rt":1064.8999999762,"correct":true,"confidence":2},{"trial_n":110,"n_dots":3.45,"target":"right","response":"left","rt":392.79999998212,"correct":false,"confidence":2},{"trial_n":111,"n_dots":3.55,"target":"right","response":"right","rt":688.79999998212,"correct":true,"confidence":2},{"trial_n":112,"n_dots":3.55,"target":"left","response":"left","rt":399.89999997616,"correct":true,"confidence":3},{"trial_n":113,"n_dots":3.45,"target":"right","response":"left","rt":541.10000002384,"correct":false,"confidence":2},{"trial_n":114,"n_dots":3.55,"target":"right","response":"right","rt":811.90000000596,"correct":true,"confidence":2},{"trial_n":115,"n_dots":3.55,"target":"right","response":"left","rt":386,"correct":false,"confidence":2},{"trial_n":116,"n_dots":3.65,"target":"right","response":"right","rt":1175.6999999881,"correct":true,"confidence":1},{"trial_n":117,"n_dots":3.65,"target":"right","response":"left","rt":973.29999998212,"correct":false,"confidence":1},{"trial_n":118,"n_dots":3.75,"target":"left","response":"left","rt":1508.8000000119,"correct":true,"confidence":2},{"trial_n":119,"n_dots":3.75,"target":"left","response":"left","rt":434.90000000596,"correct":true,"confidence":2},{"trial_n":120,"n_dots":3.65,"target":"left","response":"left","rt":1561.900000006,"correct":true,"confidence":1}]