[{"trial_n":1,"min":25,"max":230,"target":"present","response":"present","rt":7258.1000000015,"correct":true,"confidence":-1},{"trial_n":2,"min":25,"max":230,"target":"present","response":"present","rt":976.70000000298,"correct":true,"confidence":-1},{"trial_n":3,"min":41,"max":214,"target":"absent","response":"absent","rt":292.90000000224,"correct":true,"confidence":-1},{"trial_n":4,"min":41,"max":214,"target":"absent","response":"absent","rt":193,"correct":true,"confidence":-1},{"trial_n":5,"min":57,"max":198,"target":"present","response":"present","rt":184.90000000224,"correct":true,"confidence":-1},{"trial_n":6,"min":57,"max":198,"target":"present","response":"present","rt":264.89999999851,"correct":true,"confidence":-1},{"trial_n":7,"min":73,"max":182,"target":"absent","response":"absent","rt":529.5,"correct":true,"confidence":-1},{"trial_n":8,"min":73,"max":182,"target":"present","response":"present","rt":292.60000000149,"correct":true,"confidence":-1},{"trial_n":9,"min":89,"max":166,"target":"present","response":"present","rt":361.39999999851,"correct":true,"confidence":-1},{"trial_n":10,"min":89,"max":166,"target":"absent","response":"present","rt":303.59999999776,"correct":false,"confidence":-1},{"trial_n":11,"min":81,"max":174,"target":"absent","response":"absent","rt":381.69999999925,"correct":true,"confidence":-1},{"trial_n":12,"min":81,"max":174,"target":"absent","response":"absent","rt":278.09999999776,"correct":true,"confidence":-1},{"trial_n":13,"min":89,"max":166,"target":"absent","response":"absent","rt":169.30000000075,"correct":true,"confidence":-1},{"trial_n":14,"min":89,"max":166,"target":"present","response":"absent","rt":178.80000000075,"correct":false,"confidence":-1},{"trial_n":15,"min":81,"max":174,"target":"present","response":"absent","rt":123.19999999925,"correct":false,"confidence":-1},{"trial_n":16,"min":73,"max":182,"target":"present","response":"present","rt":261.09999999776,"correct":true,"confidence":-1},{"trial_n":17,"min":73,"max":182,"target":"present","response":"present","rt":302.5,"correct":true,"confidence":-1},{"trial_n":18,"min":81,"max":174,"target":"present","response":"present","rt":228.69999999925,"correct":true,"confidence":-1},{"trial_n":19,"min":81,"max":174,"target":"absent","response":"absent","rt":750.89999999851,"correct":true,"confidence":-1},{"trial_n":20,"min":89,"max":166,"target":"present","response":"present","rt":383,"correct":true,"confidence":-1},{"trial_n":21,"min":89,"max":166,"target":"absent","response":"absent","rt":322.80000000075,"correct":true,"confidence":3},{"trial_n":22,"min":93,"max":162,"target":"absent","response":"absent","rt":962.10000000149,"correct":true,"confidence":3},{"trial_n":23,"min":93,"max":162,"target":"present","response":"absent","rt":981,"correct":false,"confidence":3},{"trial_n":24,"min":89,"max":166,"target":"absent","response":"absent","rt":1382.5,"correct":true,"confidence":3},{"trial_n":25,"min":89,"max":166,"target":"present","response":"present","rt":1669.8999999985,"correct":true,"confidence":1},{"trial_n":26,"min":93,"max":162,"target":"absent","response":"absent","rt":905.30000000075,"correct":true,"confidence":1},{"trial_n":27,"min":93,"max":162,"target":"absent","response":"absent","rt":766.40000000224,"correct":true,"confidence":1},{"trial_n":28,"min":97,"max":158,"target":"absent","response":"absent","rt":1235.8000000007,"correct":true,"confidence":1},{"trial_n":29,"min":97,"max":158,"target":"present","response":"present","rt":913,"correct":true,"confidence":1},{"trial_n":30,"min":101,"max":154,"target":"present","response":"absent","rt":805.60000000149,"correct":false,"confidence":1},{"trial_n":31,"min":99,"max":156,"target":"present","response":"present","rt":1352.6000000015,"correct":true,"confidence":3},{"trial_n":32,"min":99,"max":156,"target":"present","response":"absent","rt":778.69999999925,"correct":false,"confidence":1},{"trial_n":33,"min":97,"max":158,"target":"absent","response":"absent","rt":1557.3999999985,"correct":true,"confidence":1},{"trial_n":34,"min":97,"max":158,"target":"absent","response":"absent","rt":466.30000000075,"correct":true,"confidence":1},{"trial_n":35,"min":99,"max":156,"target":"present","response":"absent","rt":448.09999999776,"correct":false,"confidence":1},{"trial_n":36,"min":97,"max":158,"target":"absent","response":"absent","rt":381.10000000149,"correct":true,"confidence":1},{"trial_n":37,"min":97,"max":158,"target":"absent","response":"absent","rt":432.5,"correct":true,"confidence":1},{"trial_n":38,"min":99,"max":156,"target":"present","response":"absent","rt":745.90000000224,"correct":false,"confidence":1},{"trial_n":39,"min":97,"max":158,"target":"absent","response":"absent","rt":296.80000000075,"correct":true,"confidence":1},{"trial_n":40,"min":97,"max":158,"target":"absent","response":"absent","rt":275.90000000224,"correct":true,"confidence":1},{"trial_n":41,"min":98,"max":157,"target":"absent","response":"absent","rt":473.69999999925,"correct":true,"confidence":1},{"trial_n":42,"min":98,"max":157,"target":"absent","response":"absent","rt":352,"correct":true,"confidence":1},{"trial_n":43,"min":99,"max":156,"target":"absent","response":"absent","rt":407.19999999925,"correct":true,"confidence":1},{"trial_n":44,"min":99,"max":156,"target":"absent","response":"absent","rt":788.60000000149,"correct":true,"confidence":1},{"trial_n":45,"min":100,"max":155,"target":"absent","response":"absent","rt":1115.8000000007,"correct":true,"confidence":4},{"trial_n":46,"min":100,"max":155,"target":"present","response":"absent","rt":870.90000000224,"correct":false,"confidence":5},{"trial_n":47,"min":99,"max":156,"target":"absent","response":"absent","rt":276.59999999776,"correct":true,"confidence":5},{"trial_n":48,"min":99,"max":156,"target":"present","response":"absent","rt":364.10000000149,"correct":false,"confidence":5},{"trial_n":49,"min":98,"max":157,"target":"absent","response":"absent","rt":418.30000000075,"correct":true,"confidence":5},{"trial_n":50,"min":98,"max":157,"target":"absent","response":"absent","rt":314.69999999925,"correct":true,"confidence":5},{"trial_n":51,"min":99,"max":156,"target":"present","response":"absent","rt":336.29999999702,"correct":false,"confidence":1},{"trial_n":52,"min":98,"max":157,"target":"present","response":"absent","rt":259.30000000075,"correct":false,"confidence":5},{"trial_n":53,"min":97,"max":158,"target":"present","response":"absent","rt":275.40000000224,"correct":false,"confidence":5},{"trial_n":54,"min":96,"max":159,"target":"present","response":"absent","rt":329.10000000149,"correct":false,"confidence":5},{"trial_n":55,"min":95,"max":160,"target":"present","response":"absent","rt":348.09999999776,"correct":false,"confidence":5},{"trial_n":56,"min":94,"max":161,"target":"present","response":"absent","rt":289.39999999851,"correct":false,"confidence":5},{"trial_n":57,"min":93,"max":162,"target":"present","response":"absent","rt":244.40000000224,"correct":false,"confidence":5},{"trial_n":58,"min":92,"max":163,"target":"absent","response":"absent","rt":273.80000000075,"correct":true,"confidence":5},{"trial_n":59,"min":92,"max":163,"target":"present","response":"absent","rt":219.5,"correct":false,"confidence":5},{"trial_n":60,"min":91,"max":164,"target":"present","response":"absent","rt":326.5,"correct":false,"confidence":5},{"trial_n":61,"min":90,"max":165,"target":"absent","response":"absent","rt":255,"correct":true,"confidence":5},{"trial_n":62,"min":90,"max":165,"target":"absent","response":"absent","rt":416.09999999776,"correct":true,"confidence":5},{"trial_n":63,"min":91,"max":164,"target":"present","response":"absent","rt":284,"correct":false,"confidence":5},{"trial_n":64,"min":90,"max":165,"target":"absent","response":"absent","rt":306.69999999925,"correct":true,"confidence":5},{"trial_n":65,"min":90,"max":165,"target":"present","response":"absent","rt":305.39999999851,"correct":false,"confidence":1},{"trial_n":66,"min":89,"max":166,"target":"present","response":"present","rt":1269.4000000022,"correct":true,"confidence":3},{"trial_n":67,"min":89,"max":166,"target":"present","response":"present","rt":1173.6999999993,"correct":true,"confidence":3},{"trial_n":68,"min":90,"max":165,"target":"present","response":"absent","rt":1076.9000000022,"correct":false,"confidence":1},{"trial_n":69,"min":89,"max":166,"target":"absent","response":"absent","rt":976.80000000075,"correct":true,"confidence":5},{"trial_n":70,"min":89,"max":166,"target":"absent","response":"absent","rt":411.69999999925,"correct":true,"confidence":5},{"trial_n":71,"min":41,"max":214,"target":"present","response":"present","rt":2855.3000000007,"correct":true,"confidence":-1},{"trial_n":72,"min":41,"max":214,"target":"present","response":"present","rt":469.5,"correct":true,"confidence":-1},{"trial_n":73,"min":57,"max":198,"target":"absent","response":"absent","rt":359.09999999776,"correct":true,"confidence":-1},{"trial_n":74,"min":57,"max":198,"target":"absent","response":"absent","rt":229.39999999851,"correct":true,"confidence":-1},{"trial_n":75,"min":73,"max":182,"target":"present","response":"absent","rt":257.30000000075,"correct":false,"confidence":-1},{"trial_n":76,"min":57,"max":198,"target":"present","response":"present","rt":349.80000000075,"correct":true,"confidence":-1},{"trial_n":77,"min":57,"max":198,"target":"absent","response":"present","rt":273.80000000075,"correct":false,"confidence":-1},{"trial_n":78,"min":41,"max":214,"target":"present","response":"present","rt":174.79999999702,"correct":true,"confidence":-1},{"trial_n":79,"min":41,"max":214,"target":"absent","response":"absent","rt":371.19999999925,"correct":true,"confidence":-1},{"trial_n":80,"min":57,"max":198,"target":"present","response":"absent","rt":297.80000000075,"correct":false,"confidence":-1},{"trial_n":81,"min":49,"max":206,"target":"present","response":"present","rt":296.19999999925,"correct":true,"confidence":-1},{"trial_n":82,"min":49,"max":206,"target":"absent","response":"absent","rt":312,"correct":true,"confidence":-1},{"trial_n":83,"min":57,"max":198,"target":"present","response":"present","rt":310.89999999851,"correct":true,"confidence":-1},{"trial_n":84,"min":57,"max":198,"target":"absent","response":"present","rt":303.10000000149,"correct":false,"confidence":-1},{"trial_n":85,"min":49,"max":206,"target":"present","response":"present","rt":415.60000000149,"correct":true,"confidence":-1},{"trial_n":86,"min":49,"max":206,"target":"absent","response":"absent","rt":307.89999999851,"correct":true,"confidence":-1},{"trial_n":87,"min":57,"max":198,"target":"absent","response":"absent","rt":320.20000000298,"correct":true,"confidence":-1},{"trial_n":88,"min":57,"max":198,"target":"present","response":"present","rt":909,"correct":true,"confidence":-1},{"trial_n":89,"min":65,"max":190,"target":"present","response":"present","rt":658.5,"correct":true,"confidence":-1},{"trial_n":90,"min":65,"max":190,"target":"present","response":"present","rt":140.89999999851,"correct":true,"confidence":-1},{"trial_n":91,"min":69,"max":186,"target":"absent","response":"absent","rt":437.09999999776,"correct":true,"confidence":5},{"trial_n":92,"min":69,"max":186,"target":"present","response":"present","rt":153.40000000224,"correct":true,"confidence":5},{"trial_n":93,"min":73,"max":182,"target":"absent","response":"absent","rt":284.19999999925,"correct":true,"confidence":5},{"trial_n":94,"min":73,"max":182,"target":"present","response":"present","rt":143.69999999925,"correct":true,"confidence":5},{"trial_n":95,"min":77,"max":178,"target":"present","response":"present","rt":186.89999999851,"correct":true,"confidence":5},{"trial_n":96,"min":77,"max":178,"target":"present","response":"present","rt":167,"correct":true,"confidence":5},{"trial_n":97,"min":81,"max":174,"target":"absent","response":"absent","rt":204.80000000075,"correct":true,"confidence":5},{"trial_n":98,"min":81,"max":174,"target":"absent","response":"absent","rt":260.80000000075,"correct":true,"confidence":5},{"trial_n":99,"min":85,"max":170,"target":"present","response":"present","rt":195.90000000224,"correct":true,"confidence":5},{"trial_n":100,"min":85,"max":170,"target":"present","response":"present","rt":478.69999999925,"correct":true,"confidence":5},{"trial_n":101,"min":87,"max":168,"target":"absent","response":"absent","rt":323.5,"correct":true,"confidence":5},{"trial_n":102,"min":87,"max":168,"target":"present","response":"present","rt":160.10000000149,"correct":true,"confidence":5},{"trial_n":103,"min":89,"max":166,"target":"present","response":"present","rt":180.39999999851,"correct":true,"confidence":5},{"trial_n":104,"min":89,"max":166,"target":"absent","response":"absent","rt":244.20000000298,"correct":true,"confidence":5},{"trial_n":105,"min":91,"max":164,"target":"absent","response":"absent","rt":1183.3000000007,"correct":true,"confidence":1},{"trial_n":106,"min":91,"max":164,"target":"absent","response":"absent","rt":576.40000000224,"correct":true,"confidence":3},{"trial_n":107,"min":93,"max":162,"target":"absent","response":"absent","rt":1542.9000000022,"correct":true,"confidence":1},{"trial_n":108,"min":93,"max":162,"target":"present","response":"present","rt":533.5,"correct":true,"confidence":1},{"trial_n":109,"min":95,"max":160,"target":"absent","response":"absent","rt":625,"correct":true,"confidence":1},{"trial_n":110,"min":95,"max":160,"target":"present","response":"absent","rt":559.09999999776,"correct":false,"confidence":1},{"trial_n":111,"min":94,"max":161,"target":"present","response":"present","rt":645.39999999851,"correct":true,"confidence":2},{"trial_n":112,"min":94,"max":161,"target":"absent","response":"present","rt":721.30000000075,"correct":false,"confidence":1},{"trial_n":113,"min":93,"max":162,"target":"present","response":"present","rt":298,"correct":true,"confidence":1},{"trial_n":114,"min":93,"max":162,"target":"present","response":"present","rt":433.89999999851,"correct":true,"confidence":1},{"trial_n":115,"min":94,"max":161,"target":"present","response":"absent","rt":471.69999999925,"correct":false,"confidence":1},{"trial_n":116,"min":93,"max":162,"target":"absent","response":"absent","rt":262.30000000075,"correct":true,"confidence":1},{"trial_n":117,"min":93,"max":162,"target":"present","response":"absent","rt":213,"correct":false,"confidence":1},{"trial_n":118,"min":92,"max":163,"target":"absent","response":"absent","rt":232.69999999925,"correct":true,"confidence":1},{"trial_n":119,"min":92,"max":163,"target":"present","response":"present","rt":258.09999999776,"correct":true,"confidence":1},{"trial_n":120,"min":93,"max":162,"target":"present","response":"present","rt":319,"correct":true,"confidence":1},{"trial_n":121,"min":93,"max":162,"target":"present","response":"present","rt":173.5,"correct":true,"confidence":1},{"trial_n":122,"min":94,"max":161,"target":"present","response":"present","rt":191,"correct":true,"confidence":1},{"trial_n":123,"min":94,"max":161,"target":"absent","response":"present","rt":548.5,"correct":false,"confidence":1},{"trial_n":124,"min":93,"max":162,"target":"absent","response":"present","rt":268.30000000075,"correct":false,"confidence":1},{"trial_n":125,"min":92,"max":163,"target":"absent","response":"present","rt":356,"correct":false,"confidence":1},{"trial_n":126,"min":91,"max":164,"target":"present","response":"present","rt":241.09999999776,"correct":true,"confidence":1},{"trial_n":127,"min":91,"max":164,"target":"absent","response":"present","rt":250.5,"correct":false,"confidence":1},{"trial_n":128,"min":90,"max":165,"target":"present","response":"present","rt":276,"correct":true,"confidence":1},{"trial_n":129,"min":90,"max":165,"target":"absent","response":"present","rt":248.30000000075,"correct":false,"confidence":1},{"trial_n":130,"min":89,"max":166,"target":"absent","response":"present","rt":74.599999997765,"correct":false,"confidence":1},{"trial_n":131,"min":88,"max":167,"target":"absent","response":"absent","rt":451.30000000075,"correct":true,"confidence":1},{"trial_n":132,"min":88,"max":167,"target":"absent","response":"absent","rt":973.10000000149,"correct":true,"confidence":5},{"trial_n":133,"min":89,"max":166,"target":"absent","response":"absent","rt":1023.6000000015,"correct":true,"confidence":5},{"trial_n":134,"min":89,"max":166,"target":"absent","response":"absent","rt":649.5,"correct":true,"confidence":3},{"trial_n":135,"min":90,"max":165,"target":"present","response":"present","rt":104.60000000149,"correct":true,"confidence":3},{"trial_n":136,"min":90,"max":165,"target":"present","response":"present","rt":252.40000000224,"correct":true,"confidence":2},{"trial_n":137,"min":91,"max":164,"target":"absent","response":"present","rt":924.89999999851,"correct":false,"confidence":1},{"trial_n":138,"min":90,"max":165,"target":"absent","response":"present","rt":476.89999999851,"correct":false,"confidence":1},{"trial_n":139,"min":89,"max":166,"target":"present","response":"present","rt":172.09999999776,"correct":true,"confidence":2},{"trial_n":140,"min":89,"max":166,"target":"absent","response":"absent","rt":652.90000000224,"correct":true,"confidence":1}]