[{"trial_n":1,"n_dots":4.25,"target":"right","response":"left","rt":4460.0999999046,"correct":false,"confidence":-1},{"trial_n":2,"n_dots":4.25,"target":"left","response":"left","rt":574.20000004768,"correct":true,"confidence":-1},{"trial_n":3,"n_dots":4.25,"target":"left","response":"right","rt":1269.5999999046,"correct":false,"confidence":-1},{"trial_n":4,"n_dots":4.65,"target":"right","response":"right","rt":372.60000014305,"correct":true,"confidence":-1},{"trial_n":5,"n_dots":4.65,"target":"left","response":"left","rt":533.40000009537,"correct":true,"confidence":-1},{"trial_n":6,"n_dots":4.25,"target":"left","response":"left","rt":530.29999995232,"correct":true,"confidence":-1},{"trial_n":7,"n_dots":4.25,"target":"left","response":"right","rt":465.70000004768,"correct":false,"confidence":-1},{"trial_n":8,"n_dots":4.45,"target":"right","response":"right","rt":405.79999995232,"correct":true,"confidence":-1},{"trial_n":9,"n_dots":4.45,"target":"right","response":"right","rt":3239.4000000954,"correct":true,"confidence":-1},{"trial_n":10,"n_dots":4.25,"target":"left","response":"left","rt":241.19999980927,"correct":true,"confidence":-1},{"trial_n":11,"n_dots":4.25,"target":"right","response":"right","rt":123.20000004768,"correct":true,"confidence":-1},{"trial_n":12,"n_dots":4.05,"target":"left","response":"right","rt":929.79999995232,"correct":false,"confidence":-1},{"trial_n":13,"n_dots":4.15,"target":"left","response":"right","rt":741,"correct":false,"confidence":-1},{"trial_n":14,"n_dots":4.25,"target":"left","response":"left","rt":539.40000009537,"correct":true,"confidence":-1},{"trial_n":15,"n_dots":4.25,"target":"right","response":"right","rt":321.29999995232,"correct":true,"confidence":-1},{"trial_n":16,"n_dots":4.15,"target":"left","response":"left","rt":598.20000004768,"correct":true,"confidence":-1},{"trial_n":17,"n_dots":4.15,"target":"right","response":"right","rt":358,"correct":true,"confidence":-1},{"trial_n":18,"n_dots":4.05,"target":"right","response":"right","rt":38.5,"correct":true,"confidence":-1},{"trial_n":19,"n_dots":4.05,"target":"left","response":"right","rt":402.5,"correct":false,"confidence":-1},{"trial_n":20,"n_dots":4.15,"target":"left","response":"left","rt":503.70000004768,"correct":true,"confidence":-1},{"trial_n":21,"n_dots":4.15,"target":"right","response":"right","rt":82.199999809265,"correct":true,"confidence":3},{"trial_n":22,"n_dots":4.05,"target":"right","response":"right","rt":1035.5,"correct":true,"confidence":4},{"trial_n":23,"n_dots":4.05,"target":"right","response":"right","rt":756.70000004768,"correct":true,"confidence":3},{"trial_n":24,"n_dots":3.95,"target":"left","response":"left","rt":120.29999995232,"correct":true,"confidence":2},{"trial_n":25,"n_dots":3.95,"target":"left","response":"right","rt":673.40000009537,"correct":false,"confidence":3},{"trial_n":26,"n_dots":4.05,"target":"right","response":"right","rt":1348.6000001431,"correct":true,"confidence":3},{"trial_n":27,"n_dots":4.05,"target":"right","response":"right","rt":227,"correct":true,"confidence":3},{"trial_n":28,"n_dots":3.95,"target":"left","response":"left","rt":522.10000014305,"correct":true,"confidence":4},{"trial_n":29,"n_dots":3.95,"target":"right","response":"right","rt":352.5,"correct":true,"confidence":3},{"trial_n":30,"n_dots":3.85,"target":"left","response":"right","rt":691.29999995232,"correct":false,"confidence":2},{"trial_n":31,"n_dots":3.95,"target":"left","response":"left","rt":401.09999990463,"correct":true,"confidence":4},{"trial_n":32,"n_dots":3.95,"target":"right","response":"right","rt":430.20000004768,"correct":true,"confidence":3},{"trial_n":33,"n_dots":3.85,"target":"left","response":"left","rt":407.60000014305,"correct":true,"confidence":2},{"trial_n":34,"n_dots":3.85,"target":"right","response":"right","rt":454.10000014305,"correct":true,"confidence":3},{"trial_n":35,"n_dots":3.75,"target":"right","response":"left","rt":488.40000009537,"correct":false,"confidence":3},{"trial_n":36,"n_dots":3.85,"target":"left","response":"left","rt":352.29999995232,"correct":true,"confidence":3},{"trial_n":37,"n_dots":3.85,"target":"right","response":"right","rt":206.80000019073,"correct":true,"confidence":3},{"trial_n":38,"n_dots":3.75,"target":"left","response":"right","rt":460.79999995232,"correct":false,"confidence":3},{"trial_n":39,"n_dots":3.85,"target":"right","response":"right","rt":294.10000014305,"correct":true,"confidence":3},{"trial_n":40,"n_dots":3.85,"target":"left","response":"right","rt":890.5,"correct":false,"confidence":1},{"trial_n":41,"n_dots":3.95,"target":"left","response":"left","rt":346.5,"correct":true,"confidence":3},{"trial_n":42,"n_dots":3.95,"target":"left","response":"left","rt":214,"correct":true,"confidence":3},{"trial_n":43,"n_dots":3.85,"target":"right","response":"right","rt":55.700000047684,"correct":true,"confidence":1},{"trial_n":44,"n_dots":3.85,"target":"left","response":"left","rt":447.5,"correct":true,"confidence":3},{"trial_n":45,"n_dots":3.75,"target":"left","response":"left","rt":229.20000004768,"correct":true,"confidence":3},{"trial_n":46,"n_dots":3.75,"target":"right","response":"right","rt":110.40000009537,"correct":true,"confidence":3},{"trial_n":47,"n_dots":3.65,"target":"left","response":"left","rt":52.700000047684,"correct":true,"confidence":3},{"trial_n":48,"n_dots":3.65,"target":"left","response":"left","rt":374.19999980927,"correct":true,"confidence":3},{"trial_n":49,"n_dots":3.55,"target":"right","response":"right","rt":1127.9000000954,"correct":true,"confidence":1},{"trial_n":50,"n_dots":3.55,"target":"right","response":"left","rt":3383.5,"correct":false,"confidence":1},{"trial_n":51,"n_dots":3.65,"target":"right","response":"left","rt":707.29999995232,"correct":false,"confidence":1},{"trial_n":52,"n_dots":3.75,"target":"left","response":"right","rt":995.90000009537,"correct":false,"confidence":3},{"trial_n":53,"n_dots":3.85,"target":"right","response":"right","rt":213.60000014305,"correct":true,"confidence":3},{"trial_n":54,"n_dots":3.85,"target":"left","response":"left","rt":228.29999995232,"correct":true,"confidence":3},{"trial_n":55,"n_dots":3.75,"target":"right","response":"right","rt":855,"correct":true,"confidence":1},{"trial_n":56,"n_dots":3.75,"target":"left","response":"right","rt":404.89999985695,"correct":false,"confidence":3},{"trial_n":57,"n_dots":3.85,"target":"left","response":"right","rt":593.59999990463,"correct":false,"confidence":3},{"trial_n":58,"n_dots":3.95,"target":"left","response":"left","rt":1008.2000000477,"correct":true,"confidence":3},{"trial_n":59,"n_dots":3.95,"target":"right","response":"right","rt":61.200000047684,"correct":true,"confidence":3},{"trial_n":60,"n_dots":3.85,"target":"right","response":"right","rt":609.5,"correct":true,"confidence":4},{"trial_n":61,"n_dots":3.85,"target":"left","response":"left","rt":586.79999995232,"correct":true,"confidence":1},{"trial_n":62,"n_dots":3.75,"target":"left","response":"left","rt":91.799999952316,"correct":true,"confidence":1},{"trial_n":63,"n_dots":3.75,"target":"right","response":"right","rt":41.799999952316,"correct":true,"confidence":4},{"trial_n":64,"n_dots":3.65,"target":"right","response":"right","rt":81.299999952316,"correct":true,"confidence":4},{"trial_n":65,"n_dots":3.65,"target":"right","response":"right","rt":321.10000014305,"correct":true,"confidence":4},{"trial_n":66,"n_dots":3.55,"target":"right","response":"right","rt":325.70000004768,"correct":true,"confidence":4},{"trial_n":67,"n_dots":3.55,"target":"right","response":"right","rt":994.29999995232,"correct":true,"confidence":4},{"trial_n":68,"n_dots":3.45,"target":"right","response":"left","rt":136.10000014305,"correct":false,"confidence":3},{"trial_n":69,"n_dots":3.55,"target":"left","response":"left","rt":337.40000009537,"correct":true,"confidence":3},{"trial_n":70,"n_dots":3.55,"target":"right","response":"right","rt":249.60000014305,"correct":true,"confidence":3},{"trial_n":71,"n_dots":3.45,"target":"right","response":"right","rt":106.29999995232,"correct":true,"confidence":3},{"trial_n":72,"n_dots":3.45,"target":"left","response":"left","rt":239.89999985695,"correct":true,"confidence":3},{"trial_n":73,"n_dots":3.35,"target":"left","response":"right","rt":42.600000143051,"correct":false,"confidence":3},{"trial_n":74,"n_dots":3.45,"target":"right","response":"right","rt":12.5,"correct":true,"confidence":1},{"trial_n":75,"n_dots":3.45,"target":"left","response":"left","rt":152,"correct":true,"confidence":3},{"trial_n":76,"n_dots":3.35,"target":"left","response":"left","rt":161.20000004768,"correct":true,"confidence":1},{"trial_n":77,"n_dots":3.35,"target":"right","response":"right","rt":697.70000004768,"correct":true,"confidence":1},{"trial_n":78,"n_dots":3.25,"target":"right","response":"right","rt":1143.4000000954,"correct":true,"confidence":4},{"trial_n":79,"n_dots":3.25,"target":"left","response":"left","rt":510.20000004768,"correct":true,"confidence":3},{"trial_n":80,"n_dots":3.15,"target":"right","response":"right","rt":396.89999985695,"correct":true,"confidence":3},{"trial_n":81,"n_dots":3.15,"target":"right","response":"right","rt":902.60000014305,"correct":true,"confidence":1},{"trial_n":82,"n_dots":3.05,"target":"right","response":"right","rt":263.79999995232,"correct":true,"confidence":1},{"trial_n":83,"n_dots":3.05,"target":"right","response":"right","rt":928.30000019073,"correct":true,"confidence":1},{"trial_n":84,"n_dots":2.95,"target":"left","response":"left","rt":984.59999990463,"correct":true,"confidence":1},{"trial_n":85,"n_dots":2.95,"target":"right","response":"right","rt":785.60000014305,"correct":true,"confidence":1},{"trial_n":86,"n_dots":2.85,"target":"right","response":"right","rt":363.79999995232,"correct":true,"confidence":1},{"trial_n":87,"n_dots":2.85,"target":"left","response":"left","rt":358.29999995232,"correct":true,"confidence":1},{"trial_n":88,"n_dots":2.75,"target":"left","response":"left","rt":378.09999990463,"correct":true,"confidence":1},{"trial_n":89,"n_dots":2.75,"target":"right","response":"left","rt":1216.8999998569,"correct":false,"confidence":1},{"trial_n":90,"n_dots":2.85,"target":"right","response":"left","rt":193.60000014305,"correct":false,"confidence":1},{"trial_n":91,"n_dots":2.95,"target":"left","response":"left","rt":150.09999990463,"correct":true,"confidence":1},{"trial_n":92,"n_dots":2.95,"target":"right","response":"left","rt":698.5,"correct":false,"confidence":1},{"trial_n":93,"n_dots":3.05,"target":"left","response":"left","rt":437,"correct":true,"confidence":1},{"trial_n":94,"n_dots":3.05,"target":"left","response":"right","rt":323,"correct":false,"confidence":1},{"trial_n":95,"n_dots":3.15,"target":"right","response":"left","rt":451.30000019073,"correct":false,"confidence":1},{"trial_n":96,"n_dots":3.25,"target":"left","response":"left","rt":221.29999995232,"correct":true,"confidence":1},{"trial_n":97,"n_dots":3.25,"target":"left","response":"left","rt":26.200000047684,"correct":true,"confidence":3},{"trial_n":98,"n_dots":3.15,"target":"right","response":"right","rt":506.5,"correct":true,"confidence":1},{"trial_n":99,"n_dots":3.15,"target":"right","response":"right","rt":421.90000009537,"correct":true,"confidence":3},{"trial_n":100,"n_dots":3.05,"target":"left","response":"right","rt":766.5,"correct":false,"confidence":3},{"trial_n":101,"n_dots":3.15,"target":"left","response":"left","rt":198.29999995232,"correct":true,"confidence":1},{"trial_n":102,"n_dots":3.15,"target":"left","response":"left","rt":86.100000143051,"correct":true,"confidence":1},{"trial_n":103,"n_dots":3.05,"target":"left","response":"right","rt":594.69999980927,"correct":false,"confidence":1},{"trial_n":104,"n_dots":3.15,"target":"left","response":"left","rt":290.5,"correct":true,"confidence":1},{"trial_n":105,"n_dots":3.15,"target":"right","response":"right","rt":93.599999904633,"correct":true,"confidence":1},{"trial_n":106,"n_dots":3.05,"target":"right","response":"right","rt":293.29999995232,"correct":true,"confidence":1},{"trial_n":107,"n_dots":3.05,"target":"right","response":"right","rt":328.10000014305,"correct":true,"confidence":1},{"trial_n":108,"n_dots":2.95,"target":"right","response":"right","rt":3285.8999998569,"correct":true,"confidence":1},{"trial_n":109,"n_dots":2.95,"target":"left","response":"left","rt":235.40000009537,"correct":true,"confidence":1},{"trial_n":110,"n_dots":2.85,"target":"right","response":"left","rt":215.5,"correct":false,"confidence":1},{"trial_n":111,"n_dots":2.95,"target":"right","response":"right","rt":356.20000004768,"correct":true,"confidence":1},{"trial_n":112,"n_dots":2.95,"target":"left","response":"left","rt":402.79999995232,"correct":true,"confidence":1},{"trial_n":113,"n_dots":2.85,"target":"left","response":"right","rt":66.799999952316,"correct":false,"confidence":1},{"trial_n":114,"n_dots":2.95,"target":"left","response":"left","rt":558.5,"correct":true,"confidence":1},{"trial_n":115,"n_dots":2.95,"target":"right","response":"right","rt":176.39999985695,"correct":true,"confidence":1},{"trial_n":116,"n_dots":2.85,"target":"right","response":"left","rt":927.70000004768,"correct":false,"confidence":1},{"trial_n":117,"n_dots":2.95,"target":"right","response":"left","rt":868.10000014305,"correct":false,"confidence":1},{"trial_n":118,"n_dots":3.05,"target":"left","response":"left","rt":1070.9000000954,"correct":true,"confidence":1},{"trial_n":119,"n_dots":3.05,"target":"left","response":"left","rt":359.60000014305,"correct":true,"confidence":1},{"trial_n":120,"n_dots":2.95,"target":"left","response":"left","rt":846.59999990463,"correct":true,"confidence":1}]