[{"trial_n":1,"span":8,"encoder":"11082889","distractor":"11982889","target":"present","response":"absent","rt":"4111","correct":false,"confidence":-1},{"trial_n":2,"span":6,"encoder":"015288","distractor":"015248","target":"present","response":"present","rt":"1915","correct":true,"confidence":-1},{"trial_n":3,"span":6,"encoder":"558278","distractor":"558272","target":"absent","response":"absent","rt":"3276.2000000477","correct":true,"confidence":-1},{"trial_n":4,"span":8,"encoder":"93529361","distractor":"63529361","target":"absent","response":"absent","rt":"1396.7000000477","correct":true,"confidence":-1},{"trial_n":5,"span":8,"encoder":"45862736","distractor":"25862736","target":"present","response":"present","rt":"4275.0999999046","correct":true,"confidence":-1},{"trial_n":6,"span":10,"encoder":"0041888844","distractor":"0041888842","target":"absent","response":"absent","rt":"2342.7000000477","correct":true,"confidence":-1},{"trial_n":7,"span":10,"encoder":"6732003938","distractor":"6712003938","target":"present","response":"present","rt":"1987.4000000954","correct":true,"confidence":-1},{"trial_n":8,"span":12,"encoder":"172666290224","distractor":"175666290224","target":"absent","response":"present","rt":"3493.2999999523","correct":false,"confidence":-1},{"trial_n":9,"span":10,"encoder":"7855467586","distractor":"7355467586","target":"absent","response":"absent","rt":"1685.9000000954","correct":true,"confidence":-1},{"trial_n":10,"span":10,"encoder":"6499729175","distractor":"6491729175","target":"present","response":"present","rt":"3768.7000000477","correct":true,"confidence":-1},{"trial_n":11,"span":12,"encoder":"068314157918","distractor":"068314657918","target":"absent","response":"absent","rt":"5554","correct":true,"confidence":-1},{"trial_n":12,"span":12,"encoder":"902410553692","distractor":"982410553692","target":"present","response":"absent","rt":"1880.7000000477","correct":false,"confidence":-1},{"trial_n":13,"span":11,"encoder":"83349605352","distractor":"83349605302","target":"present","response":"present","rt":"2577","correct":true,"confidence":-1},{"trial_n":14,"span":11,"encoder":"99874428604","distractor":"99874428606","target":"absent","response":"absent","rt":"3884.5","correct":true,"confidence":-1},{"trial_n":15,"span":12,"encoder":"840102402135","distractor":"840102402165","target":"absent","response":"present","rt":"5870.7999999523","correct":false,"confidence":-1},{"trial_n":16,"span":11,"encoder":"23696915834","distractor":"93696915834","target":"present","response":"present","rt":"2627.7000000477","correct":true,"confidence":-1},{"trial_n":17,"span":11,"encoder":"88851911894","distractor":"88851911897","target":"present","response":"present","rt":"1305.5999999046","correct":true,"confidence":-1},{"trial_n":18,"span":12,"encoder":"525158082493","distractor":"525158085493","target":"present","response":"present","rt":"2218.2000000477","correct":true,"confidence":-1},{"trial_n":19,"span":12,"encoder":"749851489399","distractor":"749851289399","target":"absent","response":"absent","rt":"3683.6999998093","correct":true,"confidence":-1},{"trial_n":20,"span":13,"encoder":"1590728022483","distractor":"1590728922483","target":"absent","response":"present","rt":"5537.6999998093","correct":false,"confidence":-1},{"trial_n":21,"span":12,"encoder":"195003678700","distractor":"195203678700","target":"present","response":"present","rt":"2748","correct":true,"confidence":2},{"trial_n":22,"span":12,"encoder":"228278214503","distractor":"228278214508","target":"present","response":"present","rt":"5659","correct":true,"confidence":3},{"trial_n":23,"span":13,"encoder":"5662656888098","distractor":"9662656888098","target":"present","response":"present","rt":"9923.5","correct":true,"confidence":1},{"trial_n":24,"span":13,"encoder":"8149599729662","distractor":"8149596729662","target":"absent","response":"absent","rt":"5016.2000000477","correct":true,"confidence":1},{"trial_n":25,"span":14,"encoder":"79102717548799","distractor":"79102714548799","target":"present","response":"present","rt":"7436","correct":true,"confidence":3},{"trial_n":26,"span":14,"encoder":"85510527971583","distractor":"85510529971583","target":"absent","response":"present","rt":"11159.200000048","correct":false,"confidence":1},{"trial_n":27,"span":13,"encoder":"1034196844723","distractor":"1034196844703","target":"present","response":"present","rt":"6277.1999998093","correct":true,"confidence":1},{"trial_n":28,"span":13,"encoder":"4570149917023","distractor":"4570148917023","target":"absent","response":"present","rt":"4655.9000000954","correct":false,"confidence":1},{"trial_n":29,"span":12,"encoder":"753736739083","distractor":"653736739083","target":"absent","response":"present","rt":"4279","correct":false,"confidence":3},{"trial_n":30,"span":11,"encoder":"66951843421","distractor":"66951845421","target":"present","response":"present","rt":"13013.400000095","correct":true,"confidence":2},{"trial_n":31,"span":11,"encoder":"26847240260","distractor":"76847240260","target":"present","response":"absent","rt":"5486.3999998569","correct":false,"confidence":1},{"trial_n":32,"span":10,"encoder":"4131297908","distractor":"4131297904","target":"absent","response":"absent","rt":"2433.4000000954","correct":true,"confidence":4},{"trial_n":33,"span":10,"encoder":"7526000212","distractor":"7526010212","target":"absent","response":"absent","rt":"2403.5","correct":true,"confidence":4},{"trial_n":34,"span":11,"encoder":"04458235106","distractor":"04454235106","target":"present","response":"absent","rt":"7191.3999998569","correct":false,"confidence":1},{"trial_n":35,"span":10,"encoder":"3142948598","distractor":"3142948798","target":"absent","response":"absent","rt":"2380.2000000477","correct":true,"confidence":4},{"trial_n":36,"span":10,"encoder":"8072169276","distractor":"8072569276","target":"absent","response":"present","rt":"6115.7999999523","correct":false,"confidence":1},{"trial_n":37,"span":9,"encoder":"365530049","distractor":"366530049","target":"absent","response":"present","rt":"3933.5","correct":false,"confidence":2},{"trial_n":38,"span":8,"encoder":"51396118","distractor":"51596118","target":"absent","response":"absent","rt":"4109.7000000477","correct":true,"confidence":1},{"trial_n":39,"span":8,"encoder":"26465710","distractor":"26465780","target":"absent","response":"absent","rt":"5348.1999998093","correct":true,"confidence":3},{"trial_n":40,"span":9,"encoder":"460065740","distractor":"460025740","target":"present","response":"present","rt":"3157.8999998569","correct":true,"confidence":1},{"trial_n":41,"span":9,"encoder":"319352778","distractor":"310352778","target":"present","response":"absent","rt":"2830.7999999523","correct":false,"confidence":1},{"trial_n":42,"span":8,"encoder":"20580261","distractor":"21580261","target":"absent","response":"absent","rt":"3710","correct":true,"confidence":3},{"trial_n":43,"span":8,"encoder":"44344351","distractor":"44244351","target":"present","response":"present","rt":"2769.2000000477","correct":true,"confidence":4},{"trial_n":44,"span":9,"encoder":"647282566","distractor":"647782566","target":"absent","response":"absent","rt":"6482.4000000954","correct":true,"confidence":2},{"trial_n":45,"span":9,"encoder":"599943364","distractor":"599944364","target":"absent","response":"absent","rt":"5058.9000000954","correct":true,"confidence":3},{"trial_n":46,"span":10,"encoder":"9742833825","distractor":"9742830825","target":"absent","response":"absent","rt":"6248.7999999523","correct":true,"confidence":1},{"trial_n":47,"span":10,"encoder":"4761226828","distractor":"4361226828","target":"present","response":"present","rt":"3170.0999999046","correct":true,"confidence":1},{"trial_n":48,"span":11,"encoder":"96909477572","distractor":"96908477572","target":"present","response":"present","rt":"2918.1000001431","correct":true,"confidence":2},{"trial_n":49,"span":11,"encoder":"24615541116","distractor":"24645541116","target":"absent","response":"present","rt":"3551.7999999523","correct":false,"confidence":1},{"trial_n":50,"span":10,"encoder":"1984477482","distractor":"1924477482","target":"absent","response":"absent","rt":"7950.4000000954","correct":true,"confidence":3},{"trial_n":51,"span":10,"encoder":"9630184293","distractor":"9630184243","target":"present","response":"present","rt":"3396.0999999046","correct":true,"confidence":3},{"trial_n":52,"span":11,"encoder":"83373968717","distractor":"83173968717","target":"present","response":"absent","rt":"1537.5999999046","correct":false,"confidence":1},{"trial_n":53,"span":10,"encoder":"9545060073","distractor":"9545260073","target":"present","response":"present","rt":"1422.5","correct":true,"confidence":1},{"trial_n":54,"span":10,"encoder":"3785393564","distractor":"3785993564","target":"absent","response":"absent","rt":"5050.8999998569","correct":true,"confidence":2},{"trial_n":55,"span":11,"encoder":"11548398749","distractor":"11548378749","target":"present","response":"present","rt":"3047.6000001431","correct":true,"confidence":1},{"trial_n":56,"span":11,"encoder":"49506778701","distractor":"49516778701","target":"absent","response":"present","rt":"2515.6999998093","correct":false,"confidence":1},{"trial_n":57,"span":10,"encoder":"5431216786","distractor":"5437216786","target":"present","response":"present","rt":"3952.3000001907","correct":true,"confidence":3},{"trial_n":58,"span":10,"encoder":"5834559047","distractor":"5834559447","target":"absent","response":"absent","rt":"3367.7000000477","correct":true,"confidence":1},{"trial_n":59,"span":11,"encoder":"53493512608","distractor":"53493518608","target":"present","response":"absent","rt":"4279","correct":false,"confidence":1},{"trial_n":60,"span":10,"encoder":"3936206309","distractor":"3933206309","target":"present","response":"present","rt":"3373.9000000954","correct":true,"confidence":1},{"trial_n":61,"span":10,"encoder":"7198646456","distractor":"7198646156","target":"present","response":"present","rt":"4937.9000000954","correct":true,"confidence":2},{"trial_n":62,"span":11,"encoder":"72587191066","distractor":"72585191066","target":"absent","response":"present","rt":"2743.5","correct":false,"confidence":1},{"trial_n":63,"span":10,"encoder":"9392779423","distractor":"9392773423","target":"absent","response":"present","rt":"4315.6999998093","correct":false,"confidence":1},{"trial_n":64,"span":9,"encoder":"186635558","distractor":"186635578","target":"absent","response":"absent","rt":"2155.3999998569","correct":true,"confidence":1},{"trial_n":65,"span":9,"encoder":"944210346","distractor":"944210345","target":"present","response":"absent","rt":"6202.5999999046","correct":false,"confidence":2},{"trial_n":66,"span":8,"encoder":"94908031","distractor":"94908731","target":"present","response":"present","rt":"3386.1000001431","correct":true,"confidence":3},{"trial_n":67,"span":8,"encoder":"52685854","distractor":"52685844","target":"absent","response":"absent","rt":"4406.7999999523","correct":true,"confidence":4},{"trial_n":68,"span":9,"encoder":"976126942","distractor":"976126922","target":"present","response":"absent","rt":"7161.5","correct":false,"confidence":1},{"trial_n":69,"span":8,"encoder":"91393021","distractor":"01393021","target":"present","response":"present","rt":"5281.7000000477","correct":true,"confidence":2},{"trial_n":70,"span":8,"encoder":"54674470","distractor":"54674490","target":"present","response":"present","rt":"5072.6999998093","correct":true,"confidence":2},{"trial_n":71,"span":8,"encoder":"55399966","distractor":"55319966","target":"present","response":"present","rt":"5752.6000001431","correct":true,"confidence":-1},{"trial_n":72,"span":8,"encoder":"27245831","distractor":"27245801","target":"present","response":"present","rt":"2527.8999998569","correct":true,"confidence":-1},{"trial_n":73,"span":9,"encoder":"343396843","distractor":"373396843","target":"absent","response":"absent","rt":"2452.7000000477","correct":true,"confidence":-1},{"trial_n":74,"span":9,"encoder":"057773589","distractor":"051773589","target":"absent","response":"absent","rt":"3460.7000000477","correct":true,"confidence":-1},{"trial_n":75,"span":10,"encoder":"8643852296","distractor":"8633852296","target":"present","response":"absent","rt":"4632.2999999523","correct":false,"confidence":-1},{"trial_n":76,"span":9,"encoder":"871671925","distractor":"871671125","target":"present","response":"present","rt":"493.79999995232","correct":true,"confidence":-1},{"trial_n":77,"span":9,"encoder":"214885655","distractor":"214865655","target":"present","response":"absent","rt":"426.5","correct":false,"confidence":-1},{"trial_n":78,"span":8,"encoder":"84385336","distractor":"84381336","target":"present","response":"present","rt":"497.5","correct":true,"confidence":-1},{"trial_n":79,"span":8,"encoder":"20466963","distractor":"21466963","target":"present","response":"present","rt":"469.5","correct":true,"confidence":-1},{"trial_n":80,"span":9,"encoder":"267449170","distractor":"267449173","target":"absent","response":"absent","rt":"662.39999985695","correct":true,"confidence":-1},{"trial_n":81,"span":9,"encoder":"867020004","distractor":"867080004","target":"absent","response":"present","rt":"460.5","correct":false,"confidence":-1},{"trial_n":82,"span":8,"encoder":"22787009","distractor":"22787609","target":"present","response":"absent","rt":"619.59999990463","correct":false,"confidence":-1},{"trial_n":83,"span":7,"encoder":"6673934","distractor":"6673964","target":"absent","response":"present","rt":"569.20000004768","correct":false,"confidence":-1},{"trial_n":84,"span":6,"encoder":"508827","distractor":"508867","target":"absent","response":"present","rt":"1136.0999999046","correct":false,"confidence":-1},{"trial_n":85,"span":5,"encoder":"42498","distractor":"42493","target":"present","response":"present","rt":"598.39999985695","correct":true,"confidence":-1},{"trial_n":86,"span":5,"encoder":"75230","distractor":"75233","target":"absent","response":"present","rt":"478.70000004768","correct":false,"confidence":-1},{"trial_n":87,"span":4,"encoder":"9692","distractor":"9682","target":"absent","response":"absent","rt":"2123.0999999046","correct":true,"confidence":-1},{"trial_n":88,"span":4,"encoder":"1854","distractor":"1864","target":"absent","response":"absent","rt":"1190.9000000954","correct":true,"confidence":-1},{"trial_n":89,"span":5,"encoder":"93254","distractor":"93554","target":"absent","response":"absent","rt":"1709.5","correct":true,"confidence":-1},{"trial_n":90,"span":5,"encoder":"05835","distractor":"65835","target":"present","response":"present","rt":"1760.5999999046","correct":true,"confidence":-1},{"trial_n":91,"span":6,"encoder":"598176","distractor":"598276","target":"present","response":"present","rt":"1931.7000000477","correct":true,"confidence":5},{"trial_n":92,"span":6,"encoder":"165687","distractor":"165683","target":"absent","response":"absent","rt":"3314.2999999523","correct":true,"confidence":5},{"trial_n":93,"span":7,"encoder":"9645146","distractor":"9645846","target":"present","response":"present","rt":"3191.5999999046","correct":true,"confidence":5},{"trial_n":94,"span":7,"encoder":"0454646","distractor":"0454666","target":"absent","response":"absent","rt":"3474.6000001431","correct":true,"confidence":3},{"trial_n":95,"span":8,"encoder":"41262923","distractor":"41262953","target":"present","response":"present","rt":"6763.7000000477","correct":true,"confidence":4},{"trial_n":96,"span":8,"encoder":"62135863","distractor":"62135873","target":"absent","response":"absent","rt":"1437.5999999046","correct":true,"confidence":5},{"trial_n":97,"span":9,"encoder":"107322662","distractor":"197322662","target":"absent","response":"present","rt":"6219.9000000954","correct":false,"confidence":2},{"trial_n":98,"span":8,"encoder":"19426171","distractor":"19424171","target":"present","response":"present","rt":"3399","correct":true,"confidence":3},{"trial_n":99,"span":8,"encoder":"36363295","distractor":"36363297","target":"present","response":"present","rt":"4582.4000000954","correct":true,"confidence":5},{"trial_n":100,"span":9,"encoder":"600192602","distractor":"000192602","target":"present","response":"present","rt":"3825.1000001431","correct":true,"confidence":2},{"trial_n":101,"span":9,"encoder":"843481683","distractor":"843461683","target":"absent","response":"present","rt":"7824.5","correct":false,"confidence":1},{"trial_n":102,"span":8,"encoder":"83967389","distractor":"89967389","target":"present","response":"present","rt":"5524.3000001907","correct":true,"confidence":3},{"trial_n":103,"span":8,"encoder":"52874560","distractor":"55874560","target":"present","response":"present","rt":"3310.0999999046","correct":true,"confidence":4},{"trial_n":104,"span":9,"encoder":"280939640","distractor":"240939640","target":"absent","response":"present","rt":"5894.9000000954","correct":false,"confidence":1},{"trial_n":105,"span":8,"encoder":"67234967","distractor":"67234987","target":"absent","response":"absent","rt":"5532.9000000954","correct":true,"confidence":3},{"trial_n":106,"span":8,"encoder":"46996278","distractor":"46796278","target":"absent","response":"absent","rt":"2876.5999999046","correct":true,"confidence":4},{"trial_n":107,"span":9,"encoder":"044897887","distractor":"044897587","target":"present","response":"present","rt":"6438.5999999046","correct":true,"confidence":2},{"trial_n":108,"span":9,"encoder":"426623658","distractor":"426623628","target":"present","response":"absent","rt":"8666.7999999523","correct":false,"confidence":2},{"trial_n":109,"span":8,"encoder":"83599799","distractor":"83499799","target":"absent","response":"absent","rt":"4004.2999999523","correct":true,"confidence":3},{"trial_n":110,"span":8,"encoder":"60104679","distractor":"60104671","target":"absent","response":"absent","rt":"2274.2999999523","correct":true,"confidence":4},{"trial_n":111,"span":9,"encoder":"560540816","distractor":"569540816","target":"absent","response":"absent","rt":"3996.4000000954","correct":true,"confidence":5},{"trial_n":112,"span":9,"encoder":"404069438","distractor":"404069433","target":"present","response":"present","rt":"3237.5","correct":true,"confidence":5},{"trial_n":113,"span":10,"encoder":"4221310248","distractor":"4621310248","target":"absent","response":"absent","rt":"12815.799999952","correct":true,"confidence":3},{"trial_n":114,"span":10,"encoder":"2165406730","distractor":"2195406730","target":"present","response":"present","rt":"7674.7999999523","correct":true,"confidence":3},{"trial_n":115,"span":11,"encoder":"03572634430","distractor":"03572636430","target":"present","response":"present","rt":"2866.5","correct":true,"confidence":4},{"trial_n":116,"span":11,"encoder":"40511321152","distractor":"00511321152","target":"present","response":"present","rt":"6832.3999998569","correct":true,"confidence":2},{"trial_n":117,"span":12,"encoder":"029753602167","distractor":"029753602165","target":"absent","response":"absent","rt":"15471.600000143","correct":true,"confidence":1},{"trial_n":118,"span":12,"encoder":"325807626335","distractor":"325007626335","target":"absent","response":"absent","rt":"6799.5","correct":true,"confidence":1},{"trial_n":119,"span":13,"encoder":"4372134099216","distractor":"4372134499216","target":"present","response":"absent","rt":"9620.6000001431","correct":false,"confidence":2},{"trial_n":120,"span":12,"encoder":"863392232482","distractor":"863342232482","target":"present","response":"present","rt":"10410.799999952","correct":true,"confidence":2},{"trial_n":121,"span":12,"encoder":"817270682012","distractor":"017270682012","target":"present","response":"present","rt":"3519.5","correct":true,"confidence":4},{"trial_n":122,"span":13,"encoder":"8144612643656","distractor":"8144612643156","target":"absent","response":"absent","rt":"5437.4000000954","correct":true,"confidence":3},{"trial_n":123,"span":13,"encoder":"5776292341790","distractor":"5776292341590","target":"present","response":"present","rt":"7695.0999999046","correct":true,"confidence":1},{"trial_n":124,"span":14,"encoder":"48231307936554","distractor":"48241307936554","target":"present","response":"absent","rt":"9158.1000001431","correct":false,"confidence":1},{"trial_n":125,"span":13,"encoder":"2531099540037","distractor":"2531099540437","target":"absent","response":"absent","rt":"2629.2999999523","correct":true,"confidence":4},{"trial_n":126,"span":13,"encoder":"2697941943834","distractor":"2696941943834","target":"absent","response":"absent","rt":"5060.5","correct":true,"confidence":2},{"trial_n":127,"span":14,"encoder":"32950118389729","distractor":"32950118339729","target":"present","response":"present","rt":"4190.3000001907","correct":true,"confidence":2},{"trial_n":128,"span":14,"encoder":"31894070911347","distractor":"36894070911347","target":"absent","response":"absent","rt":"5016.6999998093","correct":true,"confidence":2},{"trial_n":129,"span":15,"encoder":"547644853897223","distractor":"547648853897223","target":"absent","response":"present","rt":"8507.1999998093","correct":false,"confidence":2},{"trial_n":130,"span":14,"encoder":"03247863051630","distractor":"03267863051630","target":"present","response":"absent","rt":"5243.8999998569","correct":false,"confidence":2},{"trial_n":131,"span":13,"encoder":"8503168100898","distractor":"8503168100498","target":"present","response":"present","rt":"1774.4000000954","correct":true,"confidence":5},{"trial_n":132,"span":13,"encoder":"4416786552710","distractor":"4416786582710","target":"present","response":"present","rt":"6819.5","correct":true,"confidence":3},{"trial_n":133,"span":14,"encoder":"97300790152521","distractor":"77300790152521","target":"absent","response":"absent","rt":"5085.7000000477","correct":true,"confidence":4},{"trial_n":134,"span":14,"encoder":"79066291012582","distractor":"79066295012582","target":"present","response":"present","rt":"7449.4000000954","correct":true,"confidence":3},{"trial_n":135,"span":15,"encoder":"635172956717947","distractor":"635172956717977","target":"present","response":"present","rt":"3280.4000000954","correct":true,"confidence":4},{"trial_n":136,"span":15,"encoder":"061607053245089","distractor":"061607053445089","target":"absent","response":"absent","rt":"10154.5","correct":true,"confidence":2},{"trial_n":137,"span":16,"encoder":"9171280722396956","distractor":"9171280722396951","target":"present","response":"present","rt":"9733.5999999046","correct":true,"confidence":4},{"trial_n":138,"span":16,"encoder":"6816603426833167","distractor":"6816603426833367","target":"absent","response":"absent","rt":"6715.9000000954","correct":true,"confidence":3},{"trial_n":139,"span":17,"encoder":"38208410836229098","distractor":"38208410836229898","target":"absent","response":"absent","rt":"9558","correct":true,"confidence":2},{"trial_n":140,"span":17,"encoder":"01324630011375490","distractor":"01324630011375890","target":"absent","response":"absent","rt":"13208.900000095","correct":true,"confidence":2}]