[{"trial_n":1,"min":25,"max":230,"target":"present","response":"present","rt":4322.5,"correct":true,"confidence":-1},{"trial_n":2,"min":25,"max":230,"target":"present","response":"present","rt":1972.9000000004,"correct":true,"confidence":-1},{"trial_n":3,"min":41,"max":214,"target":"absent","response":"absent","rt":1048.0999999996,"correct":true,"confidence":-1},{"trial_n":4,"min":41,"max":214,"target":"absent","response":"absent","rt":514.09999999963,"correct":true,"confidence":-1},{"trial_n":5,"min":57,"max":198,"target":"present","response":"absent","rt":694.29999999981,"correct":false,"confidence":-1},{"trial_n":6,"min":41,"max":214,"target":"absent","response":"absent","rt":396.90000000037,"correct":true,"confidence":-1},{"trial_n":7,"min":41,"max":214,"target":"present","response":"present","rt":554.09999999963,"correct":true,"confidence":-1},{"trial_n":8,"min":57,"max":198,"target":"absent","response":"absent","rt":437.70000000019,"correct":true,"confidence":-1},{"trial_n":9,"min":57,"max":198,"target":"absent","response":"absent","rt":436,"correct":true,"confidence":-1},{"trial_n":10,"min":73,"max":182,"target":"absent","response":"absent","rt":255.70000000019,"correct":true,"confidence":-1},{"trial_n":11,"min":73,"max":182,"target":"absent","response":"absent","rt":240.59999999963,"correct":true,"confidence":-1},{"trial_n":12,"min":81,"max":174,"target":"present","response":"absent","rt":210.20000000019,"correct":false,"confidence":-1},{"trial_n":13,"min":73,"max":182,"target":"absent","response":"absent","rt":282.20000000019,"correct":true,"confidence":-1},{"trial_n":14,"min":73,"max":182,"target":"absent","response":"absent","rt":229.09999999963,"correct":true,"confidence":-1},{"trial_n":15,"min":81,"max":174,"target":"absent","response":"absent","rt":224,"correct":true,"confidence":-1},{"trial_n":16,"min":81,"max":174,"target":"present","response":"absent","rt":209.5,"correct":false,"confidence":-1},{"trial_n":17,"min":73,"max":182,"target":"absent","response":"absent","rt":249.59999999963,"correct":true,"confidence":-1},{"trial_n":18,"min":73,"max":182,"target":"present","response":"absent","rt":9.8999999994412,"correct":false,"confidence":-1},{"trial_n":19,"min":65,"max":190,"target":"present","response":"absent","rt":0.59999999962747,"correct":false,"confidence":-1},{"trial_n":20,"min":57,"max":198,"target":"absent","response":"absent","rt":182.79999999981,"correct":true,"confidence":-1},{"trial_n":21,"min":57,"max":198,"target":"absent","response":"absent","rt":1165.2999999998,"correct":true,"confidence":5},{"trial_n":22,"min":61,"max":194,"target":"absent","response":"absent","rt":1044.7000000002,"correct":true,"confidence":5},{"trial_n":23,"min":61,"max":194,"target":"absent","response":"absent","rt":790.60000000056,"correct":true,"confidence":5},{"trial_n":24,"min":65,"max":190,"target":"present","response":"present","rt":719,"correct":true,"confidence":5},{"trial_n":25,"min":65,"max":190,"target":"present","response":"present","rt":1013.2000000002,"correct":true,"confidence":5},{"trial_n":26,"min":69,"max":186,"target":"absent","response":"absent","rt":608.79999999981,"correct":true,"confidence":5},{"trial_n":27,"min":69,"max":186,"target":"present","response":"present","rt":533.70000000019,"correct":true,"confidence":5},{"trial_n":28,"min":73,"max":182,"target":"present","response":"present","rt":638.29999999981,"correct":true,"confidence":5},{"trial_n":29,"min":73,"max":182,"target":"absent","response":"present","rt":681.5,"correct":false,"confidence":5},{"trial_n":30,"min":69,"max":186,"target":"present","response":"present","rt":493.5,"correct":true,"confidence":5},{"trial_n":31,"min":69,"max":186,"target":"present","response":"present","rt":566.70000000019,"correct":true,"confidence":5},{"trial_n":32,"min":71,"max":184,"target":"absent","response":"present","rt":599,"correct":false,"confidence":5},{"trial_n":33,"min":69,"max":186,"target":"present","response":"present","rt":421.90000000037,"correct":true,"confidence":5},{"trial_n":34,"min":69,"max":186,"target":"present","response":"present","rt":378.5,"correct":true,"confidence":5},{"trial_n":35,"min":71,"max":184,"target":"present","response":"present","rt":605.60000000056,"correct":true,"confidence":5},{"trial_n":36,"min":71,"max":184,"target":"absent","response":"absent","rt":764.09999999963,"correct":true,"confidence":5},{"trial_n":37,"min":73,"max":182,"target":"absent","response":"absent","rt":607.89999999944,"correct":true,"confidence":5},{"trial_n":38,"min":73,"max":182,"target":"absent","response":"absent","rt":493.20000000019,"correct":true,"confidence":5},{"trial_n":39,"min":75,"max":180,"target":"present","response":"present","rt":653.20000000019,"correct":true,"confidence":5},{"trial_n":40,"min":75,"max":180,"target":"present","response":"present","rt":600.09999999963,"correct":true,"confidence":5},{"trial_n":41,"min":76,"max":179,"target":"absent","response":"absent","rt":963.70000000019,"correct":true,"confidence":5},{"trial_n":42,"min":76,"max":179,"target":"absent","response":"present","rt":1098.2000000002,"correct":false,"confidence":5},{"trial_n":43,"min":75,"max":180,"target":"present","response":"present","rt":741.79999999981,"correct":true,"confidence":5},{"trial_n":44,"min":75,"max":180,"target":"present","response":"present","rt":550.30000000075,"correct":true,"confidence":5},{"trial_n":45,"min":76,"max":179,"target":"present","response":"present","rt":635.20000000019,"correct":true,"confidence":5},{"trial_n":46,"min":76,"max":179,"target":"present","response":"present","rt":444.79999999981,"correct":true,"confidence":5},{"trial_n":47,"min":77,"max":178,"target":"present","response":"present","rt":466.10000000056,"correct":true,"confidence":5},{"trial_n":48,"min":77,"max":178,"target":"present","response":"present","rt":409.60000000056,"correct":true,"confidence":5},{"trial_n":49,"min":78,"max":177,"target":"absent","response":"present","rt":497,"correct":false,"confidence":5},{"trial_n":50,"min":77,"max":178,"target":"present","response":"present","rt":387.69999999925,"correct":true,"confidence":5},{"trial_n":51,"min":77,"max":178,"target":"present","response":"present","rt":577.5,"correct":true,"confidence":5},{"trial_n":52,"min":78,"max":177,"target":"absent","response":"present","rt":397.29999999981,"correct":false,"confidence":5},{"trial_n":53,"min":77,"max":178,"target":"present","response":"present","rt":382.89999999944,"correct":true,"confidence":5},{"trial_n":54,"min":77,"max":178,"target":"absent","response":"present","rt":555.90000000037,"correct":false,"confidence":5},{"trial_n":55,"min":76,"max":179,"target":"absent","response":"present","rt":363.89999999944,"correct":false,"confidence":5},{"trial_n":56,"min":75,"max":180,"target":"absent","response":"present","rt":357.59999999963,"correct":false,"confidence":1},{"trial_n":57,"min":74,"max":181,"target":"present","response":"present","rt":511,"correct":true,"confidence":5},{"trial_n":58,"min":74,"max":181,"target":"absent","response":"absent","rt":446.09999999963,"correct":true,"confidence":5},{"trial_n":59,"min":75,"max":180,"target":"absent","response":"absent","rt":518.29999999981,"correct":true,"confidence":5},{"trial_n":60,"min":75,"max":180,"target":"present","response":"present","rt":675.70000000019,"correct":true,"confidence":5},{"trial_n":61,"min":76,"max":179,"target":"absent","response":"present","rt":924.5,"correct":false,"confidence":5},{"trial_n":62,"min":75,"max":180,"target":"present","response":"present","rt":719.79999999981,"correct":true,"confidence":5},{"trial_n":63,"min":75,"max":180,"target":"present","response":"present","rt":392.90000000037,"correct":true,"confidence":5},{"trial_n":64,"min":76,"max":179,"target":"absent","response":"present","rt":386,"correct":false,"confidence":5},{"trial_n":65,"min":75,"max":180,"target":"present","response":"present","rt":313.60000000056,"correct":true,"confidence":5},{"trial_n":66,"min":75,"max":180,"target":"present","response":"present","rt":352.5,"correct":true,"confidence":5},{"trial_n":67,"min":76,"max":179,"target":"absent","response":"absent","rt":765.89999999944,"correct":true,"confidence":5},{"trial_n":68,"min":76,"max":179,"target":"present","response":"present","rt":381.20000000019,"correct":true,"confidence":5},{"trial_n":69,"min":77,"max":178,"target":"present","response":"present","rt":352.5,"correct":true,"confidence":5},{"trial_n":70,"min":77,"max":178,"target":"absent","response":"present","rt":426,"correct":false,"confidence":5},{"trial_n":71,"min":41,"max":214,"target":"present","response":"present","rt":1348.2000000002,"correct":true,"confidence":-1},{"trial_n":72,"min":41,"max":214,"target":"present","response":"present","rt":544.40000000037,"correct":true,"confidence":-1},{"trial_n":73,"min":57,"max":198,"target":"absent","response":"absent","rt":1131.2999999998,"correct":true,"confidence":-1},{"trial_n":74,"min":57,"max":198,"target":"absent","response":"absent","rt":650.60000000056,"correct":true,"confidence":-1},{"trial_n":75,"min":73,"max":182,"target":"present","response":"present","rt":293.79999999981,"correct":true,"confidence":-1},{"trial_n":76,"min":73,"max":182,"target":"present","response":"absent","rt":259.30000000075,"correct":false,"confidence":-1},{"trial_n":77,"min":57,"max":198,"target":"absent","response":"absent","rt":480.79999999981,"correct":true,"confidence":-1},{"trial_n":78,"min":57,"max":198,"target":"present","response":"present","rt":507.79999999981,"correct":true,"confidence":-1},{"trial_n":79,"min":73,"max":182,"target":"absent","response":"absent","rt":520.59999999963,"correct":true,"confidence":-1},{"trial_n":80,"min":73,"max":182,"target":"present","response":"present","rt":278.69999999925,"correct":true,"confidence":-1},{"trial_n":81,"min":81,"max":174,"target":"absent","response":"present","rt":569,"correct":false,"confidence":-1},{"trial_n":82,"min":73,"max":182,"target":"absent","response":"present","rt":765.59999999963,"correct":false,"confidence":-1},{"trial_n":83,"min":65,"max":190,"target":"present","response":"present","rt":379.09999999963,"correct":true,"confidence":-1},{"trial_n":84,"min":65,"max":190,"target":"absent","response":"absent","rt":562.70000000019,"correct":true,"confidence":-1},{"trial_n":85,"min":73,"max":182,"target":"present","response":"present","rt":380.09999999963,"correct":true,"confidence":-1},{"trial_n":86,"min":73,"max":182,"target":"present","response":"present","rt":493.5,"correct":true,"confidence":-1},{"trial_n":87,"min":81,"max":174,"target":"absent","response":"absent","rt":608.10000000056,"correct":true,"confidence":-1},{"trial_n":88,"min":81,"max":174,"target":"absent","response":"absent","rt":1130.6000000006,"correct":true,"confidence":-1},{"trial_n":89,"min":89,"max":166,"target":"absent","response":"absent","rt":860,"correct":true,"confidence":-1},{"trial_n":90,"min":89,"max":166,"target":"absent","response":"absent","rt":213.60000000056,"correct":true,"confidence":-1},{"trial_n":91,"min":93,"max":162,"target":"absent","response":"absent","rt":619.79999999981,"correct":true,"confidence":5},{"trial_n":92,"min":93,"max":162,"target":"present","response":"present","rt":736.5,"correct":true,"confidence":3},{"trial_n":93,"min":97,"max":158,"target":"absent","response":"present","rt":575.79999999981,"correct":false,"confidence":1},{"trial_n":94,"min":93,"max":162,"target":"present","response":"present","rt":1107,"correct":true,"confidence":1},{"trial_n":95,"min":93,"max":162,"target":"absent","response":"absent","rt":418.20000000019,"correct":true,"confidence":1},{"trial_n":96,"min":97,"max":158,"target":"present","response":"present","rt":284.79999999981,"correct":true,"confidence":4},{"trial_n":97,"min":97,"max":158,"target":"present","response":"present","rt":711.20000000019,"correct":true,"confidence":5},{"trial_n":98,"min":101,"max":154,"target":"present","response":"absent","rt":929.40000000037,"correct":false,"confidence":5},{"trial_n":99,"min":97,"max":158,"target":"absent","response":"present","rt":63961.4,"correct":false,"confidence":5},{"trial_n":100,"min":93,"max":162,"target":"present","response":"present","rt":782.29999999981,"correct":true,"confidence":5},{"trial_n":101,"min":93,"max":162,"target":"present","response":"present","rt":592.59999999963,"correct":true,"confidence":5},{"trial_n":102,"min":95,"max":160,"target":"absent","response":"absent","rt":626.79999999981,"correct":true,"confidence":5},{"trial_n":103,"min":95,"max":160,"target":"present","response":"present","rt":640.20000000019,"correct":true,"confidence":5},{"trial_n":104,"min":97,"max":158,"target":"absent","response":"absent","rt":584.30000000075,"correct":true,"confidence":5},{"trial_n":105,"min":97,"max":158,"target":"absent","response":"present","rt":292.5,"correct":false,"confidence":5},{"trial_n":106,"min":95,"max":160,"target":"absent","response":"present","rt":310.70000000019,"correct":false,"confidence":5},{"trial_n":107,"min":93,"max":162,"target":"absent","response":"absent","rt":474.60000000056,"correct":true,"confidence":5},{"trial_n":108,"min":93,"max":162,"target":"present","response":"present","rt":447.39999999944,"correct":true,"confidence":5},{"trial_n":109,"min":95,"max":160,"target":"present","response":"present","rt":319.29999999981,"correct":true,"confidence":5},{"trial_n":110,"min":95,"max":160,"target":"present","response":"present","rt":484.30000000075,"correct":true,"confidence":5},{"trial_n":111,"min":96,"max":159,"target":"present","response":"present","rt":437.09999999963,"correct":true,"confidence":5},{"trial_n":112,"min":96,"max":159,"target":"present","response":"present","rt":534,"correct":true,"confidence":5},{"trial_n":113,"min":97,"max":158,"target":"absent","response":"present","rt":666,"correct":false,"confidence":5},{"trial_n":114,"min":96,"max":159,"target":"absent","response":"present","rt":590.79999999981,"correct":false,"confidence":5},{"trial_n":115,"min":95,"max":160,"target":"absent","response":"absent","rt":934.59999999963,"correct":true,"confidence":5},{"trial_n":116,"min":95,"max":160,"target":"present","response":"present","rt":513.09999999963,"correct":true,"confidence":5},{"trial_n":117,"min":96,"max":159,"target":"absent","response":"absent","rt":588.70000000019,"correct":true,"confidence":5},{"trial_n":118,"min":96,"max":159,"target":"present","response":"absent","rt":788.5,"correct":false,"confidence":5},{"trial_n":119,"min":95,"max":160,"target":"absent","response":"present","rt":568.70000000019,"correct":false,"confidence":5},{"trial_n":120,"min":94,"max":161,"target":"present","response":"present","rt":1488.5999999996,"correct":true,"confidence":5},{"trial_n":121,"min":94,"max":161,"target":"present","response":"absent","rt":470.20000000019,"correct":false,"confidence":5},{"trial_n":122,"min":93,"max":162,"target":"present","response":"present","rt":516.60000000056,"correct":true,"confidence":5},{"trial_n":123,"min":93,"max":162,"target":"absent","response":"absent","rt":589.10000000056,"correct":true,"confidence":5},{"trial_n":124,"min":94,"max":161,"target":"absent","response":"present","rt":547.10000000056,"correct":false,"confidence":5},{"trial_n":125,"min":93,"max":162,"target":"present","response":"present","rt":608.5,"correct":true,"confidence":5},{"trial_n":126,"min":93,"max":162,"target":"present","response":"present","rt":566.89999999944,"correct":true,"confidence":5},{"trial_n":127,"min":94,"max":161,"target":"present","response":"present","rt":373.70000000019,"correct":true,"confidence":5},{"trial_n":128,"min":94,"max":161,"target":"absent","response":"present","rt":670.10000000056,"correct":false,"confidence":5},{"trial_n":129,"min":93,"max":162,"target":"absent","response":"present","rt":414.20000000019,"correct":false,"confidence":5},{"trial_n":130,"min":92,"max":163,"target":"present","response":"present","rt":536.5,"correct":true,"confidence":5},{"trial_n":131,"min":92,"max":163,"target":"present","response":"present","rt":475.70000000019,"correct":true,"confidence":5},{"trial_n":132,"min":93,"max":162,"target":"present","response":"present","rt":386.5,"correct":true,"confidence":5},{"trial_n":133,"min":93,"max":162,"target":"present","response":"present","rt":553.40000000037,"correct":true,"confidence":5},{"trial_n":134,"min":94,"max":161,"target":"present","response":"present","rt":555.29999999981,"correct":true,"confidence":5},{"trial_n":135,"min":94,"max":161,"target":"absent","response":"present","rt":324.60000000056,"correct":false,"confidence":5},{"trial_n":136,"min":93,"max":162,"target":"absent","response":"present","rt":518.70000000019,"correct":false,"confidence":5},{"trial_n":137,"min":92,"max":163,"target":"absent","response":"absent","rt":540.79999999981,"correct":true,"confidence":5},{"trial_n":138,"min":92,"max":163,"target":"present","response":"present","rt":657.39999999944,"correct":true,"confidence":5},{"trial_n":139,"min":93,"max":162,"target":"absent","response":"present","rt":950.20000000019,"correct":false,"confidence":5},{"trial_n":140,"min":92,"max":163,"target":"absent","response":"present","rt":367.30000000075,"correct":false,"confidence":5}]