[{"trial_n":1,"n_dots":4.25,"target":"left","response":"right","rt":3778.8000000007,"correct":false,"confidence":-1},{"trial_n":2,"n_dots":4.25,"target":"right","response":"right","rt":1021.6999999993,"correct":true,"confidence":-1},{"trial_n":3,"n_dots":4.25,"target":"right","response":"right","rt":501,"correct":true,"confidence":-1},{"trial_n":4,"n_dots":3.85,"target":"left","response":"left","rt":385.19999999925,"correct":true,"confidence":-1},{"trial_n":5,"n_dots":3.85,"target":"right","response":"right","rt":439.19999999925,"correct":true,"confidence":-1},{"trial_n":6,"n_dots":3.45,"target":"left","response":"left","rt":436.40000000037,"correct":true,"confidence":-1},{"trial_n":7,"n_dots":3.45,"target":"right","response":"right","rt":314.40000000037,"correct":true,"confidence":-1},{"trial_n":8,"n_dots":3.25,"target":"right","response":"right","rt":719.30000000075,"correct":true,"confidence":-1},{"trial_n":9,"n_dots":3.25,"target":"left","response":"left","rt":365,"correct":true,"confidence":-1},{"trial_n":10,"n_dots":3.05,"target":"left","response":"left","rt":365.69999999925,"correct":true,"confidence":-1},{"trial_n":11,"n_dots":3.05,"target":"left","response":"left","rt":399.09999999963,"correct":true,"confidence":-1},{"trial_n":12,"n_dots":2.85,"target":"right","response":"right","rt":221.30000000075,"correct":true,"confidence":-1},{"trial_n":13,"n_dots":2.85,"target":"right","response":"right","rt":584.19999999925,"correct":true,"confidence":-1},{"trial_n":14,"n_dots":2.75,"target":"right","response":"right","rt":789,"correct":true,"confidence":-1},{"trial_n":15,"n_dots":2.75,"target":"right","response":"right","rt":80.800000000745,"correct":true,"confidence":-1},{"trial_n":16,"n_dots":2.65,"target":"right","response":"right","rt":739,"correct":true,"confidence":-1},{"trial_n":17,"n_dots":2.65,"target":"right","response":"right","rt":242.30000000075,"correct":true,"confidence":-1},{"trial_n":18,"n_dots":2.55,"target":"left","response":"left","rt":176,"correct":true,"confidence":-1},{"trial_n":19,"n_dots":2.55,"target":"left","response":"right","rt":233.20000000112,"correct":false,"confidence":-1},{"trial_n":20,"n_dots":2.65,"target":"right","response":"left","rt":1029.0999999996,"correct":false,"confidence":-1},{"trial_n":21,"n_dots":2.75,"target":"right","response":"right","rt":1109.9000000004,"correct":true,"confidence":3},{"trial_n":22,"n_dots":2.75,"target":"right","response":"left","rt":1227.4000000004,"correct":false,"confidence":2},{"trial_n":23,"n_dots":2.85,"target":"right","response":"right","rt":641.29999999888,"correct":true,"confidence":2},{"trial_n":24,"n_dots":2.85,"target":"left","response":"left","rt":510.59999999963,"correct":true,"confidence":2},{"trial_n":25,"n_dots":2.75,"target":"left","response":"right","rt":887.29999999888,"correct":false,"confidence":2},{"trial_n":26,"n_dots":2.85,"target":"right","response":"left","rt":617.19999999925,"correct":false,"confidence":3},{"trial_n":27,"n_dots":2.95,"target":"left","response":"left","rt":490.89999999851,"correct":true,"confidence":3},{"trial_n":28,"n_dots":2.95,"target":"left","response":"left","rt":321.09999999963,"correct":true,"confidence":3},{"trial_n":29,"n_dots":2.85,"target":"left","response":"left","rt":634.09999999963,"correct":true,"confidence":2},{"trial_n":30,"n_dots":2.85,"target":"left","response":"left","rt":370.90000000037,"correct":true,"confidence":3},{"trial_n":31,"n_dots":2.75,"target":"left","response":"left","rt":321.09999999963,"correct":true,"confidence":3},{"trial_n":32,"n_dots":2.75,"target":"right","response":"right","rt":573,"correct":true,"confidence":2},{"trial_n":33,"n_dots":2.65,"target":"right","response":"right","rt":784.89999999851,"correct":true,"confidence":2},{"trial_n":34,"n_dots":2.65,"target":"right","response":"right","rt":320.29999999888,"correct":true,"confidence":2},{"trial_n":35,"n_dots":2.55,"target":"left","response":"right","rt":1366.3000000007,"correct":false,"confidence":1},{"trial_n":36,"n_dots":2.65,"target":"right","response":"right","rt":610.40000000037,"correct":true,"confidence":1},{"trial_n":37,"n_dots":2.65,"target":"left","response":"left","rt":468.79999999888,"correct":true,"confidence":2},{"trial_n":38,"n_dots":2.55,"target":"left","response":"left","rt":314.90000000037,"correct":true,"confidence":3},{"trial_n":39,"n_dots":2.55,"target":"right","response":"right","rt":367.20000000112,"correct":true,"confidence":2},{"trial_n":40,"n_dots":2.45,"target":"right","response":"right","rt":119.19999999925,"correct":true,"confidence":2},{"trial_n":41,"n_dots":2.45,"target":"left","response":"right","rt":739.29999999888,"correct":false,"confidence":1},{"trial_n":42,"n_dots":2.55,"target":"right","response":"right","rt":532.5,"correct":true,"confidence":2},{"trial_n":43,"n_dots":2.55,"target":"left","response":"left","rt":372.60000000149,"correct":true,"confidence":1},{"trial_n":44,"n_dots":2.45,"target":"right","response":"right","rt":359.09999999963,"correct":true,"confidence":3},{"trial_n":45,"n_dots":2.45,"target":"right","response":"left","rt":314.5,"correct":false,"confidence":2},{"trial_n":46,"n_dots":2.55,"target":"right","response":"right","rt":182.40000000037,"correct":true,"confidence":3},{"trial_n":47,"n_dots":2.55,"target":"right","response":"right","rt":409.29999999888,"correct":true,"confidence":2},{"trial_n":48,"n_dots":2.45,"target":"right","response":"left","rt":330.40000000037,"correct":false,"confidence":2},{"trial_n":49,"n_dots":2.55,"target":"right","response":"right","rt":318.60000000149,"correct":true,"confidence":1},{"trial_n":50,"n_dots":2.55,"target":"left","response":"left","rt":511.59999999963,"correct":true,"confidence":1},{"trial_n":51,"n_dots":2.45,"target":"right","response":"right","rt":421.09999999963,"correct":true,"confidence":2},{"trial_n":52,"n_dots":2.45,"target":"left","response":"left","rt":357.79999999888,"correct":true,"confidence":2},{"trial_n":53,"n_dots":2.35,"target":"left","response":"right","rt":293.90000000037,"correct":false,"confidence":2},{"trial_n":54,"n_dots":2.45,"target":"right","response":"right","rt":157.5,"correct":true,"confidence":1},{"trial_n":55,"n_dots":2.45,"target":"right","response":"right","rt":98.300000000745,"correct":true,"confidence":2},{"trial_n":56,"n_dots":2.35,"target":"left","response":"right","rt":287.5,"correct":false,"confidence":1},{"trial_n":57,"n_dots":2.45,"target":"left","response":"left","rt":351.30000000075,"correct":true,"confidence":2},{"trial_n":58,"n_dots":2.45,"target":"right","response":"right","rt":172.90000000037,"correct":true,"confidence":3},{"trial_n":59,"n_dots":2.35,"target":"left","response":"right","rt":289.10000000149,"correct":false,"confidence":1},{"trial_n":60,"n_dots":2.45,"target":"right","response":"right","rt":406,"correct":true,"confidence":2},{"trial_n":61,"n_dots":2.45,"target":"right","response":"right","rt":506.09999999963,"correct":true,"confidence":1},{"trial_n":62,"n_dots":2.35,"target":"left","response":"left","rt":376.39999999851,"correct":true,"confidence":2},{"trial_n":63,"n_dots":2.35,"target":"right","response":"right","rt":48.099999999627,"correct":true,"confidence":2},{"trial_n":64,"n_dots":2.25,"target":"left","response":"left","rt":333.80000000075,"correct":true,"confidence":1},{"trial_n":65,"n_dots":2.25,"target":"right","response":"right","rt":217.39999999851,"correct":true,"confidence":2},{"trial_n":66,"n_dots":2.15,"target":"right","response":"right","rt":249.09999999963,"correct":true,"confidence":2},{"trial_n":67,"n_dots":2.15,"target":"right","response":"right","rt":355,"correct":true,"confidence":2},{"trial_n":68,"n_dots":2.05,"target":"right","response":"right","rt":449.39999999851,"correct":true,"confidence":1},{"trial_n":69,"n_dots":2.05,"target":"right","response":"left","rt":350.30000000075,"correct":false,"confidence":1},{"trial_n":70,"n_dots":2.15,"target":"left","response":"right","rt":229.10000000149,"correct":false,"confidence":2},{"trial_n":71,"n_dots":2.25,"target":"right","response":"right","rt":308.90000000037,"correct":true,"confidence":2},{"trial_n":72,"n_dots":2.25,"target":"right","response":"left","rt":383.69999999925,"correct":false,"confidence":1},{"trial_n":73,"n_dots":2.35,"target":"left","response":"right","rt":200.40000000037,"correct":false,"confidence":1},{"trial_n":74,"n_dots":2.45,"target":"left","response":"left","rt":353.59999999963,"correct":true,"confidence":1},{"trial_n":75,"n_dots":2.45,"target":"left","response":"right","rt":141.80000000075,"correct":false,"confidence":2},{"trial_n":76,"n_dots":2.55,"target":"right","response":"left","rt":654,"correct":false,"confidence":1},{"trial_n":77,"n_dots":2.65,"target":"left","response":"right","rt":298.19999999925,"correct":false,"confidence":1},{"trial_n":78,"n_dots":2.75,"target":"left","response":"right","rt":403.69999999925,"correct":false,"confidence":1},{"trial_n":79,"n_dots":2.85,"target":"left","response":"left","rt":249.09999999963,"correct":true,"confidence":2},{"trial_n":80,"n_dots":2.85,"target":"left","response":"left","rt":368.09999999963,"correct":true,"confidence":2},{"trial_n":81,"n_dots":2.75,"target":"left","response":"left","rt":107.79999999888,"correct":true,"confidence":1},{"trial_n":82,"n_dots":2.75,"target":"left","response":"left","rt":263.19999999925,"correct":true,"confidence":1},{"trial_n":83,"n_dots":2.65,"target":"left","response":"left","rt":259.60000000149,"correct":true,"confidence":2},{"trial_n":84,"n_dots":2.65,"target":"left","response":"left","rt":241.30000000075,"correct":true,"confidence":1},{"trial_n":85,"n_dots":2.55,"target":"right","response":"right","rt":97.699999999255,"correct":true,"confidence":2},{"trial_n":86,"n_dots":2.55,"target":"left","response":"left","rt":438.89999999851,"correct":true,"confidence":2},{"trial_n":87,"n_dots":2.45,"target":"left","response":"left","rt":239.90000000037,"correct":true,"confidence":2},{"trial_n":88,"n_dots":2.45,"target":"right","response":"right","rt":541.19999999925,"correct":true,"confidence":3},{"trial_n":89,"n_dots":2.35,"target":"right","response":"right","rt":770.19999999925,"correct":true,"confidence":1},{"trial_n":90,"n_dots":2.35,"target":"left","response":"left","rt":363.90000000037,"correct":true,"confidence":2},{"trial_n":91,"n_dots":2.25,"target":"left","response":"right","rt":307.90000000037,"correct":false,"confidence":2},{"trial_n":92,"n_dots":2.35,"target":"right","response":"left","rt":338.59999999963,"correct":false,"confidence":1},{"trial_n":93,"n_dots":2.45,"target":"right","response":"right","rt":239.29999999888,"correct":true,"confidence":2},{"trial_n":94,"n_dots":2.45,"target":"left","response":"right","rt":4492.7000000011,"correct":false,"confidence":2},{"trial_n":95,"n_dots":2.55,"target":"right","response":"right","rt":153.80000000075,"correct":true,"confidence":3},{"trial_n":96,"n_dots":2.55,"target":"left","response":"left","rt":231.5,"correct":true,"confidence":2},{"trial_n":97,"n_dots":2.45,"target":"left","response":"left","rt":349.30000000075,"correct":true,"confidence":2},{"trial_n":98,"n_dots":2.45,"target":"right","response":"right","rt":38.800000000745,"correct":true,"confidence":2},{"trial_n":99,"n_dots":2.35,"target":"left","response":"left","rt":394.19999999925,"correct":true,"confidence":2},{"trial_n":100,"n_dots":2.35,"target":"left","response":"left","rt":77.700000001118,"correct":true,"confidence":2},{"trial_n":101,"n_dots":2.25,"target":"left","response":"left","rt":310.19999999925,"correct":true,"confidence":2},{"trial_n":102,"n_dots":2.25,"target":"right","response":"right","rt":106.39999999851,"correct":true,"confidence":2},{"trial_n":103,"n_dots":2.15,"target":"left","response":"left","rt":346.69999999925,"correct":true,"confidence":1},{"trial_n":104,"n_dots":2.15,"target":"left","response":"right","rt":321.09999999963,"correct":false,"confidence":1},{"trial_n":105,"n_dots":2.25,"target":"left","response":"left","rt":353.59999999963,"correct":true,"confidence":2},{"trial_n":106,"n_dots":2.25,"target":"right","response":"right","rt":143.09999999963,"correct":true,"confidence":2},{"trial_n":107,"n_dots":2.15,"target":"left","response":"left","rt":379.19999999925,"correct":true,"confidence":2},{"trial_n":108,"n_dots":2.15,"target":"right","response":"left","rt":136.79999999888,"correct":false,"confidence":2},{"trial_n":109,"n_dots":2.25,"target":"left","response":"left","rt":127.09999999963,"correct":true,"confidence":1},{"trial_n":110,"n_dots":2.25,"target":"left","response":"left","rt":51.89999999851,"correct":true,"confidence":2},{"trial_n":111,"n_dots":2.15,"target":"right","response":"right","rt":289.59999999963,"correct":true,"confidence":1},{"trial_n":112,"n_dots":2.15,"target":"right","response":"left","rt":372.29999999888,"correct":false,"confidence":1},{"trial_n":113,"n_dots":2.25,"target":"right","response":"left","rt":186,"correct":false,"confidence":1},{"trial_n":114,"n_dots":2.35,"target":"left","response":"left","rt":289.59999999963,"correct":true,"confidence":2},{"trial_n":115,"n_dots":2.35,"target":"right","response":"left","rt":228.59999999963,"correct":false,"confidence":2},{"trial_n":116,"n_dots":2.45,"target":"left","response":"left","rt":198.5,"correct":true,"confidence":1},{"trial_n":117,"n_dots":2.45,"target":"right","response":"right","rt":223.29999999888,"correct":true,"confidence":2},{"trial_n":118,"n_dots":2.35,"target":"left","response":"left","rt":200.89999999851,"correct":true,"confidence":2},{"trial_n":119,"n_dots":2.35,"target":"left","response":"left","rt":292.30000000075,"correct":true,"confidence":3},{"trial_n":120,"n_dots":2.25,"target":"right","response":"right","rt":413.09999999963,"correct":true,"confidence":2}]