[{"trial_n":1,"n_dots":4.25,"target":"left","response":"left","rt":3321.0999999046,"correct":true,"confidence":-1},{"trial_n":2,"n_dots":4.25,"target":"left","response":"left","rt":724.20000004768,"correct":true,"confidence":-1},{"trial_n":3,"n_dots":3.85,"target":"left","response":"right","rt":1730.7000000477,"correct":false,"confidence":-1},{"trial_n":4,"n_dots":4.25,"target":"right","response":"right","rt":825.89999985695,"correct":true,"confidence":-1},{"trial_n":5,"n_dots":4.25,"target":"right","response":"right","rt":596.59999990463,"correct":true,"confidence":-1},{"trial_n":6,"n_dots":3.85,"target":"left","response":"left","rt":481.60000014305,"correct":true,"confidence":-1},{"trial_n":7,"n_dots":3.85,"target":"left","response":"left","rt":444.70000004768,"correct":true,"confidence":-1},{"trial_n":8,"n_dots":3.65,"target":"left","response":"right","rt":1165.9000000954,"correct":false,"confidence":-1},{"trial_n":9,"n_dots":3.85,"target":"right","response":"left","rt":552.70000004768,"correct":false,"confidence":-1},{"trial_n":10,"n_dots":4.05,"target":"right","response":"right","rt":549.30000019073,"correct":true,"confidence":-1},{"trial_n":11,"n_dots":4.05,"target":"left","response":"right","rt":639.30000019073,"correct":false,"confidence":-1},{"trial_n":12,"n_dots":4.25,"target":"right","response":"right","rt":414.70000004768,"correct":true,"confidence":-1},{"trial_n":13,"n_dots":4.25,"target":"right","response":"right","rt":524.89999985695,"correct":true,"confidence":-1},{"trial_n":14,"n_dots":4.15,"target":"right","response":"right","rt":520.39999985695,"correct":true,"confidence":-1},{"trial_n":15,"n_dots":4.15,"target":"right","response":"right","rt":837.10000014305,"correct":true,"confidence":-1},{"trial_n":16,"n_dots":4.05,"target":"left","response":"left","rt":390,"correct":true,"confidence":-1},{"trial_n":17,"n_dots":4.05,"target":"left","response":"left","rt":574.20000004768,"correct":true,"confidence":-1},{"trial_n":18,"n_dots":3.95,"target":"left","response":"left","rt":511.20000004768,"correct":true,"confidence":-1},{"trial_n":19,"n_dots":3.95,"target":"right","response":"right","rt":563.69999980927,"correct":true,"confidence":-1},{"trial_n":20,"n_dots":3.85,"target":"left","response":"left","rt":200.09999990463,"correct":true,"confidence":-1},{"trial_n":21,"n_dots":3.85,"target":"left","response":"left","rt":519.20000004768,"correct":true,"confidence":3},{"trial_n":22,"n_dots":3.75,"target":"right","response":"right","rt":414.5,"correct":true,"confidence":4},{"trial_n":23,"n_dots":3.75,"target":"right","response":"left","rt":937.79999995232,"correct":false,"confidence":2},{"trial_n":24,"n_dots":3.85,"target":"left","response":"left","rt":541.39999985695,"correct":true,"confidence":3},{"trial_n":25,"n_dots":3.85,"target":"left","response":"left","rt":1272.5,"correct":true,"confidence":1},{"trial_n":26,"n_dots":3.75,"target":"left","response":"right","rt":1828.7000000477,"correct":false,"confidence":1},{"trial_n":27,"n_dots":3.85,"target":"right","response":"left","rt":835.59999990463,"correct":false,"confidence":1},{"trial_n":28,"n_dots":3.95,"target":"left","response":"left","rt":424.79999995232,"correct":true,"confidence":3},{"trial_n":29,"n_dots":3.95,"target":"right","response":"right","rt":393.70000004768,"correct":true,"confidence":4},{"trial_n":30,"n_dots":3.85,"target":"right","response":"left","rt":2100.9000000954,"correct":false,"confidence":1},{"trial_n":31,"n_dots":3.95,"target":"left","response":"left","rt":465.39999985695,"correct":true,"confidence":4},{"trial_n":32,"n_dots":3.95,"target":"left","response":"left","rt":475.5,"correct":true,"confidence":5},{"trial_n":33,"n_dots":3.85,"target":"left","response":"left","rt":486.40000009537,"correct":true,"confidence":4},{"trial_n":34,"n_dots":3.85,"target":"right","response":"right","rt":2161.0999999046,"correct":true,"confidence":3},{"trial_n":35,"n_dots":3.75,"target":"right","response":"right","rt":427.09999990463,"correct":true,"confidence":4},{"trial_n":36,"n_dots":3.75,"target":"left","response":"left","rt":399.5,"correct":true,"confidence":5},{"trial_n":37,"n_dots":3.65,"target":"right","response":"left","rt":559.09999990463,"correct":false,"confidence":2},{"trial_n":38,"n_dots":3.75,"target":"right","response":"right","rt":444.40000009537,"correct":true,"confidence":4},{"trial_n":39,"n_dots":3.75,"target":"left","response":"left","rt":365.40000009537,"correct":true,"confidence":4},{"trial_n":40,"n_dots":3.65,"target":"right","response":"right","rt":464.60000014305,"correct":true,"confidence":4},{"trial_n":41,"n_dots":3.65,"target":"right","response":"right","rt":688.79999995232,"correct":true,"confidence":3},{"trial_n":42,"n_dots":3.55,"target":"right","response":"right","rt":348.80000019073,"correct":true,"confidence":5},{"trial_n":43,"n_dots":3.55,"target":"right","response":"right","rt":577.09999990463,"correct":true,"confidence":4},{"trial_n":44,"n_dots":3.45,"target":"left","response":"left","rt":1194.6000001431,"correct":true,"confidence":1},{"trial_n":45,"n_dots":3.45,"target":"left","response":"left","rt":516.40000009537,"correct":true,"confidence":3},{"trial_n":46,"n_dots":3.35,"target":"left","response":"left","rt":506.40000009537,"correct":true,"confidence":4},{"trial_n":47,"n_dots":3.35,"target":"right","response":"right","rt":2206.3999998569,"correct":true,"confidence":1},{"trial_n":48,"n_dots":3.25,"target":"left","response":"right","rt":469.5,"correct":false,"confidence":3},{"trial_n":49,"n_dots":3.35,"target":"right","response":"right","rt":379.69999980927,"correct":true,"confidence":3},{"trial_n":50,"n_dots":3.35,"target":"right","response":"right","rt":1178.5,"correct":true,"confidence":2},{"trial_n":51,"n_dots":3.25,"target":"left","response":"right","rt":1072.3999998569,"correct":false,"confidence":1},{"trial_n":52,"n_dots":3.35,"target":"right","response":"right","rt":610.40000009537,"correct":true,"confidence":2},{"trial_n":53,"n_dots":3.35,"target":"left","response":"left","rt":877.89999985695,"correct":true,"confidence":2},{"trial_n":54,"n_dots":3.25,"target":"right","response":"right","rt":383.5,"correct":true,"confidence":2},{"trial_n":55,"n_dots":3.25,"target":"left","response":"left","rt":605.5,"correct":true,"confidence":2},{"trial_n":56,"n_dots":3.15,"target":"left","response":"left","rt":685.40000009537,"correct":true,"confidence":1},{"trial_n":57,"n_dots":3.15,"target":"right","response":"right","rt":393.80000019073,"correct":true,"confidence":3},{"trial_n":58,"n_dots":3.05,"target":"right","response":"right","rt":808.70000004768,"correct":true,"confidence":2},{"trial_n":59,"n_dots":3.05,"target":"right","response":"right","rt":342.40000009537,"correct":true,"confidence":3},{"trial_n":60,"n_dots":2.95,"target":"right","response":"right","rt":465.20000004768,"correct":true,"confidence":2},{"trial_n":61,"n_dots":2.95,"target":"right","response":"right","rt":166,"correct":true,"confidence":4},{"trial_n":62,"n_dots":2.85,"target":"left","response":"left","rt":588.29999995232,"correct":true,"confidence":3},{"trial_n":63,"n_dots":2.85,"target":"left","response":"right","rt":715.20000004768,"correct":false,"confidence":2},{"trial_n":64,"n_dots":2.95,"target":"right","response":"left","rt":927.39999985695,"correct":false,"confidence":2},{"trial_n":65,"n_dots":3.05,"target":"right","response":"right","rt":391,"correct":true,"confidence":3},{"trial_n":66,"n_dots":3.05,"target":"right","response":"right","rt":1015.2999999523,"correct":true,"confidence":3},{"trial_n":67,"n_dots":2.95,"target":"right","response":"right","rt":616.10000014305,"correct":true,"confidence":3},{"trial_n":68,"n_dots":2.95,"target":"left","response":"left","rt":1339.8999998569,"correct":true,"confidence":1},{"trial_n":69,"n_dots":2.85,"target":"left","response":"left","rt":402.70000004768,"correct":true,"confidence":3},{"trial_n":70,"n_dots":2.85,"target":"right","response":"left","rt":566.29999995232,"correct":false,"confidence":2},{"trial_n":71,"n_dots":2.95,"target":"right","response":"right","rt":401.79999995232,"correct":true,"confidence":3},{"trial_n":72,"n_dots":2.95,"target":"right","response":"left","rt":467.09999990463,"correct":false,"confidence":3},{"trial_n":73,"n_dots":3.05,"target":"right","response":"left","rt":462.20000004768,"correct":false,"confidence":2},{"trial_n":74,"n_dots":3.15,"target":"right","response":"left","rt":449.40000009537,"correct":false,"confidence":1},{"trial_n":75,"n_dots":3.25,"target":"left","response":"left","rt":396.79999995232,"correct":true,"confidence":3},{"trial_n":76,"n_dots":3.25,"target":"left","response":"left","rt":382,"correct":true,"confidence":4},{"trial_n":77,"n_dots":3.15,"target":"left","response":"left","rt":489.20000004768,"correct":true,"confidence":4},{"trial_n":78,"n_dots":3.15,"target":"right","response":"left","rt":3109.8000001907,"correct":false,"confidence":1},{"trial_n":79,"n_dots":3.25,"target":"left","response":"left","rt":389,"correct":true,"confidence":3},{"trial_n":80,"n_dots":3.25,"target":"left","response":"left","rt":525.70000004768,"correct":true,"confidence":2},{"trial_n":81,"n_dots":3.15,"target":"right","response":"right","rt":444,"correct":true,"confidence":2},{"trial_n":82,"n_dots":3.15,"target":"right","response":"left","rt":650.40000009537,"correct":false,"confidence":2},{"trial_n":83,"n_dots":3.25,"target":"left","response":"left","rt":525,"correct":true,"confidence":3},{"trial_n":84,"n_dots":3.25,"target":"right","response":"left","rt":719.30000019073,"correct":false,"confidence":2},{"trial_n":85,"n_dots":3.35,"target":"left","response":"right","rt":718.20000004768,"correct":false,"confidence":2},{"trial_n":86,"n_dots":3.45,"target":"right","response":"right","rt":369.60000014305,"correct":true,"confidence":2},{"trial_n":87,"n_dots":3.45,"target":"left","response":"left","rt":460.79999995232,"correct":true,"confidence":1},{"trial_n":88,"n_dots":3.35,"target":"right","response":"right","rt":590,"correct":true,"confidence":2},{"trial_n":89,"n_dots":3.35,"target":"left","response":"left","rt":503.39999985695,"correct":true,"confidence":2},{"trial_n":90,"n_dots":3.25,"target":"right","response":"right","rt":705.90000009537,"correct":true,"confidence":2},{"trial_n":91,"n_dots":3.25,"target":"left","response":"left","rt":502.10000014305,"correct":true,"confidence":3},{"trial_n":92,"n_dots":3.15,"target":"right","response":"right","rt":529.09999990463,"correct":true,"confidence":3},{"trial_n":93,"n_dots":3.15,"target":"left","response":"left","rt":504.39999985695,"correct":true,"confidence":2},{"trial_n":94,"n_dots":3.05,"target":"right","response":"left","rt":1311.4000000954,"correct":false,"confidence":1},{"trial_n":95,"n_dots":3.15,"target":"left","response":"right","rt":673.19999980927,"correct":false,"confidence":2},{"trial_n":96,"n_dots":3.25,"target":"right","response":"right","rt":373,"correct":true,"confidence":2},{"trial_n":97,"n_dots":3.25,"target":"right","response":"right","rt":491.09999990463,"correct":true,"confidence":1},{"trial_n":98,"n_dots":3.15,"target":"left","response":"right","rt":420,"correct":false,"confidence":1},{"trial_n":99,"n_dots":3.25,"target":"right","response":"right","rt":491.39999985695,"correct":true,"confidence":3},{"trial_n":100,"n_dots":3.25,"target":"left","response":"left","rt":636.09999990463,"correct":true,"confidence":2},{"trial_n":101,"n_dots":3.15,"target":"left","response":"left","rt":471.90000009537,"correct":true,"confidence":4},{"trial_n":102,"n_dots":3.15,"target":"left","response":"left","rt":915.79999995232,"correct":true,"confidence":3},{"trial_n":103,"n_dots":3.05,"target":"left","response":"left","rt":710.80000019073,"correct":true,"confidence":3},{"trial_n":104,"n_dots":3.05,"target":"left","response":"left","rt":594.79999995232,"correct":true,"confidence":2},{"trial_n":105,"n_dots":2.95,"target":"right","response":"right","rt":489.90000009537,"correct":true,"confidence":2},{"trial_n":106,"n_dots":2.95,"target":"right","response":"right","rt":2899.3000001907,"correct":true,"confidence":1},{"trial_n":107,"n_dots":2.85,"target":"left","response":"right","rt":784.70000004768,"correct":false,"confidence":3},{"trial_n":108,"n_dots":2.95,"target":"left","response":"left","rt":431.09999990463,"correct":true,"confidence":2},{"trial_n":109,"n_dots":2.95,"target":"left","response":"left","rt":575.29999995232,"correct":true,"confidence":2},{"trial_n":110,"n_dots":2.85,"target":"left","response":"left","rt":1278,"correct":true,"confidence":2},{"trial_n":111,"n_dots":2.85,"target":"left","response":"left","rt":580.89999985695,"correct":true,"confidence":1},{"trial_n":112,"n_dots":2.75,"target":"left","response":"right","rt":674.59999990463,"correct":false,"confidence":1},{"trial_n":113,"n_dots":2.85,"target":"left","response":"left","rt":549.79999995232,"correct":true,"confidence":2},{"trial_n":114,"n_dots":2.85,"target":"right","response":"left","rt":408.90000009537,"correct":false,"confidence":3},{"trial_n":115,"n_dots":2.95,"target":"right","response":"right","rt":1127.6000001431,"correct":true,"confidence":2},{"trial_n":116,"n_dots":2.95,"target":"left","response":"left","rt":2262.7000000477,"correct":true,"confidence":1},{"trial_n":117,"n_dots":2.85,"target":"left","response":"left","rt":573.19999980927,"correct":true,"confidence":3},{"trial_n":118,"n_dots":2.85,"target":"right","response":"right","rt":545.5,"correct":true,"confidence":3},{"trial_n":119,"n_dots":2.75,"target":"right","response":"right","rt":1066.1000001431,"correct":true,"confidence":2},{"trial_n":120,"n_dots":2.75,"target":"right","response":"left","rt":985.20000004768,"correct":false,"confidence":1}]