[{"trial_n":1,"span":8,"encoder":"03733026","distractor":"03733066","target":"present","response":"present","rt":"4521.7999999821","correct":true,"confidence":-1},{"trial_n":2,"span":8,"encoder":"38096944","distractor":"35096944","target":"present","response":"present","rt":"1291.8000000119","correct":true,"confidence":-1},{"trial_n":3,"span":10,"encoder":"5755712344","distractor":"5755212344","target":"absent","response":"present","rt":"1746.900000006","correct":false,"confidence":-1},{"trial_n":4,"span":8,"encoder":"37605339","distractor":"37608339","target":"absent","response":"absent","rt":"2513.099999994","correct":true,"confidence":-1},{"trial_n":5,"span":8,"encoder":"65267828","distractor":"45267828","target":"present","response":"present","rt":"1633.599999994","correct":true,"confidence":-1},{"trial_n":6,"span":10,"encoder":"6925215949","distractor":"6925015949","target":"present","response":"present","rt":"2153","correct":true,"confidence":-1},{"trial_n":7,"span":10,"encoder":"6304931994","distractor":"6308931994","target":"absent","response":"present","rt":"1511.400000006","correct":false,"confidence":-1},{"trial_n":8,"span":8,"encoder":"57136585","distractor":"57136545","target":"present","response":"present","rt":"1023.900000006","correct":true,"confidence":-1},{"trial_n":9,"span":8,"encoder":"54087060","distractor":"54027060","target":"absent","response":"present","rt":"973","correct":false,"confidence":-1},{"trial_n":10,"span":6,"encoder":"812860","distractor":"812862","target":"absent","response":"absent","rt":"1147.2000000179","correct":true,"confidence":-1},{"trial_n":11,"span":6,"encoder":"851134","distractor":"861134","target":"absent","response":"present","rt":"1362.400000006","correct":false,"confidence":-1},{"trial_n":12,"span":5,"encoder":"86042","distractor":"86012","target":"absent","response":"present","rt":"1207.8000000119","correct":false,"confidence":-1},{"trial_n":13,"span":4,"encoder":"6173","distractor":"3173","target":"absent","response":"absent","rt":"1610.6000000238","correct":true,"confidence":-1},{"trial_n":14,"span":4,"encoder":"6485","distractor":"6445","target":"present","response":"present","rt":"1346.900000006","correct":true,"confidence":-1},{"trial_n":15,"span":5,"encoder":"59855","distractor":"59850","target":"present","response":"present","rt":"798.5","correct":true,"confidence":-1},{"trial_n":16,"span":5,"encoder":"14367","distractor":"14368","target":"present","response":"present","rt":"1774.599999994","correct":true,"confidence":-1},{"trial_n":17,"span":6,"encoder":"426498","distractor":"476498","target":"present","response":"present","rt":"1419.1999999881","correct":true,"confidence":-1},{"trial_n":18,"span":6,"encoder":"401403","distractor":"451403","target":"absent","response":"present","rt":"792.59999999404","correct":false,"confidence":-1},{"trial_n":19,"span":5,"encoder":"59653","distractor":"59553","target":"present","response":"present","rt":"916.19999998808","correct":true,"confidence":-1},{"trial_n":20,"span":5,"encoder":"68015","distractor":"98015","target":"present","response":"present","rt":"2104.900000006","correct":true,"confidence":-1},{"trial_n":21,"span":6,"encoder":"063540","distractor":"063545","target":"absent","response":"present","rt":"2115.6999999881","correct":false,"confidence":4},{"trial_n":22,"span":5,"encoder":"90517","distractor":"90217","target":"absent","response":"present","rt":"1783.5","correct":false,"confidence":4},{"trial_n":23,"span":4,"encoder":"8763","distractor":"1763","target":"present","response":"present","rt":"1181.5","correct":true,"confidence":5},{"trial_n":24,"span":4,"encoder":"3950","distractor":"3910","target":"present","response":"present","rt":"1616.400000006","correct":true,"confidence":5},{"trial_n":25,"span":5,"encoder":"97729","distractor":"97749","target":"present","response":"present","rt":"1493.599999994","correct":true,"confidence":5},{"trial_n":26,"span":5,"encoder":"96667","distractor":"96647","target":"absent","response":"absent","rt":"1235.2999999821","correct":true,"confidence":4},{"trial_n":27,"span":6,"encoder":"566831","distractor":"566231","target":"absent","response":"absent","rt":"3031.400000006","correct":true,"confidence":3},{"trial_n":28,"span":6,"encoder":"575806","distractor":"571806","target":"present","response":"present","rt":"1404.6999999881","correct":true,"confidence":5},{"trial_n":29,"span":7,"encoder":"6819833","distractor":"6819853","target":"absent","response":"absent","rt":"4413.6999999881","correct":true,"confidence":2},{"trial_n":30,"span":7,"encoder":"7975816","distractor":"7975811","target":"absent","response":"present","rt":"4038.3000000119","correct":false,"confidence":3},{"trial_n":31,"span":6,"encoder":"458923","distractor":"458983","target":"present","response":"present","rt":"2607.900000006","correct":true,"confidence":4},{"trial_n":32,"span":6,"encoder":"431930","distractor":"431920","target":"absent","response":"present","rt":"1383","correct":false,"confidence":4},{"trial_n":33,"span":5,"encoder":"09165","distractor":"29165","target":"absent","response":"present","rt":"1318.2999999821","correct":false,"confidence":5},{"trial_n":34,"span":4,"encoder":"4069","distractor":"4066","target":"present","response":"present","rt":"715.5","correct":true,"confidence":5},{"trial_n":35,"span":4,"encoder":"7609","distractor":"7709","target":"present","response":"present","rt":"898.40000000596","correct":true,"confidence":5},{"trial_n":36,"span":5,"encoder":"07874","distractor":"07824","target":"absent","response":"absent","rt":"3662.400000006","correct":true,"confidence":3},{"trial_n":37,"span":5,"encoder":"15463","distractor":"15453","target":"absent","response":"present","rt":"3258.400000006","correct":false,"confidence":4},{"trial_n":38,"span":4,"encoder":"0698","distractor":"0696","target":"absent","response":"absent","rt":"1580.400000006","correct":true,"confidence":5},{"trial_n":39,"span":4,"encoder":"3043","distractor":"3643","target":"absent","response":"absent","rt":"1483.599999994","correct":true,"confidence":5},{"trial_n":40,"span":5,"encoder":"09228","distractor":"02228","target":"absent","response":"absent","rt":"1580.599999994","correct":true,"confidence":4},{"trial_n":41,"span":5,"encoder":"96675","distractor":"36675","target":"present","response":"present","rt":"1320.5","correct":true,"confidence":5},{"trial_n":42,"span":6,"encoder":"049997","distractor":"049397","target":"present","response":"present","rt":"1416.8000000119","correct":true,"confidence":4},{"trial_n":43,"span":6,"encoder":"326280","distractor":"326480","target":"present","response":"present","rt":"1761.5","correct":true,"confidence":5},{"trial_n":44,"span":7,"encoder":"1500327","distractor":"4500327","target":"present","response":"present","rt":"1634.8000000119","correct":true,"confidence":5},{"trial_n":45,"span":7,"encoder":"3690246","distractor":"3690266","target":"absent","response":"present","rt":"5357.7999999821","correct":false,"confidence":3},{"trial_n":46,"span":6,"encoder":"678152","distractor":"678172","target":"absent","response":"absent","rt":"2544.900000006","correct":true,"confidence":3},{"trial_n":47,"span":6,"encoder":"975498","distractor":"975198","target":"present","response":"present","rt":"3165.099999994","correct":true,"confidence":3},{"trial_n":48,"span":7,"encoder":"3515476","distractor":"3545476","target":"absent","response":"present","rt":"4362.400000006","correct":false,"confidence":3},{"trial_n":49,"span":6,"encoder":"683255","distractor":"673255","target":"present","response":"present","rt":"1885.8000000119","correct":true,"confidence":5},{"trial_n":50,"span":6,"encoder":"125542","distractor":"115542","target":"present","response":"present","rt":"1223.7999999821","correct":true,"confidence":5},{"trial_n":51,"span":7,"encoder":"1866800","distractor":"1886800","target":"absent","response":"present","rt":"1782","correct":false,"confidence":4},{"trial_n":52,"span":6,"encoder":"830912","distractor":"830942","target":"present","response":"present","rt":"1649.7999999821","correct":true,"confidence":5},{"trial_n":53,"span":6,"encoder":"141614","distractor":"149614","target":"present","response":"present","rt":"891.09999999404","correct":true,"confidence":5},{"trial_n":54,"span":7,"encoder":"0221234","distractor":"0281234","target":"absent","response":"absent","rt":"1770","correct":true,"confidence":3},{"trial_n":55,"span":7,"encoder":"0410378","distractor":"0419378","target":"absent","response":"absent","rt":"2289.6999999881","correct":true,"confidence":5},{"trial_n":56,"span":8,"encoder":"35154596","distractor":"15154596","target":"present","response":"present","rt":"2836.6999999881","correct":true,"confidence":3},{"trial_n":57,"span":8,"encoder":"29573608","distractor":"29573708","target":"present","response":"present","rt":"4826.099999994","correct":true,"confidence":3},{"trial_n":58,"span":9,"encoder":"752635216","distractor":"752630216","target":"present","response":"present","rt":"4958.099999994","correct":true,"confidence":3},{"trial_n":59,"span":9,"encoder":"845172595","distractor":"846172595","target":"absent","response":"present","rt":"2748.400000006","correct":false,"confidence":3},{"trial_n":60,"span":8,"encoder":"17542503","distractor":"17542508","target":"present","response":"present","rt":"3916.099999994","correct":true,"confidence":3},{"trial_n":61,"span":8,"encoder":"55221057","distractor":"55621057","target":"absent","response":"absent","rt":"1784.400000006","correct":true,"confidence":5},{"trial_n":62,"span":9,"encoder":"236851665","distractor":"236841665","target":"present","response":"present","rt":"3868.400000006","correct":true,"confidence":4},{"trial_n":63,"span":9,"encoder":"455979767","distractor":"455979967","target":"absent","response":"present","rt":"5428.900000006","correct":false,"confidence":3},{"trial_n":64,"span":8,"encoder":"81343124","distractor":"87343124","target":"absent","response":"present","rt":"6659.8000000119","correct":false,"confidence":2},{"trial_n":65,"span":7,"encoder":"6810549","distractor":"6810548","target":"present","response":"present","rt":"2399","correct":true,"confidence":4},{"trial_n":66,"span":7,"encoder":"2533658","distractor":"8533658","target":"absent","response":"present","rt":"2801.400000006","correct":false,"confidence":4},{"trial_n":67,"span":6,"encoder":"514018","distractor":"514918","target":"present","response":"present","rt":"2091.8000000119","correct":true,"confidence":5},{"trial_n":68,"span":6,"encoder":"918760","distractor":"118760","target":"present","response":"present","rt":"1757","correct":true,"confidence":5},{"trial_n":69,"span":7,"encoder":"0132456","distractor":"0132056","target":"absent","response":"present","rt":"3514.599999994","correct":false,"confidence":4},{"trial_n":70,"span":6,"encoder":"215046","distractor":"215045","target":"present","response":"present","rt":"1856.7999999821","correct":true,"confidence":5},{"trial_n":71,"span":8,"encoder":"85913067","distractor":"85713067","target":"present","response":"present","rt":"4195.099999994","correct":true,"confidence":-1},{"trial_n":72,"span":8,"encoder":"15564966","distractor":"65564966","target":"present","response":"absent","rt":"4967.6999999881","correct":false,"confidence":-1},{"trial_n":73,"span":7,"encoder":"5171619","distractor":"5179619","target":"absent","response":"absent","rt":"6212.5","correct":true,"confidence":-1},{"trial_n":74,"span":7,"encoder":"9367292","distractor":"9366292","target":"absent","response":"absent","rt":"3732.1999999881","correct":true,"confidence":-1},{"trial_n":75,"span":8,"encoder":"07213776","distractor":"07217776","target":"present","response":"present","rt":"2054.5","correct":true,"confidence":-1},{"trial_n":76,"span":8,"encoder":"00434620","distractor":"00434220","target":"present","response":"present","rt":"4435.8000000119","correct":true,"confidence":-1},{"trial_n":77,"span":9,"encoder":"970910092","distractor":"970910098","target":"present","response":"present","rt":"2109.2999999821","correct":true,"confidence":-1},{"trial_n":78,"span":9,"encoder":"300657270","distractor":"300654270","target":"absent","response":"present","rt":"8072.8000000119","correct":false,"confidence":-1},{"trial_n":79,"span":8,"encoder":"68624727","distractor":"61624727","target":"present","response":"present","rt":"3812.1999999881","correct":true,"confidence":-1},{"trial_n":80,"span":8,"encoder":"30926909","distractor":"36926909","target":"present","response":"present","rt":"3207.5","correct":true,"confidence":-1},{"trial_n":81,"span":9,"encoder":"995022138","distractor":"995052138","target":"present","response":"present","rt":"1988.099999994","correct":true,"confidence":-1},{"trial_n":82,"span":9,"encoder":"239416218","distractor":"639416218","target":"present","response":"present","rt":"5766.099999994","correct":true,"confidence":-1},{"trial_n":83,"span":10,"encoder":"0142806196","distractor":"0242806196","target":"present","response":"present","rt":"2797.3000000119","correct":true,"confidence":-1},{"trial_n":84,"span":10,"encoder":"7411324188","distractor":"9411324188","target":"absent","response":"absent","rt":"2477.099999994","correct":true,"confidence":-1},{"trial_n":85,"span":11,"encoder":"73650928333","distractor":"73650928332","target":"present","response":"present","rt":"1381.5","correct":true,"confidence":-1},{"trial_n":86,"span":11,"encoder":"19127617712","distractor":"13127617712","target":"present","response":"present","rt":"3786.5","correct":true,"confidence":-1},{"trial_n":87,"span":12,"encoder":"061984858898","distractor":"041984858898","target":"absent","response":"present","rt":"3264.400000006","correct":false,"confidence":-1},{"trial_n":88,"span":11,"encoder":"63092622089","distractor":"63092620089","target":"absent","response":"absent","rt":"2370","correct":true,"confidence":-1},{"trial_n":89,"span":11,"encoder":"94958154230","distractor":"94958154210","target":"absent","response":"absent","rt":"1743.599999994","correct":true,"confidence":-1},{"trial_n":90,"span":12,"encoder":"409624255573","distractor":"407624255573","target":"present","response":"present","rt":"6245.900000006","correct":true,"confidence":-1},{"trial_n":91,"span":12,"encoder":"127413949167","distractor":"187413949167","target":"absent","response":"present","rt":"4578","correct":false,"confidence":2},{"trial_n":92,"span":11,"encoder":"47246494519","distractor":"46246494519","target":"present","response":"present","rt":"5257","correct":true,"confidence":2},{"trial_n":93,"span":11,"encoder":"91506896226","distractor":"61506896226","target":"present","response":"absent","rt":"6586.1999999881","correct":false,"confidence":3},{"trial_n":94,"span":10,"encoder":"7227246305","distractor":"7227246605","target":"present","response":"present","rt":"6569.900000006","correct":true,"confidence":3},{"trial_n":95,"span":10,"encoder":"7328755927","distractor":"4328755927","target":"absent","response":"absent","rt":"3128.900000006","correct":true,"confidence":3},{"trial_n":96,"span":11,"encoder":"07370146410","distractor":"07570146410","target":"present","response":"present","rt":"4148.5","correct":true,"confidence":2},{"trial_n":97,"span":11,"encoder":"44150391890","distractor":"44150391800","target":"present","response":"present","rt":"5184.2999999821","correct":true,"confidence":4},{"trial_n":98,"span":12,"encoder":"433804893106","distractor":"433884893106","target":"present","response":"present","rt":"9495.400000006","correct":true,"confidence":2},{"trial_n":99,"span":12,"encoder":"598487931891","distractor":"594487931891","target":"absent","response":"absent","rt":"9675.5","correct":true,"confidence":2},{"trial_n":100,"span":13,"encoder":"4944048271530","distractor":"4944048271520","target":"present","response":"present","rt":"1864.099999994","correct":true,"confidence":4},{"trial_n":101,"span":13,"encoder":"8474501847795","distractor":"8474101847795","target":"absent","response":"absent","rt":"8193.900000006","correct":true,"confidence":2},{"trial_n":102,"span":14,"encoder":"46409227732002","distractor":"46409227732003","target":"absent","response":"absent","rt":"3320.6999999881","correct":true,"confidence":2},{"trial_n":103,"span":14,"encoder":"14608350398325","distractor":"14608390398325","target":"present","response":"present","rt":"6481.400000006","correct":true,"confidence":1},{"trial_n":104,"span":15,"encoder":"588325031773268","distractor":"585325031773268","target":"present","response":"absent","rt":"10697.900000006","correct":false,"confidence":1},{"trial_n":105,"span":14,"encoder":"54353170164944","distractor":"54353170134944","target":"absent","response":"present","rt":"6054.7999999821","correct":false,"confidence":1},{"trial_n":106,"span":13,"encoder":"5450181943420","distractor":"5450181923420","target":"absent","response":"absent","rt":"5621.599999994","correct":true,"confidence":1},{"trial_n":107,"span":13,"encoder":"3112006203586","distractor":"3112006703586","target":"present","response":"absent","rt":"6524.900000006","correct":false,"confidence":1},{"trial_n":108,"span":12,"encoder":"137684051132","distractor":"137684651132","target":"present","response":"present","rt":"5807.400000006","correct":true,"confidence":2},{"trial_n":109,"span":12,"encoder":"303177919764","distractor":"303177919164","target":"absent","response":"absent","rt":"6391","correct":true,"confidence":3},{"trial_n":110,"span":13,"encoder":"4165911487347","distractor":"6165911487347","target":"absent","response":"absent","rt":"4499.2999999821","correct":true,"confidence":2},{"trial_n":111,"span":13,"encoder":"9792127823006","distractor":"9792127023006","target":"absent","response":"absent","rt":"5018.599999994","correct":true,"confidence":1},{"trial_n":112,"span":14,"encoder":"86104532306744","distractor":"86104532316744","target":"present","response":"present","rt":"3020.099999994","correct":true,"confidence":1},{"trial_n":113,"span":14,"encoder":"08367712979504","distractor":"08367712079504","target":"absent","response":"absent","rt":"18751.800000012","correct":true,"confidence":1},{"trial_n":114,"span":15,"encoder":"108072374443610","distractor":"108072374403610","target":"absent","response":"present","rt":"3616.8000000119","correct":false,"confidence":3},{"trial_n":115,"span":14,"encoder":"23761214926739","distractor":"23761914926739","target":"absent","response":"present","rt":"8704.5","correct":false,"confidence":1},{"trial_n":116,"span":13,"encoder":"8481677418666","distractor":"8401677418666","target":"absent","response":"absent","rt":"6079","correct":true,"confidence":3},{"trial_n":117,"span":13,"encoder":"1382408439698","distractor":"1382402439698","target":"present","response":"absent","rt":"12688.400000006","correct":false,"confidence":2},{"trial_n":118,"span":12,"encoder":"324978308333","distractor":"324979308333","target":"present","response":"present","rt":"7740.6999999881","correct":true,"confidence":2},{"trial_n":119,"span":12,"encoder":"217873530512","distractor":"217873330512","target":"absent","response":"absent","rt":"4040.900000006","correct":true,"confidence":2},{"trial_n":120,"span":13,"encoder":"2525400916434","distractor":"2525400916494","target":"present","response":"present","rt":"6574.099999994","correct":true,"confidence":2},{"trial_n":121,"span":13,"encoder":"9282070947953","distractor":"9292070947953","target":"absent","response":"present","rt":"3494","correct":false,"confidence":3},{"trial_n":122,"span":12,"encoder":"523437181709","distractor":"523437181409","target":"present","response":"absent","rt":"6719","correct":false,"confidence":1},{"trial_n":123,"span":11,"encoder":"33928555510","distractor":"33928585510","target":"absent","response":"absent","rt":"1834.2999999821","correct":true,"confidence":5},{"trial_n":124,"span":11,"encoder":"82308796523","distractor":"82308796823","target":"absent","response":"absent","rt":"4755.400000006","correct":true,"confidence":3},{"trial_n":125,"span":12,"encoder":"044889285872","distractor":"064889285872","target":"absent","response":"absent","rt":"3009","correct":true,"confidence":4},{"trial_n":126,"span":12,"encoder":"733594185165","distractor":"733594285165","target":"absent","response":"present","rt":"5822.3000000119","correct":false,"confidence":2},{"trial_n":127,"span":11,"encoder":"75745572011","distractor":"75745562011","target":"present","response":"present","rt":"6347.6999999881","correct":true,"confidence":2},{"trial_n":128,"span":11,"encoder":"18424726631","distractor":"18434726631","target":"present","response":"present","rt":"5474.1000000238","correct":true,"confidence":2},{"trial_n":129,"span":12,"encoder":"499577253030","distractor":"499577253037","target":"absent","response":"present","rt":"5322.8000000119","correct":false,"confidence":3},{"trial_n":130,"span":11,"encoder":"36792328582","distractor":"56792328582","target":"absent","response":"absent","rt":"5812.1999999881","correct":true,"confidence":1},{"trial_n":131,"span":11,"encoder":"75454520396","distractor":"75455520396","target":"absent","response":"absent","rt":"2005.6999999881","correct":true,"confidence":5},{"trial_n":132,"span":12,"encoder":"412567809189","distractor":"412567209189","target":"absent","response":"absent","rt":"6568.900000006","correct":true,"confidence":1},{"trial_n":133,"span":12,"encoder":"621702007212","distractor":"629702007212","target":"absent","response":"absent","rt":"4402.599999994","correct":true,"confidence":1},{"trial_n":134,"span":13,"encoder":"0131954435697","distractor":"0131954435696","target":"absent","response":"absent","rt":"3362.5","correct":true,"confidence":4},{"trial_n":135,"span":13,"encoder":"6419223742309","distractor":"6429223742309","target":"present","response":"present","rt":"7150.400000006","correct":true,"confidence":2},{"trial_n":136,"span":14,"encoder":"03668467349946","distractor":"03668460349946","target":"present","response":"present","rt":"5907.400000006","correct":true,"confidence":1},{"trial_n":137,"span":14,"encoder":"03835691834120","distractor":"03935691834120","target":"present","response":"present","rt":"16879.699999988","correct":true,"confidence":2},{"trial_n":138,"span":15,"encoder":"092049010104558","distractor":"092049010504558","target":"present","response":"absent","rt":"9216.900000006","correct":false,"confidence":1},{"trial_n":139,"span":14,"encoder":"39122577257863","distractor":"39122577257663","target":"absent","response":"absent","rt":"3257.099999994","correct":true,"confidence":2},{"trial_n":140,"span":14,"encoder":"37789851220602","distractor":"37789851220102","target":"present","response":"present","rt":"5929.6999999881","correct":true,"confidence":2}]