[{"trial_n":1,"min":25,"max":230,"target":"present","response":"absent","rt":9063.2000000477,"correct":false,"confidence":-1},{"trial_n":2,"min":25,"max":230,"target":"present","response":"present","rt":3482.3999998569,"correct":true,"confidence":-1},{"trial_n":3,"min":25,"max":230,"target":"absent","response":"present","rt":1900,"correct":false,"confidence":-1},{"trial_n":4,"min":9,"max":246,"target":"absent","response":"absent","rt":754,"correct":true,"confidence":-1},{"trial_n":5,"min":9,"max":246,"target":"present","response":"absent","rt":689.69999980927,"correct":false,"confidence":-1},{"trial_n":6,"min":0,"max":255,"target":"absent","response":"present","rt":673.70000004768,"correct":false,"confidence":-1},{"trial_n":7,"min":0,"max":255,"target":"present","response":"absent","rt":448.5,"correct":false,"confidence":-1},{"trial_n":8,"min":0,"max":255,"target":"absent","response":"present","rt":2077.4000000954,"correct":false,"confidence":-1},{"trial_n":9,"min":0,"max":255,"target":"absent","response":"absent","rt":2480.6000001431,"correct":true,"confidence":-1},{"trial_n":10,"min":0,"max":255,"target":"present","response":"absent","rt":749.70000004768,"correct":false,"confidence":-1},{"trial_n":11,"min":0,"max":255,"target":"absent","response":"present","rt":509.90000009537,"correct":false,"confidence":-1},{"trial_n":12,"min":0,"max":255,"target":"present","response":"absent","rt":432.79999995232,"correct":false,"confidence":-1},{"trial_n":13,"min":0,"max":255,"target":"absent","response":"present","rt":665.59999990463,"correct":false,"confidence":-1},{"trial_n":14,"min":0,"max":255,"target":"present","response":"absent","rt":147.40000009537,"correct":false,"confidence":-1},{"trial_n":15,"min":0,"max":255,"target":"present","response":"absent","rt":18.400000095367,"correct":false,"confidence":-1},{"trial_n":16,"min":0,"max":255,"target":"absent","response":"absent","rt":-0.60000014305115,"correct":true,"confidence":-1},{"trial_n":17,"min":0,"max":255,"target":"present","response":"absent","rt":86.200000047684,"correct":false,"confidence":-1},{"trial_n":18,"min":0,"max":255,"target":"present","response":"absent","rt":51.200000047684,"correct":false,"confidence":-1},{"trial_n":19,"min":0,"max":255,"target":"absent","response":"absent","rt":8.1000001430511,"correct":true,"confidence":-1},{"trial_n":20,"min":0,"max":255,"target":"absent","response":"absent","rt":116,"correct":true,"confidence":-1},{"trial_n":21,"min":4,"max":251,"target":"absent","response":"absent","rt":436.39999985695,"correct":true,"confidence":1},{"trial_n":22,"min":4,"max":251,"target":"present","response":"present","rt":211.5,"correct":true,"confidence":1},{"trial_n":23,"min":8,"max":247,"target":"absent","response":"present","rt":437.40000009537,"correct":false,"confidence":1},{"trial_n":24,"min":4,"max":251,"target":"present","response":"present","rt":47.200000047684,"correct":true,"confidence":1},{"trial_n":25,"min":4,"max":251,"target":"present","response":"absent","rt":54.099999904633,"correct":false,"confidence":1},{"trial_n":26,"min":0,"max":255,"target":"present","response":"present","rt":216,"correct":true,"confidence":1},{"trial_n":27,"min":0,"max":255,"target":"absent","response":"present","rt":204.79999995232,"correct":false,"confidence":1},{"trial_n":28,"min":0,"max":255,"target":"present","response":"present","rt":186,"correct":true,"confidence":1},{"trial_n":29,"min":0,"max":255,"target":"absent","response":"present","rt":351.79999995232,"correct":false,"confidence":1},{"trial_n":30,"min":0,"max":255,"target":"present","response":"present","rt":215,"correct":true,"confidence":1},{"trial_n":31,"min":0,"max":255,"target":"absent","response":"present","rt":232.40000009537,"correct":false,"confidence":1},{"trial_n":32,"min":0,"max":255,"target":"present","response":"present","rt":290.59999990463,"correct":true,"confidence":1},{"trial_n":33,"min":0,"max":255,"target":"absent","response":"present","rt":222,"correct":false,"confidence":1},{"trial_n":34,"min":0,"max":255,"target":"present","response":"present","rt":93.299999952316,"correct":true,"confidence":1},{"trial_n":35,"min":0,"max":255,"target":"present","response":"present","rt":145.39999985695,"correct":true,"confidence":1},{"trial_n":36,"min":2,"max":253,"target":"absent","response":"present","rt":157.5,"correct":false,"confidence":1},{"trial_n":37,"min":0,"max":255,"target":"present","response":"present","rt":222.20000004768,"correct":true,"confidence":1},{"trial_n":38,"min":0,"max":255,"target":"absent","response":"present","rt":143.39999985695,"correct":false,"confidence":1},{"trial_n":39,"min":0,"max":255,"target":"absent","response":"present","rt":174.79999995232,"correct":false,"confidence":1},{"trial_n":40,"min":0,"max":255,"target":"present","response":"present","rt":154.70000004768,"correct":true,"confidence":1},{"trial_n":41,"min":0,"max":255,"target":"present","response":"present","rt":79.700000047684,"correct":true,"confidence":1},{"trial_n":42,"min":1,"max":254,"target":"present","response":"present","rt":152.59999990463,"correct":true,"confidence":1},{"trial_n":43,"min":1,"max":254,"target":"absent","response":"present","rt":170.60000014305,"correct":false,"confidence":1},{"trial_n":44,"min":0,"max":255,"target":"present","response":"present","rt":177.5,"correct":true,"confidence":1},{"trial_n":45,"min":0,"max":255,"target":"absent","response":"present","rt":162.29999995232,"correct":false,"confidence":1},{"trial_n":46,"min":0,"max":255,"target":"present","response":"present","rt":121.29999995232,"correct":true,"confidence":1},{"trial_n":47,"min":0,"max":255,"target":"absent","response":"present","rt":86.299999952316,"correct":false,"confidence":1},{"trial_n":48,"min":0,"max":255,"target":"present","response":"present","rt":149.5,"correct":true,"confidence":1},{"trial_n":49,"min":0,"max":255,"target":"absent","response":"present","rt":199.20000004768,"correct":false,"confidence":1},{"trial_n":50,"min":0,"max":255,"target":"absent","response":"present","rt":258.10000014305,"correct":false,"confidence":1},{"trial_n":51,"min":0,"max":255,"target":"absent","response":"present","rt":304.10000014305,"correct":false,"confidence":1},{"trial_n":52,"min":0,"max":255,"target":"present","response":"present","rt":120.5,"correct":true,"confidence":1},{"trial_n":53,"min":0,"max":255,"target":"absent","response":"present","rt":140.60000014305,"correct":false,"confidence":1},{"trial_n":54,"min":0,"max":255,"target":"present","response":"absent","rt":3651.2999999523,"correct":false,"confidence":1},{"trial_n":55,"min":0,"max":255,"target":"absent","response":"absent","rt":543.59999990463,"correct":true,"confidence":1},{"trial_n":56,"min":0,"max":255,"target":"present","response":"absent","rt":333,"correct":false,"confidence":1},{"trial_n":57,"min":0,"max":255,"target":"present","response":"absent","rt":239.90000009537,"correct":false,"confidence":1},{"trial_n":58,"min":0,"max":255,"target":"absent","response":"present","rt":227,"correct":false,"confidence":1},{"trial_n":59,"min":0,"max":255,"target":"absent","response":"present","rt":317.90000009537,"correct":false,"confidence":1},{"trial_n":60,"min":0,"max":255,"target":"present","response":"absent","rt":25.799999952316,"correct":false,"confidence":1},{"trial_n":61,"min":0,"max":255,"target":"present","response":"present","rt":337.5,"correct":true,"confidence":1},{"trial_n":62,"min":0,"max":255,"target":"absent","response":"present","rt":292.60000014305,"correct":false,"confidence":1},{"trial_n":63,"min":0,"max":255,"target":"present","response":"absent","rt":13.600000143051,"correct":false,"confidence":1},{"trial_n":64,"min":0,"max":255,"target":"absent","response":"present","rt":255.5,"correct":false,"confidence":1},{"trial_n":65,"min":0,"max":255,"target":"present","response":"present","rt":230.20000004768,"correct":true,"confidence":1},{"trial_n":66,"min":0,"max":255,"target":"absent","response":"present","rt":13.099999904633,"correct":false,"confidence":1},{"trial_n":67,"min":0,"max":255,"target":"present","response":"present","rt":49.900000095367,"correct":true,"confidence":1},{"trial_n":68,"min":0,"max":255,"target":"absent","response":"absent","rt":1365.4000000954,"correct":true,"confidence":1},{"trial_n":69,"min":1,"max":254,"target":"absent","response":"present","rt":291.59999990463,"correct":false,"confidence":1},{"trial_n":70,"min":0,"max":255,"target":"present","response":"present","rt":342.09999990463,"correct":true,"confidence":1},{"trial_n":71,"min":41,"max":214,"target":"present","response":"present","rt":1690.2000000477,"correct":true,"confidence":-1},{"trial_n":72,"min":41,"max":214,"target":"present","response":"absent","rt":491.90000009537,"correct":false,"confidence":-1},{"trial_n":73,"min":25,"max":230,"target":"absent","response":"absent","rt":546.69999980927,"correct":true,"confidence":-1},{"trial_n":74,"min":25,"max":230,"target":"absent","response":"present","rt":351.70000004768,"correct":false,"confidence":-1},{"trial_n":75,"min":9,"max":246,"target":"present","response":"present","rt":992.40000009537,"correct":true,"confidence":-1},{"trial_n":76,"min":9,"max":246,"target":"absent","response":"present","rt":402.40000009537,"correct":false,"confidence":-1},{"trial_n":77,"min":0,"max":255,"target":"present","response":"absent","rt":467.09999990463,"correct":false,"confidence":-1},{"trial_n":78,"min":0,"max":255,"target":"absent","response":"present","rt":2124.1000001431,"correct":false,"confidence":-1},{"trial_n":79,"min":0,"max":255,"target":"present","response":"present","rt":2231.2999999523,"correct":true,"confidence":-1},{"trial_n":80,"min":0,"max":255,"target":"absent","response":"present","rt":471.90000009537,"correct":false,"confidence":-1},{"trial_n":81,"min":0,"max":255,"target":"present","response":"absent","rt":554.90000009537,"correct":false,"confidence":-1},{"trial_n":82,"min":0,"max":255,"target":"present","response":"absent","rt":397.70000004768,"correct":false,"confidence":-1},{"trial_n":83,"min":0,"max":255,"target":"absent","response":"absent","rt":72.700000047684,"correct":true,"confidence":-1},{"trial_n":84,"min":0,"max":255,"target":"absent","response":"absent","rt":10.600000143051,"correct":true,"confidence":-1},{"trial_n":85,"min":8,"max":247,"target":"present","response":"present","rt":2.1999998092651,"correct":true,"confidence":-1},{"trial_n":86,"min":8,"max":247,"target":"present","response":"present","rt":171.29999995232,"correct":true,"confidence":-1},{"trial_n":87,"min":16,"max":239,"target":"present","response":"present","rt":232,"correct":true,"confidence":-1},{"trial_n":88,"min":16,"max":239,"target":"absent","response":"present","rt":281.10000014305,"correct":false,"confidence":-1},{"trial_n":89,"min":8,"max":247,"target":"present","response":"present","rt":566,"correct":true,"confidence":-1},{"trial_n":90,"min":8,"max":247,"target":"absent","response":"absent","rt":70.100000143051,"correct":true,"confidence":-1},{"trial_n":91,"min":12,"max":243,"target":"present","response":"absent","rt":148.79999995232,"correct":false,"confidence":1},{"trial_n":92,"min":8,"max":247,"target":"present","response":"present","rt":207.60000014305,"correct":true,"confidence":1},{"trial_n":93,"min":8,"max":247,"target":"present","response":"present","rt":15.400000095367,"correct":true,"confidence":1},{"trial_n":94,"min":12,"max":243,"target":"absent","response":"present","rt":15.399999856949,"correct":false,"confidence":1},{"trial_n":95,"min":8,"max":247,"target":"absent","response":"present","rt":214.19999980927,"correct":false,"confidence":1},{"trial_n":96,"min":4,"max":251,"target":"present","response":"present","rt":101.29999995232,"correct":true,"confidence":1},{"trial_n":97,"min":4,"max":251,"target":"present","response":"present","rt":16,"correct":true,"confidence":1},{"trial_n":98,"min":8,"max":247,"target":"present","response":"present","rt":9.7999999523163,"correct":true,"confidence":1},{"trial_n":99,"min":8,"max":247,"target":"present","response":"present","rt":13.600000143051,"correct":true,"confidence":1},{"trial_n":100,"min":12,"max":243,"target":"absent","response":"present","rt":21,"correct":false,"confidence":1},{"trial_n":101,"min":10,"max":245,"target":"absent","response":"present","rt":150.89999985695,"correct":false,"confidence":1},{"trial_n":102,"min":8,"max":247,"target":"present","response":"present","rt":178.60000014305,"correct":true,"confidence":1},{"trial_n":103,"min":8,"max":247,"target":"present","response":"present","rt":18.700000047684,"correct":true,"confidence":1},{"trial_n":104,"min":10,"max":245,"target":"absent","response":"present","rt":188.29999995232,"correct":false,"confidence":1},{"trial_n":105,"min":8,"max":247,"target":"present","response":"present","rt":115.40000009537,"correct":true,"confidence":1},{"trial_n":106,"min":8,"max":247,"target":"present","response":"present","rt":111.20000004768,"correct":true,"confidence":1},{"trial_n":107,"min":10,"max":245,"target":"present","response":"present","rt":228.20000004768,"correct":true,"confidence":1},{"trial_n":108,"min":10,"max":245,"target":"absent","response":"present","rt":177.09999990463,"correct":false,"confidence":1},{"trial_n":109,"min":8,"max":247,"target":"present","response":"present","rt":178.09999990463,"correct":true,"confidence":1},{"trial_n":110,"min":8,"max":247,"target":"absent","response":"present","rt":187,"correct":false,"confidence":1},{"trial_n":111,"min":7,"max":248,"target":"absent","response":"absent","rt":252.20000004768,"correct":true,"confidence":2},{"trial_n":112,"min":7,"max":248,"target":"absent","response":"absent","rt":5.2999999523163,"correct":true,"confidence":1},{"trial_n":113,"min":8,"max":247,"target":"present","response":"absent","rt":146.60000014305,"correct":false,"confidence":1},{"trial_n":114,"min":7,"max":248,"target":"absent","response":"absent","rt":121.39999985695,"correct":true,"confidence":1},{"trial_n":115,"min":7,"max":248,"target":"present","response":"absent","rt":148.20000004768,"correct":false,"confidence":1},{"trial_n":116,"min":6,"max":249,"target":"present","response":"absent","rt":60.299999952316,"correct":false,"confidence":1},{"trial_n":117,"min":5,"max":250,"target":"absent","response":"absent","rt":121.20000004768,"correct":true,"confidence":1},{"trial_n":118,"min":5,"max":250,"target":"absent","response":"absent","rt":346.90000009537,"correct":true,"confidence":1},{"trial_n":119,"min":6,"max":249,"target":"absent","response":"present","rt":203.90000009537,"correct":false,"confidence":1},{"trial_n":120,"min":5,"max":250,"target":"absent","response":"present","rt":794.79999995232,"correct":false,"confidence":1},{"trial_n":121,"min":4,"max":251,"target":"absent","response":"present","rt":146.60000014305,"correct":false,"confidence":1},{"trial_n":122,"min":3,"max":252,"target":"absent","response":"absent","rt":40.400000095367,"correct":true,"confidence":1},{"trial_n":123,"min":3,"max":252,"target":"absent","response":"absent","rt":104.5,"correct":true,"confidence":1},{"trial_n":124,"min":4,"max":251,"target":"absent","response":"absent","rt":33.700000047684,"correct":true,"confidence":1},{"trial_n":125,"min":4,"max":251,"target":"absent","response":"present","rt":110.40000009537,"correct":false,"confidence":1},{"trial_n":126,"min":3,"max":252,"target":"absent","response":"absent","rt":90.200000047684,"correct":true,"confidence":1},{"trial_n":127,"min":3,"max":252,"target":"present","response":"present","rt":236,"correct":true,"confidence":1},{"trial_n":128,"min":4,"max":251,"target":"absent","response":"present","rt":450,"correct":false,"confidence":1},{"trial_n":129,"min":3,"max":252,"target":"present","response":"absent","rt":119.60000014305,"correct":false,"confidence":1},{"trial_n":130,"min":2,"max":253,"target":"absent","response":"present","rt":165.69999980927,"correct":false,"confidence":1},{"trial_n":131,"min":1,"max":254,"target":"present","response":"absent","rt":78.799999952316,"correct":false,"confidence":1},{"trial_n":132,"min":0,"max":255,"target":"present","response":"present","rt":126.10000014305,"correct":true,"confidence":1},{"trial_n":133,"min":0,"max":255,"target":"present","response":"present","rt":210.5,"correct":true,"confidence":1},{"trial_n":134,"min":1,"max":254,"target":"absent","response":"present","rt":311.40000009537,"correct":false,"confidence":1},{"trial_n":135,"min":0,"max":255,"target":"absent","response":"present","rt":182.5,"correct":false,"confidence":1},{"trial_n":136,"min":0,"max":255,"target":"present","response":"present","rt":-53.699999809265,"correct":true,"confidence":1},{"trial_n":137,"min":0,"max":255,"target":"present","response":"absent","rt":60.200000047684,"correct":false,"confidence":1},{"trial_n":138,"min":0,"max":255,"target":"present","response":"absent","rt":405.09999990463,"correct":false,"confidence":1},{"trial_n":139,"min":0,"max":255,"target":"absent","response":"absent","rt":334.09999990463,"correct":true,"confidence":1},{"trial_n":140,"min":0,"max":255,"target":"present","response":"absent","rt":236.5,"correct":false,"confidence":1}]