[{"trial_n":1,"span":8,"encoder":"81359990","distractor":"81359940","target":"present","response":"present","rt":"11386.699999999","correct":true,"confidence":-1},{"trial_n":2,"span":8,"encoder":"07912062","distractor":"07912064","target":"present","response":"absent","rt":"2844","correct":false,"confidence":-1},{"trial_n":3,"span":6,"encoder":"060116","distractor":"060118","target":"absent","response":"absent","rt":"2048.2999999989","correct":true,"confidence":-1},{"trial_n":4,"span":6,"encoder":"647833","distractor":"642833","target":"absent","response":"absent","rt":"1530.2999999989","correct":true,"confidence":-1},{"trial_n":5,"span":8,"encoder":"86421383","distractor":"86621383","target":"present","response":"absent","rt":"1819.8000000007","correct":false,"confidence":-1},{"trial_n":6,"span":6,"encoder":"913788","distractor":"913588","target":"present","response":"present","rt":"1444.3000000007","correct":true,"confidence":-1},{"trial_n":7,"span":6,"encoder":"303653","distractor":"303553","target":"present","response":"present","rt":"1157.9000000004","correct":true,"confidence":-1},{"trial_n":8,"span":8,"encoder":"95414343","distractor":"95414340","target":"present","response":"absent","rt":"2972.9000000004","correct":false,"confidence":-1},{"trial_n":9,"span":6,"encoder":"731215","distractor":"735215","target":"present","response":"absent","rt":"1059","correct":false,"confidence":-1},{"trial_n":10,"span":4,"encoder":"5745","distractor":"9745","target":"absent","response":"absent","rt":"1325.3000000007","correct":true,"confidence":-1},{"trial_n":11,"span":4,"encoder":"2448","distractor":"5448","target":"absent","response":"absent","rt":"1066.2000000011","correct":true,"confidence":-1},{"trial_n":12,"span":5,"encoder":"25865","distractor":"25855","target":"present","response":"present","rt":"2580","correct":true,"confidence":-1},{"trial_n":13,"span":5,"encoder":"41215","distractor":"41217","target":"present","response":"present","rt":"1340.9000000004","correct":true,"confidence":-1},{"trial_n":14,"span":6,"encoder":"190360","distractor":"160360","target":"absent","response":"absent","rt":"1402.9000000004","correct":true,"confidence":-1},{"trial_n":15,"span":6,"encoder":"434505","distractor":"484505","target":"absent","response":"absent","rt":"1861.2999999989","correct":true,"confidence":-1},{"trial_n":16,"span":7,"encoder":"5005869","distractor":"5006869","target":"absent","response":"present","rt":"1891","correct":false,"confidence":-1},{"trial_n":17,"span":6,"encoder":"750892","distractor":"757892","target":"present","response":"present","rt":"9761","correct":true,"confidence":-1},{"trial_n":18,"span":6,"encoder":"655773","distractor":"055773","target":"absent","response":"absent","rt":"1265","correct":true,"confidence":-1},{"trial_n":19,"span":7,"encoder":"3663683","distractor":"3623683","target":"absent","response":"absent","rt":"1200.5","correct":true,"confidence":-1},{"trial_n":20,"span":7,"encoder":"3425858","distractor":"3425859","target":"absent","response":"absent","rt":"1819.0999999996","correct":true,"confidence":-1},{"trial_n":21,"span":8,"encoder":"16518321","distractor":"16518371","target":"present","response":"present","rt":"2168.6999999993","correct":true,"confidence":2},{"trial_n":22,"span":8,"encoder":"95623925","distractor":"95623921","target":"absent","response":"present","rt":"3292.1999999993","correct":false,"confidence":2},{"trial_n":23,"span":7,"encoder":"4863072","distractor":"4861072","target":"present","response":"present","rt":"2872.7000000011","correct":true,"confidence":3},{"trial_n":24,"span":7,"encoder":"5984191","distractor":"5984131","target":"present","response":"present","rt":"2059.5","correct":true,"confidence":5},{"trial_n":25,"span":8,"encoder":"63808601","distractor":"69808601","target":"absent","response":"absent","rt":"1739.7999999989","correct":true,"confidence":4},{"trial_n":26,"span":8,"encoder":"29041662","distractor":"29041642","target":"present","response":"present","rt":"1976.5","correct":true,"confidence":5},{"trial_n":27,"span":9,"encoder":"405720500","distractor":"405720550","target":"absent","response":"present","rt":"2332.0999999996","correct":false,"confidence":2},{"trial_n":28,"span":8,"encoder":"29802181","distractor":"29802183","target":"present","response":"present","rt":"2338.5","correct":true,"confidence":3},{"trial_n":29,"span":8,"encoder":"19021755","distractor":"19921755","target":"present","response":"present","rt":"2073.2000000011","correct":true,"confidence":4},{"trial_n":30,"span":9,"encoder":"188742396","distractor":"188742397","target":"absent","response":"absent","rt":"2601.4000000004","correct":true,"confidence":3},{"trial_n":31,"span":9,"encoder":"055434228","distractor":"555434228","target":"absent","response":"absent","rt":"1447.6999999993","correct":true,"confidence":3},{"trial_n":32,"span":10,"encoder":"1345454403","distractor":"1343454403","target":"present","response":"present","rt":"3197.1999999993","correct":true,"confidence":2},{"trial_n":33,"span":10,"encoder":"1295118963","distractor":"1995118963","target":"present","response":"present","rt":"2547.2999999989","correct":true,"confidence":1},{"trial_n":34,"span":11,"encoder":"43500132307","distractor":"43509132307","target":"absent","response":"absent","rt":"2075.6999999993","correct":true,"confidence":2},{"trial_n":35,"span":11,"encoder":"16029607063","distractor":"16429607063","target":"absent","response":"absent","rt":"1451.2999999989","correct":true,"confidence":3},{"trial_n":36,"span":12,"encoder":"448939418777","distractor":"448999418777","target":"present","response":"absent","rt":"2902.0999999996","correct":false,"confidence":2},{"trial_n":37,"span":11,"encoder":"81194856993","distractor":"81194456993","target":"present","response":"present","rt":"4370","correct":true,"confidence":1},{"trial_n":38,"span":11,"encoder":"14514611010","distractor":"14516611010","target":"absent","response":"present","rt":"2699.5999999996","correct":false,"confidence":2},{"trial_n":39,"span":10,"encoder":"2974024472","distractor":"2974024972","target":"present","response":"present","rt":"2786.8999999985","correct":true,"confidence":2},{"trial_n":40,"span":10,"encoder":"0499709347","distractor":"0099709347","target":"present","response":"present","rt":"3543.3999999985","correct":true,"confidence":2},{"trial_n":41,"span":11,"encoder":"72167723451","distractor":"72167023451","target":"present","response":"present","rt":"3098.2999999989","correct":true,"confidence":2},{"trial_n":42,"span":11,"encoder":"88721631321","distractor":"86721631321","target":"absent","response":"absent","rt":"2589","correct":true,"confidence":1},{"trial_n":43,"span":12,"encoder":"550764617531","distractor":"550764917531","target":"present","response":"present","rt":"2194.8000000007","correct":true,"confidence":1},{"trial_n":44,"span":12,"encoder":"665598631490","distractor":"665588631490","target":"absent","response":"present","rt":"3887.4000000004","correct":false,"confidence":1},{"trial_n":45,"span":11,"encoder":"63698989518","distractor":"63694989518","target":"present","response":"present","rt":"1776.3000000007","correct":true,"confidence":1},{"trial_n":46,"span":11,"encoder":"53760187000","distractor":"57760187000","target":"absent","response":"absent","rt":"2139.2000000011","correct":true,"confidence":1},{"trial_n":47,"span":12,"encoder":"268506092790","distractor":"168506092790","target":"absent","response":"absent","rt":"2879.3000000007","correct":true,"confidence":1},{"trial_n":48,"span":12,"encoder":"837458854432","distractor":"827458854432","target":"absent","response":"present","rt":"1667","correct":false,"confidence":1},{"trial_n":49,"span":11,"encoder":"98197697167","distractor":"98167697167","target":"absent","response":"present","rt":"2011.8000000007","correct":false,"confidence":1},{"trial_n":50,"span":10,"encoder":"9271998432","distractor":"9271998430","target":"absent","response":"present","rt":"3060.4000000004","correct":false,"confidence":1},{"trial_n":51,"span":9,"encoder":"929674131","distractor":"329674131","target":"absent","response":"absent","rt":"1830.7000000011","correct":true,"confidence":3},{"trial_n":52,"span":9,"encoder":"521924207","distractor":"531924207","target":"absent","response":"absent","rt":"1285.1999999993","correct":true,"confidence":3},{"trial_n":53,"span":10,"encoder":"1583284271","distractor":"1553284271","target":"present","response":"present","rt":"3288.7000000011","correct":true,"confidence":1},{"trial_n":54,"span":10,"encoder":"3820614270","distractor":"3820644270","target":"present","response":"present","rt":"2627.5999999996","correct":true,"confidence":2},{"trial_n":55,"span":11,"encoder":"42028106409","distractor":"42024106409","target":"present","response":"absent","rt":"1901.6000000015","correct":false,"confidence":1},{"trial_n":56,"span":10,"encoder":"7745438501","distractor":"7345438501","target":"absent","response":"present","rt":"5660.3999999985","correct":false,"confidence":1},{"trial_n":57,"span":9,"encoder":"407747739","distractor":"477747739","target":"present","response":"present","rt":"3513.9000000004","correct":true,"confidence":1},{"trial_n":58,"span":9,"encoder":"940678811","distractor":"940677811","target":"absent","response":"present","rt":"3598.0999999996","correct":false,"confidence":1},{"trial_n":59,"span":8,"encoder":"63950291","distractor":"23950291","target":"absent","response":"absent","rt":"2275.2999999989","correct":true,"confidence":1},{"trial_n":60,"span":8,"encoder":"90208850","distractor":"90208810","target":"present","response":"present","rt":"2557.9000000004","correct":true,"confidence":2},{"trial_n":61,"span":9,"encoder":"751574537","distractor":"751554537","target":"absent","response":"absent","rt":"2547.2999999989","correct":true,"confidence":2},{"trial_n":62,"span":9,"encoder":"376389309","distractor":"376384309","target":"absent","response":"absent","rt":"1726.0999999996","correct":true,"confidence":2},{"trial_n":63,"span":10,"encoder":"8036571485","distractor":"8036576485","target":"absent","response":"absent","rt":"1215.6999999993","correct":true,"confidence":3},{"trial_n":64,"span":10,"encoder":"7036426094","distractor":"7036446094","target":"present","response":"present","rt":"3732.5","correct":true,"confidence":2},{"trial_n":65,"span":11,"encoder":"21349472877","distractor":"21349472878","target":"present","response":"present","rt":"1971.5999999996","correct":true,"confidence":2},{"trial_n":66,"span":11,"encoder":"20056381753","distractor":"20056381754","target":"present","response":"present","rt":"2627","correct":true,"confidence":2},{"trial_n":67,"span":12,"encoder":"599803041611","distractor":"599803041613","target":"present","response":"present","rt":"2185.6999999993","correct":true,"confidence":1},{"trial_n":68,"span":12,"encoder":"074197294932","distractor":"074197264932","target":"present","response":"present","rt":"1345","correct":true,"confidence":1},{"trial_n":69,"span":13,"encoder":"3174608907357","distractor":"3174638907357","target":"absent","response":"present","rt":"1623.1000000015","correct":false,"confidence":1},{"trial_n":70,"span":12,"encoder":"963252158873","distractor":"963256158873","target":"present","response":"present","rt":"1389.3000000007","correct":true,"confidence":1},{"trial_n":71,"span":8,"encoder":"57733952","distractor":"57743952","target":"present","response":"present","rt":"2227.6000000015","correct":true,"confidence":-1},{"trial_n":72,"span":8,"encoder":"88407529","distractor":"88407527","target":"present","response":"present","rt":"1317.1000000015","correct":true,"confidence":-1},{"trial_n":73,"span":9,"encoder":"210646638","distractor":"210648638","target":"absent","response":"present","rt":"319.5","correct":false,"confidence":-1},{"trial_n":74,"span":8,"encoder":"43935006","distractor":"43935806","target":"absent","response":"present","rt":"593.69999999925","correct":false,"confidence":-1},{"trial_n":75,"span":7,"encoder":"9598937","distractor":"9588937","target":"present","response":"present","rt":"998","correct":true,"confidence":-1},{"trial_n":76,"span":7,"encoder":"4558001","distractor":"4508001","target":"absent","response":"present","rt":"1153.1999999993","correct":false,"confidence":-1},{"trial_n":77,"span":6,"encoder":"678564","distractor":"675564","target":"absent","response":"present","rt":"1537.299999997","correct":false,"confidence":-1},{"trial_n":78,"span":5,"encoder":"70903","distractor":"20903","target":"absent","response":"present","rt":"1210.0999999978","correct":false,"confidence":-1},{"trial_n":79,"span":4,"encoder":"3497","distractor":"1497","target":"present","response":"present","rt":"1044.6000000015","correct":true,"confidence":-1},{"trial_n":80,"span":4,"encoder":"1674","distractor":"1654","target":"absent","response":"present","rt":"1036.299999997","correct":false,"confidence":-1},{"trial_n":81,"span":3,"encoder":"487","distractor":"488","target":"present","response":"present","rt":"1488.3000000007","correct":true,"confidence":-1},{"trial_n":82,"span":3,"encoder":"409","distractor":"406","target":"present","response":"present","rt":"1433.700000003","correct":true,"confidence":-1},{"trial_n":83,"span":4,"encoder":"3507","distractor":"3547","target":"absent","response":"present","rt":"1570.6999999993","correct":false,"confidence":-1},{"trial_n":84,"span":3,"encoder":"640","distractor":"340","target":"absent","response":"present","rt":"785.19999999925","correct":false,"confidence":-1},{"trial_n":85,"span":2,"encoder":"99","distractor":"79","target":"absent","response":"present","rt":"1317.3999999985","correct":false,"confidence":-1},{"trial_n":86,"span":2,"encoder":"10","distractor":"14","target":"absent","response":"present","rt":"1552","correct":false,"confidence":-1},{"trial_n":87,"span":2,"encoder":"42","distractor":"22","target":"absent","response":"present","rt":"568.10000000149","correct":false,"confidence":-1},{"trial_n":88,"span":2,"encoder":"52","distractor":"92","target":"absent","response":"present","rt":"492.30000000075","correct":false,"confidence":-1},{"trial_n":89,"span":2,"encoder":"01","distractor":"06","target":"present","response":"absent","rt":"712.90000000224","correct":false,"confidence":-1},{"trial_n":90,"span":2,"encoder":"54","distractor":"59","target":"absent","response":"present","rt":"1043.3999999985","correct":false,"confidence":-1},{"trial_n":91,"span":2,"encoder":"16","distractor":"11","target":"present","response":"present","rt":"1119.0999999978","correct":true,"confidence":5},{"trial_n":92,"span":2,"encoder":"74","distractor":"72","target":"absent","response":"absent","rt":"805.30000000075","correct":true,"confidence":5},{"trial_n":93,"span":3,"encoder":"035","distractor":"032","target":"present","response":"present","rt":"883.89999999851","correct":true,"confidence":5},{"trial_n":94,"span":3,"encoder":"652","distractor":"672","target":"absent","response":"absent","rt":"765.19999999925","correct":true,"confidence":5},{"trial_n":95,"span":4,"encoder":"2606","distractor":"2626","target":"present","response":"present","rt":"660.59999999776","correct":true,"confidence":5},{"trial_n":96,"span":4,"encoder":"7503","distractor":"6503","target":"absent","response":"absent","rt":"842.30000000075","correct":true,"confidence":5},{"trial_n":97,"span":5,"encoder":"15391","distractor":"15591","target":"present","response":"present","rt":"1123.6999999993","correct":true,"confidence":5},{"trial_n":98,"span":5,"encoder":"53994","distractor":"53990","target":"absent","response":"absent","rt":"1394","correct":true,"confidence":5},{"trial_n":99,"span":6,"encoder":"683812","distractor":"683816","target":"absent","response":"absent","rt":"1944.9000000022","correct":true,"confidence":5},{"trial_n":100,"span":6,"encoder":"901666","distractor":"901466","target":"present","response":"present","rt":"2334","correct":true,"confidence":4},{"trial_n":101,"span":7,"encoder":"1789469","distractor":"4789469","target":"present","response":"present","rt":"1629","correct":true,"confidence":4},{"trial_n":102,"span":7,"encoder":"3403135","distractor":"3403155","target":"present","response":"present","rt":"975.80000000075","correct":true,"confidence":4},{"trial_n":103,"span":8,"encoder":"99645499","distractor":"99845499","target":"present","response":"present","rt":"2817.6999999993","correct":true,"confidence":3},{"trial_n":104,"span":8,"encoder":"94633170","distractor":"04633170","target":"absent","response":"absent","rt":"1517.9000000022","correct":true,"confidence":5},{"trial_n":105,"span":9,"encoder":"475304028","distractor":"475304020","target":"present","response":"present","rt":"3339.5","correct":true,"confidence":4},{"trial_n":106,"span":9,"encoder":"057307982","distractor":"057307902","target":"absent","response":"absent","rt":"4397.299999997","correct":true,"confidence":3},{"trial_n":107,"span":10,"encoder":"8007626034","distractor":"9007626034","target":"present","response":"present","rt":"4648.3000000007","correct":true,"confidence":2},{"trial_n":108,"span":10,"encoder":"8503602017","distractor":"6503602017","target":"present","response":"present","rt":"3038.1000000015","correct":true,"confidence":3},{"trial_n":109,"span":11,"encoder":"62382164830","distractor":"62389164830","target":"present","response":"present","rt":"2470.299999997","correct":true,"confidence":1},{"trial_n":110,"span":11,"encoder":"38027320675","distractor":"38020320675","target":"absent","response":"present","rt":"3723.6000000015","correct":false,"confidence":1},{"trial_n":111,"span":10,"encoder":"9686717637","distractor":"9680717637","target":"absent","response":"absent","rt":"2924.299999997","correct":true,"confidence":1},{"trial_n":112,"span":10,"encoder":"9687065853","distractor":"9687065653","target":"present","response":"present","rt":"1808.5999999978","correct":true,"confidence":1},{"trial_n":113,"span":11,"encoder":"96413391168","distractor":"90413391168","target":"present","response":"present","rt":"2309.3999999985","correct":true,"confidence":4},{"trial_n":114,"span":11,"encoder":"02242347642","distractor":"00242347642","target":"present","response":"present","rt":"6913.6999999993","correct":true,"confidence":2},{"trial_n":115,"span":12,"encoder":"789162371546","distractor":"789162971546","target":"absent","response":"present","rt":"1789.1000000015","correct":false,"confidence":1},{"trial_n":116,"span":11,"encoder":"45678476174","distractor":"45678476774","target":"absent","response":"absent","rt":"5755.5999999978","correct":true,"confidence":1},{"trial_n":117,"span":11,"encoder":"98987506703","distractor":"98981506703","target":"present","response":"absent","rt":"2141.5999999978","correct":false,"confidence":1},{"trial_n":118,"span":10,"encoder":"5256018574","distractor":"5256918574","target":"present","response":"absent","rt":"2808.8999999985","correct":false,"confidence":1},{"trial_n":119,"span":9,"encoder":"276682612","distractor":"276682682","target":"absent","response":"present","rt":"6009.3999999985","correct":false,"confidence":1},{"trial_n":120,"span":8,"encoder":"53088231","distractor":"53080231","target":"present","response":"present","rt":"1770.5","correct":true,"confidence":1},{"trial_n":121,"span":8,"encoder":"00534828","distractor":"00934828","target":"present","response":"present","rt":"2621.5","correct":true,"confidence":4},{"trial_n":122,"span":9,"encoder":"750161677","distractor":"750161667","target":"absent","response":"absent","rt":"2722.8999999985","correct":true,"confidence":4},{"trial_n":123,"span":9,"encoder":"819142692","distractor":"819142092","target":"present","response":"present","rt":"2274.6000000015","correct":true,"confidence":4},{"trial_n":124,"span":10,"encoder":"9496161264","distractor":"9496161964","target":"absent","response":"absent","rt":"4251.5","correct":true,"confidence":3},{"trial_n":125,"span":10,"encoder":"8200855352","distractor":"5200855352","target":"present","response":"present","rt":"3945.3000000007","correct":true,"confidence":4},{"trial_n":126,"span":11,"encoder":"40627797954","distractor":"40627797956","target":"present","response":"present","rt":"1855.5","correct":true,"confidence":5},{"trial_n":127,"span":11,"encoder":"15247617907","distractor":"15247617900","target":"present","response":"present","rt":"1809.8999999985","correct":true,"confidence":5},{"trial_n":128,"span":12,"encoder":"520504247895","distractor":"520504247845","target":"absent","response":"absent","rt":"1765","correct":true,"confidence":5},{"trial_n":129,"span":12,"encoder":"491534096383","distractor":"401534096383","target":"present","response":"present","rt":"7010.8000000007","correct":true,"confidence":1},{"trial_n":130,"span":13,"encoder":"4941294312522","distractor":"4921294312522","target":"absent","response":"absent","rt":"6080","correct":true,"confidence":1},{"trial_n":131,"span":13,"encoder":"3012122679844","distractor":"3012122679842","target":"absent","response":"absent","rt":"1166.8000000007","correct":true,"confidence":5},{"trial_n":132,"span":14,"encoder":"80851104852475","distractor":"80851104852975","target":"absent","response":"absent","rt":"46904","correct":true,"confidence":1},{"trial_n":133,"span":14,"encoder":"62614249640739","distractor":"62614249630739","target":"present","response":"absent","rt":"3332.6999999993","correct":false,"confidence":1},{"trial_n":134,"span":13,"encoder":"0702194677971","distractor":"0712194677971","target":"present","response":"present","rt":"1656618.6","correct":true,"confidence":1},{"trial_n":135,"span":13,"encoder":"8250048048394","distractor":"8250048048894","target":"absent","response":"absent","rt":"1727","correct":true,"confidence":1},{"trial_n":136,"span":14,"encoder":"98784242630803","distractor":"98784242930803","target":"present","response":"absent","rt":"3813.8999999985","correct":false,"confidence":1},{"trial_n":137,"span":13,"encoder":"5115963269675","distractor":"5114963269675","target":"present","response":"present","rt":"1581.1999999993","correct":true,"confidence":1},{"trial_n":138,"span":13,"encoder":"1744876473820","distractor":"1744876473810","target":"present","response":"absent","rt":"1333.1999999993","correct":false,"confidence":1},{"trial_n":139,"span":12,"encoder":"856219254894","distractor":"856219252894","target":"absent","response":"absent","rt":"8676.6999999993","correct":true,"confidence":1},{"trial_n":140,"span":12,"encoder":"259009693640","distractor":"259009603640","target":"absent","response":"absent","rt":"2856.8000000007","correct":true,"confidence":1}]