[{"trial_n":1,"n_dots":4.25,"target":"left","response":"left","rt":3520.4000000954,"correct":true,"confidence":-1},{"trial_n":2,"n_dots":4.25,"target":"right","response":"right","rt":2368.2000000477,"correct":true,"confidence":-1},{"trial_n":3,"n_dots":3.85,"target":"right","response":"right","rt":730.5,"correct":true,"confidence":-1},{"trial_n":4,"n_dots":3.85,"target":"left","response":"left","rt":3794.1000001431,"correct":true,"confidence":-1},{"trial_n":5,"n_dots":3.45,"target":"right","response":"right","rt":698.59999990463,"correct":true,"confidence":-1},{"trial_n":6,"n_dots":3.45,"target":"left","response":"left","rt":342,"correct":true,"confidence":-1},{"trial_n":7,"n_dots":3.05,"target":"left","response":"right","rt":641.10000014305,"correct":false,"confidence":-1},{"trial_n":8,"n_dots":3.25,"target":"right","response":"left","rt":751.09999990463,"correct":false,"confidence":-1},{"trial_n":9,"n_dots":3.45,"target":"left","response":"left","rt":672.30000019073,"correct":true,"confidence":-1},{"trial_n":10,"n_dots":3.45,"target":"left","response":"left","rt":415.5,"correct":true,"confidence":-1},{"trial_n":11,"n_dots":3.25,"target":"left","response":"left","rt":402.10000014305,"correct":true,"confidence":-1},{"trial_n":12,"n_dots":3.25,"target":"right","response":"right","rt":383.19999980927,"correct":true,"confidence":-1},{"trial_n":13,"n_dots":3.15,"target":"right","response":"right","rt":515.70000004768,"correct":true,"confidence":-1},{"trial_n":14,"n_dots":3.15,"target":"left","response":"right","rt":772.19999980927,"correct":false,"confidence":-1},{"trial_n":15,"n_dots":3.25,"target":"left","response":"left","rt":748.60000014305,"correct":true,"confidence":-1},{"trial_n":16,"n_dots":3.25,"target":"right","response":"left","rt":683.29999995232,"correct":false,"confidence":-1},{"trial_n":17,"n_dots":3.35,"target":"left","response":"left","rt":401.90000009537,"correct":true,"confidence":-1},{"trial_n":18,"n_dots":3.35,"target":"right","response":"right","rt":624.79999995232,"correct":true,"confidence":-1},{"trial_n":19,"n_dots":3.25,"target":"left","response":"left","rt":312.19999980927,"correct":true,"confidence":-1},{"trial_n":20,"n_dots":3.25,"target":"left","response":"left","rt":352.70000004768,"correct":true,"confidence":-1},{"trial_n":21,"n_dots":3.15,"target":"right","response":"left","rt":341.70000004768,"correct":false,"confidence":3},{"trial_n":22,"n_dots":3.25,"target":"left","response":"left","rt":861.5,"correct":true,"confidence":3},{"trial_n":23,"n_dots":3.25,"target":"right","response":"right","rt":537.09999990463,"correct":true,"confidence":2},{"trial_n":24,"n_dots":3.15,"target":"right","response":"right","rt":1027.2999999523,"correct":true,"confidence":1},{"trial_n":25,"n_dots":3.15,"target":"right","response":"right","rt":425.60000014305,"correct":true,"confidence":1},{"trial_n":26,"n_dots":3.05,"target":"right","response":"right","rt":433.20000004768,"correct":true,"confidence":3},{"trial_n":27,"n_dots":3.05,"target":"left","response":"left","rt":537.39999985695,"correct":true,"confidence":1},{"trial_n":28,"n_dots":2.95,"target":"left","response":"right","rt":524,"correct":false,"confidence":3},{"trial_n":29,"n_dots":3.05,"target":"left","response":"right","rt":958.59999990463,"correct":false,"confidence":3},{"trial_n":30,"n_dots":3.15,"target":"left","response":"left","rt":974.60000014305,"correct":true,"confidence":2},{"trial_n":31,"n_dots":3.15,"target":"left","response":"right","rt":714.30000019073,"correct":false,"confidence":3},{"trial_n":32,"n_dots":3.25,"target":"left","response":"right","rt":701.29999995232,"correct":false,"confidence":3},{"trial_n":33,"n_dots":3.35,"target":"right","response":"right","rt":405,"correct":true,"confidence":3},{"trial_n":34,"n_dots":3.35,"target":"left","response":"left","rt":226.20000004768,"correct":true,"confidence":3},{"trial_n":35,"n_dots":3.25,"target":"right","response":"right","rt":507.30000019073,"correct":true,"confidence":3},{"trial_n":36,"n_dots":3.25,"target":"right","response":"right","rt":320.79999995232,"correct":true,"confidence":3},{"trial_n":37,"n_dots":3.15,"target":"left","response":"left","rt":255.69999980927,"correct":true,"confidence":2},{"trial_n":38,"n_dots":3.15,"target":"left","response":"left","rt":73.299999952316,"correct":true,"confidence":3},{"trial_n":39,"n_dots":3.05,"target":"left","response":"right","rt":1789.3000001907,"correct":false,"confidence":2},{"trial_n":40,"n_dots":3.15,"target":"right","response":"right","rt":276.59999990463,"correct":true,"confidence":3},{"trial_n":41,"n_dots":3.15,"target":"left","response":"left","rt":594.60000014305,"correct":true,"confidence":3},{"trial_n":42,"n_dots":3.05,"target":"right","response":"right","rt":599.10000014305,"correct":true,"confidence":3},{"trial_n":43,"n_dots":3.05,"target":"left","response":"left","rt":1311.2000000477,"correct":true,"confidence":4},{"trial_n":44,"n_dots":2.95,"target":"left","response":"left","rt":766.70000004768,"correct":true,"confidence":4},{"trial_n":45,"n_dots":2.95,"target":"right","response":"right","rt":281.79999995232,"correct":true,"confidence":5},{"trial_n":46,"n_dots":2.85,"target":"right","response":"left","rt":1461.2000000477,"correct":false,"confidence":3},{"trial_n":47,"n_dots":2.95,"target":"right","response":"left","rt":714.90000009537,"correct":false,"confidence":3},{"trial_n":48,"n_dots":3.05,"target":"right","response":"left","rt":689.90000009537,"correct":false,"confidence":3},{"trial_n":49,"n_dots":3.15,"target":"left","response":"left","rt":440.5,"correct":true,"confidence":1},{"trial_n":50,"n_dots":3.15,"target":"left","response":"left","rt":963.09999990463,"correct":true,"confidence":3},{"trial_n":51,"n_dots":3.05,"target":"left","response":"left","rt":1079.9000000954,"correct":true,"confidence":3},{"trial_n":52,"n_dots":3.05,"target":"left","response":"right","rt":439,"correct":false,"confidence":3},{"trial_n":53,"n_dots":3.15,"target":"right","response":"right","rt":266,"correct":true,"confidence":2},{"trial_n":54,"n_dots":3.15,"target":"left","response":"left","rt":463.20000004768,"correct":true,"confidence":2},{"trial_n":55,"n_dots":3.05,"target":"left","response":"left","rt":401.29999995232,"correct":true,"confidence":5},{"trial_n":56,"n_dots":3.05,"target":"left","response":"left","rt":2047.9000000954,"correct":true,"confidence":4},{"trial_n":57,"n_dots":2.95,"target":"left","response":"left","rt":279.40000009537,"correct":true,"confidence":2},{"trial_n":58,"n_dots":2.95,"target":"right","response":"right","rt":755.60000014305,"correct":true,"confidence":3},{"trial_n":59,"n_dots":2.85,"target":"left","response":"right","rt":556.59999990463,"correct":false,"confidence":1},{"trial_n":60,"n_dots":2.95,"target":"right","response":"left","rt":813.79999995232,"correct":false,"confidence":2},{"trial_n":61,"n_dots":3.05,"target":"left","response":"left","rt":300.90000009537,"correct":true,"confidence":4},{"trial_n":62,"n_dots":3.05,"target":"right","response":"left","rt":1462.5,"correct":false,"confidence":3},{"trial_n":63,"n_dots":3.15,"target":"left","response":"left","rt":310.09999990463,"correct":true,"confidence":2},{"trial_n":64,"n_dots":3.15,"target":"right","response":"right","rt":916.20000004768,"correct":true,"confidence":4},{"trial_n":65,"n_dots":3.05,"target":"right","response":"right","rt":612,"correct":true,"confidence":4},{"trial_n":66,"n_dots":3.05,"target":"left","response":"left","rt":313,"correct":true,"confidence":5},{"trial_n":67,"n_dots":2.95,"target":"right","response":"right","rt":392.69999980927,"correct":true,"confidence":1},{"trial_n":68,"n_dots":2.95,"target":"right","response":"right","rt":308.40000009537,"correct":true,"confidence":4},{"trial_n":69,"n_dots":2.85,"target":"right","response":"right","rt":285.09999990463,"correct":true,"confidence":1},{"trial_n":70,"n_dots":2.85,"target":"left","response":"right","rt":791.29999995232,"correct":false,"confidence":4},{"trial_n":71,"n_dots":2.95,"target":"left","response":"left","rt":313.40000009537,"correct":true,"confidence":3},{"trial_n":72,"n_dots":2.95,"target":"left","response":"left","rt":444.09999990463,"correct":true,"confidence":3},{"trial_n":73,"n_dots":2.85,"target":"right","response":"right","rt":295.20000004768,"correct":true,"confidence":3},{"trial_n":74,"n_dots":2.85,"target":"left","response":"left","rt":271.09999990463,"correct":true,"confidence":3},{"trial_n":75,"n_dots":2.75,"target":"right","response":"left","rt":12659.400000095,"correct":false,"confidence":3},{"trial_n":76,"n_dots":2.85,"target":"right","response":"right","rt":342,"correct":true,"confidence":3},{"trial_n":77,"n_dots":2.85,"target":"right","response":"left","rt":629.60000014305,"correct":false,"confidence":3},{"trial_n":78,"n_dots":2.95,"target":"right","response":"right","rt":289.69999980927,"correct":true,"confidence":3},{"trial_n":79,"n_dots":2.95,"target":"left","response":"right","rt":279,"correct":false,"confidence":3},{"trial_n":80,"n_dots":3.05,"target":"left","response":"left","rt":282.90000009537,"correct":true,"confidence":3},{"trial_n":81,"n_dots":3.05,"target":"right","response":"right","rt":1050.5,"correct":true,"confidence":3},{"trial_n":82,"n_dots":2.95,"target":"left","response":"left","rt":404,"correct":true,"confidence":3},{"trial_n":83,"n_dots":2.95,"target":"left","response":"right","rt":2529.5,"correct":false,"confidence":3},{"trial_n":84,"n_dots":3.05,"target":"left","response":"left","rt":706.40000009537,"correct":true,"confidence":3},{"trial_n":85,"n_dots":3.05,"target":"right","response":"right","rt":639.39999985695,"correct":true,"confidence":3},{"trial_n":86,"n_dots":2.95,"target":"left","response":"left","rt":347.60000014305,"correct":true,"confidence":3},{"trial_n":87,"n_dots":2.95,"target":"left","response":"left","rt":697,"correct":true,"confidence":4},{"trial_n":88,"n_dots":2.85,"target":"right","response":"right","rt":895.09999990463,"correct":true,"confidence":1},{"trial_n":89,"n_dots":2.85,"target":"right","response":"right","rt":1244.5999999046,"correct":true,"confidence":3},{"trial_n":90,"n_dots":2.75,"target":"right","response":"left","rt":289.39999985695,"correct":false,"confidence":3},{"trial_n":91,"n_dots":2.85,"target":"left","response":"left","rt":909.20000004768,"correct":true,"confidence":4},{"trial_n":92,"n_dots":2.85,"target":"right","response":"left","rt":396,"correct":false,"confidence":3},{"trial_n":93,"n_dots":2.95,"target":"right","response":"right","rt":1436,"correct":true,"confidence":3},{"trial_n":94,"n_dots":2.95,"target":"right","response":"left","rt":1067.9000000954,"correct":false,"confidence":3},{"trial_n":95,"n_dots":3.05,"target":"left","response":"left","rt":703.40000009537,"correct":true,"confidence":3},{"trial_n":96,"n_dots":3.05,"target":"right","response":"right","rt":1010.7000000477,"correct":true,"confidence":3},{"trial_n":97,"n_dots":2.95,"target":"right","response":"right","rt":1408.1000001431,"correct":true,"confidence":4},{"trial_n":98,"n_dots":2.95,"target":"left","response":"left","rt":355.29999995232,"correct":true,"confidence":5},{"trial_n":99,"n_dots":2.85,"target":"right","response":"left","rt":2444.8999998569,"correct":false,"confidence":4},{"trial_n":100,"n_dots":2.95,"target":"right","response":"left","rt":288.39999985695,"correct":false,"confidence":4},{"trial_n":101,"n_dots":3.05,"target":"left","response":"left","rt":300.90000009537,"correct":true,"confidence":4},{"trial_n":102,"n_dots":3.05,"target":"right","response":"right","rt":240.89999985695,"correct":true,"confidence":4},{"trial_n":103,"n_dots":2.95,"target":"left","response":"left","rt":673.09999990463,"correct":true,"confidence":4},{"trial_n":104,"n_dots":2.95,"target":"left","response":"left","rt":845.59999990463,"correct":true,"confidence":3},{"trial_n":105,"n_dots":2.85,"target":"right","response":"left","rt":577.5,"correct":false,"confidence":4},{"trial_n":106,"n_dots":2.95,"target":"left","response":"left","rt":248.19999980927,"correct":true,"confidence":4},{"trial_n":107,"n_dots":2.95,"target":"left","response":"left","rt":1584.7000000477,"correct":true,"confidence":4},{"trial_n":108,"n_dots":2.85,"target":"left","response":"right","rt":786.30000019073,"correct":false,"confidence":3},{"trial_n":109,"n_dots":2.95,"target":"left","response":"left","rt":692.09999990463,"correct":true,"confidence":3},{"trial_n":110,"n_dots":2.95,"target":"right","response":"right","rt":195,"correct":true,"confidence":1},{"trial_n":111,"n_dots":2.85,"target":"right","response":"right","rt":247.90000009537,"correct":true,"confidence":5},{"trial_n":112,"n_dots":2.85,"target":"right","response":"left","rt":273.90000009537,"correct":false,"confidence":4},{"trial_n":113,"n_dots":2.95,"target":"right","response":"left","rt":1522.5,"correct":false,"confidence":3},{"trial_n":114,"n_dots":3.05,"target":"right","response":"right","rt":242.60000014305,"correct":true,"confidence":4},{"trial_n":115,"n_dots":3.05,"target":"right","response":"left","rt":245.59999990463,"correct":false,"confidence":4},{"trial_n":116,"n_dots":3.15,"target":"left","response":"left","rt":282.29999995232,"correct":true,"confidence":2},{"trial_n":117,"n_dots":3.15,"target":"right","response":"right","rt":621.40000009537,"correct":true,"confidence":4},{"trial_n":118,"n_dots":3.05,"target":"right","response":"left","rt":3291.7000000477,"correct":false,"confidence":3},{"trial_n":119,"n_dots":3.15,"target":"right","response":"left","rt":495.5,"correct":false,"confidence":3},{"trial_n":120,"n_dots":3.25,"target":"right","response":"left","rt":491.70000004768,"correct":false,"confidence":3}]