[{"trial_n":1,"span":8,"encoder":"57564951","distractor":"57464951","target":"present","response":"present","rt":"3917","correct":true,"confidence":-1},{"trial_n":2,"span":8,"encoder":"58088453","distractor":"58038453","target":"present","response":"present","rt":"2533","correct":true,"confidence":-1},{"trial_n":3,"span":10,"encoder":"4125914037","distractor":"4125314037","target":"absent","response":"present","rt":"2042","correct":false,"confidence":-1},{"trial_n":4,"span":8,"encoder":"91297777","distractor":"94297777","target":"absent","response":"absent","rt":"2798","correct":true,"confidence":-1},{"trial_n":5,"span":8,"encoder":"17610004","distractor":"16610004","target":"present","response":"absent","rt":"2741","correct":false,"confidence":-1},{"trial_n":6,"span":6,"encoder":"516860","distractor":"512860","target":"absent","response":"present","rt":"2058","correct":false,"confidence":-1},{"trial_n":7,"span":4,"encoder":"5668","distractor":"5608","target":"present","response":"present","rt":"1826","correct":true,"confidence":-1},{"trial_n":8,"span":4,"encoder":"7130","distractor":"1130","target":"absent","response":"present","rt":"1677","correct":false,"confidence":-1},{"trial_n":9,"span":2,"encoder":"72","distractor":"22","target":"absent","response":"absent","rt":"2555","correct":true,"confidence":-1},{"trial_n":10,"span":2,"encoder":"19","distractor":"79","target":"present","response":"present","rt":"1553","correct":true,"confidence":-1},{"trial_n":11,"span":4,"encoder":"3387","distractor":"2387","target":"absent","response":"absent","rt":"1780","correct":true,"confidence":-1},{"trial_n":12,"span":4,"encoder":"5828","distractor":"5848","target":"absent","response":"absent","rt":"1973","correct":true,"confidence":-1},{"trial_n":13,"span":5,"encoder":"07428","distractor":"02428","target":"absent","response":"present","rt":"4506","correct":false,"confidence":-1},{"trial_n":14,"span":4,"encoder":"0151","distractor":"0251","target":"present","response":"present","rt":"2094","correct":true,"confidence":-1},{"trial_n":15,"span":4,"encoder":"6101","distractor":"6201","target":"present","response":"present","rt":"1403","correct":true,"confidence":-1},{"trial_n":16,"span":5,"encoder":"88461","distractor":"88464","target":"present","response":"present","rt":"2189","correct":true,"confidence":-1},{"trial_n":17,"span":5,"encoder":"20592","distractor":"10592","target":"absent","response":"absent","rt":"1971","correct":true,"confidence":-1},{"trial_n":18,"span":6,"encoder":"434435","distractor":"434437","target":"absent","response":"absent","rt":"3840","correct":true,"confidence":-1},{"trial_n":19,"span":6,"encoder":"809541","distractor":"809544","target":"present","response":"present","rt":"3298","correct":true,"confidence":-1},{"trial_n":20,"span":7,"encoder":"2323481","distractor":"2328481","target":"present","response":"present","rt":"2440","correct":true,"confidence":-1},{"trial_n":21,"span":7,"encoder":"7024584","distractor":"7064584","target":"absent","response":"present","rt":"2233","correct":false,"confidence":3},{"trial_n":22,"span":6,"encoder":"105347","distractor":"155347","target":"absent","response":"present","rt":"3826","correct":false,"confidence":3},{"trial_n":23,"span":5,"encoder":"81378","distractor":"31378","target":"present","response":"present","rt":"2642","correct":true,"confidence":3},{"trial_n":24,"span":5,"encoder":"19292","distractor":"99292","target":"absent","response":"present","rt":"7189","correct":false,"confidence":2},{"trial_n":25,"span":4,"encoder":"6564","distractor":"6864","target":"present","response":"present","rt":"3166","correct":true,"confidence":4},{"trial_n":26,"span":4,"encoder":"5502","distractor":"5500","target":"present","response":"present","rt":"3122","correct":true,"confidence":4},{"trial_n":27,"span":5,"encoder":"40303","distractor":"40301","target":"present","response":"present","rt":"3258","correct":true,"confidence":4},{"trial_n":28,"span":5,"encoder":"42914","distractor":"48914","target":"present","response":"present","rt":"3655","correct":true,"confidence":4},{"trial_n":29,"span":6,"encoder":"778490","distractor":"778890","target":"absent","response":"present","rt":"3126","correct":false,"confidence":4},{"trial_n":30,"span":5,"encoder":"34652","distractor":"33652","target":"absent","response":"absent","rt":"2859","correct":true,"confidence":3},{"trial_n":31,"span":5,"encoder":"37121","distractor":"34121","target":"present","response":"present","rt":"2742","correct":true,"confidence":4},{"trial_n":32,"span":6,"encoder":"286019","distractor":"266019","target":"absent","response":"present","rt":"5059","correct":false,"confidence":3},{"trial_n":33,"span":5,"encoder":"54908","distractor":"54900","target":"present","response":"present","rt":"7390","correct":true,"confidence":3},{"trial_n":34,"span":5,"encoder":"95989","distractor":"95689","target":"absent","response":"present","rt":"4047","correct":false,"confidence":3},{"trial_n":35,"span":4,"encoder":"0212","distractor":"7212","target":"present","response":"present","rt":"2160","correct":true,"confidence":4},{"trial_n":36,"span":4,"encoder":"8603","distractor":"8613","target":"absent","response":"absent","rt":"2742.0000000001","correct":true,"confidence":4},{"trial_n":37,"span":5,"encoder":"42875","distractor":"92875","target":"absent","response":"present","rt":"3038","correct":false,"confidence":4},{"trial_n":38,"span":4,"encoder":"1992","distractor":"5992","target":"absent","response":"present","rt":"6485","correct":false,"confidence":3},{"trial_n":39,"span":3,"encoder":"197","distractor":"187","target":"present","response":"present","rt":"1630","correct":true,"confidence":4},{"trial_n":40,"span":3,"encoder":"418","distractor":"414","target":"absent","response":"absent","rt":"1536","correct":true,"confidence":4},{"trial_n":41,"span":4,"encoder":"3143","distractor":"3141","target":"present","response":"present","rt":"2450","correct":true,"confidence":4},{"trial_n":42,"span":4,"encoder":"9233","distractor":"2233","target":"absent","response":"absent","rt":"1433.9999999999","correct":true,"confidence":4},{"trial_n":43,"span":5,"encoder":"15021","distractor":"15321","target":"absent","response":"absent","rt":"4629","correct":true,"confidence":3},{"trial_n":44,"span":5,"encoder":"87298","distractor":"27298","target":"absent","response":"absent","rt":"5789","correct":true,"confidence":3},{"trial_n":45,"span":6,"encoder":"373048","distractor":"373448","target":"absent","response":"present","rt":"7467","correct":false,"confidence":3},{"trial_n":46,"span":5,"encoder":"78461","distractor":"78491","target":"absent","response":"absent","rt":"3237","correct":true,"confidence":4},{"trial_n":47,"span":5,"encoder":"83020","distractor":"83030","target":"absent","response":"present","rt":"6053","correct":false,"confidence":3},{"trial_n":48,"span":4,"encoder":"2609","distractor":"2639","target":"absent","response":"absent","rt":"2540","correct":true,"confidence":4},{"trial_n":49,"span":4,"encoder":"1149","distractor":"1109","target":"present","response":"absent","rt":"2454","correct":false,"confidence":3},{"trial_n":50,"span":3,"encoder":"265","distractor":"225","target":"present","response":"present","rt":"1783.0000000001","correct":true,"confidence":4},{"trial_n":51,"span":3,"encoder":"210","distractor":"280","target":"present","response":"present","rt":"1398","correct":true,"confidence":4},{"trial_n":52,"span":4,"encoder":"9008","distractor":"9208","target":"present","response":"present","rt":"1642","correct":true,"confidence":4},{"trial_n":53,"span":4,"encoder":"3173","distractor":"0173","target":"absent","response":"absent","rt":"3309","correct":true,"confidence":4},{"trial_n":54,"span":5,"encoder":"50238","distractor":"50218","target":"present","response":"present","rt":"3026.9999999999","correct":true,"confidence":4},{"trial_n":55,"span":5,"encoder":"38979","distractor":"38975","target":"present","response":"present","rt":"2791","correct":true,"confidence":4},{"trial_n":56,"span":6,"encoder":"966378","distractor":"866378","target":"present","response":"present","rt":"3394","correct":true,"confidence":4},{"trial_n":57,"span":6,"encoder":"800714","distractor":"806714","target":"absent","response":"present","rt":"4525","correct":false,"confidence":3},{"trial_n":58,"span":5,"encoder":"97774","distractor":"91774","target":"absent","response":"absent","rt":"2560","correct":true,"confidence":4},{"trial_n":59,"span":5,"encoder":"93307","distractor":"96307","target":"present","response":"absent","rt":"3158.0000000001","correct":false,"confidence":3},{"trial_n":60,"span":4,"encoder":"7561","distractor":"7541","target":"present","response":"present","rt":"3442","correct":true,"confidence":4},{"trial_n":61,"span":4,"encoder":"3750","distractor":"8750","target":"present","response":"present","rt":"1590","correct":true,"confidence":4},{"trial_n":62,"span":5,"encoder":"79071","distractor":"79871","target":"present","response":"present","rt":"5546","correct":true,"confidence":3},{"trial_n":63,"span":5,"encoder":"50602","distractor":"20602","target":"present","response":"present","rt":"6395","correct":true,"confidence":2},{"trial_n":64,"span":6,"encoder":"852434","distractor":"152434","target":"absent","response":"absent","rt":"5591","correct":true,"confidence":3},{"trial_n":65,"span":6,"encoder":"657310","distractor":"257310","target":"present","response":"present","rt":"3191","correct":true,"confidence":3},{"trial_n":66,"span":7,"encoder":"1393387","distractor":"1390387","target":"absent","response":"absent","rt":"4267","correct":true,"confidence":3},{"trial_n":67,"span":7,"encoder":"7956384","distractor":"7952384","target":"present","response":"absent","rt":"5003","correct":false,"confidence":3},{"trial_n":68,"span":6,"encoder":"145408","distractor":"145409","target":"present","response":"present","rt":"3426","correct":true,"confidence":3},{"trial_n":69,"span":6,"encoder":"856741","distractor":"856711","target":"present","response":"present","rt":"4056.0000000001","correct":true,"confidence":3},{"trial_n":70,"span":7,"encoder":"7111813","distractor":"7101813","target":"absent","response":"absent","rt":"2586","correct":true,"confidence":3},{"trial_n":71,"span":8,"encoder":"57145524","distractor":"57143524","target":"present","response":"present","rt":"9128","correct":true,"confidence":-1},{"trial_n":72,"span":8,"encoder":"05598044","distractor":"95598044","target":"present","response":"absent","rt":"18020","correct":false,"confidence":-1},{"trial_n":73,"span":7,"encoder":"6134534","distractor":"6434534","target":"absent","response":"absent","rt":"4924","correct":true,"confidence":-1},{"trial_n":74,"span":7,"encoder":"8921920","distractor":"8925920","target":"absent","response":"absent","rt":"7992","correct":true,"confidence":-1},{"trial_n":75,"span":8,"encoder":"20778915","distractor":"20777915","target":"present","response":"present","rt":"5785","correct":true,"confidence":-1},{"trial_n":76,"span":8,"encoder":"37706129","distractor":"37709129","target":"absent","response":"absent","rt":"2729","correct":true,"confidence":-1},{"trial_n":77,"span":9,"encoder":"920651813","distractor":"920656813","target":"present","response":"present","rt":"13901","correct":true,"confidence":-1},{"trial_n":78,"span":9,"encoder":"159669327","distractor":"159669367","target":"absent","response":"absent","rt":"6046.0000000001","correct":true,"confidence":-1},{"trial_n":79,"span":10,"encoder":"9498259692","distractor":"9468259692","target":"present","response":"absent","rt":"11504","correct":false,"confidence":-1},{"trial_n":80,"span":9,"encoder":"721387292","distractor":"721367292","target":"present","response":"present","rt":"10958","correct":true,"confidence":-1},{"trial_n":81,"span":9,"encoder":"643716100","distractor":"640716100","target":"absent","response":"absent","rt":"9488","correct":true,"confidence":-1},{"trial_n":82,"span":10,"encoder":"8349546689","distractor":"8340546689","target":"absent","response":"present","rt":"9301","correct":false,"confidence":-1},{"trial_n":83,"span":9,"encoder":"686998974","distractor":"689998974","target":"absent","response":"present","rt":"7177","correct":false,"confidence":-1},{"trial_n":84,"span":8,"encoder":"34199102","distractor":"37199102","target":"present","response":"present","rt":"8439","correct":true,"confidence":-1},{"trial_n":85,"span":8,"encoder":"31582865","distractor":"31552865","target":"absent","response":"present","rt":"8139","correct":false,"confidence":-1},{"trial_n":86,"span":7,"encoder":"7668300","distractor":"7068300","target":"present","response":"present","rt":"4244.0000000001","correct":true,"confidence":-1},{"trial_n":87,"span":7,"encoder":"1955589","distractor":"0955589","target":"present","response":"present","rt":"7425","correct":true,"confidence":-1},{"trial_n":88,"span":8,"encoder":"85951336","distractor":"85651336","target":"present","response":"present","rt":"8482","correct":true,"confidence":-1},{"trial_n":89,"span":8,"encoder":"00033911","distractor":"00033111","target":"absent","response":"present","rt":"9021.0000000001","correct":false,"confidence":-1},{"trial_n":90,"span":7,"encoder":"0684819","distractor":"0684859","target":"absent","response":"absent","rt":"4893","correct":true,"confidence":-1},{"trial_n":91,"span":7,"encoder":"2144107","distractor":"2144197","target":"present","response":"present","rt":"3082","correct":true,"confidence":4},{"trial_n":92,"span":8,"encoder":"48093847","distractor":"48593847","target":"absent","response":"absent","rt":"7274","correct":true,"confidence":3},{"trial_n":93,"span":8,"encoder":"43204710","distractor":"43214710","target":"absent","response":"absent","rt":"8304.9999999999","correct":true,"confidence":3},{"trial_n":94,"span":9,"encoder":"981317027","distractor":"981317077","target":"present","response":"present","rt":"3260","correct":true,"confidence":4},{"trial_n":95,"span":9,"encoder":"122969056","distractor":"122969006","target":"present","response":"present","rt":"2970","correct":true,"confidence":4},{"trial_n":96,"span":10,"encoder":"3063162350","distractor":"5063162350","target":"absent","response":"absent","rt":"11521","correct":true,"confidence":2},{"trial_n":97,"span":10,"encoder":"4982190362","distractor":"4986190362","target":"present","response":"present","rt":"12534","correct":true,"confidence":2},{"trial_n":98,"span":11,"encoder":"23658432172","distractor":"23858432172","target":"present","response":"absent","rt":"8882.0000000001","correct":false,"confidence":3},{"trial_n":99,"span":10,"encoder":"9828031333","distractor":"9828031338","target":"present","response":"present","rt":"6189.9999999998","correct":true,"confidence":4},{"trial_n":100,"span":10,"encoder":"3612701656","distractor":"3612701636","target":"present","response":"present","rt":"3790","correct":true,"confidence":4},{"trial_n":101,"span":11,"encoder":"12986990750","distractor":"12986190750","target":"absent","response":"present","rt":"7643","correct":false,"confidence":3},{"trial_n":102,"span":10,"encoder":"0366500749","distractor":"0361500749","target":"absent","response":"present","rt":"13975","correct":false,"confidence":3},{"trial_n":103,"span":9,"encoder":"060172368","distractor":"060472368","target":"absent","response":"absent","rt":"7944","correct":true,"confidence":3},{"trial_n":104,"span":9,"encoder":"279959038","distractor":"279959037","target":"present","response":"present","rt":"6038","correct":true,"confidence":3},{"trial_n":105,"span":10,"encoder":"2209641249","distractor":"2209681249","target":"present","response":"absent","rt":"23095","correct":false,"confidence":2},{"trial_n":106,"span":9,"encoder":"316461914","distractor":"314461914","target":"absent","response":"absent","rt":"9143","correct":true,"confidence":2},{"trial_n":107,"span":9,"encoder":"454330144","distractor":"457330144","target":"present","response":"present","rt":"11996","correct":true,"confidence":2},{"trial_n":108,"span":10,"encoder":"1729836100","distractor":"1729838100","target":"absent","response":"absent","rt":"4437","correct":true,"confidence":3},{"trial_n":109,"span":10,"encoder":"8928761318","distractor":"8928761518","target":"absent","response":"absent","rt":"2829","correct":true,"confidence":4},{"trial_n":110,"span":11,"encoder":"42954627940","distractor":"42954627960","target":"absent","response":"absent","rt":"5625","correct":true,"confidence":3},{"trial_n":111,"span":11,"encoder":"80262806320","distractor":"80262106320","target":"present","response":"absent","rt":"9208","correct":false,"confidence":3},{"trial_n":112,"span":10,"encoder":"0122627966","distractor":"0122697966","target":"absent","response":"absent","rt":"15513","correct":true,"confidence":2},{"trial_n":113,"span":10,"encoder":"6881033642","distractor":"6881033042","target":"present","response":"present","rt":"3798.9999999998","correct":true,"confidence":4},{"trial_n":114,"span":11,"encoder":"26272514213","distractor":"26272214213","target":"absent","response":"absent","rt":"8721","correct":true,"confidence":4},{"trial_n":115,"span":11,"encoder":"54567154216","distractor":"04567154216","target":"absent","response":"present","rt":"28281","correct":false,"confidence":2},{"trial_n":116,"span":10,"encoder":"3198158433","distractor":"3198158463","target":"present","response":"present","rt":"5508","correct":true,"confidence":4},{"trial_n":117,"span":10,"encoder":"5352116339","distractor":"5352116333","target":"absent","response":"absent","rt":"2987","correct":true,"confidence":4},{"trial_n":118,"span":11,"encoder":"58082756479","distractor":"58082750479","target":"absent","response":"absent","rt":"4852","correct":true,"confidence":1},{"trial_n":119,"span":11,"encoder":"58594328560","distractor":"58594328563","target":"absent","response":"absent","rt":"5220","correct":true,"confidence":4},{"trial_n":120,"span":12,"encoder":"059595483490","distractor":"059595483400","target":"absent","response":"absent","rt":"2934","correct":true,"confidence":4},{"trial_n":121,"span":12,"encoder":"825677549353","distractor":"825677549363","target":"present","response":"present","rt":"2638.9999999998","correct":true,"confidence":4},{"trial_n":122,"span":13,"encoder":"3151959244091","distractor":"3151959244097","target":"present","response":"present","rt":"4534.0000000002","correct":true,"confidence":4},{"trial_n":123,"span":13,"encoder":"6625660735679","distractor":"2625660735679","target":"present","response":"absent","rt":"5949","correct":false,"confidence":3},{"trial_n":124,"span":12,"encoder":"810713187043","distractor":"810713687043","target":"present","response":"absent","rt":"24387","correct":false,"confidence":2},{"trial_n":125,"span":11,"encoder":"78627807088","distractor":"70627807088","target":"present","response":"present","rt":"10265","correct":true,"confidence":2},{"trial_n":126,"span":11,"encoder":"99672743802","distractor":"99672749802","target":"present","response":"present","rt":"10148","correct":true,"confidence":3},{"trial_n":127,"span":12,"encoder":"678250665654","distractor":"678250667654","target":"present","response":"absent","rt":"5335","correct":false,"confidence":3},{"trial_n":128,"span":11,"encoder":"03504159431","distractor":"07504159431","target":"absent","response":"present","rt":"8427","correct":false,"confidence":3},{"trial_n":129,"span":10,"encoder":"5288318592","distractor":"5288318192","target":"present","response":"present","rt":"2971","correct":true,"confidence":4},{"trial_n":130,"span":10,"encoder":"4288925131","distractor":"4281925131","target":"present","response":"present","rt":"9442","correct":true,"confidence":4},{"trial_n":131,"span":11,"encoder":"91727463180","distractor":"91722463180","target":"absent","response":"absent","rt":"5960","correct":true,"confidence":3},{"trial_n":132,"span":11,"encoder":"59363848088","distractor":"69363848088","target":"absent","response":"present","rt":"7164","correct":false,"confidence":2},{"trial_n":133,"span":10,"encoder":"7265128750","distractor":"7565128750","target":"present","response":"present","rt":"5892.0000000002","correct":true,"confidence":3},{"trial_n":134,"span":10,"encoder":"3373452863","distractor":"3373852863","target":"present","response":"absent","rt":"12778","correct":false,"confidence":3},{"trial_n":135,"span":9,"encoder":"308059428","distractor":"305059428","target":"absent","response":"present","rt":"6883","correct":false,"confidence":4},{"trial_n":136,"span":8,"encoder":"53520179","distractor":"53527179","target":"present","response":"present","rt":"11802","correct":true,"confidence":4},{"trial_n":137,"span":8,"encoder":"72868137","distractor":"73868137","target":"present","response":"absent","rt":"15461","correct":false,"confidence":2},{"trial_n":138,"span":7,"encoder":"3324498","distractor":"3324408","target":"absent","response":"absent","rt":"4655.9999999998","correct":true,"confidence":4},{"trial_n":139,"span":7,"encoder":"0064257","distractor":"4064257","target":"absent","response":"present","rt":"7106","correct":false,"confidence":3},{"trial_n":140,"span":6,"encoder":"923450","distractor":"923250","target":"absent","response":"absent","rt":"5208","correct":true,"confidence":4}]