[{"trial_n":1,"min":25,"max":230,"target":"present","response":"present","rt":14653.899999999,"correct":true,"confidence":-1},{"trial_n":2,"min":25,"max":230,"target":"present","response":"present","rt":2538.200000003,"correct":true,"confidence":-1},{"trial_n":3,"min":41,"max":214,"target":"absent","response":"present","rt":1124.400000006,"correct":false,"confidence":-1},{"trial_n":4,"min":25,"max":230,"target":"absent","response":"absent","rt":1555.799999997,"correct":true,"confidence":-1},{"trial_n":5,"min":25,"max":230,"target":"present","response":"present","rt":955.10000000149,"correct":true,"confidence":-1},{"trial_n":6,"min":41,"max":214,"target":"present","response":"present","rt":682.70000000298,"correct":true,"confidence":-1},{"trial_n":7,"min":41,"max":214,"target":"absent","response":"absent","rt":591.5,"correct":true,"confidence":-1},{"trial_n":8,"min":57,"max":198,"target":"present","response":"present","rt":574.40000000596,"correct":true,"confidence":-1},{"trial_n":9,"min":57,"max":198,"target":"present","response":"present","rt":551.29999999702,"correct":true,"confidence":-1},{"trial_n":10,"min":73,"max":182,"target":"absent","response":"absent","rt":616.5,"correct":true,"confidence":-1},{"trial_n":11,"min":73,"max":182,"target":"absent","response":"present","rt":433,"correct":false,"confidence":-1},{"trial_n":12,"min":65,"max":190,"target":"absent","response":"absent","rt":1024.400000006,"correct":true,"confidence":-1},{"trial_n":13,"min":65,"max":190,"target":"present","response":"present","rt":495.40000000596,"correct":true,"confidence":-1},{"trial_n":14,"min":73,"max":182,"target":"absent","response":"absent","rt":500,"correct":true,"confidence":-1},{"trial_n":15,"min":73,"max":182,"target":"present","response":"absent","rt":451.70000000298,"correct":false,"confidence":-1},{"trial_n":16,"min":65,"max":190,"target":"absent","response":"absent","rt":659.60000000149,"correct":true,"confidence":-1},{"trial_n":17,"min":65,"max":190,"target":"absent","response":"absent","rt":322,"correct":true,"confidence":-1},{"trial_n":18,"min":73,"max":182,"target":"present","response":"absent","rt":321.29999999702,"correct":false,"confidence":-1},{"trial_n":19,"min":65,"max":190,"target":"present","response":"present","rt":548.5,"correct":true,"confidence":-1},{"trial_n":20,"min":65,"max":190,"target":"absent","response":"absent","rt":267.20000000298,"correct":true,"confidence":-1},{"trial_n":21,"min":69,"max":186,"target":"present","response":"present","rt":1815.200000003,"correct":true,"confidence":5},{"trial_n":22,"min":69,"max":186,"target":"absent","response":"absent","rt":1178.5,"correct":true,"confidence":5},{"trial_n":23,"min":73,"max":182,"target":"present","response":"present","rt":593.5,"correct":true,"confidence":3},{"trial_n":24,"min":73,"max":182,"target":"present","response":"present","rt":525.29999999702,"correct":true,"confidence":3},{"trial_n":25,"min":77,"max":178,"target":"absent","response":"absent","rt":526.5,"correct":true,"confidence":4},{"trial_n":26,"min":77,"max":178,"target":"absent","response":"absent","rt":497.89999999851,"correct":true,"confidence":4},{"trial_n":27,"min":81,"max":174,"target":"present","response":"present","rt":409.30000000447,"correct":true,"confidence":4},{"trial_n":28,"min":81,"max":174,"target":"absent","response":"absent","rt":370.60000000149,"correct":true,"confidence":4},{"trial_n":29,"min":85,"max":170,"target":"present","response":"absent","rt":366.70000000298,"correct":false,"confidence":3},{"trial_n":30,"min":81,"max":174,"target":"absent","response":"absent","rt":614.89999999851,"correct":true,"confidence":2},{"trial_n":31,"min":81,"max":174,"target":"absent","response":"absent","rt":1777.3999999985,"correct":true,"confidence":3},{"trial_n":32,"min":83,"max":172,"target":"absent","response":"absent","rt":308.30000000447,"correct":true,"confidence":3},{"trial_n":33,"min":83,"max":172,"target":"absent","response":"absent","rt":237.89999999851,"correct":true,"confidence":2},{"trial_n":34,"min":85,"max":170,"target":"absent","response":"absent","rt":334.5,"correct":true,"confidence":4},{"trial_n":35,"min":85,"max":170,"target":"absent","response":"absent","rt":297.79999999702,"correct":true,"confidence":3},{"trial_n":36,"min":87,"max":168,"target":"present","response":"absent","rt":432.89999999851,"correct":false,"confidence":3},{"trial_n":37,"min":85,"max":170,"target":"present","response":"absent","rt":974.90000000596,"correct":false,"confidence":4},{"trial_n":38,"min":83,"max":172,"target":"absent","response":"absent","rt":370.80000000447,"correct":true,"confidence":3},{"trial_n":39,"min":83,"max":172,"target":"present","response":"present","rt":539,"correct":true,"confidence":2},{"trial_n":40,"min":85,"max":170,"target":"present","response":"absent","rt":321.20000000298,"correct":false,"confidence":3},{"trial_n":41,"min":84,"max":171,"target":"absent","response":"absent","rt":463.5,"correct":true,"confidence":3},{"trial_n":42,"min":84,"max":171,"target":"absent","response":"absent","rt":328.70000000298,"correct":true,"confidence":3},{"trial_n":43,"min":85,"max":170,"target":"absent","response":"absent","rt":283.69999999553,"correct":true,"confidence":1},{"trial_n":44,"min":85,"max":170,"target":"present","response":"present","rt":719.29999999702,"correct":true,"confidence":1},{"trial_n":45,"min":86,"max":169,"target":"present","response":"absent","rt":309.20000000298,"correct":false,"confidence":3},{"trial_n":46,"min":85,"max":170,"target":"absent","response":"absent","rt":284.70000000298,"correct":true,"confidence":3},{"trial_n":47,"min":85,"max":170,"target":"absent","response":"absent","rt":379.89999999851,"correct":true,"confidence":3},{"trial_n":48,"min":86,"max":169,"target":"absent","response":"absent","rt":515.89999999851,"correct":true,"confidence":3},{"trial_n":49,"min":86,"max":169,"target":"absent","response":"absent","rt":795.79999999702,"correct":true,"confidence":1},{"trial_n":50,"min":87,"max":168,"target":"absent","response":"present","rt":451.79999999702,"correct":false,"confidence":1},{"trial_n":51,"min":86,"max":169,"target":"present","response":"absent","rt":549.79999999702,"correct":false,"confidence":1},{"trial_n":52,"min":85,"max":170,"target":"present","response":"present","rt":617.29999999702,"correct":true,"confidence":2},{"trial_n":53,"min":85,"max":170,"target":"absent","response":"absent","rt":252.89999999851,"correct":true,"confidence":2},{"trial_n":54,"min":86,"max":169,"target":"present","response":"present","rt":377.79999999702,"correct":true,"confidence":2},{"trial_n":55,"min":86,"max":169,"target":"present","response":"absent","rt":640.60000000149,"correct":false,"confidence":3},{"trial_n":56,"min":85,"max":170,"target":"present","response":"present","rt":559.30000000447,"correct":true,"confidence":1},{"trial_n":57,"min":85,"max":170,"target":"present","response":"present","rt":531.79999999702,"correct":true,"confidence":1},{"trial_n":58,"min":86,"max":169,"target":"absent","response":"absent","rt":324.60000000149,"correct":true,"confidence":2},{"trial_n":59,"min":86,"max":169,"target":"present","response":"absent","rt":367.79999999702,"correct":false,"confidence":2},{"trial_n":60,"min":85,"max":170,"target":"present","response":"present","rt":325.10000000149,"correct":true,"confidence":2},{"trial_n":61,"min":85,"max":170,"target":"present","response":"present","rt":254.19999999553,"correct":true,"confidence":3},{"trial_n":62,"min":86,"max":169,"target":"present","response":"absent","rt":586.59999999404,"correct":false,"confidence":1},{"trial_n":63,"min":85,"max":170,"target":"present","response":"present","rt":358,"correct":true,"confidence":3},{"trial_n":64,"min":85,"max":170,"target":"present","response":"absent","rt":359.79999999702,"correct":false,"confidence":3},{"trial_n":65,"min":84,"max":171,"target":"present","response":"present","rt":554.89999999851,"correct":true,"confidence":1},{"trial_n":66,"min":84,"max":171,"target":"absent","response":"absent","rt":336.30000000447,"correct":true,"confidence":2},{"trial_n":67,"min":85,"max":170,"target":"present","response":"absent","rt":367.60000000149,"correct":false,"confidence":2},{"trial_n":68,"min":84,"max":171,"target":"present","response":"absent","rt":793.89999999851,"correct":false,"confidence":1},{"trial_n":69,"min":83,"max":172,"target":"absent","response":"absent","rt":399.89999999851,"correct":true,"confidence":1},{"trial_n":70,"min":83,"max":172,"target":"absent","response":"absent","rt":502.60000000149,"correct":true,"confidence":3},{"trial_n":71,"min":41,"max":214,"target":"present","response":"present","rt":5297.3000000045,"correct":true,"confidence":-1},{"trial_n":72,"min":41,"max":214,"target":"present","response":"present","rt":494.30000000447,"correct":true,"confidence":-1},{"trial_n":73,"min":57,"max":198,"target":"absent","response":"absent","rt":51.39999999851,"correct":true,"confidence":-1},{"trial_n":74,"min":57,"max":198,"target":"absent","response":"absent","rt":347.60000000149,"correct":true,"confidence":-1},{"trial_n":75,"min":73,"max":182,"target":"present","response":"absent","rt":323.70000000298,"correct":false,"confidence":-1},{"trial_n":76,"min":57,"max":198,"target":"absent","response":"present","rt":524.89999999851,"correct":false,"confidence":-1},{"trial_n":77,"min":41,"max":214,"target":"absent","response":"present","rt":1304.1000000015,"correct":false,"confidence":-1},{"trial_n":78,"min":25,"max":230,"target":"absent","response":"absent","rt":537.09999999404,"correct":true,"confidence":-1},{"trial_n":79,"min":25,"max":230,"target":"absent","response":"present","rt":581.19999999553,"correct":false,"confidence":-1},{"trial_n":80,"min":9,"max":246,"target":"present","response":"absent","rt":406.30000000447,"correct":false,"confidence":-1},{"trial_n":81,"min":1,"max":254,"target":"absent","response":"present","rt":542.79999999702,"correct":false,"confidence":-1},{"trial_n":82,"min":0,"max":255,"target":"present","response":"absent","rt":457.70000000298,"correct":false,"confidence":-1},{"trial_n":83,"min":0,"max":255,"target":"present","response":"present","rt":653.40000000596,"correct":true,"confidence":-1},{"trial_n":84,"min":0,"max":255,"target":"absent","response":"present","rt":1007.5,"correct":false,"confidence":-1},{"trial_n":85,"min":0,"max":255,"target":"absent","response":"absent","rt":2233.8999999985,"correct":true,"confidence":-1},{"trial_n":86,"min":0,"max":255,"target":"absent","response":"present","rt":2635.5,"correct":false,"confidence":-1},{"trial_n":87,"min":0,"max":255,"target":"absent","response":"absent","rt":456.89999999851,"correct":true,"confidence":-1},{"trial_n":88,"min":0,"max":255,"target":"present","response":"present","rt":398.79999999702,"correct":true,"confidence":-1},{"trial_n":89,"min":8,"max":247,"target":"absent","response":"absent","rt":449.29999999702,"correct":true,"confidence":-1},{"trial_n":90,"min":8,"max":247,"target":"absent","response":"absent","rt":444,"correct":true,"confidence":-1},{"trial_n":91,"min":12,"max":243,"target":"present","response":"present","rt":409.60000000149,"correct":true,"confidence":3},{"trial_n":92,"min":12,"max":243,"target":"present","response":"present","rt":368.20000000298,"correct":true,"confidence":3},{"trial_n":93,"min":16,"max":239,"target":"present","response":"absent","rt":416.39999999851,"correct":false,"confidence":3},{"trial_n":94,"min":12,"max":243,"target":"present","response":"present","rt":633.39999999851,"correct":true,"confidence":3},{"trial_n":95,"min":12,"max":243,"target":"present","response":"absent","rt":415.19999999553,"correct":false,"confidence":1},{"trial_n":96,"min":8,"max":247,"target":"present","response":"present","rt":407.39999999851,"correct":true,"confidence":3},{"trial_n":97,"min":8,"max":247,"target":"absent","response":"absent","rt":445.89999999851,"correct":true,"confidence":3},{"trial_n":98,"min":12,"max":243,"target":"present","response":"present","rt":438.39999999851,"correct":true,"confidence":3},{"trial_n":99,"min":12,"max":243,"target":"absent","response":"absent","rt":892.29999999702,"correct":true,"confidence":3},{"trial_n":100,"min":16,"max":239,"target":"present","response":"present","rt":413.10000000149,"correct":true,"confidence":4},{"trial_n":101,"min":16,"max":239,"target":"present","response":"present","rt":383.39999999851,"correct":true,"confidence":4},{"trial_n":102,"min":18,"max":237,"target":"absent","response":"absent","rt":409,"correct":true,"confidence":3},{"trial_n":103,"min":18,"max":237,"target":"absent","response":"absent","rt":398.89999999851,"correct":true,"confidence":3},{"trial_n":104,"min":20,"max":235,"target":"present","response":"present","rt":654,"correct":true,"confidence":1},{"trial_n":105,"min":20,"max":235,"target":"present","response":"present","rt":735.10000000149,"correct":true,"confidence":1},{"trial_n":106,"min":22,"max":233,"target":"absent","response":"absent","rt":604.29999999702,"correct":true,"confidence":1},{"trial_n":107,"min":22,"max":233,"target":"absent","response":"absent","rt":715.69999999553,"correct":true,"confidence":2},{"trial_n":108,"min":24,"max":231,"target":"absent","response":"absent","rt":491.5,"correct":true,"confidence":4},{"trial_n":109,"min":24,"max":231,"target":"present","response":"present","rt":336.70000000298,"correct":true,"confidence":1},{"trial_n":110,"min":26,"max":229,"target":"present","response":"present","rt":336,"correct":true,"confidence":1},{"trial_n":111,"min":26,"max":229,"target":"absent","response":"present","rt":582.60000000149,"correct":false,"confidence":1},{"trial_n":112,"min":25,"max":230,"target":"present","response":"present","rt":333.69999999553,"correct":true,"confidence":1},{"trial_n":113,"min":25,"max":230,"target":"absent","response":"absent","rt":538.29999999702,"correct":true,"confidence":1},{"trial_n":114,"min":26,"max":229,"target":"absent","response":"absent","rt":785.89999999851,"correct":true,"confidence":1},{"trial_n":115,"min":26,"max":229,"target":"present","response":"present","rt":434.79999999702,"correct":true,"confidence":1},{"trial_n":116,"min":27,"max":228,"target":"absent","response":"present","rt":605.70000000298,"correct":false,"confidence":1},{"trial_n":117,"min":26,"max":229,"target":"present","response":"present","rt":362.79999999702,"correct":true,"confidence":1},{"trial_n":118,"min":26,"max":229,"target":"absent","response":"absent","rt":591.10000000149,"correct":true,"confidence":3},{"trial_n":119,"min":27,"max":228,"target":"present","response":"present","rt":938,"correct":true,"confidence":1},{"trial_n":120,"min":27,"max":228,"target":"present","response":"present","rt":413.89999999851,"correct":true,"confidence":4},{"trial_n":121,"min":28,"max":227,"target":"present","response":"present","rt":400.29999999702,"correct":true,"confidence":3},{"trial_n":122,"min":28,"max":227,"target":"absent","response":"absent","rt":612.89999999851,"correct":true,"confidence":1},{"trial_n":123,"min":29,"max":226,"target":"present","response":"present","rt":262.80000000447,"correct":true,"confidence":3},{"trial_n":124,"min":29,"max":226,"target":"present","response":"present","rt":371.5,"correct":true,"confidence":3},{"trial_n":125,"min":30,"max":225,"target":"absent","response":"absent","rt":437.89999999851,"correct":true,"confidence":1},{"trial_n":126,"min":30,"max":225,"target":"present","response":"present","rt":358.60000000149,"correct":true,"confidence":2},{"trial_n":127,"min":31,"max":224,"target":"present","response":"present","rt":315.30000000447,"correct":true,"confidence":3},{"trial_n":128,"min":31,"max":224,"target":"present","response":"present","rt":382.5,"correct":true,"confidence":1},{"trial_n":129,"min":32,"max":223,"target":"absent","response":"absent","rt":349.10000000149,"correct":true,"confidence":1},{"trial_n":130,"min":32,"max":223,"target":"present","response":"present","rt":1508.1000000015,"correct":true,"confidence":1},{"trial_n":131,"min":33,"max":222,"target":"absent","response":"present","rt":463.90000000596,"correct":false,"confidence":3},{"trial_n":132,"min":32,"max":223,"target":"absent","response":"absent","rt":457,"correct":true,"confidence":3},{"trial_n":133,"min":32,"max":223,"target":"present","response":"present","rt":340.79999999702,"correct":true,"confidence":2},{"trial_n":134,"min":33,"max":222,"target":"absent","response":"absent","rt":469.39999999851,"correct":true,"confidence":4},{"trial_n":135,"min":33,"max":222,"target":"absent","response":"absent","rt":2718.6000000015,"correct":true,"confidence":1},{"trial_n":136,"min":34,"max":221,"target":"present","response":"present","rt":311.29999999702,"correct":true,"confidence":4},{"trial_n":137,"min":34,"max":221,"target":"present","response":"present","rt":471.5,"correct":true,"confidence":3},{"trial_n":138,"min":35,"max":220,"target":"present","response":"present","rt":393.59999999404,"correct":true,"confidence":3},{"trial_n":139,"min":35,"max":220,"target":"absent","response":"absent","rt":392,"correct":true,"confidence":4},{"trial_n":140,"min":36,"max":219,"target":"absent","response":"absent","rt":1150.5,"correct":true,"confidence":1}]