[{"trial_n":1,"n_dots":4.25,"target":"left","response":"right","rt":7539,"correct":false,"confidence":-1},{"trial_n":2,"n_dots":4.25,"target":"right","response":"left","rt":4504,"correct":false,"confidence":-1},{"trial_n":3,"n_dots":4.65,"target":"right","response":"right","rt":5687,"correct":true,"confidence":-1},{"trial_n":4,"n_dots":4.65,"target":"right","response":"right","rt":8932,"correct":true,"confidence":-1},{"trial_n":5,"n_dots":4.25,"target":"left","response":"left","rt":2770,"correct":true,"confidence":-1},{"trial_n":6,"n_dots":4.25,"target":"right","response":"right","rt":1620,"correct":true,"confidence":-1},{"trial_n":7,"n_dots":3.85,"target":"right","response":"right","rt":9338,"correct":true,"confidence":-1},{"trial_n":8,"n_dots":3.85,"target":"left","response":"left","rt":1387,"correct":true,"confidence":-1},{"trial_n":9,"n_dots":3.65,"target":"left","response":"left","rt":1021,"correct":true,"confidence":-1},{"trial_n":10,"n_dots":3.65,"target":"right","response":"left","rt":1110,"correct":false,"confidence":-1},{"trial_n":11,"n_dots":3.85,"target":"right","response":"right","rt":4433,"correct":true,"confidence":-1},{"trial_n":12,"n_dots":3.85,"target":"left","response":"left","rt":1715,"correct":true,"confidence":-1},{"trial_n":13,"n_dots":3.75,"target":"left","response":"left","rt":959,"correct":true,"confidence":-1},{"trial_n":14,"n_dots":3.75,"target":"right","response":"right","rt":1305,"correct":true,"confidence":-1},{"trial_n":15,"n_dots":3.65,"target":"right","response":"left","rt":1932,"correct":false,"confidence":-1},{"trial_n":16,"n_dots":3.75,"target":"right","response":"right","rt":1310,"correct":true,"confidence":-1},{"trial_n":17,"n_dots":3.75,"target":"right","response":"right","rt":1303,"correct":true,"confidence":-1},{"trial_n":18,"n_dots":3.65,"target":"right","response":"right","rt":1473,"correct":true,"confidence":-1},{"trial_n":19,"n_dots":3.65,"target":"left","response":"left","rt":578,"correct":true,"confidence":-1},{"trial_n":20,"n_dots":3.55,"target":"right","response":"right","rt":1242,"correct":true,"confidence":-1},{"trial_n":21,"n_dots":3.55,"target":"right","response":"right","rt":1179,"correct":true,"confidence":3},{"trial_n":22,"n_dots":3.45,"target":"left","response":"left","rt":1454,"correct":true,"confidence":3},{"trial_n":23,"n_dots":3.45,"target":"left","response":"left","rt":1081,"correct":true,"confidence":3},{"trial_n":24,"n_dots":3.35,"target":"right","response":"left","rt":1119,"correct":false,"confidence":3},{"trial_n":25,"n_dots":3.45,"target":"left","response":"left","rt":943,"correct":true,"confidence":4},{"trial_n":26,"n_dots":3.45,"target":"left","response":"left","rt":973,"correct":true,"confidence":4},{"trial_n":27,"n_dots":3.35,"target":"left","response":"left","rt":1186,"correct":true,"confidence":4},{"trial_n":28,"n_dots":3.35,"target":"right","response":"left","rt":1460,"correct":false,"confidence":3},{"trial_n":29,"n_dots":3.45,"target":"right","response":"left","rt":955,"correct":false,"confidence":3},{"trial_n":30,"n_dots":3.55,"target":"left","response":"left","rt":1004,"correct":true,"confidence":4},{"trial_n":31,"n_dots":3.55,"target":"right","response":"right","rt":2359,"correct":true,"confidence":3},{"trial_n":32,"n_dots":3.45,"target":"right","response":"left","rt":1176,"correct":false,"confidence":4},{"trial_n":33,"n_dots":3.55,"target":"right","response":"right","rt":2138,"correct":true,"confidence":3},{"trial_n":34,"n_dots":3.55,"target":"left","response":"left","rt":721.99999999997,"correct":true,"confidence":4},{"trial_n":35,"n_dots":3.45,"target":"right","response":"left","rt":1290,"correct":false,"confidence":4},{"trial_n":36,"n_dots":3.55,"target":"left","response":"left","rt":782,"correct":true,"confidence":4},{"trial_n":37,"n_dots":3.55,"target":"right","response":"left","rt":1183,"correct":false,"confidence":4},{"trial_n":38,"n_dots":3.65,"target":"left","response":"left","rt":786,"correct":true,"confidence":4},{"trial_n":39,"n_dots":3.65,"target":"right","response":"right","rt":1947,"correct":true,"confidence":1},{"trial_n":40,"n_dots":3.55,"target":"right","response":"right","rt":2338,"correct":true,"confidence":3},{"trial_n":41,"n_dots":3.55,"target":"left","response":"left","rt":824.99999999997,"correct":true,"confidence":3},{"trial_n":42,"n_dots":3.45,"target":"left","response":"left","rt":708.00000000003,"correct":true,"confidence":3},{"trial_n":43,"n_dots":3.45,"target":"right","response":"right","rt":1620,"correct":true,"confidence":3},{"trial_n":44,"n_dots":3.35,"target":"left","response":"left","rt":555.99999999997,"correct":true,"confidence":3},{"trial_n":45,"n_dots":3.35,"target":"left","response":"left","rt":697,"correct":true,"confidence":3},{"trial_n":46,"n_dots":3.25,"target":"left","response":"left","rt":994,"correct":true,"confidence":3},{"trial_n":47,"n_dots":3.25,"target":"right","response":"left","rt":1046,"correct":false,"confidence":3},{"trial_n":48,"n_dots":3.35,"target":"left","response":"left","rt":1106,"correct":true,"confidence":3},{"trial_n":49,"n_dots":3.35,"target":"right","response":"left","rt":1353,"correct":false,"confidence":3},{"trial_n":50,"n_dots":3.45,"target":"left","response":"left","rt":836,"correct":true,"confidence":3},{"trial_n":51,"n_dots":3.45,"target":"left","response":"left","rt":912,"correct":true,"confidence":3},{"trial_n":52,"n_dots":3.35,"target":"right","response":"right","rt":2264,"correct":true,"confidence":1},{"trial_n":53,"n_dots":3.35,"target":"left","response":"left","rt":1079,"correct":true,"confidence":3},{"trial_n":54,"n_dots":3.25,"target":"right","response":"left","rt":1016,"correct":false,"confidence":3},{"trial_n":55,"n_dots":3.35,"target":"left","response":"left","rt":1840.0000000001,"correct":true,"confidence":3},{"trial_n":56,"n_dots":3.35,"target":"left","response":"right","rt":1519,"correct":false,"confidence":2},{"trial_n":57,"n_dots":3.45,"target":"right","response":"right","rt":1338,"correct":true,"confidence":2},{"trial_n":58,"n_dots":3.45,"target":"left","response":"left","rt":2111,"correct":true,"confidence":3},{"trial_n":59,"n_dots":3.35,"target":"right","response":"right","rt":1355.9999999999,"correct":true,"confidence":3},{"trial_n":60,"n_dots":3.35,"target":"right","response":"right","rt":1266,"correct":true,"confidence":2},{"trial_n":61,"n_dots":3.25,"target":"right","response":"left","rt":1123,"correct":false,"confidence":3},{"trial_n":62,"n_dots":3.35,"target":"right","response":"left","rt":1221,"correct":false,"confidence":1},{"trial_n":63,"n_dots":3.45,"target":"right","response":"left","rt":1275,"correct":false,"confidence":3},{"trial_n":64,"n_dots":3.55,"target":"left","response":"left","rt":2039,"correct":true,"confidence":3},{"trial_n":65,"n_dots":3.55,"target":"right","response":"right","rt":1430,"correct":true,"confidence":3},{"trial_n":66,"n_dots":3.45,"target":"right","response":"right","rt":1809.9999999999,"correct":true,"confidence":3},{"trial_n":67,"n_dots":3.45,"target":"right","response":"right","rt":1419,"correct":true,"confidence":3},{"trial_n":68,"n_dots":3.35,"target":"left","response":"left","rt":777,"correct":true,"confidence":3},{"trial_n":69,"n_dots":3.35,"target":"right","response":"left","rt":1571,"correct":false,"confidence":3},{"trial_n":70,"n_dots":3.45,"target":"right","response":"right","rt":1202,"correct":true,"confidence":3},{"trial_n":71,"n_dots":3.45,"target":"right","response":"left","rt":995,"correct":false,"confidence":3},{"trial_n":72,"n_dots":3.55,"target":"right","response":"right","rt":1897,"correct":true,"confidence":3},{"trial_n":73,"n_dots":3.55,"target":"left","response":"left","rt":1523.0000000001,"correct":true,"confidence":3},{"trial_n":74,"n_dots":3.45,"target":"left","response":"left","rt":1205,"correct":true,"confidence":3},{"trial_n":75,"n_dots":3.45,"target":"right","response":"right","rt":1202,"correct":true,"confidence":3},{"trial_n":76,"n_dots":3.35,"target":"right","response":"left","rt":1196.0000000001,"correct":false,"confidence":3},{"trial_n":77,"n_dots":3.45,"target":"right","response":"right","rt":1275,"correct":true,"confidence":3},{"trial_n":78,"n_dots":3.45,"target":"left","response":"left","rt":1005,"correct":true,"confidence":3},{"trial_n":79,"n_dots":3.35,"target":"left","response":"left","rt":910.00000000006,"correct":true,"confidence":3},{"trial_n":80,"n_dots":3.35,"target":"left","response":"left","rt":778,"correct":true,"confidence":3},{"trial_n":81,"n_dots":3.25,"target":"right","response":"right","rt":921,"correct":true,"confidence":3},{"trial_n":82,"n_dots":3.25,"target":"left","response":"left","rt":988,"correct":true,"confidence":3},{"trial_n":83,"n_dots":3.15,"target":"left","response":"right","rt":961,"correct":false,"confidence":3},{"trial_n":84,"n_dots":3.25,"target":"left","response":"right","rt":1183.9999999999,"correct":false,"confidence":3},{"trial_n":85,"n_dots":3.35,"target":"left","response":"left","rt":768,"correct":true,"confidence":1},{"trial_n":86,"n_dots":3.35,"target":"left","response":"left","rt":1063,"correct":true,"confidence":3},{"trial_n":87,"n_dots":3.25,"target":"right","response":"left","rt":769,"correct":false,"confidence":3},{"trial_n":88,"n_dots":3.35,"target":"left","response":"left","rt":1038,"correct":true,"confidence":3},{"trial_n":89,"n_dots":3.35,"target":"left","response":"right","rt":1377.0000000001,"correct":false,"confidence":3},{"trial_n":90,"n_dots":3.45,"target":"right","response":"right","rt":884.99999999994,"correct":true,"confidence":3},{"trial_n":91,"n_dots":3.45,"target":"right","response":"right","rt":1612.0000000001,"correct":true,"confidence":3},{"trial_n":92,"n_dots":3.35,"target":"left","response":"left","rt":1165,"correct":true,"confidence":3},{"trial_n":93,"n_dots":3.35,"target":"left","response":"left","rt":1196,"correct":true,"confidence":3},{"trial_n":94,"n_dots":3.25,"target":"left","response":"left","rt":1190.9999999999,"correct":true,"confidence":3},{"trial_n":95,"n_dots":3.25,"target":"right","response":"right","rt":1185.0000000001,"correct":true,"confidence":3},{"trial_n":96,"n_dots":3.15,"target":"right","response":"right","rt":1127,"correct":true,"confidence":3},{"trial_n":97,"n_dots":3.15,"target":"left","response":"left","rt":1056,"correct":true,"confidence":3},{"trial_n":98,"n_dots":3.05,"target":"right","response":"left","rt":1349.0000000001,"correct":false,"confidence":3},{"trial_n":99,"n_dots":3.15,"target":"left","response":"left","rt":1528.9999999999,"correct":true,"confidence":3},{"trial_n":100,"n_dots":3.15,"target":"right","response":"right","rt":1451,"correct":true,"confidence":3},{"trial_n":101,"n_dots":3.05,"target":"right","response":"right","rt":1371,"correct":true,"confidence":3},{"trial_n":102,"n_dots":3.05,"target":"left","response":"left","rt":1253,"correct":true,"confidence":3},{"trial_n":103,"n_dots":2.95,"target":"left","response":"left","rt":1670.9999999999,"correct":true,"confidence":2},{"trial_n":104,"n_dots":2.95,"target":"right","response":"right","rt":1721,"correct":true,"confidence":3},{"trial_n":105,"n_dots":2.85,"target":"left","response":"left","rt":1271,"correct":true,"confidence":3},{"trial_n":106,"n_dots":2.85,"target":"left","response":"left","rt":1253,"correct":true,"confidence":3},{"trial_n":107,"n_dots":2.75,"target":"right","response":"right","rt":1477,"correct":true,"confidence":2},{"trial_n":108,"n_dots":2.75,"target":"left","response":"left","rt":1303,"correct":true,"confidence":3},{"trial_n":109,"n_dots":2.65,"target":"right","response":"right","rt":1588,"correct":true,"confidence":3},{"trial_n":110,"n_dots":2.65,"target":"left","response":"left","rt":2484.0000000001,"correct":true,"confidence":3},{"trial_n":111,"n_dots":2.55,"target":"left","response":"left","rt":1707,"correct":true,"confidence":3},{"trial_n":112,"n_dots":2.55,"target":"left","response":"left","rt":1456,"correct":true,"confidence":2},{"trial_n":113,"n_dots":2.45,"target":"left","response":"right","rt":1424,"correct":false,"confidence":2},{"trial_n":114,"n_dots":2.55,"target":"left","response":"right","rt":1818.9999999999,"correct":false,"confidence":3},{"trial_n":115,"n_dots":2.65,"target":"left","response":"right","rt":2098,"correct":false,"confidence":3},{"trial_n":116,"n_dots":2.75,"target":"right","response":"left","rt":1866,"correct":false,"confidence":1},{"trial_n":117,"n_dots":2.85,"target":"right","response":"right","rt":1151,"correct":true,"confidence":3},{"trial_n":118,"n_dots":2.85,"target":"left","response":"left","rt":1103,"correct":true,"confidence":3},{"trial_n":119,"n_dots":2.75,"target":"right","response":"left","rt":1532,"correct":false,"confidence":3},{"trial_n":120,"n_dots":2.85,"target":"left","response":"left","rt":1300,"correct":true,"confidence":3}]