[{"trial_n":1,"span":8,"encoder":"75220044","distractor":"75220045","target":"present","response":"absent","rt":"3697","correct":false,"confidence":-1},{"trial_n":2,"span":6,"encoder":"348895","distractor":"348897","target":"present","response":"present","rt":"1646","correct":true,"confidence":-1},{"trial_n":3,"span":6,"encoder":"454839","distractor":"454539","target":"absent","response":"present","rt":"1304","correct":false,"confidence":-1},{"trial_n":4,"span":4,"encoder":"3342","distractor":"4342","target":"absent","response":"present","rt":"1455","correct":false,"confidence":-1},{"trial_n":5,"span":2,"encoder":"81","distractor":"41","target":"present","response":"present","rt":"1575","correct":true,"confidence":-1},{"trial_n":6,"span":2,"encoder":"17","distractor":"07","target":"present","response":"present","rt":"878","correct":true,"confidence":-1},{"trial_n":7,"span":4,"encoder":"7871","distractor":"7811","target":"absent","response":"present","rt":"1181","correct":false,"confidence":-1},{"trial_n":8,"span":2,"encoder":"27","distractor":"20","target":"present","response":"present","rt":"896","correct":true,"confidence":-1},{"trial_n":9,"span":2,"encoder":"73","distractor":"83","target":"absent","response":"absent","rt":"1029","correct":true,"confidence":-1},{"trial_n":10,"span":4,"encoder":"6665","distractor":"6635","target":"present","response":"present","rt":"916","correct":true,"confidence":-1},{"trial_n":11,"span":4,"encoder":"0712","distractor":"0762","target":"absent","response":"absent","rt":"2667","correct":true,"confidence":-1},{"trial_n":12,"span":5,"encoder":"98115","distractor":"98415","target":"present","response":"present","rt":"1409","correct":true,"confidence":-1},{"trial_n":13,"span":5,"encoder":"26823","distractor":"46823","target":"absent","response":"absent","rt":"1650","correct":true,"confidence":-1},{"trial_n":14,"span":6,"encoder":"258412","distractor":"858412","target":"present","response":"present","rt":"1999","correct":true,"confidence":-1},{"trial_n":15,"span":6,"encoder":"921096","distractor":"921196","target":"absent","response":"absent","rt":"1463","correct":true,"confidence":-1},{"trial_n":16,"span":7,"encoder":"9791000","distractor":"9791500","target":"present","response":"present","rt":"1883","correct":true,"confidence":-1},{"trial_n":17,"span":7,"encoder":"4013173","distractor":"9013173","target":"present","response":"present","rt":"1078","correct":true,"confidence":-1},{"trial_n":18,"span":8,"encoder":"31735705","distractor":"31735755","target":"absent","response":"absent","rt":"874","correct":true,"confidence":-1},{"trial_n":19,"span":8,"encoder":"64557441","distractor":"64557541","target":"present","response":"absent","rt":"1148","correct":false,"confidence":-1},{"trial_n":20,"span":7,"encoder":"4379105","distractor":"6379105","target":"present","response":"present","rt":"935.00000000001","correct":true,"confidence":-1},{"trial_n":21,"span":7,"encoder":"2257709","distractor":"2257719","target":"absent","response":"absent","rt":"1615","correct":true,"confidence":5},{"trial_n":22,"span":8,"encoder":"53067011","distractor":"53067081","target":"present","response":"present","rt":"1833","correct":true,"confidence":3},{"trial_n":23,"span":8,"encoder":"80039054","distractor":"84039054","target":"absent","response":"present","rt":"2043","correct":false,"confidence":3},{"trial_n":24,"span":7,"encoder":"9125230","distractor":"9105230","target":"present","response":"present","rt":"817","correct":true,"confidence":3},{"trial_n":25,"span":7,"encoder":"2416437","distractor":"2418437","target":"present","response":"absent","rt":"854.00000000003","correct":false,"confidence":2},{"trial_n":26,"span":6,"encoder":"796545","distractor":"716545","target":"present","response":"present","rt":"748","correct":true,"confidence":2},{"trial_n":27,"span":6,"encoder":"203422","distractor":"203222","target":"absent","response":"present","rt":"757.99999999997","correct":false,"confidence":4},{"trial_n":28,"span":5,"encoder":"75611","distractor":"05611","target":"absent","response":"present","rt":"1452","correct":false,"confidence":3},{"trial_n":29,"span":4,"encoder":"6172","distractor":"6178","target":"present","response":"present","rt":"2164","correct":true,"confidence":5},{"trial_n":30,"span":4,"encoder":"1955","distractor":"1855","target":"absent","response":"absent","rt":"1145","correct":true,"confidence":5},{"trial_n":31,"span":5,"encoder":"68724","distractor":"64724","target":"present","response":"present","rt":"1538.9999999999","correct":true,"confidence":4},{"trial_n":32,"span":5,"encoder":"31462","distractor":"31472","target":"absent","response":"absent","rt":"1062","correct":true,"confidence":5},{"trial_n":33,"span":6,"encoder":"744184","distractor":"744384","target":"present","response":"absent","rt":"1666","correct":false,"confidence":4},{"trial_n":34,"span":5,"encoder":"07146","distractor":"07046","target":"absent","response":"present","rt":"565","correct":false,"confidence":3},{"trial_n":35,"span":4,"encoder":"1726","distractor":"1126","target":"absent","response":"present","rt":"647","correct":false,"confidence":1},{"trial_n":36,"span":3,"encoder":"389","distractor":"989","target":"absent","response":"present","rt":"1445.0000000001","correct":false,"confidence":4},{"trial_n":37,"span":2,"encoder":"58","distractor":"57","target":"present","response":"absent","rt":"2904","correct":false,"confidence":2},{"trial_n":38,"span":2,"encoder":"66","distractor":"67","target":"present","response":"present","rt":"769","correct":true,"confidence":5},{"trial_n":39,"span":2,"encoder":"91","distractor":"01","target":"absent","response":"absent","rt":"3955","correct":true,"confidence":2},{"trial_n":40,"span":3,"encoder":"485","distractor":"481","target":"present","response":"present","rt":"1509","correct":true,"confidence":1},{"trial_n":41,"span":3,"encoder":"462","distractor":"432","target":"absent","response":"absent","rt":"1151","correct":true,"confidence":5},{"trial_n":42,"span":4,"encoder":"5843","distractor":"8843","target":"present","response":"present","rt":"1096","correct":true,"confidence":5},{"trial_n":43,"span":4,"encoder":"4924","distractor":"4984","target":"present","response":"present","rt":"3221","correct":true,"confidence":3},{"trial_n":44,"span":5,"encoder":"93111","distractor":"96111","target":"absent","response":"absent","rt":"1960","correct":true,"confidence":5},{"trial_n":45,"span":5,"encoder":"19141","distractor":"19146","target":"absent","response":"present","rt":"3251","correct":false,"confidence":2},{"trial_n":46,"span":4,"encoder":"4689","distractor":"4889","target":"absent","response":"absent","rt":"5633","correct":true,"confidence":1},{"trial_n":47,"span":4,"encoder":"9234","distractor":"9244","target":"absent","response":"absent","rt":"1889.0000000001","correct":true,"confidence":4},{"trial_n":48,"span":5,"encoder":"05277","distractor":"05257","target":"absent","response":"absent","rt":"1910.0000000001","correct":true,"confidence":5},{"trial_n":49,"span":5,"encoder":"76411","distractor":"76491","target":"absent","response":"absent","rt":"1150.9999999999","correct":true,"confidence":5},{"trial_n":50,"span":6,"encoder":"936360","distractor":"936364","target":"present","response":"present","rt":"2714.0000000001","correct":true,"confidence":3},{"trial_n":51,"span":6,"encoder":"133045","distractor":"133075","target":"present","response":"present","rt":"1400","correct":true,"confidence":5},{"trial_n":52,"span":7,"encoder":"7883270","distractor":"8883270","target":"present","response":"present","rt":"991","correct":true,"confidence":4},{"trial_n":53,"span":7,"encoder":"4726857","distractor":"4721857","target":"present","response":"present","rt":"1337","correct":true,"confidence":4},{"trial_n":54,"span":8,"encoder":"97460596","distractor":"97760596","target":"absent","response":"present","rt":"1460","correct":false,"confidence":4},{"trial_n":55,"span":7,"encoder":"4236372","distractor":"4206372","target":"absent","response":"absent","rt":"1587","correct":true,"confidence":3},{"trial_n":56,"span":7,"encoder":"7132375","distractor":"7832375","target":"absent","response":"absent","rt":"1728","correct":true,"confidence":4},{"trial_n":57,"span":8,"encoder":"04262224","distractor":"04262924","target":"present","response":"present","rt":"1231","correct":true,"confidence":4},{"trial_n":58,"span":8,"encoder":"05641945","distractor":"05611945","target":"absent","response":"present","rt":"1341.9999999999","correct":false,"confidence":3},{"trial_n":59,"span":7,"encoder":"8569362","distractor":"8569162","target":"absent","response":"present","rt":"1051","correct":false,"confidence":4},{"trial_n":60,"span":6,"encoder":"184073","distractor":"184773","target":"present","response":"absent","rt":"3566","correct":false,"confidence":2},{"trial_n":61,"span":5,"encoder":"87130","distractor":"97130","target":"absent","response":"absent","rt":"1061","correct":true,"confidence":3},{"trial_n":62,"span":5,"encoder":"32251","distractor":"32253","target":"present","response":"present","rt":"1509","correct":true,"confidence":1},{"trial_n":63,"span":6,"encoder":"040453","distractor":"040473","target":"present","response":"absent","rt":"1150","correct":false,"confidence":5},{"trial_n":64,"span":5,"encoder":"98880","distractor":"58880","target":"present","response":"present","rt":"1191","correct":true,"confidence":5},{"trial_n":65,"span":5,"encoder":"39623","distractor":"39627","target":"absent","response":"absent","rt":"1890.9999999999","correct":true,"confidence":5},{"trial_n":66,"span":6,"encoder":"140264","distractor":"146264","target":"present","response":"absent","rt":"2197.0000000001","correct":false,"confidence":4},{"trial_n":67,"span":5,"encoder":"65060","distractor":"65040","target":"absent","response":"absent","rt":"1953","correct":true,"confidence":3},{"trial_n":68,"span":5,"encoder":"50213","distractor":"54213","target":"absent","response":"present","rt":"899.00000000012","correct":false,"confidence":3},{"trial_n":69,"span":4,"encoder":"4301","distractor":"4701","target":"present","response":"present","rt":"1003","correct":true,"confidence":5},{"trial_n":70,"span":4,"encoder":"9675","distractor":"9655","target":"present","response":"present","rt":"957","correct":true,"confidence":4},{"trial_n":71,"span":8,"encoder":"24571601","distractor":"24571641","target":"present","response":"present","rt":"2267.0000000001","correct":true,"confidence":-1},{"trial_n":72,"span":8,"encoder":"13459532","distractor":"12459532","target":"present","response":"present","rt":"5527","correct":true,"confidence":-1},{"trial_n":73,"span":9,"encoder":"736350500","distractor":"736350800","target":"absent","response":"absent","rt":"1618.9999999999","correct":true,"confidence":-1},{"trial_n":74,"span":9,"encoder":"664296715","distractor":"669296715","target":"absent","response":"absent","rt":"1586","correct":true,"confidence":-1},{"trial_n":75,"span":10,"encoder":"4619500495","distractor":"4419500495","target":"present","response":"present","rt":"1211.0000000001","correct":true,"confidence":-1},{"trial_n":76,"span":10,"encoder":"2698381172","distractor":"2698311172","target":"present","response":"present","rt":"2459","correct":true,"confidence":-1},{"trial_n":77,"span":11,"encoder":"77806863923","distractor":"77406863923","target":"absent","response":"present","rt":"1417","correct":false,"confidence":-1},{"trial_n":78,"span":10,"encoder":"8635630468","distractor":"8695630468","target":"absent","response":"absent","rt":"1915","correct":true,"confidence":-1},{"trial_n":79,"span":10,"encoder":"8224827739","distractor":"8224827639","target":"present","response":"absent","rt":"2710.9999999999","correct":false,"confidence":-1},{"trial_n":80,"span":9,"encoder":"253863913","distractor":"253869913","target":"absent","response":"present","rt":"1485.9999999999","correct":false,"confidence":-1},{"trial_n":81,"span":8,"encoder":"55519454","distractor":"55517454","target":"present","response":"absent","rt":"434","correct":false,"confidence":-1},{"trial_n":82,"span":7,"encoder":"6254933","distractor":"6254733","target":"present","response":"present","rt":"2637","correct":true,"confidence":-1},{"trial_n":83,"span":7,"encoder":"4443402","distractor":"4443102","target":"present","response":"present","rt":"1860","correct":true,"confidence":-1},{"trial_n":84,"span":8,"encoder":"25711436","distractor":"26711436","target":"absent","response":"present","rt":"1126","correct":false,"confidence":-1},{"trial_n":85,"span":7,"encoder":"1435522","distractor":"1431522","target":"present","response":"absent","rt":"1091","correct":false,"confidence":-1},{"trial_n":86,"span":6,"encoder":"474347","distractor":"474547","target":"present","response":"present","rt":"532.99999999988","correct":true,"confidence":-1},{"trial_n":87,"span":6,"encoder":"902818","distractor":"902718","target":"present","response":"absent","rt":"1540","correct":false,"confidence":-1},{"trial_n":88,"span":5,"encoder":"66158","distractor":"66148","target":"present","response":"present","rt":"3717","correct":true,"confidence":-1},{"trial_n":89,"span":5,"encoder":"93804","distractor":"33804","target":"absent","response":"present","rt":"820","correct":false,"confidence":-1},{"trial_n":90,"span":4,"encoder":"8788","distractor":"8785","target":"absent","response":"absent","rt":"2218.9999999999","correct":true,"confidence":-1},{"trial_n":91,"span":4,"encoder":"4245","distractor":"4545","target":"present","response":"present","rt":"3414","correct":true,"confidence":1},{"trial_n":92,"span":5,"encoder":"02753","distractor":"52753","target":"absent","response":"absent","rt":"882","correct":true,"confidence":4},{"trial_n":93,"span":5,"encoder":"08550","distractor":"08350","target":"absent","response":"absent","rt":"1458","correct":true,"confidence":5},{"trial_n":94,"span":6,"encoder":"744866","distractor":"744886","target":"present","response":"present","rt":"2656.9999999999","correct":true,"confidence":3},{"trial_n":95,"span":6,"encoder":"901743","distractor":"901043","target":"absent","response":"absent","rt":"2063.0000000001","correct":true,"confidence":4},{"trial_n":96,"span":7,"encoder":"9948830","distractor":"9978830","target":"absent","response":"present","rt":"1679.9999999999","correct":false,"confidence":1},{"trial_n":97,"span":6,"encoder":"495836","distractor":"495136","target":"present","response":"present","rt":"1964.9999999999","correct":true,"confidence":1},{"trial_n":98,"span":6,"encoder":"605815","distractor":"607815","target":"absent","response":"absent","rt":"1557","correct":true,"confidence":1},{"trial_n":99,"span":7,"encoder":"6717163","distractor":"6717153","target":"absent","response":"present","rt":"809.00000000012","correct":false,"confidence":1},{"trial_n":100,"span":6,"encoder":"459993","distractor":"459983","target":"present","response":"present","rt":"1524","correct":true,"confidence":1},{"trial_n":101,"span":6,"encoder":"007177","distractor":"007157","target":"present","response":"absent","rt":"851","correct":false,"confidence":1},{"trial_n":102,"span":5,"encoder":"60331","distractor":"60361","target":"absent","response":"present","rt":"461","correct":false,"confidence":1},{"trial_n":103,"span":4,"encoder":"7076","distractor":"7176","target":"absent","response":"present","rt":"490","correct":false,"confidence":1},{"trial_n":104,"span":3,"encoder":"665","distractor":"065","target":"present","response":"present","rt":"1615","correct":true,"confidence":1},{"trial_n":105,"span":3,"encoder":"719","distractor":"749","target":"present","response":"present","rt":"1208","correct":true,"confidence":1},{"trial_n":106,"span":4,"encoder":"6073","distractor":"6063","target":"absent","response":"present","rt":"1340.0000000002","correct":false,"confidence":4},{"trial_n":107,"span":3,"encoder":"855","distractor":"055","target":"absent","response":"absent","rt":"1666.0000000002","correct":true,"confidence":3},{"trial_n":108,"span":3,"encoder":"697","distractor":"097","target":"absent","response":"absent","rt":"1266","correct":true,"confidence":5},{"trial_n":109,"span":4,"encoder":"3890","distractor":"5890","target":"absent","response":"absent","rt":"921","correct":true,"confidence":5},{"trial_n":110,"span":4,"encoder":"1270","distractor":"1240","target":"absent","response":"absent","rt":"1160.9999999999","correct":true,"confidence":5},{"trial_n":111,"span":5,"encoder":"52595","distractor":"52575","target":"present","response":"present","rt":"2512","correct":true,"confidence":5},{"trial_n":112,"span":5,"encoder":"11213","distractor":"19213","target":"absent","response":"absent","rt":"1143","correct":true,"confidence":5},{"trial_n":113,"span":6,"encoder":"212538","distractor":"262538","target":"absent","response":"absent","rt":"1096","correct":true,"confidence":1},{"trial_n":114,"span":6,"encoder":"977212","distractor":"957212","target":"absent","response":"absent","rt":"1148","correct":true,"confidence":5},{"trial_n":115,"span":7,"encoder":"9632734","distractor":"9632754","target":"present","response":"absent","rt":"618","correct":false,"confidence":3},{"trial_n":116,"span":6,"encoder":"471143","distractor":"471243","target":"present","response":"present","rt":"1812.9999999998","correct":true,"confidence":4},{"trial_n":117,"span":6,"encoder":"313488","distractor":"313438","target":"present","response":"present","rt":"1082","correct":true,"confidence":3},{"trial_n":118,"span":7,"encoder":"5005444","distractor":"5004444","target":"present","response":"present","rt":"2346","correct":true,"confidence":4},{"trial_n":119,"span":7,"encoder":"6945984","distractor":"6945989","target":"absent","response":"present","rt":"1002","correct":false,"confidence":1},{"trial_n":120,"span":6,"encoder":"505398","distractor":"535398","target":"absent","response":"absent","rt":"1191","correct":true,"confidence":4},{"trial_n":121,"span":6,"encoder":"087953","distractor":"087053","target":"present","response":"present","rt":"2583","correct":true,"confidence":4},{"trial_n":122,"span":7,"encoder":"7666756","distractor":"7666956","target":"absent","response":"present","rt":"951","correct":false,"confidence":1},{"trial_n":123,"span":6,"encoder":"265710","distractor":"264710","target":"absent","response":"absent","rt":"2364","correct":true,"confidence":4},{"trial_n":124,"span":6,"encoder":"202012","distractor":"252012","target":"absent","response":"absent","rt":"1029","correct":true,"confidence":5},{"trial_n":125,"span":7,"encoder":"1640731","distractor":"1640732","target":"present","response":"present","rt":"1635","correct":true,"confidence":3},{"trial_n":126,"span":7,"encoder":"1106110","distractor":"1106710","target":"absent","response":"present","rt":"10149","correct":false,"confidence":1},{"trial_n":127,"span":6,"encoder":"832120","distractor":"836120","target":"present","response":"present","rt":"1430","correct":true,"confidence":1},{"trial_n":128,"span":6,"encoder":"610783","distractor":"610753","target":"absent","response":"absent","rt":"1765.9999999998","correct":true,"confidence":3},{"trial_n":129,"span":7,"encoder":"4494178","distractor":"2494178","target":"absent","response":"absent","rt":"892","correct":true,"confidence":5},{"trial_n":130,"span":7,"encoder":"0469318","distractor":"0469618","target":"present","response":"absent","rt":"2844.9999999998","correct":false,"confidence":4},{"trial_n":131,"span":6,"encoder":"302724","distractor":"302721","target":"present","response":"present","rt":"2460","correct":true,"confidence":3},{"trial_n":132,"span":6,"encoder":"943147","distractor":"953147","target":"present","response":"absent","rt":"906","correct":false,"confidence":3},{"trial_n":133,"span":5,"encoder":"59735","distractor":"59715","target":"present","response":"present","rt":"910","correct":true,"confidence":1},{"trial_n":134,"span":5,"encoder":"69248","distractor":"49248","target":"present","response":"present","rt":"1544","correct":true,"confidence":4},{"trial_n":135,"span":6,"encoder":"011524","distractor":"011523","target":"present","response":"present","rt":"26858","correct":true,"confidence":1},{"trial_n":136,"span":6,"encoder":"544511","distractor":"244511","target":"present","response":"present","rt":"1214","correct":true,"confidence":5},{"trial_n":137,"span":7,"encoder":"9913954","distractor":"9933954","target":"absent","response":"present","rt":"4021","correct":false,"confidence":4},{"trial_n":138,"span":6,"encoder":"968666","distractor":"968626","target":"absent","response":"absent","rt":"2988","correct":true,"confidence":4},{"trial_n":139,"span":6,"encoder":"905818","distractor":"905858","target":"present","response":"absent","rt":"2040","correct":false,"confidence":4},{"trial_n":140,"span":5,"encoder":"02887","distractor":"08887","target":"present","response":"present","rt":"1696","correct":true,"confidence":1}]