[{"trial_n":1,"min":25,"max":230,"target":"present","response":"present","rt":5788.1000000238,"correct":true,"confidence":-1},{"trial_n":2,"min":25,"max":230,"target":"present","response":"present","rt":1568.3000000119,"correct":true,"confidence":-1},{"trial_n":3,"min":41,"max":214,"target":"absent","response":"present","rt":431.5,"correct":false,"confidence":-1},{"trial_n":4,"min":25,"max":230,"target":"absent","response":"absent","rt":982,"correct":true,"confidence":-1},{"trial_n":5,"min":25,"max":230,"target":"present","response":"present","rt":622.39999997616,"correct":true,"confidence":-1},{"trial_n":6,"min":41,"max":214,"target":"absent","response":"absent","rt":557.80000001192,"correct":true,"confidence":-1},{"trial_n":7,"min":41,"max":214,"target":"present","response":"present","rt":667.80000001192,"correct":true,"confidence":-1},{"trial_n":8,"min":57,"max":198,"target":"absent","response":"absent","rt":571.80000001192,"correct":true,"confidence":-1},{"trial_n":9,"min":57,"max":198,"target":"present","response":"present","rt":1074.0999999642,"correct":true,"confidence":-1},{"trial_n":10,"min":73,"max":182,"target":"absent","response":"absent","rt":423.89999997616,"correct":true,"confidence":-1},{"trial_n":11,"min":73,"max":182,"target":"present","response":"present","rt":527.20000004768,"correct":true,"confidence":-1},{"trial_n":12,"min":81,"max":174,"target":"present","response":"absent","rt":378.10000002384,"correct":false,"confidence":-1},{"trial_n":13,"min":73,"max":182,"target":"absent","response":"absent","rt":407.09999996424,"correct":true,"confidence":-1},{"trial_n":14,"min":73,"max":182,"target":"present","response":"absent","rt":169.5,"correct":false,"confidence":-1},{"trial_n":15,"min":65,"max":190,"target":"present","response":"present","rt":487.59999996424,"correct":true,"confidence":-1},{"trial_n":16,"min":65,"max":190,"target":"present","response":"present","rt":391.70000004768,"correct":true,"confidence":-1},{"trial_n":17,"min":73,"max":182,"target":"present","response":"present","rt":438.30000001192,"correct":true,"confidence":-1},{"trial_n":18,"min":73,"max":182,"target":"absent","response":"absent","rt":308.39999997616,"correct":true,"confidence":-1},{"trial_n":19,"min":81,"max":174,"target":"present","response":"present","rt":688,"correct":true,"confidence":-1},{"trial_n":20,"min":81,"max":174,"target":"present","response":"present","rt":464.19999998808,"correct":true,"confidence":-1},{"trial_n":21,"min":85,"max":170,"target":"present","response":"absent","rt":1092.2999999523,"correct":false,"confidence":3},{"trial_n":22,"min":81,"max":174,"target":"present","response":"present","rt":618.40000003576,"correct":true,"confidence":3},{"trial_n":23,"min":81,"max":174,"target":"present","response":"present","rt":696.39999997616,"correct":true,"confidence":1},{"trial_n":24,"min":85,"max":170,"target":"absent","response":"present","rt":768.5,"correct":false,"confidence":3},{"trial_n":25,"min":81,"max":174,"target":"present","response":"present","rt":589.40000003576,"correct":true,"confidence":3},{"trial_n":26,"min":81,"max":174,"target":"present","response":"present","rt":648.30000001192,"correct":true,"confidence":3},{"trial_n":27,"min":85,"max":170,"target":"absent","response":"absent","rt":514.19999998808,"correct":true,"confidence":3},{"trial_n":28,"min":85,"max":170,"target":"absent","response":"absent","rt":437.29999995232,"correct":true,"confidence":3},{"trial_n":29,"min":89,"max":166,"target":"present","response":"absent","rt":604.19999998808,"correct":false,"confidence":3},{"trial_n":30,"min":85,"max":170,"target":"absent","response":"absent","rt":330.69999998808,"correct":true,"confidence":3},{"trial_n":31,"min":85,"max":170,"target":"present","response":"absent","rt":924.5,"correct":false,"confidence":3},{"trial_n":32,"min":83,"max":172,"target":"present","response":"present","rt":604.89999997616,"correct":true,"confidence":3},{"trial_n":33,"min":83,"max":172,"target":"absent","response":"absent","rt":537.80000001192,"correct":true,"confidence":3},{"trial_n":34,"min":85,"max":170,"target":"absent","response":"absent","rt":343.90000003576,"correct":true,"confidence":3},{"trial_n":35,"min":85,"max":170,"target":"absent","response":"absent","rt":86.5,"correct":true,"confidence":3},{"trial_n":36,"min":87,"max":168,"target":"absent","response":"absent","rt":323.19999998808,"correct":true,"confidence":3},{"trial_n":37,"min":87,"max":168,"target":"present","response":"present","rt":660.5,"correct":true,"confidence":1},{"trial_n":38,"min":89,"max":166,"target":"present","response":"absent","rt":2170.9000000358,"correct":false,"confidence":3},{"trial_n":39,"min":87,"max":168,"target":"absent","response":"absent","rt":487.30000001192,"correct":true,"confidence":3},{"trial_n":40,"min":87,"max":168,"target":"absent","response":"present","rt":552.89999997616,"correct":false,"confidence":3},{"trial_n":41,"min":86,"max":169,"target":"present","response":"present","rt":505.30000001192,"correct":true,"confidence":3},{"trial_n":42,"min":86,"max":169,"target":"absent","response":"absent","rt":399.5,"correct":true,"confidence":3},{"trial_n":43,"min":87,"max":168,"target":"absent","response":"absent","rt":281.90000003576,"correct":true,"confidence":3},{"trial_n":44,"min":87,"max":168,"target":"present","response":"present","rt":367.30000001192,"correct":true,"confidence":3},{"trial_n":45,"min":88,"max":167,"target":"absent","response":"present","rt":323.89999997616,"correct":false,"confidence":3},{"trial_n":46,"min":87,"max":168,"target":"absent","response":"absent","rt":446.90000003576,"correct":true,"confidence":3},{"trial_n":47,"min":87,"max":168,"target":"present","response":"absent","rt":338.19999998808,"correct":false,"confidence":3},{"trial_n":48,"min":86,"max":169,"target":"absent","response":"absent","rt":348.80000001192,"correct":true,"confidence":3},{"trial_n":49,"min":86,"max":169,"target":"absent","response":"present","rt":90.899999976158,"correct":false,"confidence":3},{"trial_n":50,"min":85,"max":170,"target":"absent","response":"absent","rt":269.69999998808,"correct":true,"confidence":3},{"trial_n":51,"min":85,"max":170,"target":"absent","response":"present","rt":80.800000011921,"correct":false,"confidence":3},{"trial_n":52,"min":84,"max":171,"target":"absent","response":"absent","rt":283.39999997616,"correct":true,"confidence":3},{"trial_n":53,"min":84,"max":171,"target":"absent","response":"present","rt":7.3999999761581,"correct":false,"confidence":1},{"trial_n":54,"min":83,"max":172,"target":"present","response":"present","rt":958.39999997616,"correct":true,"confidence":3},{"trial_n":55,"min":83,"max":172,"target":"absent","response":"absent","rt":287.10000002384,"correct":true,"confidence":3},{"trial_n":56,"min":84,"max":171,"target":"present","response":"absent","rt":2991.1999999881,"correct":false,"confidence":3},{"trial_n":57,"min":83,"max":172,"target":"absent","response":"absent","rt":361.30000001192,"correct":true,"confidence":3},{"trial_n":58,"min":83,"max":172,"target":"present","response":"present","rt":208.80000001192,"correct":true,"confidence":3},{"trial_n":59,"min":84,"max":171,"target":"absent","response":"present","rt":284.89999997616,"correct":false,"confidence":3},{"trial_n":60,"min":83,"max":172,"target":"present","response":"absent","rt":132.39999997616,"correct":false,"confidence":3},{"trial_n":61,"min":82,"max":173,"target":"present","response":"present","rt":577.09999996424,"correct":true,"confidence":3},{"trial_n":62,"min":82,"max":173,"target":"absent","response":"absent","rt":531.80000001192,"correct":true,"confidence":3},{"trial_n":63,"min":83,"max":172,"target":"present","response":"present","rt":189.29999995232,"correct":true,"confidence":3},{"trial_n":64,"min":83,"max":172,"target":"present","response":"present","rt":293.70000004768,"correct":true,"confidence":3},{"trial_n":65,"min":84,"max":171,"target":"absent","response":"absent","rt":373.89999997616,"correct":true,"confidence":3},{"trial_n":66,"min":84,"max":171,"target":"present","response":"present","rt":229.60000002384,"correct":true,"confidence":3},{"trial_n":67,"min":85,"max":170,"target":"present","response":"absent","rt":277.5,"correct":false,"confidence":3},{"trial_n":68,"min":84,"max":171,"target":"absent","response":"present","rt":260.5,"correct":false,"confidence":3},{"trial_n":69,"min":83,"max":172,"target":"present","response":"present","rt":565.5,"correct":true,"confidence":3},{"trial_n":70,"min":83,"max":172,"target":"absent","response":"present","rt":349.70000004768,"correct":false,"confidence":1},{"trial_n":71,"min":41,"max":214,"target":"present","response":"present","rt":1881.6000000238,"correct":true,"confidence":-1},{"trial_n":72,"min":41,"max":214,"target":"present","response":"absent","rt":1740.8999999762,"correct":false,"confidence":-1},{"trial_n":73,"min":25,"max":230,"target":"absent","response":"absent","rt":464.90000003576,"correct":true,"confidence":-1},{"trial_n":74,"min":25,"max":230,"target":"absent","response":"absent","rt":346.40000003576,"correct":true,"confidence":-1},{"trial_n":75,"min":41,"max":214,"target":"present","response":"present","rt":143.10000002384,"correct":true,"confidence":-1},{"trial_n":76,"min":41,"max":214,"target":"absent","response":"absent","rt":373.09999996424,"correct":true,"confidence":-1},{"trial_n":77,"min":57,"max":198,"target":"absent","response":"absent","rt":289,"correct":true,"confidence":-1},{"trial_n":78,"min":57,"max":198,"target":"absent","response":"present","rt":309.19999998808,"correct":false,"confidence":-1},{"trial_n":79,"min":41,"max":214,"target":"present","response":"present","rt":387.5,"correct":true,"confidence":-1},{"trial_n":80,"min":41,"max":214,"target":"present","response":"present","rt":418.70000004768,"correct":true,"confidence":-1},{"trial_n":81,"min":49,"max":206,"target":"present","response":"present","rt":485.80000001192,"correct":true,"confidence":-1},{"trial_n":82,"min":49,"max":206,"target":"present","response":"absent","rt":437.39999997616,"correct":false,"confidence":-1},{"trial_n":83,"min":41,"max":214,"target":"absent","response":"absent","rt":233.69999998808,"correct":true,"confidence":-1},{"trial_n":84,"min":41,"max":214,"target":"present","response":"present","rt":262.80000001192,"correct":true,"confidence":-1},{"trial_n":85,"min":49,"max":206,"target":"present","response":"present","rt":255.10000002384,"correct":true,"confidence":-1},{"trial_n":86,"min":49,"max":206,"target":"absent","response":"absent","rt":346.30000001192,"correct":true,"confidence":-1},{"trial_n":87,"min":57,"max":198,"target":"absent","response":"absent","rt":227.19999998808,"correct":true,"confidence":-1},{"trial_n":88,"min":57,"max":198,"target":"absent","response":"present","rt":252.40000003576,"correct":false,"confidence":-1},{"trial_n":89,"min":49,"max":206,"target":"present","response":"present","rt":420.90000003576,"correct":true,"confidence":-1},{"trial_n":90,"min":49,"max":206,"target":"present","response":"present","rt":368.40000003576,"correct":true,"confidence":-1},{"trial_n":91,"min":53,"max":202,"target":"present","response":"present","rt":318,"correct":true,"confidence":3},{"trial_n":92,"min":53,"max":202,"target":"absent","response":"absent","rt":915.90000003576,"correct":true,"confidence":3},{"trial_n":93,"min":57,"max":198,"target":"absent","response":"absent","rt":580.5,"correct":true,"confidence":4},{"trial_n":94,"min":57,"max":198,"target":"absent","response":"absent","rt":483.89999997616,"correct":true,"confidence":4},{"trial_n":95,"min":61,"max":194,"target":"present","response":"present","rt":226.80000001192,"correct":true,"confidence":4},{"trial_n":96,"min":61,"max":194,"target":"present","response":"present","rt":481.09999996424,"correct":true,"confidence":4},{"trial_n":97,"min":65,"max":190,"target":"absent","response":"absent","rt":661.10000002384,"correct":true,"confidence":3},{"trial_n":98,"min":65,"max":190,"target":"present","response":"present","rt":282.70000004768,"correct":true,"confidence":3},{"trial_n":99,"min":69,"max":186,"target":"absent","response":"absent","rt":1043.8999999762,"correct":true,"confidence":4},{"trial_n":100,"min":69,"max":186,"target":"present","response":"present","rt":166.39999997616,"correct":true,"confidence":3},{"trial_n":101,"min":71,"max":184,"target":"absent","response":"absent","rt":655.69999998808,"correct":true,"confidence":3},{"trial_n":102,"min":71,"max":184,"target":"absent","response":"absent","rt":644.69999998808,"correct":true,"confidence":3},{"trial_n":103,"min":73,"max":182,"target":"absent","response":"absent","rt":673.5,"correct":true,"confidence":3},{"trial_n":104,"min":73,"max":182,"target":"absent","response":"present","rt":1204,"correct":false,"confidence":3},{"trial_n":105,"min":71,"max":184,"target":"absent","response":"absent","rt":559.19999998808,"correct":true,"confidence":3},{"trial_n":106,"min":71,"max":184,"target":"absent","response":"absent","rt":626.59999996424,"correct":true,"confidence":3},{"trial_n":107,"min":73,"max":182,"target":"present","response":"present","rt":338.5,"correct":true,"confidence":4},{"trial_n":108,"min":73,"max":182,"target":"present","response":"present","rt":1073.5,"correct":true,"confidence":4},{"trial_n":109,"min":75,"max":180,"target":"absent","response":"absent","rt":851.79999995232,"correct":true,"confidence":4},{"trial_n":110,"min":75,"max":180,"target":"absent","response":"absent","rt":557.69999998808,"correct":true,"confidence":4},{"trial_n":111,"min":76,"max":179,"target":"present","response":"present","rt":347.80000001192,"correct":true,"confidence":4},{"trial_n":112,"min":76,"max":179,"target":"absent","response":"absent","rt":671.59999996424,"correct":true,"confidence":4},{"trial_n":113,"min":77,"max":178,"target":"present","response":"present","rt":325.30000001192,"correct":true,"confidence":3},{"trial_n":114,"min":77,"max":178,"target":"present","response":"present","rt":247.39999997616,"correct":true,"confidence":3},{"trial_n":115,"min":78,"max":177,"target":"present","response":"absent","rt":831.20000004768,"correct":false,"confidence":3},{"trial_n":116,"min":77,"max":178,"target":"absent","response":"present","rt":1331.8000000119,"correct":false,"confidence":3},{"trial_n":117,"min":76,"max":179,"target":"absent","response":"absent","rt":609.90000003576,"correct":true,"confidence":3},{"trial_n":118,"min":76,"max":179,"target":"present","response":"absent","rt":729.59999996424,"correct":false,"confidence":3},{"trial_n":119,"min":75,"max":180,"target":"present","response":"present","rt":279.29999995232,"correct":true,"confidence":3},{"trial_n":120,"min":75,"max":180,"target":"present","response":"absent","rt":823.19999998808,"correct":false,"confidence":3},{"trial_n":121,"min":74,"max":181,"target":"present","response":"present","rt":258,"correct":true,"confidence":4},{"trial_n":122,"min":74,"max":181,"target":"present","response":"absent","rt":401,"correct":false,"confidence":3},{"trial_n":123,"min":73,"max":182,"target":"absent","response":"absent","rt":957.90000003576,"correct":true,"confidence":3},{"trial_n":124,"min":73,"max":182,"target":"present","response":"present","rt":774.5,"correct":true,"confidence":4},{"trial_n":125,"min":74,"max":181,"target":"absent","response":"present","rt":596.5,"correct":false,"confidence":3},{"trial_n":126,"min":73,"max":182,"target":"present","response":"present","rt":1051.0999999642,"correct":true,"confidence":3},{"trial_n":127,"min":73,"max":182,"target":"absent","response":"absent","rt":589.5,"correct":true,"confidence":3},{"trial_n":128,"min":74,"max":181,"target":"present","response":"present","rt":553.60000002384,"correct":true,"confidence":3},{"trial_n":129,"min":74,"max":181,"target":"present","response":"present","rt":8584.7999999523,"correct":true,"confidence":3},{"trial_n":130,"min":75,"max":180,"target":"absent","response":"absent","rt":440.40000003576,"correct":true,"confidence":3},{"trial_n":131,"min":75,"max":180,"target":"present","response":"present","rt":206.19999998808,"correct":true,"confidence":3},{"trial_n":132,"min":76,"max":179,"target":"present","response":"present","rt":330.19999998808,"correct":true,"confidence":3},{"trial_n":133,"min":76,"max":179,"target":"absent","response":"absent","rt":872.90000003576,"correct":true,"confidence":3},{"trial_n":134,"min":77,"max":178,"target":"present","response":"present","rt":278.39999997616,"correct":true,"confidence":3},{"trial_n":135,"min":77,"max":178,"target":"absent","response":"absent","rt":389.19999998808,"correct":true,"confidence":3},{"trial_n":136,"min":78,"max":177,"target":"absent","response":"present","rt":659.19999998808,"correct":false,"confidence":2},{"trial_n":137,"min":77,"max":178,"target":"absent","response":"absent","rt":640.40000003576,"correct":true,"confidence":4},{"trial_n":138,"min":77,"max":178,"target":"present","response":"present","rt":334.30000001192,"correct":true,"confidence":3},{"trial_n":139,"min":78,"max":177,"target":"present","response":"present","rt":791.90000003576,"correct":true,"confidence":3},{"trial_n":140,"min":78,"max":177,"target":"absent","response":"absent","rt":1672.5,"correct":true,"confidence":4}]