[{"trial_n":1,"span":8,"encoder":"28199630","distractor":"28199620","target":"present","response":"present","rt":"4081.4000000358","correct":true,"confidence":-1},{"trial_n":2,"span":8,"encoder":"05142255","distractor":"04142255","target":"present","response":"present","rt":"1656.8999999762","correct":true,"confidence":-1},{"trial_n":3,"span":10,"encoder":"6355764599","distractor":"6355764559","target":"absent","response":"absent","rt":"2143","correct":true,"confidence":-1},{"trial_n":4,"span":10,"encoder":"0029934798","distractor":"0029934793","target":"absent","response":"present","rt":"2043.3000000119","correct":false,"confidence":-1},{"trial_n":5,"span":8,"encoder":"65489390","distractor":"65429390","target":"present","response":"present","rt":"1523","correct":true,"confidence":-1},{"trial_n":6,"span":8,"encoder":"81260607","distractor":"81560607","target":"present","response":"present","rt":"1152.3999999762","correct":true,"confidence":-1},{"trial_n":7,"span":10,"encoder":"9866822991","distractor":"9865822991","target":"absent","response":"present","rt":"1683.6000000238","correct":false,"confidence":-1},{"trial_n":8,"span":8,"encoder":"25387587","distractor":"25387087","target":"absent","response":"present","rt":"1440.9000000358","correct":false,"confidence":-1},{"trial_n":9,"span":6,"encoder":"348390","distractor":"340390","target":"absent","response":"absent","rt":"2628.5999999642","correct":true,"confidence":-1},{"trial_n":10,"span":6,"encoder":"187843","distractor":"187883","target":"present","response":"present","rt":"1212.1000000238","correct":true,"confidence":-1},{"trial_n":11,"span":8,"encoder":"20249145","distractor":"20299145","target":"absent","response":"absent","rt":"2428","correct":true,"confidence":-1},{"trial_n":12,"span":8,"encoder":"05110232","distractor":"05117232","target":"absent","response":"absent","rt":"1617.1000000238","correct":true,"confidence":-1},{"trial_n":13,"span":9,"encoder":"158904938","distractor":"158904538","target":"present","response":"present","rt":"3183","correct":true,"confidence":-1},{"trial_n":14,"span":9,"encoder":"981914986","distractor":"981904986","target":"present","response":"present","rt":"3338.3000000119","correct":true,"confidence":-1},{"trial_n":15,"span":10,"encoder":"0963613741","distractor":"0963613746","target":"absent","response":"absent","rt":"1073","correct":true,"confidence":-1},{"trial_n":16,"span":10,"encoder":"0052028025","distractor":"0052098025","target":"present","response":"present","rt":"973.89999997616","correct":true,"confidence":-1},{"trial_n":17,"span":11,"encoder":"20704974906","distractor":"20404974906","target":"present","response":"present","rt":"10212.099999964","correct":true,"confidence":-1},{"trial_n":18,"span":11,"encoder":"64351286571","distractor":"64351286971","target":"present","response":"absent","rt":"865.60000002384","correct":false,"confidence":-1},{"trial_n":19,"span":10,"encoder":"1610954052","distractor":"1410954052","target":"absent","response":"absent","rt":"986.5","correct":true,"confidence":-1},{"trial_n":20,"span":10,"encoder":"2565350152","distractor":"1565350152","target":"present","response":"present","rt":"982","correct":true,"confidence":-1},{"trial_n":21,"span":11,"encoder":"04701478554","distractor":"04771478554","target":"absent","response":"absent","rt":"2286.3000000119","correct":true,"confidence":3},{"trial_n":22,"span":11,"encoder":"71017917430","distractor":"71017917438","target":"present","response":"present","rt":"1700.6000000238","correct":true,"confidence":4},{"trial_n":23,"span":12,"encoder":"785778916828","distractor":"785778916888","target":"present","response":"absent","rt":"2303.4000000358","correct":false,"confidence":3},{"trial_n":24,"span":11,"encoder":"31953970449","distractor":"35953970449","target":"absent","response":"absent","rt":"3385.6000000238","correct":true,"confidence":3},{"trial_n":25,"span":11,"encoder":"92459300587","distractor":"92458300587","target":"absent","response":"present","rt":"4324","correct":false,"confidence":3},{"trial_n":26,"span":10,"encoder":"3432073538","distractor":"3432073578","target":"absent","response":"present","rt":"1389","correct":false,"confidence":3},{"trial_n":27,"span":9,"encoder":"195220880","distractor":"195220820","target":"absent","response":"absent","rt":"1991.5","correct":true,"confidence":4},{"trial_n":28,"span":9,"encoder":"235332694","distractor":"235332664","target":"present","response":"absent","rt":"2570.3000000119","correct":false,"confidence":4},{"trial_n":29,"span":8,"encoder":"88990886","distractor":"88990885","target":"present","response":"present","rt":"2546.6999999881","correct":true,"confidence":3},{"trial_n":30,"span":8,"encoder":"99826451","distractor":"69826451","target":"present","response":"present","rt":"3091.2999999523","correct":true,"confidence":3},{"trial_n":31,"span":9,"encoder":"021375205","distractor":"021315205","target":"absent","response":"present","rt":"1316.5","correct":false,"confidence":4},{"trial_n":32,"span":8,"encoder":"08008729","distractor":"08008749","target":"absent","response":"absent","rt":"1836.9000000358","correct":true,"confidence":3},{"trial_n":33,"span":8,"encoder":"56618722","distractor":"56618022","target":"absent","response":"present","rt":"3708.3000000119","correct":false,"confidence":4},{"trial_n":34,"span":7,"encoder":"8830081","distractor":"6830081","target":"absent","response":"absent","rt":"2717.1999999881","correct":true,"confidence":3},{"trial_n":35,"span":7,"encoder":"4007889","distractor":"4037889","target":"present","response":"present","rt":"1535.3999999762","correct":true,"confidence":3},{"trial_n":36,"span":8,"encoder":"74386940","distractor":"74886940","target":"present","response":"absent","rt":"2132.9000000358","correct":false,"confidence":3},{"trial_n":37,"span":7,"encoder":"0418670","distractor":"0418677","target":"present","response":"present","rt":"2041","correct":true,"confidence":3},{"trial_n":38,"span":7,"encoder":"7541087","distractor":"7541787","target":"absent","response":"absent","rt":"3295.0999999642","correct":true,"confidence":3},{"trial_n":39,"span":8,"encoder":"23718768","distractor":"23018768","target":"absent","response":"absent","rt":"2406.5","correct":true,"confidence":4},{"trial_n":40,"span":8,"encoder":"26434953","distractor":"26434653","target":"absent","response":"present","rt":"1270.3999999762","correct":false,"confidence":3},{"trial_n":41,"span":7,"encoder":"1859703","distractor":"1852703","target":"present","response":"absent","rt":"1985.6999999881","correct":false,"confidence":4},{"trial_n":42,"span":6,"encoder":"492615","distractor":"592615","target":"present","response":"present","rt":"1422.0999999642","correct":true,"confidence":3},{"trial_n":43,"span":6,"encoder":"962231","distractor":"962131","target":"present","response":"present","rt":"1277.5","correct":true,"confidence":3},{"trial_n":44,"span":7,"encoder":"7574649","distractor":"7274649","target":"absent","response":"absent","rt":"1845.8999999762","correct":true,"confidence":4},{"trial_n":45,"span":7,"encoder":"1698372","distractor":"1658372","target":"absent","response":"absent","rt":"2335.3000000119","correct":true,"confidence":4},{"trial_n":46,"span":8,"encoder":"10107268","distractor":"10167268","target":"absent","response":"present","rt":"2963.1000000238","correct":false,"confidence":4},{"trial_n":47,"span":7,"encoder":"3660672","distractor":"3664672","target":"present","response":"present","rt":"1215.1999999881","correct":true,"confidence":4},{"trial_n":48,"span":7,"encoder":"8740295","distractor":"8744295","target":"absent","response":"absent","rt":"2325.5999999642","correct":true,"confidence":4},{"trial_n":49,"span":8,"encoder":"77414465","distractor":"77411465","target":"present","response":"present","rt":"1618.8999999762","correct":true,"confidence":4},{"trial_n":50,"span":8,"encoder":"39197147","distractor":"30197147","target":"present","response":"absent","rt":"2302.3000000119","correct":false,"confidence":3},{"trial_n":51,"span":7,"encoder":"3966952","distractor":"7966952","target":"absent","response":"present","rt":"15375.600000024","correct":false,"confidence":4},{"trial_n":52,"span":6,"encoder":"695452","distractor":"695482","target":"present","response":"absent","rt":"2045","correct":false,"confidence":3},{"trial_n":53,"span":5,"encoder":"81525","distractor":"81555","target":"present","response":"present","rt":"1194.3000000119","correct":true,"confidence":3},{"trial_n":54,"span":5,"encoder":"78860","distractor":"78864","target":"absent","response":"absent","rt":"5749.6999999881","correct":true,"confidence":3},{"trial_n":55,"span":6,"encoder":"830729","distractor":"430729","target":"present","response":"present","rt":"1229.5","correct":true,"confidence":3},{"trial_n":56,"span":6,"encoder":"726949","distractor":"729949","target":"absent","response":"present","rt":"1137","correct":false,"confidence":3},{"trial_n":57,"span":5,"encoder":"61167","distractor":"51167","target":"present","response":"present","rt":"1709","correct":true,"confidence":3},{"trial_n":58,"span":5,"encoder":"70632","distractor":"70662","target":"absent","response":"present","rt":"1703.8999999762","correct":false,"confidence":3},{"trial_n":59,"span":4,"encoder":"8595","distractor":"8598","target":"present","response":"present","rt":"1348.9000000358","correct":true,"confidence":4},{"trial_n":60,"span":4,"encoder":"0643","distractor":"9643","target":"present","response":"present","rt":"2518.1999999881","correct":true,"confidence":3},{"trial_n":61,"span":5,"encoder":"90775","distractor":"90745","target":"absent","response":"absent","rt":"1572.1999999881","correct":true,"confidence":4},{"trial_n":62,"span":5,"encoder":"32110","distractor":"32112","target":"present","response":"present","rt":"2868.3000000119","correct":true,"confidence":4},{"trial_n":63,"span":6,"encoder":"389091","distractor":"385091","target":"absent","response":"absent","rt":"3119.8000000119","correct":true,"confidence":4},{"trial_n":64,"span":6,"encoder":"839766","distractor":"839726","target":"absent","response":"absent","rt":"4001.5999999642","correct":true,"confidence":4},{"trial_n":65,"span":7,"encoder":"2216350","distractor":"2216150","target":"absent","response":"present","rt":"1698.6999999881","correct":false,"confidence":3},{"trial_n":66,"span":6,"encoder":"222724","distractor":"222124","target":"present","response":"present","rt":"1780.7999999523","correct":true,"confidence":4},{"trial_n":67,"span":6,"encoder":"695578","distractor":"695678","target":"present","response":"present","rt":"1814.1999999881","correct":true,"confidence":3},{"trial_n":68,"span":7,"encoder":"0183297","distractor":"0184297","target":"present","response":"present","rt":"2580.8000000119","correct":true,"confidence":4},{"trial_n":69,"span":7,"encoder":"8397220","distractor":"8397820","target":"absent","response":"absent","rt":"1924","correct":true,"confidence":4},{"trial_n":70,"span":8,"encoder":"37172800","distractor":"37152800","target":"present","response":"absent","rt":"1471.8999999762","correct":false,"confidence":3},{"trial_n":71,"span":8,"encoder":"86976597","distractor":"86476597","target":"present","response":"present","rt":"4574.6000000238","correct":true,"confidence":-1},{"trial_n":72,"span":8,"encoder":"07630029","distractor":"02630029","target":"present","response":"present","rt":"4361.1999999881","correct":true,"confidence":-1},{"trial_n":73,"span":9,"encoder":"910332835","distractor":"910332895","target":"absent","response":"present","rt":"4202.7999999523","correct":false,"confidence":-1},{"trial_n":74,"span":8,"encoder":"49519860","distractor":"49518860","target":"absent","response":"absent","rt":"1701.1999999881","correct":true,"confidence":-1},{"trial_n":75,"span":8,"encoder":"15386729","distractor":"15186729","target":"present","response":"absent","rt":"6320.1999999881","correct":false,"confidence":-1},{"trial_n":76,"span":7,"encoder":"8945085","distractor":"8945385","target":"absent","response":"present","rt":"2068","correct":false,"confidence":-1},{"trial_n":77,"span":6,"encoder":"155290","distractor":"155294","target":"present","response":"absent","rt":"1150.8000000119","correct":false,"confidence":-1},{"trial_n":78,"span":5,"encoder":"95788","distractor":"95728","target":"present","response":"present","rt":"2390.3000000119","correct":true,"confidence":-1},{"trial_n":79,"span":5,"encoder":"31053","distractor":"31253","target":"absent","response":"absent","rt":"1824.6000000238","correct":true,"confidence":-1},{"trial_n":80,"span":6,"encoder":"818771","distractor":"818371","target":"absent","response":"absent","rt":"2096.8000000119","correct":true,"confidence":-1},{"trial_n":81,"span":6,"encoder":"396630","distractor":"316630","target":"present","response":"present","rt":"1709.8999999762","correct":true,"confidence":-1},{"trial_n":82,"span":7,"encoder":"1591050","distractor":"1791050","target":"present","response":"absent","rt":"1674.3000000119","correct":false,"confidence":-1},{"trial_n":83,"span":6,"encoder":"304028","distractor":"404028","target":"absent","response":"absent","rt":"2824.2000000477","correct":true,"confidence":-1},{"trial_n":84,"span":6,"encoder":"538560","distractor":"538569","target":"absent","response":"present","rt":"3559.3000000119","correct":false,"confidence":-1},{"trial_n":85,"span":5,"encoder":"16261","distractor":"16263","target":"present","response":"absent","rt":"952.19999998808","correct":false,"confidence":-1},{"trial_n":86,"span":4,"encoder":"5624","distractor":"5620","target":"present","response":"present","rt":"1094.1000000238","correct":true,"confidence":-1},{"trial_n":87,"span":4,"encoder":"7390","distractor":"7393","target":"absent","response":"absent","rt":"1573.5","correct":true,"confidence":-1},{"trial_n":88,"span":5,"encoder":"17199","distractor":"17699","target":"absent","response":"absent","rt":"2197.0999999642","correct":true,"confidence":-1},{"trial_n":89,"span":5,"encoder":"73232","distractor":"73332","target":"present","response":"absent","rt":"895","correct":false,"confidence":-1},{"trial_n":90,"span":4,"encoder":"8150","distractor":"8154","target":"absent","response":"absent","rt":"1181.6000000238","correct":true,"confidence":-1},{"trial_n":91,"span":4,"encoder":"5820","distractor":"5880","target":"absent","response":"absent","rt":"1767.3999999762","correct":true,"confidence":4},{"trial_n":92,"span":5,"encoder":"07794","distractor":"27794","target":"present","response":"present","rt":"2639.5","correct":true,"confidence":4},{"trial_n":93,"span":5,"encoder":"43188","distractor":"83188","target":"absent","response":"absent","rt":"2774.4000000358","correct":true,"confidence":4},{"trial_n":94,"span":6,"encoder":"503311","distractor":"503310","target":"present","response":"absent","rt":"3498.1999999881","correct":false,"confidence":4},{"trial_n":95,"span":5,"encoder":"76778","distractor":"72778","target":"present","response":"present","rt":"2109","correct":true,"confidence":4},{"trial_n":96,"span":5,"encoder":"60470","distractor":"60670","target":"absent","response":"absent","rt":"2249.5","correct":true,"confidence":3},{"trial_n":97,"span":6,"encoder":"428818","distractor":"428848","target":"present","response":"present","rt":"3174.3000000119","correct":true,"confidence":4},{"trial_n":98,"span":6,"encoder":"740527","distractor":"710527","target":"absent","response":"absent","rt":"1918.8999999762","correct":true,"confidence":4},{"trial_n":99,"span":7,"encoder":"7749966","distractor":"7749976","target":"present","response":"absent","rt":"6343.9000000358","correct":false,"confidence":3},{"trial_n":100,"span":6,"encoder":"836285","distractor":"836205","target":"absent","response":"absent","rt":"1562.5","correct":true,"confidence":4},{"trial_n":101,"span":6,"encoder":"807052","distractor":"887052","target":"absent","response":"absent","rt":"2010.1000000238","correct":true,"confidence":3},{"trial_n":102,"span":7,"encoder":"5555214","distractor":"5555294","target":"absent","response":"present","rt":"2954.8000000119","correct":false,"confidence":3},{"trial_n":103,"span":6,"encoder":"370521","distractor":"370527","target":"absent","response":"absent","rt":"2276.6999999881","correct":true,"confidence":3},{"trial_n":104,"span":6,"encoder":"821910","distractor":"822910","target":"present","response":"present","rt":"2807","correct":true,"confidence":3},{"trial_n":105,"span":7,"encoder":"9684968","distractor":"0684968","target":"present","response":"absent","rt":"1718.6000000238","correct":false,"confidence":3},{"trial_n":106,"span":6,"encoder":"798794","distractor":"798784","target":"absent","response":"absent","rt":"2146.6999999881","correct":true,"confidence":3},{"trial_n":107,"span":6,"encoder":"132276","distractor":"132277","target":"present","response":"present","rt":"6176.4000000358","correct":true,"confidence":3},{"trial_n":108,"span":7,"encoder":"6132680","distractor":"6332680","target":"absent","response":"absent","rt":"3084.4000000358","correct":true,"confidence":4},{"trial_n":109,"span":7,"encoder":"5893384","distractor":"5890384","target":"present","response":"present","rt":"2872","correct":true,"confidence":4},{"trial_n":110,"span":8,"encoder":"00628043","distractor":"01628043","target":"absent","response":"absent","rt":"3864.3000000119","correct":true,"confidence":4},{"trial_n":111,"span":8,"encoder":"29024797","distractor":"69024797","target":"present","response":"present","rt":"2019.4000000358","correct":true,"confidence":3},{"trial_n":112,"span":9,"encoder":"821832335","distractor":"821832375","target":"present","response":"present","rt":"5000.8000000119","correct":true,"confidence":3},{"trial_n":113,"span":9,"encoder":"077119614","distractor":"177119614","target":"present","response":"absent","rt":"2000.6000000238","correct":false,"confidence":3},{"trial_n":114,"span":8,"encoder":"84699575","distractor":"82699575","target":"absent","response":"present","rt":"1335.8999999762","correct":false,"confidence":4},{"trial_n":115,"span":7,"encoder":"5385396","distractor":"5385196","target":"present","response":"absent","rt":"2543","correct":false,"confidence":3},{"trial_n":116,"span":6,"encoder":"272215","distractor":"472215","target":"present","response":"present","rt":"2400","correct":true,"confidence":4},{"trial_n":117,"span":6,"encoder":"364228","distractor":"364428","target":"present","response":"present","rt":"3105.3999999762","correct":true,"confidence":3},{"trial_n":118,"span":7,"encoder":"4676778","distractor":"4676978","target":"present","response":"present","rt":"2533.6999999881","correct":true,"confidence":4},{"trial_n":119,"span":7,"encoder":"9714719","distractor":"8714719","target":"present","response":"present","rt":"5119","correct":true,"confidence":3},{"trial_n":120,"span":8,"encoder":"10348068","distractor":"13348068","target":"present","response":"present","rt":"2167.6999999881","correct":true,"confidence":3},{"trial_n":121,"span":8,"encoder":"51847649","distractor":"51847643","target":"present","response":"absent","rt":"2250.4000000358","correct":false,"confidence":3},{"trial_n":122,"span":7,"encoder":"8081496","distractor":"9081496","target":"absent","response":"absent","rt":"2259.6000000238","correct":true,"confidence":3},{"trial_n":123,"span":7,"encoder":"0551734","distractor":"0551738","target":"absent","response":"present","rt":"3692.3000000119","correct":false,"confidence":4},{"trial_n":124,"span":6,"encoder":"876379","distractor":"876376","target":"present","response":"present","rt":"6517.3000000119","correct":true,"confidence":4},{"trial_n":125,"span":6,"encoder":"343233","distractor":"343243","target":"absent","response":"present","rt":"2542.2000000477","correct":false,"confidence":3},{"trial_n":126,"span":5,"encoder":"80108","distractor":"80100","target":"present","response":"present","rt":"5991.1999999881","correct":true,"confidence":4},{"trial_n":127,"span":5,"encoder":"04776","distractor":"04777","target":"present","response":"present","rt":"1755.7000000477","correct":true,"confidence":4},{"trial_n":128,"span":6,"encoder":"036392","distractor":"036992","target":"absent","response":"absent","rt":"1317.1000000238","correct":true,"confidence":3},{"trial_n":129,"span":6,"encoder":"611588","distractor":"615588","target":"absent","response":"present","rt":"1949","correct":false,"confidence":3},{"trial_n":130,"span":5,"encoder":"16144","distractor":"16344","target":"present","response":"present","rt":"2895.6999999881","correct":true,"confidence":3},{"trial_n":131,"span":5,"encoder":"44518","distractor":"44513","target":"absent","response":"absent","rt":"2144.0999999642","correct":true,"confidence":3},{"trial_n":132,"span":6,"encoder":"646237","distractor":"846237","target":"present","response":"present","rt":"3320.4000000358","correct":true,"confidence":4},{"trial_n":133,"span":6,"encoder":"183159","distractor":"483159","target":"present","response":"present","rt":"2566.8999999762","correct":true,"confidence":4},{"trial_n":134,"span":7,"encoder":"2048152","distractor":"2040152","target":"absent","response":"absent","rt":"2762.0999999642","correct":true,"confidence":4},{"trial_n":135,"span":7,"encoder":"4926613","distractor":"4126613","target":"absent","response":"present","rt":"2067","correct":false,"confidence":3},{"trial_n":136,"span":6,"encoder":"619517","distractor":"019517","target":"present","response":"absent","rt":"2538.5","correct":false,"confidence":3},{"trial_n":137,"span":5,"encoder":"04330","distractor":"64330","target":"absent","response":"absent","rt":"4430.1999999881","correct":true,"confidence":4},{"trial_n":138,"span":5,"encoder":"64905","distractor":"61905","target":"absent","response":"absent","rt":"1745.8999999762","correct":true,"confidence":4},{"trial_n":139,"span":6,"encoder":"530068","distractor":"539068","target":"absent","response":"absent","rt":"3752.1999999881","correct":true,"confidence":3},{"trial_n":140,"span":6,"encoder":"890145","distractor":"890745","target":"absent","response":"absent","rt":"4099.5999999642","correct":true,"confidence":4}]