[{"trial_n":1,"n_dots":4.25,"target":"left","response":"left","rt":1990,"correct":true,"confidence":-1},{"trial_n":2,"n_dots":4.25,"target":"right","response":"right","rt":885,"correct":true,"confidence":-1},{"trial_n":3,"n_dots":3.85,"target":"left","response":"right","rt":887,"correct":false,"confidence":-1},{"trial_n":4,"n_dots":4.25,"target":"left","response":"left","rt":826,"correct":true,"confidence":-1},{"trial_n":5,"n_dots":4.25,"target":"left","response":"left","rt":526,"correct":true,"confidence":-1},{"trial_n":6,"n_dots":3.85,"target":"right","response":"right","rt":700,"correct":true,"confidence":-1},{"trial_n":7,"n_dots":3.85,"target":"right","response":"right","rt":561,"correct":true,"confidence":-1},{"trial_n":8,"n_dots":3.65,"target":"left","response":"left","rt":1109,"correct":true,"confidence":-1},{"trial_n":9,"n_dots":3.65,"target":"right","response":"right","rt":431,"correct":true,"confidence":-1},{"trial_n":10,"n_dots":3.45,"target":"right","response":"left","rt":593.00000000001,"correct":false,"confidence":-1},{"trial_n":11,"n_dots":3.65,"target":"left","response":"left","rt":404,"correct":true,"confidence":-1},{"trial_n":12,"n_dots":3.65,"target":"left","response":"left","rt":548,"correct":true,"confidence":-1},{"trial_n":13,"n_dots":3.55,"target":"right","response":"right","rt":446.99999999999,"correct":true,"confidence":-1},{"trial_n":14,"n_dots":3.55,"target":"right","response":"right","rt":784.99999999999,"correct":true,"confidence":-1},{"trial_n":15,"n_dots":3.45,"target":"left","response":"left","rt":275,"correct":true,"confidence":-1},{"trial_n":16,"n_dots":3.45,"target":"right","response":"right","rt":646,"correct":true,"confidence":-1},{"trial_n":17,"n_dots":3.35,"target":"left","response":"right","rt":1494,"correct":false,"confidence":-1},{"trial_n":18,"n_dots":3.45,"target":"right","response":"left","rt":481.00000000001,"correct":false,"confidence":-1},{"trial_n":19,"n_dots":3.55,"target":"right","response":"left","rt":620,"correct":false,"confidence":-1},{"trial_n":20,"n_dots":3.65,"target":"right","response":"left","rt":844,"correct":false,"confidence":-1},{"trial_n":21,"n_dots":3.75,"target":"right","response":"left","rt":318.00000000003,"correct":false,"confidence":4},{"trial_n":22,"n_dots":3.85,"target":"right","response":"left","rt":359,"correct":false,"confidence":4},{"trial_n":23,"n_dots":3.95,"target":"right","response":"left","rt":410,"correct":false,"confidence":4},{"trial_n":24,"n_dots":4.05,"target":"right","response":"right","rt":587,"correct":true,"confidence":4},{"trial_n":25,"n_dots":4.05,"target":"left","response":"left","rt":589,"correct":true,"confidence":4},{"trial_n":26,"n_dots":3.95,"target":"left","response":"left","rt":285.99999999997,"correct":true,"confidence":4},{"trial_n":27,"n_dots":3.95,"target":"right","response":"right","rt":878,"correct":true,"confidence":3},{"trial_n":28,"n_dots":3.85,"target":"right","response":"right","rt":689,"correct":true,"confidence":3},{"trial_n":29,"n_dots":3.85,"target":"right","response":"right","rt":660,"correct":true,"confidence":3},{"trial_n":30,"n_dots":3.75,"target":"left","response":"left","rt":1119,"correct":true,"confidence":4},{"trial_n":31,"n_dots":3.75,"target":"left","response":"left","rt":404,"correct":true,"confidence":4},{"trial_n":32,"n_dots":3.65,"target":"right","response":"right","rt":669.00000000003,"correct":true,"confidence":4},{"trial_n":33,"n_dots":3.65,"target":"left","response":"left","rt":485,"correct":true,"confidence":4},{"trial_n":34,"n_dots":3.55,"target":"right","response":"right","rt":786,"correct":true,"confidence":4},{"trial_n":35,"n_dots":3.55,"target":"left","response":"left","rt":377,"correct":true,"confidence":4},{"trial_n":36,"n_dots":3.45,"target":"left","response":"left","rt":642,"correct":true,"confidence":4},{"trial_n":37,"n_dots":3.45,"target":"right","response":"right","rt":781,"correct":true,"confidence":4},{"trial_n":38,"n_dots":3.35,"target":"right","response":"left","rt":568.99999999997,"correct":false,"confidence":4},{"trial_n":39,"n_dots":3.45,"target":"left","response":"left","rt":520,"correct":true,"confidence":4},{"trial_n":40,"n_dots":3.45,"target":"left","response":"left","rt":302,"correct":true,"confidence":5},{"trial_n":41,"n_dots":3.35,"target":"right","response":"left","rt":435,"correct":false,"confidence":4},{"trial_n":42,"n_dots":3.45,"target":"right","response":"left","rt":303,"correct":false,"confidence":4},{"trial_n":43,"n_dots":3.55,"target":"left","response":"left","rt":1070,"correct":true,"confidence":4},{"trial_n":44,"n_dots":3.55,"target":"left","response":"left","rt":536,"correct":true,"confidence":4},{"trial_n":45,"n_dots":3.45,"target":"left","response":"left","rt":578,"correct":true,"confidence":4},{"trial_n":46,"n_dots":3.45,"target":"left","response":"left","rt":354,"correct":true,"confidence":4},{"trial_n":47,"n_dots":3.35,"target":"right","response":"right","rt":649,"correct":true,"confidence":4},{"trial_n":48,"n_dots":3.35,"target":"left","response":"left","rt":162,"correct":true,"confidence":4},{"trial_n":49,"n_dots":3.25,"target":"left","response":"left","rt":442.99999999994,"correct":true,"confidence":4},{"trial_n":50,"n_dots":3.25,"target":"right","response":"right","rt":418.99999999994,"correct":true,"confidence":4},{"trial_n":51,"n_dots":3.15,"target":"right","response":"left","rt":456,"correct":false,"confidence":4},{"trial_n":52,"n_dots":3.25,"target":"left","response":"left","rt":277,"correct":true,"confidence":4},{"trial_n":53,"n_dots":3.25,"target":"right","response":"left","rt":1026,"correct":false,"confidence":4},{"trial_n":54,"n_dots":3.35,"target":"right","response":"left","rt":554,"correct":false,"confidence":4},{"trial_n":55,"n_dots":3.45,"target":"right","response":"right","rt":387,"correct":true,"confidence":4},{"trial_n":56,"n_dots":3.45,"target":"left","response":"left","rt":279.00000000006,"correct":true,"confidence":4},{"trial_n":57,"n_dots":3.35,"target":"right","response":"left","rt":4064,"correct":false,"confidence":1},{"trial_n":58,"n_dots":3.45,"target":"right","response":"left","rt":459,"correct":false,"confidence":4},{"trial_n":59,"n_dots":3.55,"target":"left","response":"left","rt":495,"correct":true,"confidence":3},{"trial_n":60,"n_dots":3.55,"target":"left","response":"left","rt":192,"correct":true,"confidence":3},{"trial_n":61,"n_dots":3.45,"target":"right","response":"right","rt":577,"correct":true,"confidence":4},{"trial_n":62,"n_dots":3.45,"target":"right","response":"right","rt":482,"correct":true,"confidence":3},{"trial_n":63,"n_dots":3.35,"target":"left","response":"left","rt":70,"correct":true,"confidence":4},{"trial_n":64,"n_dots":3.35,"target":"right","response":"right","rt":799,"correct":true,"confidence":4},{"trial_n":65,"n_dots":3.25,"target":"left","response":"left","rt":404,"correct":true,"confidence":4},{"trial_n":66,"n_dots":3.25,"target":"left","response":"left","rt":315,"correct":true,"confidence":4},{"trial_n":67,"n_dots":3.15,"target":"right","response":"left","rt":435,"correct":false,"confidence":4},{"trial_n":68,"n_dots":3.25,"target":"left","response":"left","rt":325.99999999994,"correct":true,"confidence":4},{"trial_n":69,"n_dots":3.25,"target":"left","response":"left","rt":252,"correct":true,"confidence":4},{"trial_n":70,"n_dots":3.15,"target":"left","response":"left","rt":235.99999999994,"correct":true,"confidence":4},{"trial_n":71,"n_dots":3.15,"target":"right","response":"left","rt":472.00000000006,"correct":false,"confidence":4},{"trial_n":72,"n_dots":3.25,"target":"right","response":"right","rt":337.00000000006,"correct":true,"confidence":4},{"trial_n":73,"n_dots":3.25,"target":"left","response":"left","rt":212,"correct":true,"confidence":4},{"trial_n":74,"n_dots":3.15,"target":"right","response":"left","rt":554,"correct":false,"confidence":4},{"trial_n":75,"n_dots":3.25,"target":"left","response":"left","rt":1563.9999999999,"correct":true,"confidence":4},{"trial_n":76,"n_dots":3.25,"target":"right","response":"left","rt":344,"correct":false,"confidence":4},{"trial_n":77,"n_dots":3.35,"target":"left","response":"left","rt":310.99999999994,"correct":true,"confidence":4},{"trial_n":78,"n_dots":3.35,"target":"left","response":"left","rt":394,"correct":true,"confidence":4},{"trial_n":79,"n_dots":3.25,"target":"left","response":"left","rt":364.00000000006,"correct":true,"confidence":4},{"trial_n":80,"n_dots":3.25,"target":"left","response":"left","rt":369.00000000006,"correct":true,"confidence":4},{"trial_n":81,"n_dots":3.15,"target":"left","response":"left","rt":448.00000000012,"correct":true,"confidence":4},{"trial_n":82,"n_dots":3.15,"target":"right","response":"left","rt":532,"correct":false,"confidence":4},{"trial_n":83,"n_dots":3.25,"target":"left","response":"left","rt":469,"correct":true,"confidence":4},{"trial_n":84,"n_dots":3.25,"target":"left","response":"left","rt":279.99999999994,"correct":true,"confidence":4},{"trial_n":85,"n_dots":3.15,"target":"right","response":"right","rt":278,"correct":true,"confidence":4},{"trial_n":86,"n_dots":3.15,"target":"right","response":"right","rt":530,"correct":true,"confidence":4},{"trial_n":87,"n_dots":3.05,"target":"right","response":"left","rt":368,"correct":false,"confidence":4},{"trial_n":88,"n_dots":3.15,"target":"right","response":"right","rt":695,"correct":true,"confidence":4},{"trial_n":89,"n_dots":3.15,"target":"left","response":"left","rt":89,"correct":true,"confidence":4},{"trial_n":90,"n_dots":3.05,"target":"left","response":"left","rt":381,"correct":true,"confidence":4},{"trial_n":91,"n_dots":3.05,"target":"left","response":"left","rt":362,"correct":true,"confidence":4},{"trial_n":92,"n_dots":2.95,"target":"right","response":"right","rt":146.00000000012,"correct":true,"confidence":4},{"trial_n":93,"n_dots":2.95,"target":"right","response":"left","rt":419,"correct":false,"confidence":4},{"trial_n":94,"n_dots":3.05,"target":"right","response":"right","rt":320,"correct":true,"confidence":4},{"trial_n":95,"n_dots":3.05,"target":"right","response":"right","rt":230,"correct":true,"confidence":4},{"trial_n":96,"n_dots":2.95,"target":"left","response":"left","rt":328,"correct":true,"confidence":4},{"trial_n":97,"n_dots":2.95,"target":"left","response":"left","rt":652,"correct":true,"confidence":4},{"trial_n":98,"n_dots":2.85,"target":"right","response":"left","rt":428,"correct":false,"confidence":4},{"trial_n":99,"n_dots":2.95,"target":"right","response":"right","rt":496,"correct":true,"confidence":4},{"trial_n":100,"n_dots":2.95,"target":"right","response":"right","rt":383,"correct":true,"confidence":4},{"trial_n":101,"n_dots":2.85,"target":"left","response":"left","rt":275,"correct":true,"confidence":4},{"trial_n":102,"n_dots":2.85,"target":"right","response":"left","rt":346,"correct":false,"confidence":4},{"trial_n":103,"n_dots":2.95,"target":"left","response":"right","rt":350,"correct":false,"confidence":4},{"trial_n":104,"n_dots":3.05,"target":"left","response":"left","rt":363,"correct":true,"confidence":4},{"trial_n":105,"n_dots":3.05,"target":"left","response":"left","rt":401.99999999988,"correct":true,"confidence":4},{"trial_n":106,"n_dots":2.95,"target":"right","response":"left","rt":278,"correct":false,"confidence":4},{"trial_n":107,"n_dots":3.05,"target":"left","response":"left","rt":512,"correct":true,"confidence":4},{"trial_n":108,"n_dots":3.05,"target":"right","response":"right","rt":343,"correct":true,"confidence":4},{"trial_n":109,"n_dots":2.95,"target":"left","response":"left","rt":239,"correct":true,"confidence":4},{"trial_n":110,"n_dots":2.95,"target":"right","response":"left","rt":585.00000000012,"correct":false,"confidence":4},{"trial_n":111,"n_dots":3.05,"target":"left","response":"left","rt":470.00000000012,"correct":true,"confidence":4},{"trial_n":112,"n_dots":3.05,"target":"right","response":"right","rt":447,"correct":true,"confidence":4},{"trial_n":113,"n_dots":2.95,"target":"left","response":"left","rt":552,"correct":true,"confidence":4},{"trial_n":114,"n_dots":2.95,"target":"left","response":"left","rt":213,"correct":true,"confidence":4},{"trial_n":115,"n_dots":2.85,"target":"left","response":"left","rt":164,"correct":true,"confidence":4},{"trial_n":116,"n_dots":2.85,"target":"left","response":"left","rt":495,"correct":true,"confidence":4},{"trial_n":117,"n_dots":2.75,"target":"left","response":"left","rt":93,"correct":true,"confidence":4},{"trial_n":118,"n_dots":2.75,"target":"right","response":"left","rt":603,"correct":false,"confidence":4},{"trial_n":119,"n_dots":2.85,"target":"right","response":"right","rt":389.00000000012,"correct":true,"confidence":4},{"trial_n":120,"n_dots":2.85,"target":"right","response":"left","rt":461,"correct":false,"confidence":4}]