[{"trial_n":1,"min":25,"max":230,"target":"present","response":"present","rt":5372,"correct":true,"confidence":-1},{"trial_n":2,"min":25,"max":230,"target":"present","response":"present","rt":732,"correct":true,"confidence":-1},{"trial_n":3,"min":41,"max":214,"target":"absent","response":"present","rt":481,"correct":false,"confidence":-1},{"trial_n":4,"min":25,"max":230,"target":"absent","response":"absent","rt":1009,"correct":true,"confidence":-1},{"trial_n":5,"min":25,"max":230,"target":"present","response":"present","rt":1025,"correct":true,"confidence":-1},{"trial_n":6,"min":41,"max":214,"target":"absent","response":"absent","rt":757,"correct":true,"confidence":-1},{"trial_n":7,"min":41,"max":214,"target":"present","response":"absent","rt":10293,"correct":false,"confidence":-1},{"trial_n":8,"min":25,"max":230,"target":"present","response":"present","rt":2431,"correct":true,"confidence":-1},{"trial_n":9,"min":25,"max":230,"target":"absent","response":"absent","rt":1088,"correct":true,"confidence":-1},{"trial_n":10,"min":41,"max":214,"target":"absent","response":"absent","rt":1233,"correct":true,"confidence":-1},{"trial_n":11,"min":41,"max":214,"target":"present","response":"present","rt":999,"correct":true,"confidence":-1},{"trial_n":12,"min":49,"max":206,"target":"absent","response":"absent","rt":854,"correct":true,"confidence":-1},{"trial_n":13,"min":49,"max":206,"target":"absent","response":"present","rt":902,"correct":false,"confidence":-1},{"trial_n":14,"min":41,"max":214,"target":"present","response":"present","rt":1485,"correct":true,"confidence":-1},{"trial_n":15,"min":41,"max":214,"target":"absent","response":"absent","rt":1266,"correct":true,"confidence":-1},{"trial_n":16,"min":49,"max":206,"target":"absent","response":"absent","rt":2098,"correct":true,"confidence":-1},{"trial_n":17,"min":49,"max":206,"target":"present","response":"present","rt":2494,"correct":true,"confidence":-1},{"trial_n":18,"min":57,"max":198,"target":"absent","response":"absent","rt":1419,"correct":true,"confidence":-1},{"trial_n":19,"min":57,"max":198,"target":"absent","response":"present","rt":5452,"correct":false,"confidence":-1},{"trial_n":20,"min":49,"max":206,"target":"present","response":"present","rt":477.99999999999,"correct":true,"confidence":-1},{"trial_n":21,"min":49,"max":206,"target":"present","response":"present","rt":498.99999999999,"correct":true,"confidence":3},{"trial_n":22,"min":53,"max":202,"target":"present","response":"present","rt":400,"correct":true,"confidence":5},{"trial_n":23,"min":53,"max":202,"target":"absent","response":"absent","rt":547,"correct":true,"confidence":5},{"trial_n":24,"min":57,"max":198,"target":"absent","response":"present","rt":1071,"correct":false,"confidence":5},{"trial_n":25,"min":53,"max":202,"target":"absent","response":"absent","rt":2261,"correct":true,"confidence":5},{"trial_n":26,"min":53,"max":202,"target":"absent","response":"absent","rt":755.00000000001,"correct":true,"confidence":5},{"trial_n":27,"min":57,"max":198,"target":"present","response":"present","rt":747,"correct":true,"confidence":4},{"trial_n":28,"min":57,"max":198,"target":"absent","response":"absent","rt":4397,"correct":true,"confidence":3},{"trial_n":29,"min":61,"max":194,"target":"present","response":"present","rt":1206,"correct":true,"confidence":5},{"trial_n":30,"min":61,"max":194,"target":"present","response":"present","rt":1993,"correct":true,"confidence":5},{"trial_n":31,"min":63,"max":192,"target":"absent","response":"absent","rt":1571,"correct":true,"confidence":3},{"trial_n":32,"min":63,"max":192,"target":"present","response":"present","rt":1670,"correct":true,"confidence":5},{"trial_n":33,"min":65,"max":190,"target":"present","response":"absent","rt":821.00000000001,"correct":false,"confidence":2},{"trial_n":34,"min":63,"max":192,"target":"present","response":"present","rt":1270,"correct":true,"confidence":5},{"trial_n":35,"min":63,"max":192,"target":"present","response":"present","rt":542.00000000001,"correct":true,"confidence":5},{"trial_n":36,"min":65,"max":190,"target":"absent","response":"absent","rt":566,"correct":true,"confidence":3},{"trial_n":37,"min":65,"max":190,"target":"present","response":"present","rt":1132,"correct":true,"confidence":3},{"trial_n":38,"min":67,"max":188,"target":"absent","response":"absent","rt":329,"correct":true,"confidence":2},{"trial_n":39,"min":67,"max":188,"target":"absent","response":"absent","rt":556,"correct":true,"confidence":5},{"trial_n":40,"min":69,"max":186,"target":"present","response":"present","rt":973,"correct":true,"confidence":5},{"trial_n":41,"min":69,"max":186,"target":"absent","response":"absent","rt":1289,"correct":true,"confidence":5},{"trial_n":42,"min":70,"max":185,"target":"absent","response":"absent","rt":759,"correct":true,"confidence":5},{"trial_n":43,"min":70,"max":185,"target":"present","response":"present","rt":1264,"correct":true,"confidence":4},{"trial_n":44,"min":71,"max":184,"target":"present","response":"present","rt":1133,"correct":true,"confidence":5},{"trial_n":45,"min":71,"max":184,"target":"absent","response":"absent","rt":949,"correct":true,"confidence":5},{"trial_n":46,"min":72,"max":183,"target":"absent","response":"absent","rt":428,"correct":true,"confidence":5},{"trial_n":47,"min":72,"max":183,"target":"absent","response":"absent","rt":357,"correct":true,"confidence":3},{"trial_n":48,"min":73,"max":182,"target":"absent","response":"absent","rt":180,"correct":true,"confidence":3},{"trial_n":49,"min":73,"max":182,"target":"absent","response":"absent","rt":471,"correct":true,"confidence":3},{"trial_n":50,"min":74,"max":181,"target":"absent","response":"absent","rt":285,"correct":true,"confidence":3},{"trial_n":51,"min":74,"max":181,"target":"present","response":"absent","rt":411,"correct":false,"confidence":5},{"trial_n":52,"min":73,"max":182,"target":"absent","response":"absent","rt":91.999999999942,"correct":true,"confidence":5},{"trial_n":53,"min":73,"max":182,"target":"absent","response":"absent","rt":166,"correct":true,"confidence":5},{"trial_n":54,"min":74,"max":181,"target":"present","response":"absent","rt":128,"correct":false,"confidence":4},{"trial_n":55,"min":73,"max":182,"target":"present","response":"absent","rt":640,"correct":false,"confidence":4},{"trial_n":56,"min":72,"max":183,"target":"present","response":"present","rt":1038.9999999999,"correct":true,"confidence":2},{"trial_n":57,"min":72,"max":183,"target":"present","response":"present","rt":894,"correct":true,"confidence":5},{"trial_n":58,"min":73,"max":182,"target":"present","response":"present","rt":251,"correct":true,"confidence":5},{"trial_n":59,"min":73,"max":182,"target":"present","response":"present","rt":144,"correct":true,"confidence":5},{"trial_n":60,"min":74,"max":181,"target":"present","response":"present","rt":516,"correct":true,"confidence":5},{"trial_n":61,"min":74,"max":181,"target":"present","response":"present","rt":726,"correct":true,"confidence":4},{"trial_n":62,"min":75,"max":180,"target":"absent","response":"absent","rt":1056,"correct":true,"confidence":3},{"trial_n":63,"min":75,"max":180,"target":"absent","response":"absent","rt":181,"correct":true,"confidence":4},{"trial_n":64,"min":76,"max":179,"target":"present","response":"absent","rt":106,"correct":false,"confidence":2},{"trial_n":65,"min":75,"max":180,"target":"present","response":"absent","rt":75,"correct":false,"confidence":5},{"trial_n":66,"min":74,"max":181,"target":"present","response":"absent","rt":213,"correct":false,"confidence":4},{"trial_n":67,"min":73,"max":182,"target":"present","response":"present","rt":920,"correct":true,"confidence":5},{"trial_n":68,"min":73,"max":182,"target":"absent","response":"present","rt":224,"correct":false,"confidence":1},{"trial_n":69,"min":72,"max":183,"target":"present","response":"present","rt":964,"correct":true,"confidence":5},{"trial_n":70,"min":72,"max":183,"target":"absent","response":"absent","rt":361,"correct":true,"confidence":3},{"trial_n":71,"min":41,"max":214,"target":"present","response":"absent","rt":2865.0000000001,"correct":false,"confidence":-1},{"trial_n":72,"min":41,"max":214,"target":"present","response":"absent","rt":1643,"correct":false,"confidence":-1},{"trial_n":73,"min":25,"max":230,"target":"absent","response":"present","rt":1797,"correct":false,"confidence":-1},{"trial_n":74,"min":9,"max":246,"target":"absent","response":"absent","rt":605.99999999994,"correct":true,"confidence":-1},{"trial_n":75,"min":9,"max":246,"target":"present","response":"present","rt":158,"correct":true,"confidence":-1},{"trial_n":76,"min":25,"max":230,"target":"present","response":"present","rt":94,"correct":true,"confidence":-1},{"trial_n":77,"min":25,"max":230,"target":"absent","response":"absent","rt":188,"correct":true,"confidence":-1},{"trial_n":78,"min":41,"max":214,"target":"absent","response":"absent","rt":440,"correct":true,"confidence":-1},{"trial_n":79,"min":41,"max":214,"target":"absent","response":"absent","rt":306.00000000006,"correct":true,"confidence":-1},{"trial_n":80,"min":57,"max":198,"target":"absent","response":"absent","rt":211,"correct":true,"confidence":-1},{"trial_n":81,"min":57,"max":198,"target":"present","response":"absent","rt":2340.0000000001,"correct":false,"confidence":-1},{"trial_n":82,"min":49,"max":206,"target":"absent","response":"absent","rt":278,"correct":true,"confidence":-1},{"trial_n":83,"min":49,"max":206,"target":"present","response":"present","rt":1093,"correct":true,"confidence":-1},{"trial_n":84,"min":57,"max":198,"target":"present","response":"present","rt":288,"correct":true,"confidence":-1},{"trial_n":85,"min":57,"max":198,"target":"absent","response":"absent","rt":628,"correct":true,"confidence":-1},{"trial_n":86,"min":65,"max":190,"target":"present","response":"present","rt":101,"correct":true,"confidence":-1},{"trial_n":87,"min":65,"max":190,"target":"present","response":"absent","rt":219.00000000006,"correct":false,"confidence":-1},{"trial_n":88,"min":57,"max":198,"target":"present","response":"present","rt":43,"correct":true,"confidence":-1},{"trial_n":89,"min":57,"max":198,"target":"present","response":"absent","rt":1031.0000000001,"correct":false,"confidence":-1},{"trial_n":90,"min":49,"max":206,"target":"absent","response":"present","rt":188.00000000006,"correct":false,"confidence":-1},{"trial_n":91,"min":45,"max":210,"target":"present","response":"present","rt":305,"correct":true,"confidence":4},{"trial_n":92,"min":45,"max":210,"target":"absent","response":"absent","rt":9397,"correct":true,"confidence":1},{"trial_n":93,"min":49,"max":206,"target":"present","response":"present","rt":845,"correct":true,"confidence":4},{"trial_n":94,"min":49,"max":206,"target":"absent","response":"absent","rt":386,"correct":true,"confidence":3},{"trial_n":95,"min":53,"max":202,"target":"present","response":"present","rt":284,"correct":true,"confidence":5},{"trial_n":96,"min":53,"max":202,"target":"present","response":"present","rt":1162,"correct":true,"confidence":5},{"trial_n":97,"min":57,"max":198,"target":"absent","response":"absent","rt":2770,"correct":true,"confidence":3},{"trial_n":98,"min":57,"max":198,"target":"present","response":"present","rt":213.00000000006,"correct":true,"confidence":3},{"trial_n":99,"min":61,"max":194,"target":"present","response":"present","rt":-49,"correct":true,"confidence":5},{"trial_n":100,"min":61,"max":194,"target":"absent","response":"present","rt":480,"correct":false,"confidence":1},{"trial_n":101,"min":59,"max":196,"target":"present","response":"present","rt":838,"correct":true,"confidence":3},{"trial_n":102,"min":59,"max":196,"target":"absent","response":"absent","rt":1782,"correct":true,"confidence":1},{"trial_n":103,"min":61,"max":194,"target":"present","response":"present","rt":321,"correct":true,"confidence":3},{"trial_n":104,"min":61,"max":194,"target":"present","response":"absent","rt":64982,"correct":false,"confidence":3},{"trial_n":105,"min":59,"max":196,"target":"absent","response":"absent","rt":377,"correct":true,"confidence":1},{"trial_n":106,"min":59,"max":196,"target":"absent","response":"absent","rt":266,"correct":true,"confidence":4},{"trial_n":107,"min":61,"max":194,"target":"present","response":"present","rt":508,"correct":true,"confidence":4},{"trial_n":108,"min":61,"max":194,"target":"present","response":"present","rt":287,"correct":true,"confidence":4},{"trial_n":109,"min":63,"max":192,"target":"present","response":"present","rt":612,"correct":true,"confidence":4},{"trial_n":110,"min":63,"max":192,"target":"absent","response":"absent","rt":285.99999999988,"correct":true,"confidence":4},{"trial_n":111,"min":64,"max":191,"target":"present","response":"present","rt":399,"correct":true,"confidence":2},{"trial_n":112,"min":64,"max":191,"target":"absent","response":"absent","rt":518.00000000012,"correct":true,"confidence":4},{"trial_n":113,"min":65,"max":190,"target":"present","response":"present","rt":325,"correct":true,"confidence":4},{"trial_n":114,"min":65,"max":190,"target":"present","response":"present","rt":642,"correct":true,"confidence":5},{"trial_n":115,"min":66,"max":189,"target":"present","response":"absent","rt":42036,"correct":false,"confidence":4},{"trial_n":116,"min":65,"max":190,"target":"absent","response":"present","rt":422,"correct":false,"confidence":1},{"trial_n":117,"min":64,"max":191,"target":"present","response":"present","rt":188,"correct":true,"confidence":3},{"trial_n":118,"min":64,"max":191,"target":"present","response":"absent","rt":42952,"correct":false,"confidence":4},{"trial_n":119,"min":63,"max":192,"target":"absent","response":"absent","rt":686,"correct":true,"confidence":5},{"trial_n":120,"min":63,"max":192,"target":"present","response":"present","rt":717,"correct":true,"confidence":1},{"trial_n":121,"min":64,"max":191,"target":"absent","response":"absent","rt":590,"correct":true,"confidence":4},{"trial_n":122,"min":64,"max":191,"target":"present","response":"present","rt":343.99999999988,"correct":true,"confidence":4},{"trial_n":123,"min":65,"max":190,"target":"present","response":"present","rt":284.99999999988,"correct":true,"confidence":2},{"trial_n":124,"min":65,"max":190,"target":"absent","response":"absent","rt":224,"correct":true,"confidence":4},{"trial_n":125,"min":66,"max":189,"target":"absent","response":"absent","rt":513,"correct":true,"confidence":1},{"trial_n":126,"min":66,"max":189,"target":"present","response":"present","rt":127.99999999988,"correct":true,"confidence":1},{"trial_n":127,"min":67,"max":188,"target":"absent","response":"absent","rt":270,"correct":true,"confidence":4},{"trial_n":128,"min":67,"max":188,"target":"absent","response":"present","rt":1811,"correct":false,"confidence":1},{"trial_n":129,"min":66,"max":189,"target":"absent","response":"absent","rt":472.00000000012,"correct":true,"confidence":1},{"trial_n":130,"min":66,"max":189,"target":"absent","response":"absent","rt":1556.0000000001,"correct":true,"confidence":1},{"trial_n":131,"min":67,"max":188,"target":"absent","response":"absent","rt":1334.9999999999,"correct":true,"confidence":4},{"trial_n":132,"min":67,"max":188,"target":"present","response":"present","rt":192.99999999988,"correct":true,"confidence":1},{"trial_n":133,"min":68,"max":187,"target":"absent","response":"absent","rt":546,"correct":true,"confidence":1},{"trial_n":134,"min":68,"max":187,"target":"absent","response":"absent","rt":581,"correct":true,"confidence":4},{"trial_n":135,"min":69,"max":186,"target":"present","response":"present","rt":180,"correct":true,"confidence":1},{"trial_n":136,"min":69,"max":186,"target":"absent","response":"absent","rt":455.00000000012,"correct":true,"confidence":1},{"trial_n":137,"min":70,"max":185,"target":"absent","response":"present","rt":320,"correct":false,"confidence":4},{"trial_n":138,"min":69,"max":186,"target":"absent","response":"absent","rt":401,"correct":true,"confidence":1},{"trial_n":139,"min":69,"max":186,"target":"present","response":"present","rt":368.00000000012,"correct":true,"confidence":4},{"trial_n":140,"min":70,"max":185,"target":"absent","response":"absent","rt":624.00000000012,"correct":true,"confidence":4}]