[{"trial_n":1,"span":8,"encoder":"96691330","distractor":"96691130","target":"present","response":"absent","rt":"5907.299999997","correct":false,"confidence":-1},{"trial_n":2,"span":6,"encoder":"815355","distractor":"815325","target":"present","response":"present","rt":"3358.5","correct":true,"confidence":-1},{"trial_n":3,"span":6,"encoder":"593549","distractor":"093549","target":"absent","response":"absent","rt":"1837.3000000045","correct":true,"confidence":-1},{"trial_n":4,"span":8,"encoder":"30858063","distractor":"80858063","target":"absent","response":"absent","rt":"1960.1000000015","correct":true,"confidence":-1},{"trial_n":5,"span":8,"encoder":"88298413","distractor":"88398413","target":"present","response":"present","rt":"1501.700000003","correct":true,"confidence":-1},{"trial_n":6,"span":10,"encoder":"0406820146","distractor":"0406822146","target":"present","response":"present","rt":"1525.5","correct":true,"confidence":-1},{"trial_n":7,"span":10,"encoder":"1681763094","distractor":"1681763084","target":"present","response":"present","rt":"1198.1000000015","correct":true,"confidence":-1},{"trial_n":8,"span":12,"encoder":"208573658056","distractor":"208573656056","target":"absent","response":"present","rt":"1224.700000003","correct":false,"confidence":-1},{"trial_n":9,"span":10,"encoder":"4987161613","distractor":"4987161603","target":"present","response":"present","rt":"1405.799999997","correct":true,"confidence":-1},{"trial_n":10,"span":10,"encoder":"3223340506","distractor":"3223340106","target":"absent","response":"present","rt":"1254.1999999955","correct":false,"confidence":-1},{"trial_n":11,"span":8,"encoder":"56364337","distractor":"56364537","target":"absent","response":"present","rt":"1364.599999994","correct":false,"confidence":-1},{"trial_n":12,"span":7,"encoder":"1797945","distractor":"1797935","target":"present","response":"present","rt":"1299.5","correct":true,"confidence":-1},{"trial_n":13,"span":7,"encoder":"6066445","distractor":"6063445","target":"absent","response":"absent","rt":"1794.900000006","correct":true,"confidence":-1},{"trial_n":14,"span":8,"encoder":"57972518","distractor":"57976518","target":"absent","response":"present","rt":"1154.6000000015","correct":false,"confidence":-1},{"trial_n":15,"span":7,"encoder":"5003330","distractor":"5003332","target":"absent","response":"present","rt":"1182.6000000015","correct":false,"confidence":-1},{"trial_n":16,"span":6,"encoder":"915127","distractor":"915117","target":"present","response":"absent","rt":"1124.1999999955","correct":false,"confidence":-1},{"trial_n":17,"span":5,"encoder":"46086","distractor":"46286","target":"present","response":"present","rt":"695.89999999851","correct":true,"confidence":-1},{"trial_n":18,"span":5,"encoder":"44166","distractor":"44162","target":"absent","response":"present","rt":"1694.6000000015","correct":false,"confidence":-1},{"trial_n":19,"span":4,"encoder":"2902","distractor":"9902","target":"absent","response":"absent","rt":"1292.900000006","correct":true,"confidence":-1},{"trial_n":20,"span":4,"encoder":"6414","distractor":"2414","target":"absent","response":"present","rt":"858.5","correct":false,"confidence":-1},{"trial_n":21,"span":3,"encoder":"558","distractor":"557","target":"absent","response":"absent","rt":"1074.3999999985","correct":true,"confidence":4},{"trial_n":22,"span":3,"encoder":"249","distractor":"349","target":"present","response":"present","rt":"2080.799999997","correct":true,"confidence":5},{"trial_n":23,"span":4,"encoder":"0692","distractor":"0092","target":"absent","response":"absent","rt":"1541.3999999985","correct":true,"confidence":4},{"trial_n":24,"span":4,"encoder":"4589","distractor":"6589","target":"present","response":"present","rt":"1247","correct":true,"confidence":4},{"trial_n":25,"span":5,"encoder":"79934","distractor":"79994","target":"absent","response":"absent","rt":"1180.1000000015","correct":true,"confidence":4},{"trial_n":26,"span":5,"encoder":"79217","distractor":"19217","target":"present","response":"present","rt":"1411.1999999955","correct":true,"confidence":4},{"trial_n":27,"span":6,"encoder":"680416","distractor":"685416","target":"absent","response":"absent","rt":"3123.3000000045","correct":true,"confidence":2},{"trial_n":28,"span":6,"encoder":"504154","distractor":"502154","target":"present","response":"present","rt":"1714","correct":true,"confidence":3},{"trial_n":29,"span":7,"encoder":"7480514","distractor":"7483514","target":"absent","response":"present","rt":"1083.3000000045","correct":false,"confidence":1},{"trial_n":30,"span":6,"encoder":"643910","distractor":"648910","target":"absent","response":"present","rt":"1277.3999999985","correct":false,"confidence":2},{"trial_n":31,"span":5,"encoder":"98892","distractor":"98292","target":"absent","response":"present","rt":"1118","correct":false,"confidence":3},{"trial_n":32,"span":4,"encoder":"5947","distractor":"5647","target":"present","response":"present","rt":"1050.1999999955","correct":true,"confidence":1},{"trial_n":33,"span":4,"encoder":"0342","distractor":"0742","target":"present","response":"absent","rt":"1894.799999997","correct":false,"confidence":1},{"trial_n":34,"span":3,"encoder":"768","distractor":"778","target":"present","response":"present","rt":"1059.6999999955","correct":true,"confidence":4},{"trial_n":35,"span":3,"encoder":"696","distractor":"396","target":"absent","response":"absent","rt":"1519.6000000015","correct":true,"confidence":3},{"trial_n":36,"span":4,"encoder":"5792","distractor":"5790","target":"present","response":"present","rt":"816.80000000447","correct":true,"confidence":3},{"trial_n":37,"span":4,"encoder":"6321","distractor":"6327","target":"absent","response":"absent","rt":"1812.1000000015","correct":true,"confidence":4},{"trial_n":38,"span":5,"encoder":"35870","distractor":"35860","target":"absent","response":"absent","rt":"2618","correct":true,"confidence":3},{"trial_n":39,"span":5,"encoder":"63075","distractor":"83075","target":"present","response":"present","rt":"1896.700000003","correct":true,"confidence":4},{"trial_n":40,"span":6,"encoder":"177036","distractor":"177046","target":"absent","response":"absent","rt":"1950.599999994","correct":true,"confidence":1},{"trial_n":41,"span":6,"encoder":"343919","distractor":"353919","target":"absent","response":"absent","rt":"1719.6000000015","correct":true,"confidence":3},{"trial_n":42,"span":7,"encoder":"3579317","distractor":"3579817","target":"present","response":"present","rt":"948.89999999851","correct":true,"confidence":3},{"trial_n":43,"span":7,"encoder":"4086109","distractor":"4086100","target":"absent","response":"absent","rt":"880.20000000298","correct":true,"confidence":3},{"trial_n":44,"span":8,"encoder":"30681653","distractor":"30681753","target":"present","response":"present","rt":"951.80000000447","correct":true,"confidence":3},{"trial_n":45,"span":8,"encoder":"88664530","distractor":"98664530","target":"absent","response":"absent","rt":"2200.1000000015","correct":true,"confidence":2},{"trial_n":46,"span":9,"encoder":"172810526","distractor":"172410526","target":"absent","response":"absent","rt":"1804.299999997","correct":true,"confidence":2},{"trial_n":47,"span":9,"encoder":"831858325","distractor":"831858225","target":"present","response":"present","rt":"1455.799999997","correct":true,"confidence":2},{"trial_n":48,"span":10,"encoder":"6657418128","distractor":"6647418128","target":"absent","response":"absent","rt":"1703.3000000045","correct":true,"confidence":3},{"trial_n":49,"span":10,"encoder":"5343535474","distractor":"5343545474","target":"present","response":"present","rt":"1762.8999999985","correct":true,"confidence":4},{"trial_n":50,"span":11,"encoder":"08440961485","distractor":"08470961485","target":"present","response":"present","rt":"1427","correct":true,"confidence":1},{"trial_n":51,"span":11,"encoder":"57559577838","distractor":"57559577818","target":"present","response":"present","rt":"2070.200000003","correct":true,"confidence":2},{"trial_n":52,"span":12,"encoder":"545896693299","distractor":"545896633299","target":"present","response":"present","rt":"2644.700000003","correct":true,"confidence":1},{"trial_n":53,"span":12,"encoder":"090670148651","distractor":"090670948651","target":"present","response":"present","rt":"1155.1000000015","correct":true,"confidence":1},{"trial_n":54,"span":13,"encoder":"8805535196621","distractor":"8805535192621","target":"present","response":"present","rt":"1144.3999999985","correct":true,"confidence":2},{"trial_n":55,"span":13,"encoder":"6225108679279","distractor":"6225108679249","target":"absent","response":"present","rt":"2798.8000000045","correct":false,"confidence":2},{"trial_n":56,"span":12,"encoder":"202435244501","distractor":"202235244501","target":"present","response":"present","rt":"2390.6000000015","correct":true,"confidence":2},{"trial_n":57,"span":12,"encoder":"046867295002","distractor":"046167295002","target":"absent","response":"present","rt":"1643.3999999985","correct":false,"confidence":1},{"trial_n":58,"span":11,"encoder":"03771363443","distractor":"03871363443","target":"absent","response":"present","rt":"1119.6000000015","correct":false,"confidence":2},{"trial_n":59,"span":10,"encoder":"2677434174","distractor":"2671434174","target":"present","response":"present","rt":"1439.6999999955","correct":true,"confidence":2},{"trial_n":60,"span":10,"encoder":"4015095246","distractor":"4515095246","target":"present","response":"absent","rt":"1671.700000003","correct":false,"confidence":1},{"trial_n":61,"span":9,"encoder":"132665443","distractor":"132661443","target":"present","response":"absent","rt":"1882.3999999985","correct":false,"confidence":2},{"trial_n":62,"span":8,"encoder":"58146854","distractor":"58146824","target":"present","response":"present","rt":"1685.400000006","correct":true,"confidence":1},{"trial_n":63,"span":8,"encoder":"81864801","distractor":"81864901","target":"absent","response":"present","rt":"2583.6000000015","correct":false,"confidence":2},{"trial_n":64,"span":7,"encoder":"0020200","distractor":"0022200","target":"present","response":"present","rt":"1379.200000003","correct":true,"confidence":2},{"trial_n":65,"span":7,"encoder":"0879453","distractor":"0879433","target":"absent","response":"absent","rt":"2216.700000003","correct":true,"confidence":3},{"trial_n":66,"span":8,"encoder":"82263711","distractor":"83263711","target":"absent","response":"present","rt":"2895.1999999955","correct":false,"confidence":1},{"trial_n":67,"span":7,"encoder":"8942111","distractor":"8242111","target":"present","response":"present","rt":"1698.8999999985","correct":true,"confidence":1},{"trial_n":68,"span":7,"encoder":"9753395","distractor":"9753396","target":"present","response":"absent","rt":"2319.8999999985","correct":false,"confidence":2},{"trial_n":69,"span":6,"encoder":"655741","distractor":"665741","target":"present","response":"present","rt":"2632.799999997","correct":true,"confidence":2},{"trial_n":70,"span":6,"encoder":"375540","distractor":"375340","target":"absent","response":"absent","rt":"2379.5","correct":true,"confidence":3},{"trial_n":71,"span":8,"encoder":"81952606","distractor":"81952706","target":"present","response":"present","rt":"6456.6000000015","correct":true,"confidence":-1},{"trial_n":72,"span":8,"encoder":"75554607","distractor":"73554607","target":"present","response":"absent","rt":"1898.099999994","correct":false,"confidence":-1},{"trial_n":73,"span":7,"encoder":"3631118","distractor":"3651118","target":"absent","response":"absent","rt":"1635.3999999985","correct":true,"confidence":-1},{"trial_n":74,"span":7,"encoder":"1372151","distractor":"1272151","target":"absent","response":"present","rt":"3858.6999999955","correct":false,"confidence":-1},{"trial_n":75,"span":6,"encoder":"891622","distractor":"897622","target":"present","response":"absent","rt":"1608.400000006","correct":false,"confidence":-1},{"trial_n":76,"span":5,"encoder":"45993","distractor":"35993","target":"present","response":"present","rt":"2304.799999997","correct":true,"confidence":-1},{"trial_n":77,"span":5,"encoder":"03613","distractor":"03619","target":"absent","response":"present","rt":"1524.200000003","correct":false,"confidence":-1},{"trial_n":78,"span":4,"encoder":"3935","distractor":"3035","target":"present","response":"absent","rt":"4190.8000000045","correct":false,"confidence":-1},{"trial_n":79,"span":3,"encoder":"052","distractor":"952","target":"present","response":"present","rt":"3801.5","correct":true,"confidence":-1},{"trial_n":80,"span":3,"encoder":"953","distractor":"958","target":"present","response":"present","rt":"1765.5","correct":true,"confidence":-1},{"trial_n":81,"span":4,"encoder":"2371","distractor":"7371","target":"present","response":"present","rt":"1982.3000000045","correct":true,"confidence":-1},{"trial_n":82,"span":4,"encoder":"0590","distractor":"7590","target":"present","response":"absent","rt":"2286.5","correct":false,"confidence":-1},{"trial_n":83,"span":3,"encoder":"866","distractor":"869","target":"present","response":"present","rt":"1543.5","correct":true,"confidence":-1},{"trial_n":84,"span":3,"encoder":"508","distractor":"518","target":"absent","response":"absent","rt":"1625.6999999955","correct":true,"confidence":-1},{"trial_n":85,"span":4,"encoder":"9719","distractor":"9019","target":"absent","response":"absent","rt":"2062.6000000015","correct":true,"confidence":-1},{"trial_n":86,"span":4,"encoder":"7980","distractor":"7970","target":"present","response":"present","rt":"2234.5","correct":true,"confidence":-1},{"trial_n":87,"span":5,"encoder":"65946","distractor":"35946","target":"absent","response":"absent","rt":"2372.900000006","correct":true,"confidence":-1},{"trial_n":88,"span":5,"encoder":"16756","distractor":"16706","target":"absent","response":"present","rt":"1523","correct":false,"confidence":-1},{"trial_n":89,"span":4,"encoder":"7553","distractor":"4553","target":"present","response":"absent","rt":"796.10000000149","correct":false,"confidence":-1},{"trial_n":90,"span":3,"encoder":"534","distractor":"536","target":"absent","response":"absent","rt":"1004.5","correct":true,"confidence":-1},{"trial_n":91,"span":3,"encoder":"694","distractor":"693","target":"absent","response":"absent","rt":"1509.8000000045","correct":true,"confidence":4},{"trial_n":92,"span":4,"encoder":"5361","distractor":"5161","target":"absent","response":"absent","rt":"3535.3000000045","correct":true,"confidence":3},{"trial_n":93,"span":4,"encoder":"6483","distractor":"6485","target":"present","response":"present","rt":"1405.200000003","correct":true,"confidence":4},{"trial_n":94,"span":5,"encoder":"79674","distractor":"79694","target":"absent","response":"absent","rt":"1823.200000003","correct":true,"confidence":4},{"trial_n":95,"span":5,"encoder":"76287","distractor":"76288","target":"absent","response":"absent","rt":"1116.900000006","correct":true,"confidence":4},{"trial_n":96,"span":6,"encoder":"130956","distractor":"530956","target":"present","response":"absent","rt":"682.29999999702","correct":false,"confidence":1},{"trial_n":97,"span":5,"encoder":"00558","distractor":"04558","target":"present","response":"absent","rt":"2470.6999999955","correct":false,"confidence":1},{"trial_n":98,"span":4,"encoder":"9689","distractor":"1689","target":"present","response":"present","rt":"1905.6000000015","correct":true,"confidence":2},{"trial_n":99,"span":4,"encoder":"4641","distractor":"4651","target":"present","response":"present","rt":"2096.599999994","correct":true,"confidence":3},{"trial_n":100,"span":5,"encoder":"68007","distractor":"18007","target":"present","response":"present","rt":"2962.299999997","correct":true,"confidence":3},{"trial_n":101,"span":5,"encoder":"53746","distractor":"53646","target":"present","response":"present","rt":"1260.299999997","correct":true,"confidence":3},{"trial_n":102,"span":6,"encoder":"249593","distractor":"249597","target":"absent","response":"absent","rt":"1294.400000006","correct":true,"confidence":2},{"trial_n":103,"span":6,"encoder":"739191","distractor":"739111","target":"absent","response":"present","rt":"771.89999999851","correct":false,"confidence":1},{"trial_n":104,"span":5,"encoder":"59636","distractor":"59616","target":"present","response":"present","rt":"1756.1999999955","correct":true,"confidence":2},{"trial_n":105,"span":5,"encoder":"97046","distractor":"37046","target":"absent","response":"absent","rt":"1156.1999999955","correct":true,"confidence":2},{"trial_n":106,"span":6,"encoder":"559259","distractor":"589259","target":"absent","response":"present","rt":"668.5","correct":false,"confidence":2},{"trial_n":107,"span":5,"encoder":"55661","distractor":"45661","target":"absent","response":"present","rt":"1110.6000000015","correct":false,"confidence":2},{"trial_n":108,"span":4,"encoder":"4305","distractor":"4315","target":"present","response":"present","rt":"1574.5","correct":true,"confidence":3},{"trial_n":109,"span":4,"encoder":"5696","distractor":"5796","target":"absent","response":"present","rt":"2806.599999994","correct":false,"confidence":2},{"trial_n":110,"span":3,"encoder":"416","distractor":"410","target":"absent","response":"absent","rt":"5883.1000000015","correct":true,"confidence":3},{"trial_n":111,"span":3,"encoder":"869","distractor":"867","target":"absent","response":"absent","rt":"1161.6000000015","correct":true,"confidence":2},{"trial_n":112,"span":4,"encoder":"2309","distractor":"2609","target":"present","response":"present","rt":"614.20000000298","correct":true,"confidence":2},{"trial_n":113,"span":4,"encoder":"7519","distractor":"7219","target":"absent","response":"absent","rt":"1906.5","correct":true,"confidence":4},{"trial_n":114,"span":5,"encoder":"02504","distractor":"82504","target":"absent","response":"present","rt":"4871","correct":false,"confidence":1},{"trial_n":115,"span":4,"encoder":"6920","distractor":"9920","target":"present","response":"absent","rt":"1563.900000006","correct":false,"confidence":2},{"trial_n":116,"span":3,"encoder":"003","distractor":"033","target":"absent","response":"absent","rt":"1303.400000006","correct":true,"confidence":1},{"trial_n":117,"span":3,"encoder":"732","distractor":"932","target":"present","response":"present","rt":"1246.700000003","correct":true,"confidence":3},{"trial_n":118,"span":4,"encoder":"9895","distractor":"9995","target":"present","response":"present","rt":"1368.200000003","correct":true,"confidence":4},{"trial_n":119,"span":4,"encoder":"9219","distractor":"6219","target":"absent","response":"absent","rt":"1517.5","correct":true,"confidence":3},{"trial_n":120,"span":5,"encoder":"44906","distractor":"43906","target":"present","response":"present","rt":"2860.1000000015","correct":true,"confidence":3},{"trial_n":121,"span":5,"encoder":"78802","distractor":"78832","target":"absent","response":"present","rt":"1252.799999997","correct":false,"confidence":3},{"trial_n":122,"span":4,"encoder":"5076","distractor":"5074","target":"absent","response":"absent","rt":"1408.900000006","correct":true,"confidence":1},{"trial_n":123,"span":4,"encoder":"0942","distractor":"0342","target":"present","response":"present","rt":"1064.299999997","correct":true,"confidence":2},{"trial_n":124,"span":5,"encoder":"59329","distractor":"59324","target":"present","response":"absent","rt":"1230.700000003","correct":false,"confidence":3},{"trial_n":125,"span":4,"encoder":"6721","distractor":"1721","target":"absent","response":"present","rt":"871","correct":false,"confidence":2},{"trial_n":126,"span":3,"encoder":"954","distractor":"974","target":"absent","response":"absent","rt":"1392.5","correct":true,"confidence":3},{"trial_n":127,"span":3,"encoder":"916","distractor":"915","target":"present","response":"present","rt":"1157.5","correct":true,"confidence":2},{"trial_n":128,"span":4,"encoder":"3672","distractor":"3622","target":"present","response":"present","rt":"1237.700000003","correct":true,"confidence":3},{"trial_n":129,"span":4,"encoder":"9699","distractor":"7699","target":"absent","response":"present","rt":"1120.1000000015","correct":false,"confidence":2},{"trial_n":130,"span":3,"encoder":"656","distractor":"256","target":"absent","response":"present","rt":"1087.6000000015","correct":false,"confidence":3},{"trial_n":131,"span":2,"encoder":"56","distractor":"26","target":"present","response":"present","rt":"3282.200000003","correct":true,"confidence":1},{"trial_n":132,"span":2,"encoder":"48","distractor":"58","target":"absent","response":"absent","rt":"906.79999999702","correct":true,"confidence":4},{"trial_n":133,"span":3,"encoder":"238","distractor":"838","target":"present","response":"present","rt":"1624","correct":true,"confidence":5},{"trial_n":134,"span":3,"encoder":"367","distractor":"387","target":"present","response":"present","rt":"1193.1000000015","correct":true,"confidence":4},{"trial_n":135,"span":4,"encoder":"7302","distractor":"5302","target":"absent","response":"absent","rt":"1028.1000000015","correct":true,"confidence":3},{"trial_n":136,"span":4,"encoder":"6471","distractor":"6478","target":"present","response":"present","rt":"1187.599999994","correct":true,"confidence":4},{"trial_n":137,"span":5,"encoder":"04505","distractor":"01505","target":"absent","response":"absent","rt":"3496.799999997","correct":true,"confidence":4},{"trial_n":138,"span":5,"encoder":"11446","distractor":"11406","target":"present","response":"present","rt":"5287.6999999955","correct":true,"confidence":3},{"trial_n":139,"span":6,"encoder":"268751","distractor":"268251","target":"absent","response":"absent","rt":"3621.799999997","correct":true,"confidence":3},{"trial_n":140,"span":6,"encoder":"723969","distractor":"823969","target":"present","response":"present","rt":"1479.200000003","correct":true,"confidence":1}]