[{"trial_n":1,"min":25,"max":230,"target":"present","response":"present","rt":8422,"correct":true,"confidence":-1},{"trial_n":2,"min":25,"max":230,"target":"present","response":"present","rt":2546,"correct":true,"confidence":-1},{"trial_n":3,"min":41,"max":214,"target":"absent","response":"absent","rt":1213,"correct":true,"confidence":-1},{"trial_n":4,"min":41,"max":214,"target":"absent","response":"absent","rt":990,"correct":true,"confidence":-1},{"trial_n":5,"min":57,"max":198,"target":"present","response":"present","rt":978,"correct":true,"confidence":-1},{"trial_n":6,"min":57,"max":198,"target":"present","response":"absent","rt":872,"correct":false,"confidence":-1},{"trial_n":7,"min":41,"max":214,"target":"absent","response":"absent","rt":1321,"correct":true,"confidence":-1},{"trial_n":8,"min":41,"max":214,"target":"absent","response":"absent","rt":863,"correct":true,"confidence":-1},{"trial_n":9,"min":57,"max":198,"target":"absent","response":"absent","rt":919,"correct":true,"confidence":-1},{"trial_n":10,"min":57,"max":198,"target":"absent","response":"absent","rt":1089,"correct":true,"confidence":-1},{"trial_n":11,"min":65,"max":190,"target":"absent","response":"absent","rt":923,"correct":true,"confidence":-1},{"trial_n":12,"min":65,"max":190,"target":"absent","response":"absent","rt":831,"correct":true,"confidence":-1},{"trial_n":13,"min":73,"max":182,"target":"present","response":"absent","rt":5907,"correct":false,"confidence":-1},{"trial_n":14,"min":65,"max":190,"target":"present","response":"present","rt":596,"correct":true,"confidence":-1},{"trial_n":15,"min":65,"max":190,"target":"present","response":"present","rt":806,"correct":true,"confidence":-1},{"trial_n":16,"min":73,"max":182,"target":"absent","response":"present","rt":730,"correct":false,"confidence":-1},{"trial_n":17,"min":65,"max":190,"target":"present","response":"present","rt":656,"correct":true,"confidence":-1},{"trial_n":18,"min":65,"max":190,"target":"present","response":"absent","rt":780,"correct":false,"confidence":-1},{"trial_n":19,"min":57,"max":198,"target":"present","response":"present","rt":580,"correct":true,"confidence":-1},{"trial_n":20,"min":57,"max":198,"target":"present","response":"present","rt":932,"correct":true,"confidence":-1},{"trial_n":21,"min":61,"max":194,"target":"present","response":"present","rt":586.99999999999,"correct":true,"confidence":5},{"trial_n":22,"min":61,"max":194,"target":"present","response":"present","rt":654.00000000001,"correct":true,"confidence":5},{"trial_n":23,"min":65,"max":190,"target":"present","response":"present","rt":636.00000000001,"correct":true,"confidence":5},{"trial_n":24,"min":65,"max":190,"target":"present","response":"present","rt":729,"correct":true,"confidence":5},{"trial_n":25,"min":69,"max":186,"target":"absent","response":"absent","rt":723,"correct":true,"confidence":5},{"trial_n":26,"min":69,"max":186,"target":"present","response":"present","rt":622,"correct":true,"confidence":5},{"trial_n":27,"min":73,"max":182,"target":"absent","response":"absent","rt":715,"correct":true,"confidence":4},{"trial_n":28,"min":73,"max":182,"target":"absent","response":"absent","rt":724.99999999999,"correct":true,"confidence":3},{"trial_n":29,"min":77,"max":178,"target":"present","response":"present","rt":545.99999999999,"correct":true,"confidence":5},{"trial_n":30,"min":77,"max":178,"target":"absent","response":"absent","rt":715,"correct":true,"confidence":3},{"trial_n":31,"min":79,"max":176,"target":"absent","response":"present","rt":805,"correct":false,"confidence":3},{"trial_n":32,"min":77,"max":178,"target":"present","response":"present","rt":686,"correct":true,"confidence":4},{"trial_n":33,"min":77,"max":178,"target":"present","response":"absent","rt":1231,"correct":false,"confidence":3},{"trial_n":34,"min":75,"max":180,"target":"absent","response":"absent","rt":788,"correct":true,"confidence":4},{"trial_n":35,"min":75,"max":180,"target":"absent","response":"absent","rt":650,"correct":true,"confidence":4},{"trial_n":36,"min":77,"max":178,"target":"present","response":"present","rt":504.00000000001,"correct":true,"confidence":5},{"trial_n":37,"min":77,"max":178,"target":"absent","response":"absent","rt":698,"correct":true,"confidence":4},{"trial_n":38,"min":79,"max":176,"target":"present","response":"absent","rt":855,"correct":false,"confidence":3},{"trial_n":39,"min":77,"max":178,"target":"absent","response":"absent","rt":657,"correct":true,"confidence":4},{"trial_n":40,"min":77,"max":178,"target":"present","response":"absent","rt":581,"correct":false,"confidence":4},{"trial_n":41,"min":76,"max":179,"target":"present","response":"present","rt":802,"correct":true,"confidence":3},{"trial_n":42,"min":76,"max":179,"target":"absent","response":"absent","rt":1148,"correct":true,"confidence":4},{"trial_n":43,"min":77,"max":178,"target":"absent","response":"absent","rt":616,"correct":true,"confidence":4},{"trial_n":44,"min":77,"max":178,"target":"absent","response":"present","rt":578,"correct":false,"confidence":4},{"trial_n":45,"min":76,"max":179,"target":"absent","response":"absent","rt":622,"correct":true,"confidence":4},{"trial_n":46,"min":76,"max":179,"target":"present","response":"present","rt":1239,"correct":true,"confidence":5},{"trial_n":47,"min":77,"max":178,"target":"present","response":"present","rt":738,"correct":true,"confidence":5},{"trial_n":48,"min":77,"max":178,"target":"absent","response":"absent","rt":798,"correct":true,"confidence":4},{"trial_n":49,"min":78,"max":177,"target":"present","response":"present","rt":597,"correct":true,"confidence":4},{"trial_n":50,"min":78,"max":177,"target":"absent","response":"present","rt":2641,"correct":false,"confidence":3},{"trial_n":51,"min":77,"max":178,"target":"absent","response":"absent","rt":1994,"correct":true,"confidence":4},{"trial_n":52,"min":77,"max":178,"target":"present","response":"present","rt":557,"correct":true,"confidence":5},{"trial_n":53,"min":78,"max":177,"target":"present","response":"absent","rt":587,"correct":false,"confidence":4},{"trial_n":54,"min":77,"max":178,"target":"absent","response":"absent","rt":1290,"correct":true,"confidence":4},{"trial_n":55,"min":77,"max":178,"target":"present","response":"present","rt":538.99999999997,"correct":true,"confidence":5},{"trial_n":56,"min":78,"max":177,"target":"absent","response":"absent","rt":841,"correct":true,"confidence":4},{"trial_n":57,"min":78,"max":177,"target":"present","response":"present","rt":622,"correct":true,"confidence":4},{"trial_n":58,"min":79,"max":176,"target":"present","response":"present","rt":614,"correct":true,"confidence":4},{"trial_n":59,"min":79,"max":176,"target":"absent","response":"absent","rt":664,"correct":true,"confidence":3},{"trial_n":60,"min":80,"max":175,"target":"absent","response":"present","rt":832,"correct":false,"confidence":4},{"trial_n":61,"min":79,"max":176,"target":"present","response":"present","rt":523,"correct":true,"confidence":5},{"trial_n":62,"min":79,"max":176,"target":"absent","response":"present","rt":597,"correct":false,"confidence":5},{"trial_n":63,"min":78,"max":177,"target":"present","response":"present","rt":553,"correct":true,"confidence":5},{"trial_n":64,"min":78,"max":177,"target":"absent","response":"present","rt":557.99999999997,"correct":false,"confidence":5},{"trial_n":65,"min":77,"max":178,"target":"present","response":"present","rt":624.00000000003,"correct":true,"confidence":4},{"trial_n":66,"min":77,"max":178,"target":"present","response":"present","rt":2338,"correct":true,"confidence":4},{"trial_n":67,"min":78,"max":177,"target":"present","response":"present","rt":981.00000000003,"correct":true,"confidence":5},{"trial_n":68,"min":78,"max":177,"target":"absent","response":"absent","rt":681,"correct":true,"confidence":4},{"trial_n":69,"min":79,"max":176,"target":"absent","response":"absent","rt":638.99999999997,"correct":true,"confidence":4},{"trial_n":70,"min":79,"max":176,"target":"absent","response":"present","rt":976,"correct":false,"confidence":3},{"trial_n":71,"min":41,"max":214,"target":"present","response":"present","rt":3184.0000000001,"correct":true,"confidence":-1},{"trial_n":72,"min":41,"max":214,"target":"present","response":"present","rt":901,"correct":true,"confidence":-1},{"trial_n":73,"min":57,"max":198,"target":"absent","response":"absent","rt":731,"correct":true,"confidence":-1},{"trial_n":74,"min":57,"max":198,"target":"absent","response":"absent","rt":753.99999999994,"correct":true,"confidence":-1},{"trial_n":75,"min":73,"max":182,"target":"present","response":"present","rt":516,"correct":true,"confidence":-1},{"trial_n":76,"min":73,"max":182,"target":"present","response":"absent","rt":747.00000000006,"correct":false,"confidence":-1},{"trial_n":77,"min":57,"max":198,"target":"absent","response":"absent","rt":1002,"correct":true,"confidence":-1},{"trial_n":78,"min":57,"max":198,"target":"absent","response":"absent","rt":655,"correct":true,"confidence":-1},{"trial_n":79,"min":73,"max":182,"target":"present","response":"present","rt":611.00000000006,"correct":true,"confidence":-1},{"trial_n":80,"min":73,"max":182,"target":"present","response":"absent","rt":1203,"correct":false,"confidence":-1},{"trial_n":81,"min":65,"max":190,"target":"absent","response":"absent","rt":644,"correct":true,"confidence":-1},{"trial_n":82,"min":65,"max":190,"target":"absent","response":"absent","rt":645.00000000006,"correct":true,"confidence":-1},{"trial_n":83,"min":73,"max":182,"target":"present","response":"present","rt":572,"correct":true,"confidence":-1},{"trial_n":84,"min":73,"max":182,"target":"absent","response":"present","rt":728,"correct":false,"confidence":-1},{"trial_n":85,"min":65,"max":190,"target":"absent","response":"absent","rt":2455.9999999999,"correct":true,"confidence":-1},{"trial_n":86,"min":65,"max":190,"target":"absent","response":"present","rt":712,"correct":false,"confidence":-1},{"trial_n":87,"min":57,"max":198,"target":"present","response":"present","rt":536.99999999994,"correct":true,"confidence":-1},{"trial_n":88,"min":57,"max":198,"target":"absent","response":"absent","rt":1331,"correct":true,"confidence":-1},{"trial_n":89,"min":65,"max":190,"target":"absent","response":"absent","rt":732,"correct":true,"confidence":-1},{"trial_n":90,"min":65,"max":190,"target":"present","response":"absent","rt":2036,"correct":false,"confidence":-1},{"trial_n":91,"min":61,"max":194,"target":"present","response":"present","rt":1746,"correct":true,"confidence":5},{"trial_n":92,"min":61,"max":194,"target":"present","response":"present","rt":1739,"correct":true,"confidence":4},{"trial_n":93,"min":65,"max":190,"target":"absent","response":"absent","rt":1856,"correct":true,"confidence":4},{"trial_n":94,"min":65,"max":190,"target":"present","response":"present","rt":1336,"correct":true,"confidence":5},{"trial_n":95,"min":69,"max":186,"target":"absent","response":"absent","rt":795,"correct":true,"confidence":5},{"trial_n":96,"min":69,"max":186,"target":"absent","response":"absent","rt":960,"correct":true,"confidence":4},{"trial_n":97,"min":73,"max":182,"target":"absent","response":"absent","rt":671,"correct":true,"confidence":4},{"trial_n":98,"min":73,"max":182,"target":"absent","response":"present","rt":847.00000000006,"correct":false,"confidence":4},{"trial_n":99,"min":69,"max":186,"target":"absent","response":"absent","rt":595,"correct":true,"confidence":4},{"trial_n":100,"min":69,"max":186,"target":"present","response":"present","rt":421,"correct":true,"confidence":5},{"trial_n":101,"min":71,"max":184,"target":"present","response":"present","rt":2289,"correct":true,"confidence":5},{"trial_n":102,"min":71,"max":184,"target":"present","response":"present","rt":464,"correct":true,"confidence":5},{"trial_n":103,"min":73,"max":182,"target":"absent","response":"absent","rt":521,"correct":true,"confidence":5},{"trial_n":104,"min":73,"max":182,"target":"present","response":"present","rt":487,"correct":true,"confidence":5},{"trial_n":105,"min":75,"max":180,"target":"present","response":"present","rt":453,"correct":true,"confidence":5},{"trial_n":106,"min":75,"max":180,"target":"absent","response":"absent","rt":869.99999999994,"correct":true,"confidence":5},{"trial_n":107,"min":77,"max":178,"target":"absent","response":"absent","rt":696,"correct":true,"confidence":3},{"trial_n":108,"min":77,"max":178,"target":"present","response":"present","rt":1088,"correct":true,"confidence":3},{"trial_n":109,"min":79,"max":176,"target":"absent","response":"absent","rt":715.00000000006,"correct":true,"confidence":4},{"trial_n":110,"min":79,"max":176,"target":"absent","response":"absent","rt":1063,"correct":true,"confidence":2},{"trial_n":111,"min":80,"max":175,"target":"present","response":"absent","rt":784,"correct":false,"confidence":2},{"trial_n":112,"min":79,"max":176,"target":"absent","response":"absent","rt":944,"correct":true,"confidence":4},{"trial_n":113,"min":79,"max":176,"target":"absent","response":"absent","rt":819,"correct":true,"confidence":3},{"trial_n":114,"min":80,"max":175,"target":"present","response":"present","rt":966,"correct":true,"confidence":4},{"trial_n":115,"min":80,"max":175,"target":"present","response":"present","rt":1442.9999999999,"correct":true,"confidence":4},{"trial_n":116,"min":81,"max":174,"target":"absent","response":"absent","rt":682,"correct":true,"confidence":2},{"trial_n":117,"min":81,"max":174,"target":"present","response":"present","rt":697,"correct":true,"confidence":4},{"trial_n":118,"min":82,"max":173,"target":"present","response":"present","rt":787,"correct":true,"confidence":4},{"trial_n":119,"min":82,"max":173,"target":"present","response":"present","rt":788.00000000006,"correct":true,"confidence":4},{"trial_n":120,"min":83,"max":172,"target":"absent","response":"absent","rt":829,"correct":true,"confidence":2},{"trial_n":121,"min":83,"max":172,"target":"present","response":"present","rt":967,"correct":true,"confidence":4},{"trial_n":122,"min":84,"max":171,"target":"present","response":"present","rt":712.00000000006,"correct":true,"confidence":4},{"trial_n":123,"min":84,"max":171,"target":"present","response":"present","rt":496.99999999994,"correct":true,"confidence":4},{"trial_n":124,"min":85,"max":170,"target":"absent","response":"absent","rt":514,"correct":true,"confidence":2},{"trial_n":125,"min":85,"max":170,"target":"present","response":"present","rt":812.99999999994,"correct":true,"confidence":4},{"trial_n":126,"min":86,"max":169,"target":"absent","response":"absent","rt":623,"correct":true,"confidence":4},{"trial_n":127,"min":86,"max":169,"target":"present","response":"present","rt":456,"correct":true,"confidence":4},{"trial_n":128,"min":87,"max":168,"target":"present","response":"present","rt":539,"correct":true,"confidence":4},{"trial_n":129,"min":87,"max":168,"target":"present","response":"absent","rt":863,"correct":false,"confidence":2},{"trial_n":130,"min":86,"max":169,"target":"absent","response":"absent","rt":1003,"correct":true,"confidence":1},{"trial_n":131,"min":86,"max":169,"target":"present","response":"present","rt":859,"correct":true,"confidence":4},{"trial_n":132,"min":87,"max":168,"target":"present","response":"absent","rt":938,"correct":false,"confidence":2},{"trial_n":133,"min":86,"max":169,"target":"present","response":"present","rt":829,"correct":true,"confidence":2},{"trial_n":134,"min":86,"max":169,"target":"absent","response":"present","rt":633.99999999994,"correct":false,"confidence":2},{"trial_n":135,"min":85,"max":170,"target":"present","response":"present","rt":551.99999999994,"correct":true,"confidence":1},{"trial_n":136,"min":85,"max":170,"target":"absent","response":"absent","rt":821,"correct":true,"confidence":3},{"trial_n":137,"min":86,"max":169,"target":"present","response":"present","rt":589,"correct":true,"confidence":2},{"trial_n":138,"min":86,"max":169,"target":"absent","response":"present","rt":591.00000000006,"correct":false,"confidence":2},{"trial_n":139,"min":85,"max":170,"target":"absent","response":"present","rt":501.99999999994,"correct":false,"confidence":1},{"trial_n":140,"min":84,"max":171,"target":"absent","response":"present","rt":561,"correct":false,"confidence":1}]