[{"trial_n":1,"n_dots":4.25,"target":"left","response":"left","rt":5638.8999999985,"correct":true,"confidence":-1},{"trial_n":2,"n_dots":4.25,"target":"right","response":"right","rt":569.89999999851,"correct":true,"confidence":-1},{"trial_n":3,"n_dots":3.85,"target":"right","response":"left","rt":611.5,"correct":false,"confidence":-1},{"trial_n":4,"n_dots":4.25,"target":"left","response":"left","rt":140.89999999851,"correct":true,"confidence":-1},{"trial_n":5,"n_dots":4.25,"target":"right","response":"right","rt":69.20000000298,"correct":true,"confidence":-1},{"trial_n":6,"n_dots":3.85,"target":"left","response":"left","rt":164,"correct":true,"confidence":-1},{"trial_n":7,"n_dots":3.85,"target":"right","response":"right","rt":605.70000000298,"correct":true,"confidence":-1},{"trial_n":8,"n_dots":3.65,"target":"right","response":"right","rt":3449.6000000015,"correct":true,"confidence":-1},{"trial_n":9,"n_dots":3.65,"target":"left","response":"left","rt":95.39999999851,"correct":true,"confidence":-1},{"trial_n":10,"n_dots":3.45,"target":"right","response":"right","rt":137.89999999851,"correct":true,"confidence":-1},{"trial_n":11,"n_dots":3.45,"target":"right","response":"right","rt":755.20000000298,"correct":true,"confidence":-1},{"trial_n":12,"n_dots":3.25,"target":"right","response":"left","rt":536.80000000447,"correct":false,"confidence":-1},{"trial_n":13,"n_dots":3.35,"target":"right","response":"right","rt":35.29999999702,"correct":true,"confidence":-1},{"trial_n":14,"n_dots":3.35,"target":"right","response":"left","rt":473,"correct":false,"confidence":-1},{"trial_n":15,"n_dots":3.45,"target":"right","response":"left","rt":96.60000000149,"correct":false,"confidence":-1},{"trial_n":16,"n_dots":3.55,"target":"left","response":"left","rt":127.39999999851,"correct":true,"confidence":-1},{"trial_n":17,"n_dots":3.55,"target":"left","response":"right","rt":408.10000000149,"correct":false,"confidence":-1},{"trial_n":18,"n_dots":3.65,"target":"right","response":"right","rt":245.60000000149,"correct":true,"confidence":-1},{"trial_n":19,"n_dots":3.65,"target":"right","response":"left","rt":564.30000000447,"correct":false,"confidence":-1},{"trial_n":20,"n_dots":3.75,"target":"left","response":"right","rt":32.79999999702,"correct":false,"confidence":-1},{"trial_n":21,"n_dots":3.85,"target":"left","response":"left","rt":2246.6000000015,"correct":true,"confidence":1},{"trial_n":22,"n_dots":3.85,"target":"left","response":"left","rt":374.69999999553,"correct":true,"confidence":4},{"trial_n":23,"n_dots":3.75,"target":"left","response":"left","rt":424,"correct":true,"confidence":3},{"trial_n":24,"n_dots":3.75,"target":"right","response":"left","rt":41.10000000149,"correct":false,"confidence":2},{"trial_n":25,"n_dots":3.85,"target":"left","response":"left","rt":44.30000000447,"correct":true,"confidence":3},{"trial_n":26,"n_dots":3.85,"target":"left","response":"right","rt":177.89999999851,"correct":false,"confidence":1},{"trial_n":27,"n_dots":3.95,"target":"right","response":"right","rt":14.89999999851,"correct":true,"confidence":4},{"trial_n":28,"n_dots":3.95,"target":"right","response":"left","rt":36.5,"correct":false,"confidence":2},{"trial_n":29,"n_dots":4.05,"target":"right","response":"right","rt":642.30000000447,"correct":true,"confidence":2},{"trial_n":30,"n_dots":4.05,"target":"right","response":"left","rt":443.39999999851,"correct":false,"confidence":2},{"trial_n":31,"n_dots":4.15,"target":"right","response":"right","rt":118.10000000149,"correct":true,"confidence":2},{"trial_n":32,"n_dots":4.15,"target":"left","response":"left","rt":410.19999999553,"correct":true,"confidence":4},{"trial_n":33,"n_dots":4.05,"target":"right","response":"right","rt":53.79999999702,"correct":true,"confidence":2},{"trial_n":34,"n_dots":4.05,"target":"right","response":"right","rt":66.89999999851,"correct":true,"confidence":2},{"trial_n":35,"n_dots":3.95,"target":"left","response":"left","rt":585.79999999702,"correct":true,"confidence":3},{"trial_n":36,"n_dots":3.95,"target":"right","response":"right","rt":73.60000000149,"correct":true,"confidence":2},{"trial_n":37,"n_dots":3.85,"target":"left","response":"right","rt":1443.3999999985,"correct":false,"confidence":2},{"trial_n":38,"n_dots":3.95,"target":"right","response":"left","rt":2707.5,"correct":false,"confidence":2},{"trial_n":39,"n_dots":4.05,"target":"left","response":"left","rt":19.70000000298,"correct":true,"confidence":2},{"trial_n":40,"n_dots":4.05,"target":"left","response":"left","rt":2471.599999994,"correct":true,"confidence":2},{"trial_n":41,"n_dots":3.95,"target":"right","response":"right","rt":621.19999999553,"correct":true,"confidence":3},{"trial_n":42,"n_dots":3.95,"target":"right","response":"right","rt":1850.900000006,"correct":true,"confidence":2},{"trial_n":43,"n_dots":3.85,"target":"right","response":"right","rt":956.20000000298,"correct":true,"confidence":3},{"trial_n":44,"n_dots":3.85,"target":"left","response":"left","rt":1638.5,"correct":true,"confidence":4},{"trial_n":45,"n_dots":3.75,"target":"right","response":"right","rt":2040.3999999985,"correct":true,"confidence":2},{"trial_n":46,"n_dots":3.75,"target":"left","response":"left","rt":2091.6999999955,"correct":true,"confidence":2},{"trial_n":47,"n_dots":3.65,"target":"left","response":"left","rt":1066.6999999955,"correct":true,"confidence":3},{"trial_n":48,"n_dots":3.65,"target":"right","response":"left","rt":240.89999999851,"correct":false,"confidence":2},{"trial_n":49,"n_dots":3.75,"target":"left","response":"left","rt":31.29999999702,"correct":true,"confidence":3},{"trial_n":50,"n_dots":3.75,"target":"left","response":"left","rt":402.80000000447,"correct":true,"confidence":2},{"trial_n":51,"n_dots":3.65,"target":"right","response":"left","rt":1725.1000000015,"correct":false,"confidence":2},{"trial_n":52,"n_dots":3.75,"target":"right","response":"right","rt":792.39999999851,"correct":true,"confidence":3},{"trial_n":53,"n_dots":3.75,"target":"left","response":"left","rt":292.80000000447,"correct":true,"confidence":3},{"trial_n":54,"n_dots":3.65,"target":"left","response":"left","rt":77.60000000149,"correct":true,"confidence":2},{"trial_n":55,"n_dots":3.65,"target":"right","response":"right","rt":505.39999999851,"correct":true,"confidence":3},{"trial_n":56,"n_dots":3.55,"target":"left","response":"left","rt":425.5,"correct":true,"confidence":2},{"trial_n":57,"n_dots":3.55,"target":"right","response":"right","rt":320.89999999851,"correct":true,"confidence":2},{"trial_n":58,"n_dots":3.45,"target":"right","response":"left","rt":274.70000000298,"correct":false,"confidence":2},{"trial_n":59,"n_dots":3.55,"target":"right","response":"left","rt":96.10000000149,"correct":false,"confidence":2},{"trial_n":60,"n_dots":3.65,"target":"right","response":"right","rt":362.89999999851,"correct":true,"confidence":2},{"trial_n":61,"n_dots":3.65,"target":"right","response":"right","rt":1306.3999999985,"correct":true,"confidence":2},{"trial_n":62,"n_dots":3.55,"target":"right","response":"left","rt":511.70000000298,"correct":false,"confidence":3},{"trial_n":63,"n_dots":3.65,"target":"right","response":"right","rt":57.20000000298,"correct":true,"confidence":3},{"trial_n":64,"n_dots":3.65,"target":"left","response":"left","rt":30.10000000149,"correct":true,"confidence":2},{"trial_n":65,"n_dots":3.55,"target":"left","response":"right","rt":331.80000000447,"correct":false,"confidence":3},{"trial_n":66,"n_dots":3.65,"target":"left","response":"left","rt":143.79999999702,"correct":true,"confidence":2},{"trial_n":67,"n_dots":3.65,"target":"right","response":"right","rt":89.30000000447,"correct":true,"confidence":3},{"trial_n":68,"n_dots":3.55,"target":"left","response":"left","rt":545.89999999851,"correct":true,"confidence":4},{"trial_n":69,"n_dots":3.55,"target":"left","response":"left","rt":308.90000000596,"correct":true,"confidence":2},{"trial_n":70,"n_dots":3.45,"target":"right","response":"right","rt":132.79999999702,"correct":true,"confidence":3},{"trial_n":71,"n_dots":3.45,"target":"left","response":"left","rt":1691.400000006,"correct":true,"confidence":2},{"trial_n":72,"n_dots":3.35,"target":"right","response":"right","rt":68.19999999553,"correct":true,"confidence":3},{"trial_n":73,"n_dots":3.35,"target":"left","response":"left","rt":395.39999999851,"correct":true,"confidence":2},{"trial_n":74,"n_dots":3.25,"target":"left","response":"left","rt":45.10000000149,"correct":true,"confidence":2},{"trial_n":75,"n_dots":3.25,"target":"right","response":"right","rt":70.5,"correct":true,"confidence":2},{"trial_n":76,"n_dots":3.15,"target":"left","response":"right","rt":301.30000000447,"correct":false,"confidence":2},{"trial_n":77,"n_dots":3.25,"target":"left","response":"left","rt":163.5,"correct":true,"confidence":2},{"trial_n":78,"n_dots":3.25,"target":"right","response":"right","rt":488.30000000447,"correct":true,"confidence":2},{"trial_n":79,"n_dots":3.15,"target":"left","response":"left","rt":409.19999999553,"correct":true,"confidence":3},{"trial_n":80,"n_dots":3.15,"target":"left","response":"left","rt":288.90000000596,"correct":true,"confidence":4},{"trial_n":81,"n_dots":3.05,"target":"right","response":"left","rt":241.19999999553,"correct":false,"confidence":2},{"trial_n":82,"n_dots":3.15,"target":"right","response":"right","rt":626.70000000298,"correct":true,"confidence":2},{"trial_n":83,"n_dots":3.15,"target":"left","response":"left","rt":543.60000000149,"correct":true,"confidence":4},{"trial_n":84,"n_dots":3.05,"target":"left","response":"left","rt":33.09999999404,"correct":true,"confidence":2},{"trial_n":85,"n_dots":3.05,"target":"right","response":"right","rt":616.29999999702,"correct":true,"confidence":3},{"trial_n":86,"n_dots":2.95,"target":"left","response":"left","rt":20.40000000596,"correct":true,"confidence":2},{"trial_n":87,"n_dots":2.95,"target":"left","response":"right","rt":220,"correct":false,"confidence":2},{"trial_n":88,"n_dots":3.05,"target":"right","response":"left","rt":264,"correct":false,"confidence":1},{"trial_n":89,"n_dots":3.15,"target":"right","response":"right","rt":122.09999999404,"correct":true,"confidence":1},{"trial_n":90,"n_dots":3.15,"target":"left","response":"left","rt":12.39999999851,"correct":true,"confidence":3},{"trial_n":91,"n_dots":3.05,"target":"left","response":"left","rt":512.90000000596,"correct":true,"confidence":1},{"trial_n":92,"n_dots":3.05,"target":"left","response":"right","rt":424.59999999404,"correct":false,"confidence":1},{"trial_n":93,"n_dots":3.15,"target":"right","response":"right","rt":101.79999999702,"correct":true,"confidence":1},{"trial_n":94,"n_dots":3.15,"target":"right","response":"right","rt":192.60000000149,"correct":true,"confidence":2},{"trial_n":95,"n_dots":3.05,"target":"right","response":"left","rt":44.20000000298,"correct":false,"confidence":2},{"trial_n":96,"n_dots":3.15,"target":"left","response":"right","rt":10.59999999404,"correct":false,"confidence":2},{"trial_n":97,"n_dots":3.25,"target":"right","response":"right","rt":222.60000000149,"correct":true,"confidence":3},{"trial_n":98,"n_dots":3.25,"target":"right","response":"right","rt":678.90000000596,"correct":true,"confidence":1},{"trial_n":99,"n_dots":3.15,"target":"left","response":"right","rt":3633.5,"correct":false,"confidence":2},{"trial_n":100,"n_dots":3.25,"target":"right","response":"left","rt":454.40000000596,"correct":false,"confidence":1},{"trial_n":101,"n_dots":3.35,"target":"right","response":"left","rt":486.5,"correct":false,"confidence":3},{"trial_n":102,"n_dots":3.45,"target":"right","response":"right","rt":168.69999999553,"correct":true,"confidence":3},{"trial_n":103,"n_dots":3.45,"target":"left","response":"right","rt":168.89999999851,"correct":false,"confidence":3},{"trial_n":104,"n_dots":3.55,"target":"left","response":"left","rt":189,"correct":true,"confidence":2},{"trial_n":105,"n_dots":3.55,"target":"left","response":"left","rt":318.39999999851,"correct":true,"confidence":2},{"trial_n":106,"n_dots":3.45,"target":"right","response":"right","rt":251.39999999851,"correct":true,"confidence":3},{"trial_n":107,"n_dots":3.45,"target":"left","response":"left","rt":204.29999999702,"correct":true,"confidence":2},{"trial_n":108,"n_dots":3.35,"target":"left","response":"right","rt":114.10000000149,"correct":false,"confidence":3},{"trial_n":109,"n_dots":3.45,"target":"right","response":"right","rt":5.5,"correct":true,"confidence":3},{"trial_n":110,"n_dots":3.45,"target":"left","response":"left","rt":563.5,"correct":true,"confidence":3},{"trial_n":111,"n_dots":3.35,"target":"left","response":"left","rt":103.20000000298,"correct":true,"confidence":3},{"trial_n":112,"n_dots":3.35,"target":"left","response":"right","rt":42.79999999702,"correct":false,"confidence":1},{"trial_n":113,"n_dots":3.45,"target":"right","response":"right","rt":590,"correct":true,"confidence":3},{"trial_n":114,"n_dots":3.45,"target":"right","response":"right","rt":246.39999999851,"correct":true,"confidence":2},{"trial_n":115,"n_dots":3.35,"target":"left","response":"left","rt":160.40000000596,"correct":true,"confidence":2},{"trial_n":116,"n_dots":3.35,"target":"left","response":"left","rt":706,"correct":true,"confidence":3},{"trial_n":117,"n_dots":3.25,"target":"left","response":"right","rt":665.80000000447,"correct":false,"confidence":3},{"trial_n":118,"n_dots":3.35,"target":"left","response":"left","rt":61.5,"correct":true,"confidence":2},{"trial_n":119,"n_dots":3.35,"target":"left","response":"right","rt":1029.6000000015,"correct":false,"confidence":3},{"trial_n":120,"n_dots":3.45,"target":"left","response":"left","rt":87.60000000149,"correct":true,"confidence":2}]