[{"trial_n":1,"n_dots":4.25,"target":"right","response":"right","rt":6976,"correct":true,"confidence":-1},{"trial_n":2,"n_dots":4.25,"target":"left","response":"left","rt":2228,"correct":true,"confidence":-1},{"trial_n":3,"n_dots":3.85,"target":"right","response":"right","rt":794.99999999999,"correct":true,"confidence":-1},{"trial_n":4,"n_dots":3.85,"target":"left","response":"right","rt":497,"correct":false,"confidence":-1},{"trial_n":5,"n_dots":4.25,"target":"right","response":"left","rt":1571,"correct":false,"confidence":-1},{"trial_n":6,"n_dots":4.65,"target":"right","response":"right","rt":472.99999999999,"correct":true,"confidence":-1},{"trial_n":7,"n_dots":4.65,"target":"right","response":"right","rt":116,"correct":true,"confidence":-1},{"trial_n":8,"n_dots":4.45,"target":"right","response":"right","rt":150,"correct":true,"confidence":-1},{"trial_n":9,"n_dots":4.45,"target":"right","response":"right","rt":657,"correct":true,"confidence":-1},{"trial_n":10,"n_dots":4.25,"target":"right","response":"right","rt":471,"correct":true,"confidence":-1},{"trial_n":11,"n_dots":4.25,"target":"right","response":"right","rt":1086,"correct":true,"confidence":-1},{"trial_n":12,"n_dots":4.05,"target":"right","response":"right","rt":278,"correct":true,"confidence":-1},{"trial_n":13,"n_dots":4.05,"target":"left","response":"right","rt":147.99999999999,"correct":false,"confidence":-1},{"trial_n":14,"n_dots":4.15,"target":"left","response":"left","rt":1093,"correct":true,"confidence":-1},{"trial_n":15,"n_dots":4.15,"target":"left","response":"left","rt":528,"correct":true,"confidence":-1},{"trial_n":16,"n_dots":4.05,"target":"left","response":"left","rt":827,"correct":true,"confidence":-1},{"trial_n":17,"n_dots":4.05,"target":"left","response":"left","rt":344,"correct":true,"confidence":-1},{"trial_n":18,"n_dots":3.95,"target":"left","response":"left","rt":303,"correct":true,"confidence":-1},{"trial_n":19,"n_dots":3.95,"target":"left","response":"left","rt":165,"correct":true,"confidence":-1},{"trial_n":20,"n_dots":3.85,"target":"right","response":"left","rt":569.00000000001,"correct":false,"confidence":-1},{"trial_n":21,"n_dots":3.95,"target":"right","response":"right","rt":678.99999999999,"correct":true,"confidence":4},{"trial_n":22,"n_dots":3.95,"target":"left","response":"left","rt":1334,"correct":true,"confidence":3},{"trial_n":23,"n_dots":3.85,"target":"right","response":"right","rt":702.00000000001,"correct":true,"confidence":3},{"trial_n":24,"n_dots":3.85,"target":"left","response":"left","rt":1237,"correct":true,"confidence":4},{"trial_n":25,"n_dots":3.75,"target":"right","response":"left","rt":1074,"correct":false,"confidence":2},{"trial_n":26,"n_dots":3.85,"target":"right","response":"right","rt":220,"correct":true,"confidence":4},{"trial_n":27,"n_dots":3.85,"target":"left","response":"right","rt":782.00000000001,"correct":false,"confidence":2},{"trial_n":28,"n_dots":3.95,"target":"left","response":"left","rt":937,"correct":true,"confidence":5},{"trial_n":29,"n_dots":3.95,"target":"left","response":"left","rt":759,"correct":true,"confidence":4},{"trial_n":30,"n_dots":3.85,"target":"left","response":"left","rt":1090,"correct":true,"confidence":1},{"trial_n":31,"n_dots":3.85,"target":"left","response":"left","rt":838.99999999997,"correct":true,"confidence":3},{"trial_n":32,"n_dots":3.75,"target":"right","response":"left","rt":798,"correct":false,"confidence":3},{"trial_n":33,"n_dots":3.85,"target":"left","response":"right","rt":840,"correct":false,"confidence":2},{"trial_n":34,"n_dots":3.95,"target":"right","response":"right","rt":56275,"correct":true,"confidence":1},{"trial_n":35,"n_dots":3.95,"target":"right","response":"left","rt":452.99999999997,"correct":false,"confidence":3},{"trial_n":36,"n_dots":4.05,"target":"right","response":"right","rt":816,"correct":true,"confidence":4},{"trial_n":37,"n_dots":4.05,"target":"right","response":"left","rt":1456,"correct":false,"confidence":3},{"trial_n":38,"n_dots":4.15,"target":"right","response":"left","rt":1652,"correct":false,"confidence":3},{"trial_n":39,"n_dots":4.25,"target":"left","response":"right","rt":1250,"correct":false,"confidence":1},{"trial_n":40,"n_dots":4.35,"target":"left","response":"left","rt":447,"correct":true,"confidence":5},{"trial_n":41,"n_dots":4.35,"target":"right","response":"right","rt":637,"correct":true,"confidence":3},{"trial_n":42,"n_dots":4.25,"target":"left","response":"left","rt":787.00000000006,"correct":true,"confidence":2},{"trial_n":43,"n_dots":4.25,"target":"left","response":"left","rt":548,"correct":true,"confidence":4},{"trial_n":44,"n_dots":4.15,"target":"left","response":"left","rt":645,"correct":true,"confidence":3},{"trial_n":45,"n_dots":4.15,"target":"right","response":"right","rt":360,"correct":true,"confidence":3},{"trial_n":46,"n_dots":4.05,"target":"right","response":"left","rt":404,"correct":false,"confidence":1},{"trial_n":47,"n_dots":4.15,"target":"right","response":"right","rt":291,"correct":true,"confidence":2},{"trial_n":48,"n_dots":4.15,"target":"right","response":"right","rt":533,"correct":true,"confidence":5},{"trial_n":49,"n_dots":4.05,"target":"left","response":"left","rt":493,"correct":true,"confidence":5},{"trial_n":50,"n_dots":4.05,"target":"left","response":"left","rt":679,"correct":true,"confidence":4},{"trial_n":51,"n_dots":3.95,"target":"left","response":"left","rt":665,"correct":true,"confidence":4},{"trial_n":52,"n_dots":3.95,"target":"left","response":"right","rt":10466,"correct":false,"confidence":4},{"trial_n":53,"n_dots":4.05,"target":"right","response":"left","rt":576,"correct":false,"confidence":5},{"trial_n":54,"n_dots":4.15,"target":"left","response":"right","rt":6634,"correct":false,"confidence":3},{"trial_n":55,"n_dots":4.25,"target":"left","response":"right","rt":3978.0000000001,"correct":false,"confidence":1},{"trial_n":56,"n_dots":4.35,"target":"left","response":"left","rt":436.00000000006,"correct":true,"confidence":5},{"trial_n":57,"n_dots":4.35,"target":"right","response":"right","rt":1107,"correct":true,"confidence":4},{"trial_n":58,"n_dots":4.25,"target":"right","response":"right","rt":542.99999999994,"correct":true,"confidence":1},{"trial_n":59,"n_dots":4.25,"target":"left","response":"left","rt":316,"correct":true,"confidence":5},{"trial_n":60,"n_dots":4.15,"target":"left","response":"left","rt":486,"correct":true,"confidence":3},{"trial_n":61,"n_dots":4.15,"target":"right","response":"right","rt":340,"correct":true,"confidence":5},{"trial_n":62,"n_dots":4.05,"target":"left","response":"left","rt":1082,"correct":true,"confidence":3},{"trial_n":63,"n_dots":4.05,"target":"right","response":"right","rt":288.00000000006,"correct":true,"confidence":4},{"trial_n":64,"n_dots":3.95,"target":"left","response":"left","rt":912.99999999994,"correct":true,"confidence":5},{"trial_n":65,"n_dots":3.95,"target":"right","response":"right","rt":979,"correct":true,"confidence":2},{"trial_n":66,"n_dots":3.85,"target":"right","response":"left","rt":555,"correct":false,"confidence":1},{"trial_n":67,"n_dots":3.95,"target":"left","response":"left","rt":389,"correct":true,"confidence":5},{"trial_n":68,"n_dots":3.95,"target":"left","response":"left","rt":785,"correct":true,"confidence":3},{"trial_n":69,"n_dots":3.85,"target":"right","response":"right","rt":353,"correct":true,"confidence":3},{"trial_n":70,"n_dots":3.85,"target":"right","response":"right","rt":1027.0000000001,"correct":true,"confidence":1},{"trial_n":71,"n_dots":3.75,"target":"left","response":"left","rt":746.99999999994,"correct":true,"confidence":4},{"trial_n":72,"n_dots":3.75,"target":"right","response":"right","rt":965,"correct":true,"confidence":4},{"trial_n":73,"n_dots":3.65,"target":"left","response":"right","rt":11425,"correct":false,"confidence":1},{"trial_n":74,"n_dots":3.75,"target":"right","response":"right","rt":804,"correct":true,"confidence":2},{"trial_n":75,"n_dots":3.75,"target":"right","response":"left","rt":4423.9999999999,"correct":false,"confidence":1},{"trial_n":76,"n_dots":3.85,"target":"left","response":"left","rt":698,"correct":true,"confidence":3},{"trial_n":77,"n_dots":3.85,"target":"right","response":"right","rt":720,"correct":true,"confidence":3},{"trial_n":78,"n_dots":3.75,"target":"right","response":"right","rt":670,"correct":true,"confidence":4},{"trial_n":79,"n_dots":3.75,"target":"left","response":"left","rt":242,"correct":true,"confidence":5},{"trial_n":80,"n_dots":3.65,"target":"right","response":"left","rt":572,"correct":false,"confidence":5},{"trial_n":81,"n_dots":3.75,"target":"right","response":"left","rt":1549,"correct":false,"confidence":3},{"trial_n":82,"n_dots":3.85,"target":"right","response":"right","rt":345.00000000012,"correct":true,"confidence":4},{"trial_n":83,"n_dots":3.85,"target":"left","response":"left","rt":416.99999999988,"correct":true,"confidence":1},{"trial_n":84,"n_dots":3.75,"target":"right","response":"right","rt":717,"correct":true,"confidence":5},{"trial_n":85,"n_dots":3.75,"target":"left","response":"left","rt":184,"correct":true,"confidence":5},{"trial_n":86,"n_dots":3.65,"target":"right","response":"right","rt":296.00000000012,"correct":true,"confidence":5},{"trial_n":87,"n_dots":3.65,"target":"left","response":"left","rt":1136.0000000001,"correct":true,"confidence":3},{"trial_n":88,"n_dots":3.55,"target":"left","response":"left","rt":393.00000000012,"correct":true,"confidence":4},{"trial_n":89,"n_dots":3.55,"target":"left","response":"right","rt":919,"correct":false,"confidence":2},{"trial_n":90,"n_dots":3.65,"target":"right","response":"left","rt":864,"correct":false,"confidence":3},{"trial_n":91,"n_dots":3.75,"target":"right","response":"right","rt":1160.9999999999,"correct":true,"confidence":1},{"trial_n":92,"n_dots":3.75,"target":"right","response":"right","rt":345,"correct":true,"confidence":3},{"trial_n":93,"n_dots":3.65,"target":"left","response":"left","rt":215.99999999988,"correct":true,"confidence":5},{"trial_n":94,"n_dots":3.65,"target":"right","response":"left","rt":619,"correct":false,"confidence":3},{"trial_n":95,"n_dots":3.75,"target":"left","response":"left","rt":655,"correct":true,"confidence":3},{"trial_n":96,"n_dots":3.75,"target":"left","response":"right","rt":1154,"correct":false,"confidence":1},{"trial_n":97,"n_dots":3.85,"target":"right","response":"right","rt":1022.9999999999,"correct":true,"confidence":4},{"trial_n":98,"n_dots":3.85,"target":"left","response":"left","rt":2308,"correct":true,"confidence":3},{"trial_n":99,"n_dots":3.75,"target":"right","response":"right","rt":620,"correct":true,"confidence":5},{"trial_n":100,"n_dots":3.75,"target":"left","response":"right","rt":3011.9999999999,"correct":false,"confidence":3},{"trial_n":101,"n_dots":3.85,"target":"right","response":"right","rt":329,"correct":true,"confidence":4},{"trial_n":102,"n_dots":3.85,"target":"left","response":"left","rt":903,"correct":true,"confidence":3},{"trial_n":103,"n_dots":3.75,"target":"right","response":"right","rt":507,"correct":true,"confidence":4},{"trial_n":104,"n_dots":3.75,"target":"left","response":"right","rt":2165,"correct":false,"confidence":4},{"trial_n":105,"n_dots":3.85,"target":"right","response":"left","rt":2042,"correct":false,"confidence":3},{"trial_n":106,"n_dots":3.95,"target":"right","response":"right","rt":514,"correct":true,"confidence":3},{"trial_n":107,"n_dots":3.95,"target":"left","response":"right","rt":1292,"correct":false,"confidence":3},{"trial_n":108,"n_dots":4.05,"target":"left","response":"right","rt":5161.0000000001,"correct":false,"confidence":4},{"trial_n":109,"n_dots":4.15,"target":"right","response":"right","rt":524,"correct":true,"confidence":3},{"trial_n":110,"n_dots":4.15,"target":"right","response":"right","rt":1000,"correct":true,"confidence":1},{"trial_n":111,"n_dots":4.05,"target":"right","response":"right","rt":741,"correct":true,"confidence":1},{"trial_n":112,"n_dots":4.05,"target":"right","response":"right","rt":7134,"correct":true,"confidence":3},{"trial_n":113,"n_dots":3.95,"target":"left","response":"left","rt":1040,"correct":true,"confidence":3},{"trial_n":114,"n_dots":3.95,"target":"left","response":"left","rt":363,"correct":true,"confidence":2},{"trial_n":115,"n_dots":3.85,"target":"left","response":"right","rt":903.00000000012,"correct":false,"confidence":3},{"trial_n":116,"n_dots":3.95,"target":"left","response":"left","rt":840,"correct":true,"confidence":3},{"trial_n":117,"n_dots":3.95,"target":"right","response":"right","rt":904,"correct":true,"confidence":2},{"trial_n":118,"n_dots":3.85,"target":"left","response":"right","rt":798,"correct":false,"confidence":2},{"trial_n":119,"n_dots":3.95,"target":"left","response":"left","rt":1259,"correct":true,"confidence":4},{"trial_n":120,"n_dots":3.95,"target":"left","response":"right","rt":4336.9999999999,"correct":false,"confidence":2}]