[{"trial_n":1,"span":8,"encoder":"23179802","distractor":"23179801","target":"present","response":"present","rt":"7011","correct":true,"confidence":-1},{"trial_n":2,"span":8,"encoder":"74216080","distractor":"04216080","target":"present","response":"present","rt":"1658","correct":true,"confidence":-1},{"trial_n":3,"span":10,"encoder":"7641520595","distractor":"7641525595","target":"absent","response":"absent","rt":"1530","correct":true,"confidence":-1},{"trial_n":4,"span":10,"encoder":"3617774974","distractor":"3617774774","target":"absent","response":"present","rt":"1466","correct":false,"confidence":-1},{"trial_n":5,"span":8,"encoder":"97972079","distractor":"07972079","target":"present","response":"present","rt":"1103","correct":true,"confidence":-1},{"trial_n":6,"span":8,"encoder":"04213181","distractor":"04233181","target":"absent","response":"present","rt":"2821","correct":false,"confidence":-1},{"trial_n":7,"span":6,"encoder":"369125","distractor":"369128","target":"absent","response":"absent","rt":"878.99999999999","correct":true,"confidence":-1},{"trial_n":8,"span":6,"encoder":"655204","distractor":"650204","target":"absent","response":"absent","rt":"2230","correct":true,"confidence":-1},{"trial_n":9,"span":8,"encoder":"44209224","distractor":"47209224","target":"absent","response":"present","rt":"242377","correct":false,"confidence":-1},{"trial_n":10,"span":6,"encoder":"997657","distractor":"997654","target":"absent","response":"present","rt":"3513.9999999999","correct":false,"confidence":-1},{"trial_n":11,"span":4,"encoder":"7386","distractor":"1386","target":"present","response":"present","rt":"1645","correct":true,"confidence":-1},{"trial_n":12,"span":4,"encoder":"7182","distractor":"7382","target":"absent","response":"absent","rt":"2017","correct":true,"confidence":-1},{"trial_n":13,"span":5,"encoder":"42494","distractor":"92494","target":"absent","response":"present","rt":"2055","correct":false,"confidence":-1},{"trial_n":14,"span":4,"encoder":"6341","distractor":"6301","target":"present","response":"present","rt":"2783.0000000001","correct":true,"confidence":-1},{"trial_n":15,"span":4,"encoder":"4653","distractor":"4253","target":"present","response":"present","rt":"1103","correct":true,"confidence":-1},{"trial_n":16,"span":5,"encoder":"70137","distractor":"00137","target":"absent","response":"absent","rt":"1657.0000000001","correct":true,"confidence":-1},{"trial_n":17,"span":5,"encoder":"92070","distractor":"99070","target":"absent","response":"absent","rt":"1545","correct":true,"confidence":-1},{"trial_n":18,"span":6,"encoder":"877522","distractor":"977522","target":"present","response":"absent","rt":"3349.0000000001","correct":false,"confidence":-1},{"trial_n":19,"span":5,"encoder":"18760","distractor":"78760","target":"absent","response":"present","rt":"1432","correct":false,"confidence":-1},{"trial_n":20,"span":4,"encoder":"4409","distractor":"8409","target":"present","response":"present","rt":"1483","correct":true,"confidence":-1},{"trial_n":21,"span":4,"encoder":"9209","distractor":"9309","target":"present","response":"present","rt":"1432","correct":true,"confidence":5},{"trial_n":22,"span":5,"encoder":"42481","distractor":"49481","target":"present","response":"present","rt":"1505","correct":true,"confidence":3},{"trial_n":23,"span":5,"encoder":"04695","distractor":"02695","target":"present","response":"present","rt":"2503","correct":true,"confidence":5},{"trial_n":24,"span":6,"encoder":"625124","distractor":"625194","target":"absent","response":"present","rt":"2504","correct":false,"confidence":3},{"trial_n":25,"span":5,"encoder":"52811","distractor":"52818","target":"present","response":"absent","rt":"1629","correct":false,"confidence":5},{"trial_n":26,"span":4,"encoder":"9385","distractor":"9305","target":"present","response":"present","rt":"1533.0000000001","correct":true,"confidence":5},{"trial_n":27,"span":4,"encoder":"6760","distractor":"6710","target":"present","response":"present","rt":"1186","correct":true,"confidence":5},{"trial_n":28,"span":5,"encoder":"65993","distractor":"05993","target":"present","response":"absent","rt":"1823","correct":false,"confidence":5},{"trial_n":29,"span":4,"encoder":"4508","distractor":"4608","target":"absent","response":"absent","rt":"2092.9999999999","correct":true,"confidence":4},{"trial_n":30,"span":4,"encoder":"9882","distractor":"9852","target":"absent","response":"absent","rt":"2246","correct":true,"confidence":4},{"trial_n":31,"span":5,"encoder":"11202","distractor":"31202","target":"present","response":"absent","rt":"2111","correct":false,"confidence":5},{"trial_n":32,"span":4,"encoder":"1749","distractor":"8749","target":"present","response":"present","rt":"1535","correct":true,"confidence":5},{"trial_n":33,"span":4,"encoder":"3959","distractor":"3999","target":"absent","response":"absent","rt":"1479","correct":true,"confidence":5},{"trial_n":34,"span":5,"encoder":"73310","distractor":"78310","target":"absent","response":"absent","rt":"1670.0000000001","correct":true,"confidence":5},{"trial_n":35,"span":5,"encoder":"52494","distractor":"52194","target":"present","response":"present","rt":"1734","correct":true,"confidence":4},{"trial_n":36,"span":6,"encoder":"377698","distractor":"377668","target":"absent","response":"absent","rt":"3780","correct":true,"confidence":2},{"trial_n":37,"span":6,"encoder":"915164","distractor":"815164","target":"absent","response":"absent","rt":"1721","correct":true,"confidence":4},{"trial_n":38,"span":7,"encoder":"4423175","distractor":"4423125","target":"absent","response":"absent","rt":"6389.9999999999","correct":true,"confidence":2},{"trial_n":39,"span":7,"encoder":"3540542","distractor":"3540532","target":"present","response":"present","rt":"1123","correct":true,"confidence":1},{"trial_n":40,"span":8,"encoder":"47617786","distractor":"47618786","target":"present","response":"absent","rt":"1532","correct":false,"confidence":2},{"trial_n":41,"span":7,"encoder":"2658355","distractor":"2658855","target":"present","response":"absent","rt":"1455","correct":false,"confidence":1},{"trial_n":42,"span":6,"encoder":"946894","distractor":"946794","target":"present","response":"present","rt":"1206.9999999999","correct":true,"confidence":3},{"trial_n":43,"span":6,"encoder":"895551","distractor":"895151","target":"absent","response":"absent","rt":"2312","correct":true,"confidence":4},{"trial_n":44,"span":7,"encoder":"1754302","distractor":"1774302","target":"absent","response":"present","rt":"3622","correct":false,"confidence":3},{"trial_n":45,"span":6,"encoder":"625088","distractor":"665088","target":"present","response":"absent","rt":"2146.0000000001","correct":false,"confidence":5},{"trial_n":46,"span":5,"encoder":"34685","distractor":"34385","target":"absent","response":"present","rt":"1121.0000000001","correct":false,"confidence":3},{"trial_n":47,"span":4,"encoder":"7670","distractor":"7650","target":"absent","response":"absent","rt":"1518","correct":true,"confidence":5},{"trial_n":48,"span":4,"encoder":"0058","distractor":"0018","target":"absent","response":"absent","rt":"1659","correct":true,"confidence":5},{"trial_n":49,"span":5,"encoder":"04755","distractor":"64755","target":"present","response":"absent","rt":"2549","correct":false,"confidence":2},{"trial_n":50,"span":4,"encoder":"9758","distractor":"9658","target":"absent","response":"absent","rt":"1718","correct":true,"confidence":5},{"trial_n":51,"span":4,"encoder":"5885","distractor":"5085","target":"absent","response":"absent","rt":"1265","correct":true,"confidence":4},{"trial_n":52,"span":5,"encoder":"58483","distractor":"58473","target":"present","response":"present","rt":"1135","correct":true,"confidence":5},{"trial_n":53,"span":5,"encoder":"16513","distractor":"16519","target":"present","response":"absent","rt":"1296","correct":false,"confidence":3},{"trial_n":54,"span":4,"encoder":"6517","distractor":"6512","target":"present","response":"present","rt":"1471","correct":true,"confidence":5},{"trial_n":55,"span":4,"encoder":"0087","distractor":"1087","target":"present","response":"absent","rt":"1506","correct":false,"confidence":3},{"trial_n":56,"span":3,"encoder":"260","distractor":"960","target":"present","response":"present","rt":"1010","correct":true,"confidence":4},{"trial_n":57,"span":3,"encoder":"644","distractor":"674","target":"present","response":"present","rt":"1666","correct":true,"confidence":4},{"trial_n":58,"span":4,"encoder":"7399","distractor":"7389","target":"present","response":"present","rt":"2444.9999999999","correct":true,"confidence":5},{"trial_n":59,"span":4,"encoder":"3921","distractor":"3924","target":"present","response":"present","rt":"1255.0000000001","correct":true,"confidence":4},{"trial_n":60,"span":5,"encoder":"45865","distractor":"45825","target":"absent","response":"absent","rt":"3300","correct":true,"confidence":5},{"trial_n":61,"span":5,"encoder":"34946","distractor":"30946","target":"absent","response":"absent","rt":"1320","correct":true,"confidence":5},{"trial_n":62,"span":6,"encoder":"484868","distractor":"486868","target":"present","response":"present","rt":"1768","correct":true,"confidence":3},{"trial_n":63,"span":6,"encoder":"138206","distractor":"138286","target":"absent","response":"absent","rt":"1319","correct":true,"confidence":4},{"trial_n":64,"span":7,"encoder":"3440368","distractor":"3840368","target":"present","response":"present","rt":"1930.9999999999","correct":true,"confidence":4},{"trial_n":65,"span":7,"encoder":"5534318","distractor":"5534618","target":"absent","response":"absent","rt":"1271","correct":true,"confidence":1},{"trial_n":66,"span":8,"encoder":"17826469","distractor":"17026469","target":"present","response":"present","rt":"1639","correct":true,"confidence":2},{"trial_n":67,"span":8,"encoder":"41086440","distractor":"46086440","target":"absent","response":"absent","rt":"1601.9999999999","correct":true,"confidence":4},{"trial_n":68,"span":9,"encoder":"050597987","distractor":"050567987","target":"present","response":"present","rt":"3394","correct":true,"confidence":1},{"trial_n":69,"span":9,"encoder":"218753496","distractor":"218753494","target":"absent","response":"absent","rt":"3733","correct":true,"confidence":3},{"trial_n":70,"span":10,"encoder":"1808577197","distractor":"1808577897","target":"absent","response":"absent","rt":"4912","correct":true,"confidence":2},{"trial_n":71,"span":8,"encoder":"68353369","distractor":"68355369","target":"present","response":"present","rt":"3731","correct":true,"confidence":-1},{"trial_n":72,"span":8,"encoder":"01257298","distractor":"01237298","target":"present","response":"present","rt":"761","correct":true,"confidence":-1},{"trial_n":73,"span":9,"encoder":"019632433","distractor":"019632733","target":"absent","response":"absent","rt":"1482","correct":true,"confidence":-1},{"trial_n":74,"span":9,"encoder":"195005609","distractor":"195405609","target":"absent","response":"absent","rt":"779.99999999988","correct":true,"confidence":-1},{"trial_n":75,"span":10,"encoder":"7753610692","distractor":"7753610693","target":"present","response":"present","rt":"1219","correct":true,"confidence":-1},{"trial_n":76,"span":10,"encoder":"2385960638","distractor":"2385960637","target":"absent","response":"absent","rt":"2399","correct":true,"confidence":-1},{"trial_n":77,"span":11,"encoder":"19557275788","distractor":"19557175788","target":"absent","response":"absent","rt":"3744.0000000001","correct":true,"confidence":-1},{"trial_n":78,"span":11,"encoder":"09409268477","distractor":"09409268977","target":"absent","response":"present","rt":"2914","correct":false,"confidence":-1},{"trial_n":79,"span":10,"encoder":"1277841097","distractor":"1207841097","target":"present","response":"present","rt":"21793","correct":true,"confidence":-1},{"trial_n":80,"span":10,"encoder":"0536201701","distractor":"9536201701","target":"present","response":"absent","rt":"6151.0000000002","correct":false,"confidence":-1},{"trial_n":81,"span":9,"encoder":"646357140","distractor":"646357180","target":"present","response":"absent","rt":"1771.9999999998","correct":false,"confidence":-1},{"trial_n":82,"span":8,"encoder":"35204199","distractor":"35284199","target":"absent","response":"present","rt":"1350","correct":false,"confidence":-1},{"trial_n":83,"span":7,"encoder":"1082247","distractor":"9082247","target":"absent","response":"absent","rt":"1575","correct":true,"confidence":-1},{"trial_n":84,"span":7,"encoder":"1377325","distractor":"1377395","target":"absent","response":"present","rt":"3069","correct":false,"confidence":-1},{"trial_n":85,"span":6,"encoder":"228013","distractor":"828013","target":"absent","response":"absent","rt":"2179","correct":true,"confidence":-1},{"trial_n":86,"span":6,"encoder":"238764","distractor":"238765","target":"present","response":"absent","rt":"672","correct":false,"confidence":-1},{"trial_n":87,"span":5,"encoder":"97767","distractor":"97764","target":"absent","response":"absent","rt":"1796","correct":true,"confidence":-1},{"trial_n":88,"span":5,"encoder":"85362","distractor":"85322","target":"present","response":"present","rt":"1368","correct":true,"confidence":-1},{"trial_n":89,"span":6,"encoder":"056805","distractor":"058805","target":"absent","response":"absent","rt":"2703","correct":true,"confidence":-1},{"trial_n":90,"span":6,"encoder":"656471","distractor":"656470","target":"absent","response":"absent","rt":"3223","correct":true,"confidence":-1},{"trial_n":91,"span":7,"encoder":"1603320","distractor":"1603300","target":"absent","response":"absent","rt":"645","correct":true,"confidence":3},{"trial_n":92,"span":7,"encoder":"8476343","distractor":"8476303","target":"present","response":"present","rt":"1719.0000000002","correct":true,"confidence":4},{"trial_n":93,"span":8,"encoder":"21732089","distractor":"23732089","target":"present","response":"present","rt":"3156.9999999998","correct":true,"confidence":3},{"trial_n":94,"span":8,"encoder":"85615888","distractor":"85615898","target":"absent","response":"absent","rt":"2383.9999999998","correct":true,"confidence":5},{"trial_n":95,"span":9,"encoder":"823554493","distractor":"023554493","target":"present","response":"absent","rt":"1542","correct":false,"confidence":4},{"trial_n":96,"span":8,"encoder":"83794453","distractor":"83694453","target":"present","response":"present","rt":"3638.0000000002","correct":true,"confidence":3},{"trial_n":97,"span":8,"encoder":"73539259","distractor":"73538259","target":"absent","response":"absent","rt":"2155","correct":true,"confidence":1},{"trial_n":98,"span":9,"encoder":"868998346","distractor":"868998343","target":"present","response":"absent","rt":"2177","correct":false,"confidence":3},{"trial_n":99,"span":8,"encoder":"53224747","distractor":"53294747","target":"absent","response":"present","rt":"3721","correct":false,"confidence":1},{"trial_n":100,"span":7,"encoder":"7938489","distractor":"7438489","target":"present","response":"present","rt":"2820","correct":true,"confidence":5},{"trial_n":101,"span":7,"encoder":"2956393","distractor":"2906393","target":"absent","response":"absent","rt":"752","correct":true,"confidence":3},{"trial_n":102,"span":8,"encoder":"69298314","distractor":"69598314","target":"present","response":"present","rt":"692","correct":true,"confidence":1},{"trial_n":103,"span":8,"encoder":"71741167","distractor":"71341167","target":"absent","response":"absent","rt":"2092","correct":true,"confidence":5},{"trial_n":104,"span":9,"encoder":"809061124","distractor":"809061104","target":"absent","response":"absent","rt":"4614","correct":true,"confidence":1},{"trial_n":105,"span":9,"encoder":"076952366","distractor":"086952366","target":"present","response":"absent","rt":"4458","correct":false,"confidence":2},{"trial_n":106,"span":8,"encoder":"30455078","distractor":"60455078","target":"present","response":"present","rt":"1121","correct":true,"confidence":1},{"trial_n":107,"span":8,"encoder":"53745374","distractor":"53747374","target":"present","response":"absent","rt":"3312","correct":false,"confidence":4},{"trial_n":108,"span":7,"encoder":"9052081","distractor":"9012081","target":"absent","response":"absent","rt":"2315","correct":true,"confidence":3},{"trial_n":109,"span":7,"encoder":"2481802","distractor":"2487802","target":"absent","response":"present","rt":"673","correct":false,"confidence":3},{"trial_n":110,"span":6,"encoder":"650806","distractor":"450806","target":"absent","response":"absent","rt":"3983.0000000002","correct":true,"confidence":4},{"trial_n":111,"span":6,"encoder":"989278","distractor":"989178","target":"absent","response":"present","rt":"1672","correct":false,"confidence":1},{"trial_n":112,"span":5,"encoder":"81199","distractor":"81099","target":"absent","response":"absent","rt":"2453","correct":true,"confidence":3},{"trial_n":113,"span":5,"encoder":"41513","distractor":"41413","target":"absent","response":"absent","rt":"1280.0000000002","correct":true,"confidence":5},{"trial_n":114,"span":6,"encoder":"285789","distractor":"285781","target":"present","response":"present","rt":"1721","correct":true,"confidence":5},{"trial_n":115,"span":6,"encoder":"398149","distractor":"328149","target":"absent","response":"absent","rt":"1995","correct":true,"confidence":4},{"trial_n":116,"span":7,"encoder":"3071184","distractor":"3011184","target":"absent","response":"present","rt":"732","correct":false,"confidence":3},{"trial_n":117,"span":6,"encoder":"309943","distractor":"309946","target":"absent","response":"absent","rt":"2528","correct":true,"confidence":1},{"trial_n":118,"span":6,"encoder":"320148","distractor":"328148","target":"absent","response":"absent","rt":"2278","correct":true,"confidence":5},{"trial_n":119,"span":7,"encoder":"9573105","distractor":"9573101","target":"present","response":"present","rt":"1145","correct":true,"confidence":5},{"trial_n":120,"span":7,"encoder":"3923305","distractor":"3723305","target":"present","response":"present","rt":"616","correct":true,"confidence":1},{"trial_n":121,"span":8,"encoder":"98511069","distractor":"28511069","target":"present","response":"present","rt":"3702","correct":true,"confidence":2},{"trial_n":122,"span":8,"encoder":"46194798","distractor":"46190798","target":"present","response":"absent","rt":"3756","correct":false,"confidence":3},{"trial_n":123,"span":7,"encoder":"1687370","distractor":"3687370","target":"absent","response":"present","rt":"4704","correct":false,"confidence":3},{"trial_n":124,"span":6,"encoder":"953284","distractor":"954284","target":"present","response":"absent","rt":"3061","correct":false,"confidence":3},{"trial_n":125,"span":5,"encoder":"19328","distractor":"19228","target":"absent","response":"absent","rt":"2895","correct":true,"confidence":1},{"trial_n":126,"span":5,"encoder":"76406","distractor":"72406","target":"absent","response":"present","rt":"1825","correct":false,"confidence":3},{"trial_n":127,"span":4,"encoder":"2305","distractor":"2325","target":"present","response":"present","rt":"1518","correct":true,"confidence":5},{"trial_n":128,"span":4,"encoder":"5588","distractor":"5388","target":"present","response":"present","rt":"1784.9999999998","correct":true,"confidence":5},{"trial_n":129,"span":5,"encoder":"42637","distractor":"42630","target":"present","response":"absent","rt":"3716.0000000002","correct":false,"confidence":4},{"trial_n":130,"span":4,"encoder":"8652","distractor":"1652","target":"present","response":"present","rt":"1216","correct":true,"confidence":5},{"trial_n":131,"span":4,"encoder":"2268","distractor":"2288","target":"present","response":"present","rt":"1723","correct":true,"confidence":5},{"trial_n":132,"span":5,"encoder":"65235","distractor":"65295","target":"present","response":"present","rt":"1810","correct":true,"confidence":5},{"trial_n":133,"span":5,"encoder":"87646","distractor":"87246","target":"present","response":"absent","rt":"3389","correct":false,"confidence":4},{"trial_n":134,"span":4,"encoder":"2419","distractor":"2417","target":"present","response":"present","rt":"1310","correct":true,"confidence":5},{"trial_n":135,"span":4,"encoder":"4318","distractor":"4518","target":"present","response":"present","rt":"1318","correct":true,"confidence":4},{"trial_n":136,"span":5,"encoder":"01051","distractor":"01057","target":"absent","response":"absent","rt":"2949.0000000005","correct":true,"confidence":4},{"trial_n":137,"span":5,"encoder":"49311","distractor":"45311","target":"present","response":"present","rt":"1639.0000000005","correct":true,"confidence":5},{"trial_n":138,"span":6,"encoder":"282563","distractor":"282543","target":"present","response":"present","rt":"3913","correct":true,"confidence":3},{"trial_n":139,"span":6,"encoder":"559300","distractor":"659300","target":"absent","response":"present","rt":"23988","correct":false,"confidence":1},{"trial_n":140,"span":5,"encoder":"58195","distractor":"57195","target":"present","response":"present","rt":"1586","correct":true,"confidence":2}]