[{"trial_n":1,"n_dots":4.25,"target":"right","response":"left","rt":4415,"correct":false,"confidence":-1},{"trial_n":2,"n_dots":4.25,"target":"right","response":"right","rt":1703,"correct":true,"confidence":-1},{"trial_n":3,"n_dots":4.25,"target":"left","response":"left","rt":498.69999998808,"correct":true,"confidence":-1},{"trial_n":4,"n_dots":3.85,"target":"right","response":"right","rt":663.89999997616,"correct":true,"confidence":-1},{"trial_n":5,"n_dots":3.85,"target":"left","response":"left","rt":395.10000002384,"correct":true,"confidence":-1},{"trial_n":6,"n_dots":3.45,"target":"right","response":"right","rt":647.30000001192,"correct":true,"confidence":-1},{"trial_n":7,"n_dots":3.45,"target":"left","response":"left","rt":294.5,"correct":true,"confidence":-1},{"trial_n":8,"n_dots":3.25,"target":"left","response":"left","rt":469.69999998808,"correct":true,"confidence":-1},{"trial_n":9,"n_dots":3.25,"target":"right","response":"left","rt":374.19999998808,"correct":false,"confidence":-1},{"trial_n":10,"n_dots":3.45,"target":"right","response":"right","rt":519.5,"correct":true,"confidence":-1},{"trial_n":11,"n_dots":3.45,"target":"left","response":"left","rt":275,"correct":true,"confidence":-1},{"trial_n":12,"n_dots":3.25,"target":"right","response":"right","rt":604.59999996424,"correct":true,"confidence":-1},{"trial_n":13,"n_dots":3.25,"target":"right","response":"left","rt":287.5,"correct":false,"confidence":-1},{"trial_n":14,"n_dots":3.35,"target":"left","response":"right","rt":403.10000002384,"correct":false,"confidence":-1},{"trial_n":15,"n_dots":3.45,"target":"right","response":"left","rt":242.40000003576,"correct":false,"confidence":-1},{"trial_n":16,"n_dots":3.55,"target":"right","response":"right","rt":235.09999996424,"correct":true,"confidence":-1},{"trial_n":17,"n_dots":3.55,"target":"right","response":"right","rt":320.40000003576,"correct":true,"confidence":-1},{"trial_n":18,"n_dots":3.45,"target":"right","response":"left","rt":127.30000001192,"correct":false,"confidence":-1},{"trial_n":19,"n_dots":3.55,"target":"right","response":"right","rt":487.39999997616,"correct":true,"confidence":-1},{"trial_n":20,"n_dots":3.55,"target":"right","response":"right","rt":315.60000002384,"correct":true,"confidence":-1},{"trial_n":21,"n_dots":3.45,"target":"right","response":"left","rt":665.90000003576,"correct":false,"confidence":4},{"trial_n":22,"n_dots":3.55,"target":"right","response":"right","rt":610.5,"correct":true,"confidence":4},{"trial_n":23,"n_dots":3.55,"target":"right","response":"left","rt":709.69999998808,"correct":false,"confidence":4},{"trial_n":24,"n_dots":3.65,"target":"left","response":"right","rt":699.09999996424,"correct":false,"confidence":4},{"trial_n":25,"n_dots":3.75,"target":"right","response":"right","rt":999.69999998808,"correct":true,"confidence":3},{"trial_n":26,"n_dots":3.75,"target":"left","response":"left","rt":766.30000001192,"correct":true,"confidence":3},{"trial_n":27,"n_dots":3.65,"target":"right","response":"right","rt":1111.6000000238,"correct":true,"confidence":3},{"trial_n":28,"n_dots":3.65,"target":"right","response":"right","rt":891.60000002384,"correct":true,"confidence":3},{"trial_n":29,"n_dots":3.55,"target":"left","response":"left","rt":744.69999998808,"correct":true,"confidence":4},{"trial_n":30,"n_dots":3.55,"target":"left","response":"left","rt":572.20000004768,"correct":true,"confidence":4},{"trial_n":31,"n_dots":3.45,"target":"left","response":"left","rt":434.40000003576,"correct":true,"confidence":4},{"trial_n":32,"n_dots":3.45,"target":"left","response":"left","rt":373.69999998808,"correct":true,"confidence":3},{"trial_n":33,"n_dots":3.35,"target":"right","response":"right","rt":698.80000001192,"correct":true,"confidence":4},{"trial_n":34,"n_dots":3.35,"target":"left","response":"left","rt":354.39999997616,"correct":true,"confidence":4},{"trial_n":35,"n_dots":3.25,"target":"left","response":"left","rt":511.39999997616,"correct":true,"confidence":4},{"trial_n":36,"n_dots":3.25,"target":"right","response":"right","rt":1234.9000000358,"correct":true,"confidence":3},{"trial_n":37,"n_dots":3.15,"target":"left","response":"right","rt":663.10000002384,"correct":false,"confidence":3},{"trial_n":38,"n_dots":3.25,"target":"right","response":"left","rt":1147.5,"correct":false,"confidence":3},{"trial_n":39,"n_dots":3.35,"target":"left","response":"left","rt":901.69999998808,"correct":true,"confidence":4},{"trial_n":40,"n_dots":3.35,"target":"left","response":"right","rt":743,"correct":false,"confidence":4},{"trial_n":41,"n_dots":3.45,"target":"left","response":"left","rt":755.40000003576,"correct":true,"confidence":3},{"trial_n":42,"n_dots":3.45,"target":"left","response":"right","rt":541.19999998808,"correct":false,"confidence":4},{"trial_n":43,"n_dots":3.55,"target":"right","response":"left","rt":1037.1999999881,"correct":false,"confidence":3},{"trial_n":44,"n_dots":3.65,"target":"right","response":"right","rt":673,"correct":true,"confidence":4},{"trial_n":45,"n_dots":3.65,"target":"right","response":"left","rt":943.10000002384,"correct":false,"confidence":3},{"trial_n":46,"n_dots":3.75,"target":"right","response":"right","rt":552.10000002384,"correct":true,"confidence":4},{"trial_n":47,"n_dots":3.75,"target":"left","response":"left","rt":572,"correct":true,"confidence":3},{"trial_n":48,"n_dots":3.65,"target":"left","response":"right","rt":678.60000002384,"correct":false,"confidence":3},{"trial_n":49,"n_dots":3.75,"target":"right","response":"left","rt":1193.6999999881,"correct":false,"confidence":2},{"trial_n":50,"n_dots":3.85,"target":"left","response":"left","rt":678.5,"correct":true,"confidence":4},{"trial_n":51,"n_dots":3.85,"target":"right","response":"right","rt":669.10000002384,"correct":true,"confidence":2},{"trial_n":52,"n_dots":3.75,"target":"left","response":"left","rt":743.29999995232,"correct":true,"confidence":4},{"trial_n":53,"n_dots":3.75,"target":"right","response":"right","rt":533.30000001192,"correct":true,"confidence":4},{"trial_n":54,"n_dots":3.65,"target":"right","response":"right","rt":541.09999996424,"correct":true,"confidence":4},{"trial_n":55,"n_dots":3.65,"target":"left","response":"left","rt":746.59999996424,"correct":true,"confidence":3},{"trial_n":56,"n_dots":3.55,"target":"left","response":"right","rt":571.20000004768,"correct":false,"confidence":4},{"trial_n":57,"n_dots":3.65,"target":"right","response":"left","rt":736.79999995232,"correct":false,"confidence":3},{"trial_n":58,"n_dots":3.75,"target":"right","response":"right","rt":538.89999997616,"correct":true,"confidence":4},{"trial_n":59,"n_dots":3.75,"target":"left","response":"left","rt":574.89999997616,"correct":true,"confidence":3},{"trial_n":60,"n_dots":3.65,"target":"right","response":"right","rt":536.30000001192,"correct":true,"confidence":4},{"trial_n":61,"n_dots":3.65,"target":"left","response":"left","rt":4257.8000000119,"correct":true,"confidence":4},{"trial_n":62,"n_dots":3.55,"target":"left","response":"left","rt":339.10000002384,"correct":true,"confidence":4},{"trial_n":63,"n_dots":3.55,"target":"right","response":"right","rt":591.09999996424,"correct":true,"confidence":4},{"trial_n":64,"n_dots":3.45,"target":"right","response":"right","rt":684.40000003576,"correct":true,"confidence":4},{"trial_n":65,"n_dots":3.45,"target":"left","response":"left","rt":668.19999998808,"correct":true,"confidence":3},{"trial_n":66,"n_dots":3.35,"target":"left","response":"right","rt":1317.7000000477,"correct":false,"confidence":3},{"trial_n":67,"n_dots":3.45,"target":"left","response":"left","rt":755.30000001192,"correct":true,"confidence":4},{"trial_n":68,"n_dots":3.45,"target":"left","response":"right","rt":862.60000002384,"correct":false,"confidence":4},{"trial_n":69,"n_dots":3.55,"target":"left","response":"left","rt":649.69999998808,"correct":true,"confidence":3},{"trial_n":70,"n_dots":3.55,"target":"right","response":"left","rt":609.89999997616,"correct":false,"confidence":3},{"trial_n":71,"n_dots":3.65,"target":"left","response":"left","rt":445.59999996424,"correct":true,"confidence":3},{"trial_n":72,"n_dots":3.65,"target":"left","response":"right","rt":623.19999998808,"correct":false,"confidence":3},{"trial_n":73,"n_dots":3.75,"target":"left","response":"left","rt":505.39999997616,"correct":true,"confidence":3},{"trial_n":74,"n_dots":3.75,"target":"left","response":"left","rt":1218.5,"correct":true,"confidence":4},{"trial_n":75,"n_dots":3.65,"target":"left","response":"right","rt":413.40000003576,"correct":false,"confidence":4},{"trial_n":76,"n_dots":3.75,"target":"right","response":"right","rt":610.39999997616,"correct":true,"confidence":4},{"trial_n":77,"n_dots":3.75,"target":"left","response":"left","rt":510.10000002384,"correct":true,"confidence":3},{"trial_n":78,"n_dots":3.65,"target":"right","response":"right","rt":680.30000001192,"correct":true,"confidence":4},{"trial_n":79,"n_dots":3.65,"target":"right","response":"left","rt":456.80000001192,"correct":false,"confidence":4},{"trial_n":80,"n_dots":3.75,"target":"left","response":"left","rt":638.80000001192,"correct":true,"confidence":4},{"trial_n":81,"n_dots":3.75,"target":"right","response":"left","rt":538.80000001192,"correct":false,"confidence":3},{"trial_n":82,"n_dots":3.85,"target":"left","response":"left","rt":317.40000003576,"correct":true,"confidence":4},{"trial_n":83,"n_dots":3.85,"target":"right","response":"right","rt":580,"correct":true,"confidence":4},{"trial_n":84,"n_dots":3.75,"target":"left","response":"left","rt":793.60000002384,"correct":true,"confidence":4},{"trial_n":85,"n_dots":3.75,"target":"right","response":"right","rt":651.69999998808,"correct":true,"confidence":4},{"trial_n":86,"n_dots":3.65,"target":"left","response":"left","rt":680.90000003576,"correct":true,"confidence":2},{"trial_n":87,"n_dots":3.65,"target":"left","response":"left","rt":829.5,"correct":true,"confidence":3},{"trial_n":88,"n_dots":3.55,"target":"right","response":"right","rt":511.09999996424,"correct":true,"confidence":4},{"trial_n":89,"n_dots":3.55,"target":"left","response":"right","rt":479.69999998808,"correct":false,"confidence":4},{"trial_n":90,"n_dots":3.65,"target":"right","response":"right","rt":441.5,"correct":true,"confidence":4},{"trial_n":91,"n_dots":3.65,"target":"right","response":"right","rt":798.20000004768,"correct":true,"confidence":3},{"trial_n":92,"n_dots":3.55,"target":"left","response":"left","rt":609.5,"correct":true,"confidence":4},{"trial_n":93,"n_dots":3.55,"target":"left","response":"right","rt":541.59999996424,"correct":false,"confidence":4},{"trial_n":94,"n_dots":3.65,"target":"right","response":"right","rt":1189.9000000358,"correct":true,"confidence":4},{"trial_n":95,"n_dots":3.65,"target":"right","response":"left","rt":738.5,"correct":false,"confidence":4},{"trial_n":96,"n_dots":3.75,"target":"left","response":"left","rt":1380,"correct":true,"confidence":3},{"trial_n":97,"n_dots":3.75,"target":"left","response":"left","rt":719.69999998808,"correct":true,"confidence":3},{"trial_n":98,"n_dots":3.65,"target":"left","response":"right","rt":599.19999998808,"correct":false,"confidence":3},{"trial_n":99,"n_dots":3.75,"target":"right","response":"left","rt":524.30000001192,"correct":false,"confidence":2},{"trial_n":100,"n_dots":3.85,"target":"right","response":"left","rt":614.19999998808,"correct":false,"confidence":2},{"trial_n":101,"n_dots":3.95,"target":"right","response":"right","rt":852.90000003576,"correct":true,"confidence":4},{"trial_n":102,"n_dots":3.95,"target":"right","response":"left","rt":1047.5999999642,"correct":false,"confidence":4},{"trial_n":103,"n_dots":4.05,"target":"left","response":"left","rt":974.40000003576,"correct":true,"confidence":4},{"trial_n":104,"n_dots":4.05,"target":"left","response":"left","rt":379.60000002384,"correct":true,"confidence":3},{"trial_n":105,"n_dots":3.95,"target":"right","response":"right","rt":735,"correct":true,"confidence":4},{"trial_n":106,"n_dots":3.95,"target":"left","response":"left","rt":757.39999997616,"correct":true,"confidence":3},{"trial_n":107,"n_dots":3.85,"target":"right","response":"right","rt":1322.3999999762,"correct":true,"confidence":3},{"trial_n":108,"n_dots":3.85,"target":"right","response":"left","rt":563,"correct":false,"confidence":4},{"trial_n":109,"n_dots":3.95,"target":"right","response":"right","rt":628.30000001192,"correct":true,"confidence":3},{"trial_n":110,"n_dots":3.95,"target":"right","response":"left","rt":279.89999997616,"correct":false,"confidence":3},{"trial_n":111,"n_dots":4.05,"target":"right","response":"right","rt":466.30000001192,"correct":true,"confidence":2},{"trial_n":112,"n_dots":4.05,"target":"left","response":"left","rt":263.39999997616,"correct":true,"confidence":3},{"trial_n":113,"n_dots":3.95,"target":"left","response":"left","rt":544.69999998808,"correct":true,"confidence":4},{"trial_n":114,"n_dots":3.95,"target":"left","response":"right","rt":1320.3999999762,"correct":false,"confidence":4},{"trial_n":115,"n_dots":4.05,"target":"left","response":"left","rt":588.19999998808,"correct":true,"confidence":3},{"trial_n":116,"n_dots":4.05,"target":"right","response":"right","rt":583,"correct":true,"confidence":3},{"trial_n":117,"n_dots":3.95,"target":"left","response":"left","rt":480.40000003576,"correct":true,"confidence":4},{"trial_n":118,"n_dots":3.95,"target":"right","response":"right","rt":610.10000002384,"correct":true,"confidence":4},{"trial_n":119,"n_dots":3.85,"target":"left","response":"left","rt":1345.8000000119,"correct":true,"confidence":3},{"trial_n":120,"n_dots":3.85,"target":"left","response":"left","rt":429.80000001192,"correct":true,"confidence":4}]