[{"trial_n":1,"min":25,"max":230,"target":"present","response":"present","rt":13538,"correct":true,"confidence":-1},{"trial_n":2,"min":25,"max":230,"target":"present","response":"present","rt":5046,"correct":true,"confidence":-1},{"trial_n":3,"min":41,"max":214,"target":"absent","response":"absent","rt":1024,"correct":true,"confidence":-1},{"trial_n":4,"min":41,"max":214,"target":"absent","response":"absent","rt":685,"correct":true,"confidence":-1},{"trial_n":5,"min":57,"max":198,"target":"present","response":"present","rt":931,"correct":true,"confidence":-1},{"trial_n":6,"min":57,"max":198,"target":"absent","response":"absent","rt":928,"correct":true,"confidence":-1},{"trial_n":7,"min":73,"max":182,"target":"absent","response":"absent","rt":450,"correct":true,"confidence":-1},{"trial_n":8,"min":73,"max":182,"target":"present","response":"absent","rt":721,"correct":false,"confidence":-1},{"trial_n":9,"min":57,"max":198,"target":"present","response":"present","rt":1127,"correct":true,"confidence":-1},{"trial_n":10,"min":57,"max":198,"target":"absent","response":"absent","rt":653,"correct":true,"confidence":-1},{"trial_n":11,"min":65,"max":190,"target":"present","response":"present","rt":616,"correct":true,"confidence":-1},{"trial_n":12,"min":65,"max":190,"target":"absent","response":"absent","rt":583,"correct":true,"confidence":-1},{"trial_n":13,"min":73,"max":182,"target":"absent","response":"absent","rt":533,"correct":true,"confidence":-1},{"trial_n":14,"min":73,"max":182,"target":"absent","response":"absent","rt":451.00000000001,"correct":true,"confidence":-1},{"trial_n":15,"min":81,"max":174,"target":"present","response":"present","rt":687.00000000001,"correct":true,"confidence":-1},{"trial_n":16,"min":81,"max":174,"target":"absent","response":"absent","rt":440,"correct":true,"confidence":-1},{"trial_n":17,"min":89,"max":166,"target":"absent","response":"absent","rt":601,"correct":true,"confidence":-1},{"trial_n":18,"min":89,"max":166,"target":"present","response":"absent","rt":534,"correct":false,"confidence":-1},{"trial_n":19,"min":81,"max":174,"target":"present","response":"absent","rt":596,"correct":false,"confidence":-1},{"trial_n":20,"min":73,"max":182,"target":"absent","response":"absent","rt":600.00000000001,"correct":true,"confidence":-1},{"trial_n":21,"min":73,"max":182,"target":"present","response":"present","rt":460.99999999999,"correct":true,"confidence":4},{"trial_n":22,"min":77,"max":178,"target":"absent","response":"present","rt":1175,"correct":false,"confidence":4},{"trial_n":23,"min":73,"max":182,"target":"present","response":"present","rt":1987,"correct":true,"confidence":3},{"trial_n":24,"min":73,"max":182,"target":"present","response":"present","rt":1461,"correct":true,"confidence":4},{"trial_n":25,"min":77,"max":178,"target":"absent","response":"absent","rt":1393,"correct":true,"confidence":4},{"trial_n":26,"min":77,"max":178,"target":"present","response":"absent","rt":1735,"correct":false,"confidence":3},{"trial_n":27,"min":73,"max":182,"target":"absent","response":"present","rt":1436,"correct":false,"confidence":4},{"trial_n":28,"min":69,"max":186,"target":"present","response":"absent","rt":1539,"correct":false,"confidence":4},{"trial_n":29,"min":65,"max":190,"target":"present","response":"present","rt":1396,"correct":true,"confidence":4},{"trial_n":30,"min":65,"max":190,"target":"present","response":"present","rt":960,"correct":true,"confidence":4},{"trial_n":31,"min":67,"max":188,"target":"absent","response":"absent","rt":866,"correct":true,"confidence":4},{"trial_n":32,"min":67,"max":188,"target":"absent","response":"absent","rt":1179,"correct":true,"confidence":4},{"trial_n":33,"min":69,"max":186,"target":"absent","response":"absent","rt":1147,"correct":true,"confidence":4},{"trial_n":34,"min":69,"max":186,"target":"absent","response":"absent","rt":1304,"correct":true,"confidence":4},{"trial_n":35,"min":71,"max":184,"target":"absent","response":"absent","rt":703.00000000003,"correct":true,"confidence":4},{"trial_n":36,"min":71,"max":184,"target":"absent","response":"absent","rt":873,"correct":true,"confidence":4},{"trial_n":37,"min":73,"max":182,"target":"present","response":"present","rt":1245,"correct":true,"confidence":4},{"trial_n":38,"min":73,"max":182,"target":"present","response":"present","rt":1112,"correct":true,"confidence":4},{"trial_n":39,"min":75,"max":180,"target":"absent","response":"absent","rt":739,"correct":true,"confidence":4},{"trial_n":40,"min":75,"max":180,"target":"absent","response":"absent","rt":816,"correct":true,"confidence":4},{"trial_n":41,"min":76,"max":179,"target":"present","response":"present","rt":731,"correct":true,"confidence":4},{"trial_n":42,"min":76,"max":179,"target":"present","response":"present","rt":2535,"correct":true,"confidence":4},{"trial_n":43,"min":77,"max":178,"target":"absent","response":"absent","rt":749.00000000003,"correct":true,"confidence":1},{"trial_n":44,"min":77,"max":178,"target":"present","response":"present","rt":2426,"correct":true,"confidence":3},{"trial_n":45,"min":78,"max":177,"target":"absent","response":"absent","rt":1767,"correct":true,"confidence":4},{"trial_n":46,"min":78,"max":177,"target":"absent","response":"absent","rt":694,"correct":true,"confidence":4},{"trial_n":47,"min":79,"max":176,"target":"present","response":"present","rt":1262,"correct":true,"confidence":3},{"trial_n":48,"min":79,"max":176,"target":"present","response":"absent","rt":1314,"correct":false,"confidence":4},{"trial_n":49,"min":78,"max":177,"target":"present","response":"present","rt":1563,"correct":true,"confidence":3},{"trial_n":50,"min":78,"max":177,"target":"present","response":"present","rt":3354,"correct":true,"confidence":3},{"trial_n":51,"min":79,"max":176,"target":"present","response":"present","rt":915,"correct":true,"confidence":4},{"trial_n":52,"min":79,"max":176,"target":"absent","response":"absent","rt":775,"correct":true,"confidence":4},{"trial_n":53,"min":80,"max":175,"target":"present","response":"absent","rt":1001,"correct":false,"confidence":4},{"trial_n":54,"min":79,"max":176,"target":"present","response":"absent","rt":1402,"correct":false,"confidence":4},{"trial_n":55,"min":78,"max":177,"target":"present","response":"absent","rt":3311,"correct":false,"confidence":4},{"trial_n":56,"min":77,"max":178,"target":"absent","response":"absent","rt":867.00000000003,"correct":true,"confidence":4},{"trial_n":57,"min":77,"max":178,"target":"absent","response":"absent","rt":768,"correct":true,"confidence":4},{"trial_n":58,"min":78,"max":177,"target":"present","response":"present","rt":2624,"correct":true,"confidence":2},{"trial_n":59,"min":78,"max":177,"target":"absent","response":"absent","rt":801,"correct":true,"confidence":4},{"trial_n":60,"min":79,"max":176,"target":"absent","response":"absent","rt":779,"correct":true,"confidence":4},{"trial_n":61,"min":79,"max":176,"target":"present","response":"present","rt":1190,"correct":true,"confidence":4},{"trial_n":62,"min":80,"max":175,"target":"absent","response":"absent","rt":721,"correct":true,"confidence":4},{"trial_n":63,"min":80,"max":175,"target":"present","response":"absent","rt":932,"correct":false,"confidence":4},{"trial_n":64,"min":79,"max":176,"target":"absent","response":"absent","rt":770,"correct":true,"confidence":4},{"trial_n":65,"min":79,"max":176,"target":"absent","response":"absent","rt":1445,"correct":true,"confidence":4},{"trial_n":66,"min":80,"max":175,"target":"present","response":"present","rt":1774,"correct":true,"confidence":3},{"trial_n":67,"min":80,"max":175,"target":"absent","response":"absent","rt":743,"correct":true,"confidence":4},{"trial_n":68,"min":81,"max":174,"target":"present","response":"absent","rt":1216,"correct":false,"confidence":3},{"trial_n":69,"min":80,"max":175,"target":"present","response":"present","rt":1558.0000000001,"correct":true,"confidence":3},{"trial_n":70,"min":80,"max":175,"target":"present","response":"present","rt":1183,"correct":true,"confidence":3},{"trial_n":71,"min":41,"max":214,"target":"present","response":"present","rt":8537,"correct":true,"confidence":-1},{"trial_n":72,"min":41,"max":214,"target":"present","response":"present","rt":766,"correct":true,"confidence":-1},{"trial_n":73,"min":57,"max":198,"target":"absent","response":"absent","rt":1637,"correct":true,"confidence":-1},{"trial_n":74,"min":57,"max":198,"target":"absent","response":"present","rt":905,"correct":false,"confidence":-1},{"trial_n":75,"min":41,"max":214,"target":"present","response":"absent","rt":4324,"correct":false,"confidence":-1},{"trial_n":76,"min":25,"max":230,"target":"absent","response":"absent","rt":935,"correct":true,"confidence":-1},{"trial_n":77,"min":25,"max":230,"target":"present","response":"present","rt":826,"correct":true,"confidence":-1},{"trial_n":78,"min":41,"max":214,"target":"present","response":"present","rt":491,"correct":true,"confidence":-1},{"trial_n":79,"min":41,"max":214,"target":"absent","response":"absent","rt":766.00000000006,"correct":true,"confidence":-1},{"trial_n":80,"min":57,"max":198,"target":"present","response":"present","rt":634.99999999994,"correct":true,"confidence":-1},{"trial_n":81,"min":57,"max":198,"target":"present","response":"present","rt":477,"correct":true,"confidence":-1},{"trial_n":82,"min":65,"max":190,"target":"present","response":"present","rt":421,"correct":true,"confidence":-1},{"trial_n":83,"min":65,"max":190,"target":"present","response":"present","rt":532,"correct":true,"confidence":-1},{"trial_n":84,"min":73,"max":182,"target":"absent","response":"absent","rt":1234,"correct":true,"confidence":-1},{"trial_n":85,"min":73,"max":182,"target":"present","response":"present","rt":392,"correct":true,"confidence":-1},{"trial_n":86,"min":81,"max":174,"target":"present","response":"present","rt":1278.0000000001,"correct":true,"confidence":-1},{"trial_n":87,"min":81,"max":174,"target":"present","response":"present","rt":525.00000000006,"correct":true,"confidence":-1},{"trial_n":88,"min":89,"max":166,"target":"absent","response":"present","rt":3255.9999999999,"correct":false,"confidence":-1},{"trial_n":89,"min":81,"max":174,"target":"absent","response":"absent","rt":452,"correct":true,"confidence":-1},{"trial_n":90,"min":81,"max":174,"target":"present","response":"absent","rt":850,"correct":false,"confidence":-1},{"trial_n":91,"min":77,"max":178,"target":"present","response":"present","rt":480.00000000006,"correct":true,"confidence":4},{"trial_n":92,"min":77,"max":178,"target":"present","response":"present","rt":351,"correct":true,"confidence":4},{"trial_n":93,"min":81,"max":174,"target":"present","response":"present","rt":579,"correct":true,"confidence":4},{"trial_n":94,"min":81,"max":174,"target":"present","response":"present","rt":701,"correct":true,"confidence":4},{"trial_n":95,"min":85,"max":170,"target":"present","response":"present","rt":1417,"correct":true,"confidence":3},{"trial_n":96,"min":85,"max":170,"target":"present","response":"absent","rt":2553,"correct":false,"confidence":3},{"trial_n":97,"min":81,"max":174,"target":"absent","response":"absent","rt":1659,"correct":true,"confidence":3},{"trial_n":98,"min":81,"max":174,"target":"absent","response":"absent","rt":898,"correct":true,"confidence":3},{"trial_n":99,"min":85,"max":170,"target":"absent","response":"absent","rt":1941,"correct":true,"confidence":3},{"trial_n":100,"min":85,"max":170,"target":"absent","response":"absent","rt":1407.9999999999,"correct":true,"confidence":3},{"trial_n":101,"min":87,"max":168,"target":"absent","response":"present","rt":1184,"correct":false,"confidence":2},{"trial_n":102,"min":85,"max":170,"target":"absent","response":"present","rt":876,"correct":false,"confidence":2},{"trial_n":103,"min":83,"max":172,"target":"present","response":"present","rt":778,"correct":true,"confidence":4},{"trial_n":104,"min":83,"max":172,"target":"absent","response":"absent","rt":2145,"correct":true,"confidence":2},{"trial_n":105,"min":85,"max":170,"target":"absent","response":"absent","rt":942,"correct":true,"confidence":2},{"trial_n":106,"min":85,"max":170,"target":"absent","response":"absent","rt":873,"correct":true,"confidence":2},{"trial_n":107,"min":87,"max":168,"target":"absent","response":"absent","rt":1048,"correct":true,"confidence":2},{"trial_n":108,"min":87,"max":168,"target":"present","response":"present","rt":1150,"correct":true,"confidence":2},{"trial_n":109,"min":89,"max":166,"target":"absent","response":"absent","rt":1107,"correct":true,"confidence":2},{"trial_n":110,"min":89,"max":166,"target":"absent","response":"absent","rt":870,"correct":true,"confidence":2},{"trial_n":111,"min":90,"max":165,"target":"absent","response":"absent","rt":1310,"correct":true,"confidence":2},{"trial_n":112,"min":90,"max":165,"target":"present","response":"absent","rt":1476,"correct":false,"confidence":2},{"trial_n":113,"min":89,"max":166,"target":"absent","response":"present","rt":2120,"correct":false,"confidence":2},{"trial_n":114,"min":88,"max":167,"target":"absent","response":"absent","rt":1012,"correct":true,"confidence":2},{"trial_n":115,"min":88,"max":167,"target":"present","response":"present","rt":10068,"correct":true,"confidence":4},{"trial_n":116,"min":89,"max":166,"target":"present","response":"present","rt":2128.0000000001,"correct":true,"confidence":3},{"trial_n":117,"min":89,"max":166,"target":"absent","response":"absent","rt":973,"correct":true,"confidence":3},{"trial_n":118,"min":90,"max":165,"target":"present","response":"absent","rt":3603,"correct":false,"confidence":2},{"trial_n":119,"min":89,"max":166,"target":"present","response":"absent","rt":1037,"correct":false,"confidence":2},{"trial_n":120,"min":88,"max":167,"target":"present","response":"present","rt":763.99999999994,"correct":true,"confidence":2},{"trial_n":121,"min":88,"max":167,"target":"absent","response":"absent","rt":2225,"correct":true,"confidence":3},{"trial_n":122,"min":89,"max":166,"target":"present","response":"present","rt":998,"correct":true,"confidence":4},{"trial_n":123,"min":89,"max":166,"target":"present","response":"absent","rt":2274.9999999999,"correct":false,"confidence":2},{"trial_n":124,"min":88,"max":167,"target":"present","response":"present","rt":899,"correct":true,"confidence":2},{"trial_n":125,"min":88,"max":167,"target":"present","response":"absent","rt":1719,"correct":false,"confidence":2},{"trial_n":126,"min":87,"max":168,"target":"absent","response":"absent","rt":2115.9999999999,"correct":true,"confidence":2},{"trial_n":127,"min":87,"max":168,"target":"present","response":"present","rt":1848.0000000001,"correct":true,"confidence":1},{"trial_n":128,"min":88,"max":167,"target":"absent","response":"absent","rt":957,"correct":true,"confidence":2},{"trial_n":129,"min":88,"max":167,"target":"present","response":"absent","rt":1007.9999999999,"correct":false,"confidence":2},{"trial_n":130,"min":87,"max":168,"target":"present","response":"present","rt":616,"correct":true,"confidence":3},{"trial_n":131,"min":87,"max":168,"target":"present","response":"present","rt":659.99999999988,"correct":true,"confidence":4},{"trial_n":132,"min":88,"max":167,"target":"absent","response":"absent","rt":921,"correct":true,"confidence":3},{"trial_n":133,"min":88,"max":167,"target":"absent","response":"absent","rt":750.99999999988,"correct":true,"confidence":3},{"trial_n":134,"min":89,"max":166,"target":"absent","response":"absent","rt":1438,"correct":true,"confidence":1},{"trial_n":135,"min":89,"max":166,"target":"present","response":"present","rt":973,"correct":true,"confidence":3},{"trial_n":136,"min":90,"max":165,"target":"absent","response":"present","rt":725,"correct":false,"confidence":2},{"trial_n":137,"min":89,"max":166,"target":"absent","response":"absent","rt":856,"correct":true,"confidence":3},{"trial_n":138,"min":89,"max":166,"target":"absent","response":"absent","rt":1133,"correct":true,"confidence":3},{"trial_n":139,"min":90,"max":165,"target":"absent","response":"present","rt":893,"correct":false,"confidence":2},{"trial_n":140,"min":89,"max":166,"target":"absent","response":"absent","rt":1170.9999999999,"correct":true,"confidence":2}]