[{"trial_n":1,"span":8,"encoder":"75507771","distractor":"75507171","target":"present","response":"absent","rt":"49215","correct":false,"confidence":-1},{"trial_n":2,"span":6,"encoder":"185316","distractor":"185516","target":"present","response":"present","rt":"1798","correct":true,"confidence":-1},{"trial_n":3,"span":6,"encoder":"784835","distractor":"784135","target":"absent","response":"present","rt":"1384","correct":false,"confidence":-1},{"trial_n":4,"span":4,"encoder":"5583","distractor":"7583","target":"absent","response":"present","rt":"1591","correct":false,"confidence":-1},{"trial_n":5,"span":2,"encoder":"88","distractor":"81","target":"present","response":"present","rt":"1432","correct":true,"confidence":-1},{"trial_n":6,"span":2,"encoder":"31","distractor":"36","target":"present","response":"present","rt":"1131","correct":true,"confidence":-1},{"trial_n":7,"span":4,"encoder":"3104","distractor":"3504","target":"absent","response":"absent","rt":"1924","correct":true,"confidence":-1},{"trial_n":8,"span":4,"encoder":"7633","distractor":"7643","target":"absent","response":"present","rt":"1475","correct":false,"confidence":-1},{"trial_n":9,"span":2,"encoder":"67","distractor":"37","target":"absent","response":"absent","rt":"1849","correct":true,"confidence":-1},{"trial_n":10,"span":2,"encoder":"40","distractor":"41","target":"present","response":"present","rt":"1715","correct":true,"confidence":-1},{"trial_n":11,"span":4,"encoder":"8892","distractor":"7892","target":"present","response":"present","rt":"1140","correct":true,"confidence":-1},{"trial_n":12,"span":4,"encoder":"5114","distractor":"5117","target":"present","response":"present","rt":"1772","correct":true,"confidence":-1},{"trial_n":13,"span":5,"encoder":"01712","distractor":"02712","target":"absent","response":"absent","rt":"1898","correct":true,"confidence":-1},{"trial_n":14,"span":5,"encoder":"17392","distractor":"17692","target":"present","response":"present","rt":"2081","correct":true,"confidence":-1},{"trial_n":15,"span":6,"encoder":"632827","distractor":"635827","target":"present","response":"present","rt":"2405","correct":true,"confidence":-1},{"trial_n":16,"span":6,"encoder":"879904","distractor":"879004","target":"present","response":"present","rt":"1385","correct":true,"confidence":-1},{"trial_n":17,"span":7,"encoder":"5778254","distractor":"5728254","target":"absent","response":"present","rt":"4327","correct":false,"confidence":-1},{"trial_n":18,"span":6,"encoder":"767685","distractor":"767625","target":"absent","response":"absent","rt":"4138","correct":true,"confidence":-1},{"trial_n":19,"span":6,"encoder":"039761","distractor":"032761","target":"absent","response":"present","rt":"1785","correct":false,"confidence":-1},{"trial_n":20,"span":5,"encoder":"29454","distractor":"29754","target":"present","response":"absent","rt":"3466","correct":false,"confidence":-1},{"trial_n":21,"span":4,"encoder":"9646","distractor":"9666","target":"absent","response":"absent","rt":"1817.9999999999","correct":true,"confidence":5},{"trial_n":22,"span":4,"encoder":"2794","distractor":"2784","target":"present","response":"present","rt":"2979","correct":true,"confidence":5},{"trial_n":23,"span":5,"encoder":"88497","distractor":"85497","target":"absent","response":"absent","rt":"2781","correct":true,"confidence":5},{"trial_n":24,"span":5,"encoder":"53650","distractor":"58650","target":"absent","response":"absent","rt":"3298","correct":true,"confidence":5},{"trial_n":25,"span":6,"encoder":"546287","distractor":"546687","target":"absent","response":"absent","rt":"1989","correct":true,"confidence":5},{"trial_n":26,"span":6,"encoder":"830055","distractor":"830025","target":"absent","response":"absent","rt":"4039","correct":true,"confidence":3},{"trial_n":27,"span":7,"encoder":"5855870","distractor":"5855820","target":"present","response":"present","rt":"3176","correct":true,"confidence":3},{"trial_n":28,"span":7,"encoder":"4544753","distractor":"4544253","target":"present","response":"absent","rt":"5142.9999999999","correct":false,"confidence":3},{"trial_n":29,"span":6,"encoder":"101587","distractor":"106587","target":"absent","response":"absent","rt":"2954","correct":true,"confidence":3},{"trial_n":30,"span":6,"encoder":"306812","distractor":"206812","target":"present","response":"present","rt":"3774","correct":true,"confidence":3},{"trial_n":31,"span":7,"encoder":"5980362","distractor":"3980362","target":"absent","response":"absent","rt":"2867","correct":true,"confidence":4},{"trial_n":32,"span":7,"encoder":"0889894","distractor":"0859894","target":"absent","response":"absent","rt":"3975","correct":true,"confidence":3},{"trial_n":33,"span":8,"encoder":"67342390","distractor":"67342391","target":"absent","response":"present","rt":"2899","correct":false,"confidence":3},{"trial_n":34,"span":7,"encoder":"8905141","distractor":"0905141","target":"absent","response":"absent","rt":"2496","correct":true,"confidence":3},{"trial_n":35,"span":7,"encoder":"0055124","distractor":"0055144","target":"absent","response":"present","rt":"2700","correct":false,"confidence":3},{"trial_n":36,"span":6,"encoder":"116530","distractor":"116590","target":"present","response":"present","rt":"2276","correct":true,"confidence":4},{"trial_n":37,"span":6,"encoder":"386383","distractor":"986383","target":"present","response":"present","rt":"2023","correct":true,"confidence":4},{"trial_n":38,"span":7,"encoder":"6300377","distractor":"6300977","target":"present","response":"present","rt":"3114","correct":true,"confidence":4},{"trial_n":39,"span":7,"encoder":"8814915","distractor":"8834915","target":"present","response":"present","rt":"2460","correct":true,"confidence":3},{"trial_n":40,"span":8,"encoder":"54918121","distractor":"94918121","target":"present","response":"present","rt":"2984.9999999999","correct":true,"confidence":3},{"trial_n":41,"span":8,"encoder":"54723682","distractor":"94723682","target":"absent","response":"absent","rt":"2604","correct":true,"confidence":3},{"trial_n":42,"span":9,"encoder":"574224269","distractor":"574224229","target":"present","response":"present","rt":"2175.0000000001","correct":true,"confidence":4},{"trial_n":43,"span":9,"encoder":"330011261","distractor":"334011261","target":"present","response":"absent","rt":"2259","correct":false,"confidence":3},{"trial_n":44,"span":8,"encoder":"46138076","distractor":"46138776","target":"absent","response":"absent","rt":"3088","correct":true,"confidence":3},{"trial_n":45,"span":8,"encoder":"88713810","distractor":"88783810","target":"absent","response":"absent","rt":"4320.9999999999","correct":true,"confidence":4},{"trial_n":46,"span":9,"encoder":"598577532","distractor":"598577538","target":"absent","response":"absent","rt":"2875","correct":true,"confidence":5},{"trial_n":47,"span":9,"encoder":"937972783","distractor":"137972783","target":"present","response":"present","rt":"3790","correct":true,"confidence":4},{"trial_n":48,"span":10,"encoder":"1387750819","distractor":"1387750219","target":"absent","response":"present","rt":"12318","correct":false,"confidence":3},{"trial_n":49,"span":9,"encoder":"159365799","distractor":"159865799","target":"absent","response":"absent","rt":"2798","correct":true,"confidence":4},{"trial_n":50,"span":9,"encoder":"039542960","distractor":"039542980","target":"absent","response":"absent","rt":"3446.0000000001","correct":true,"confidence":2},{"trial_n":51,"span":10,"encoder":"3593233726","distractor":"3590233726","target":"present","response":"present","rt":"3038","correct":true,"confidence":4},{"trial_n":52,"span":10,"encoder":"2466044923","distractor":"2464044923","target":"absent","response":"absent","rt":"4648","correct":true,"confidence":3},{"trial_n":53,"span":11,"encoder":"65888397308","distractor":"61888397308","target":"absent","response":"absent","rt":"2454","correct":true,"confidence":4},{"trial_n":54,"span":11,"encoder":"56257798671","distractor":"56257798071","target":"absent","response":"present","rt":"3821","correct":false,"confidence":3},{"trial_n":55,"span":10,"encoder":"0323721384","distractor":"0623721384","target":"present","response":"present","rt":"3469","correct":true,"confidence":3},{"trial_n":56,"span":10,"encoder":"8501455459","distractor":"8504455459","target":"present","response":"present","rt":"2753","correct":true,"confidence":4},{"trial_n":57,"span":11,"encoder":"23379099367","distractor":"23379099387","target":"present","response":"present","rt":"2423","correct":true,"confidence":3},{"trial_n":58,"span":11,"encoder":"20846465311","distractor":"21846465311","target":"absent","response":"absent","rt":"3157","correct":true,"confidence":4},{"trial_n":59,"span":12,"encoder":"775791614983","distractor":"875791614983","target":"present","response":"present","rt":"2428","correct":true,"confidence":3},{"trial_n":60,"span":12,"encoder":"972360119789","distractor":"972366119789","target":"present","response":"present","rt":"2596.9999999999","correct":true,"confidence":4},{"trial_n":61,"span":13,"encoder":"6322493039815","distractor":"6322493239815","target":"present","response":"present","rt":"3365","correct":true,"confidence":4},{"trial_n":62,"span":13,"encoder":"6034709120572","distractor":"6034709220572","target":"present","response":"present","rt":"5188","correct":true,"confidence":4},{"trial_n":63,"span":14,"encoder":"61457487790321","distractor":"61457487790361","target":"present","response":"absent","rt":"3157.9999999999","correct":false,"confidence":4},{"trial_n":64,"span":13,"encoder":"9774990117036","distractor":"9754990117036","target":"present","response":"present","rt":"3469","correct":true,"confidence":3},{"trial_n":65,"span":13,"encoder":"1932684342506","distractor":"1932684742506","target":"present","response":"present","rt":"2752.9999999999","correct":true,"confidence":3},{"trial_n":66,"span":14,"encoder":"67642672882801","distractor":"67642672882861","target":"present","response":"present","rt":"2855","correct":true,"confidence":4},{"trial_n":67,"span":14,"encoder":"54959455204994","distractor":"54959455404994","target":"present","response":"present","rt":"4755.9999999999","correct":true,"confidence":3},{"trial_n":68,"span":15,"encoder":"682845157037593","distractor":"682845157007593","target":"absent","response":"present","rt":"4216","correct":false,"confidence":4},{"trial_n":69,"span":14,"encoder":"16603291302841","distractor":"26603291302841","target":"absent","response":"present","rt":"2251","correct":false,"confidence":4},{"trial_n":70,"span":13,"encoder":"6193268220682","distractor":"8193268220682","target":"absent","response":"absent","rt":"4239","correct":true,"confidence":3},{"trial_n":71,"span":8,"encoder":"87338334","distractor":"87331334","target":"present","response":"present","rt":"3230","correct":true,"confidence":-1},{"trial_n":72,"span":8,"encoder":"67346093","distractor":"60346093","target":"present","response":"present","rt":"2835.0000000001","correct":true,"confidence":-1},{"trial_n":73,"span":9,"encoder":"493506961","distractor":"493536961","target":"absent","response":"absent","rt":"3436","correct":true,"confidence":-1},{"trial_n":74,"span":9,"encoder":"349633350","distractor":"349603350","target":"absent","response":"present","rt":"3306","correct":false,"confidence":-1},{"trial_n":75,"span":8,"encoder":"86500199","distractor":"86500179","target":"present","response":"present","rt":"2054","correct":true,"confidence":-1},{"trial_n":76,"span":8,"encoder":"78496500","distractor":"78496700","target":"absent","response":"absent","rt":"2471","correct":true,"confidence":-1},{"trial_n":77,"span":9,"encoder":"421818981","distractor":"421818983","target":"absent","response":"absent","rt":"3695.0000000001","correct":true,"confidence":-1},{"trial_n":78,"span":9,"encoder":"613314077","distractor":"613914077","target":"absent","response":"absent","rt":"2410","correct":true,"confidence":-1},{"trial_n":79,"span":10,"encoder":"6778607594","distractor":"6778607584","target":"present","response":"absent","rt":"3944","correct":false,"confidence":-1},{"trial_n":80,"span":9,"encoder":"780760828","distractor":"788760828","target":"present","response":"absent","rt":"3040.9999999999","correct":false,"confidence":-1},{"trial_n":81,"span":8,"encoder":"57494524","distractor":"57424524","target":"present","response":"present","rt":"27953","correct":true,"confidence":-1},{"trial_n":82,"span":8,"encoder":"86214077","distractor":"86514077","target":"present","response":"present","rt":"2617","correct":true,"confidence":-1},{"trial_n":83,"span":9,"encoder":"907574379","distractor":"901574379","target":"absent","response":"absent","rt":"6377","correct":true,"confidence":-1},{"trial_n":84,"span":9,"encoder":"766619142","distractor":"766610142","target":"present","response":"present","rt":"4181","correct":true,"confidence":-1},{"trial_n":85,"span":10,"encoder":"2906705456","distractor":"2901705456","target":"present","response":"present","rt":"7938","correct":true,"confidence":-1},{"trial_n":86,"span":10,"encoder":"1774509265","distractor":"1754509265","target":"present","response":"present","rt":"3085","correct":true,"confidence":-1},{"trial_n":87,"span":11,"encoder":"80186613566","distractor":"80186913566","target":"absent","response":"absent","rt":"5649","correct":true,"confidence":-1},{"trial_n":88,"span":11,"encoder":"59167213251","distractor":"59867213251","target":"present","response":"present","rt":"2597","correct":true,"confidence":-1},{"trial_n":89,"span":12,"encoder":"735611698859","distractor":"735611698855","target":"present","response":"present","rt":"2244","correct":true,"confidence":-1},{"trial_n":90,"span":12,"encoder":"413763211814","distractor":"413733211814","target":"present","response":"absent","rt":"3546","correct":false,"confidence":-1},{"trial_n":91,"span":11,"encoder":"13096737176","distractor":"13096735176","target":"present","response":"present","rt":"4577","correct":true,"confidence":3},{"trial_n":92,"span":11,"encoder":"80674220760","distractor":"80674210760","target":"absent","response":"present","rt":"3522","correct":false,"confidence":1},{"trial_n":93,"span":10,"encoder":"9735919949","distractor":"9775919949","target":"absent","response":"present","rt":"2046.9999999998","correct":false,"confidence":4},{"trial_n":94,"span":9,"encoder":"883196260","distractor":"683196260","target":"present","response":"present","rt":"2665","correct":true,"confidence":5},{"trial_n":95,"span":9,"encoder":"085875465","distractor":"085875565","target":"absent","response":"absent","rt":"3443","correct":true,"confidence":4},{"trial_n":96,"span":10,"encoder":"0191705252","distractor":"0191709252","target":"present","response":"present","rt":"4105","correct":true,"confidence":2},{"trial_n":97,"span":10,"encoder":"7194884765","distractor":"7194884768","target":"absent","response":"present","rt":"7418","correct":false,"confidence":3},{"trial_n":98,"span":9,"encoder":"703842835","distractor":"703142835","target":"present","response":"present","rt":"1649","correct":true,"confidence":1},{"trial_n":99,"span":9,"encoder":"760936410","distractor":"760934410","target":"absent","response":"absent","rt":"1830","correct":true,"confidence":1},{"trial_n":100,"span":10,"encoder":"8050073023","distractor":"8650073023","target":"present","response":"present","rt":"3139","correct":true,"confidence":1},{"trial_n":101,"span":10,"encoder":"4103432308","distractor":"4103452308","target":"present","response":"present","rt":"3175","correct":true,"confidence":3},{"trial_n":102,"span":11,"encoder":"71757661344","distractor":"71757661144","target":"absent","response":"present","rt":"4445","correct":false,"confidence":1},{"trial_n":103,"span":10,"encoder":"8236026093","distractor":"8236326093","target":"present","response":"present","rt":"2101","correct":true,"confidence":1},{"trial_n":104,"span":10,"encoder":"3503627936","distractor":"3503627939","target":"present","response":"absent","rt":"3290","correct":false,"confidence":1},{"trial_n":105,"span":9,"encoder":"876597938","distractor":"976597938","target":"absent","response":"present","rt":"13855","correct":false,"confidence":1},{"trial_n":106,"span":8,"encoder":"15203030","distractor":"15203090","target":"absent","response":"present","rt":"3629.0000000002","correct":false,"confidence":1},{"trial_n":107,"span":7,"encoder":"2362695","distractor":"7362695","target":"absent","response":"absent","rt":"3424","correct":true,"confidence":5},{"trial_n":108,"span":7,"encoder":"1372764","distractor":"1342764","target":"absent","response":"absent","rt":"2991.0000000002","correct":true,"confidence":4},{"trial_n":109,"span":8,"encoder":"07030538","distractor":"07033538","target":"present","response":"present","rt":"2777.9999999998","correct":true,"confidence":3},{"trial_n":110,"span":8,"encoder":"69970950","distractor":"61970950","target":"absent","response":"present","rt":"4001","correct":false,"confidence":3},{"trial_n":111,"span":7,"encoder":"9299113","distractor":"9209113","target":"present","response":"present","rt":"3391","correct":true,"confidence":2},{"trial_n":112,"span":7,"encoder":"1955456","distractor":"1955446","target":"present","response":"present","rt":"3408","correct":true,"confidence":1},{"trial_n":113,"span":8,"encoder":"35851863","distractor":"35851860","target":"present","response":"present","rt":"18719","correct":true,"confidence":1},{"trial_n":114,"span":8,"encoder":"72482733","distractor":"32482733","target":"absent","response":"absent","rt":"2218.0000000002","correct":true,"confidence":5},{"trial_n":115,"span":9,"encoder":"596089215","distractor":"596099215","target":"absent","response":"absent","rt":"2440.0000000002","correct":true,"confidence":3},{"trial_n":116,"span":9,"encoder":"096787072","distractor":"096987072","target":"absent","response":"present","rt":"3974","correct":false,"confidence":1},{"trial_n":117,"span":8,"encoder":"67731522","distractor":"67701522","target":"absent","response":"present","rt":"8587","correct":false,"confidence":3},{"trial_n":118,"span":7,"encoder":"5531297","distractor":"1531297","target":"absent","response":"present","rt":"1496","correct":false,"confidence":1},{"trial_n":119,"span":6,"encoder":"723799","distractor":"723999","target":"present","response":"absent","rt":"1896","correct":false,"confidence":1},{"trial_n":120,"span":5,"encoder":"56378","distractor":"56578","target":"present","response":"absent","rt":"5619","correct":false,"confidence":3},{"trial_n":121,"span":4,"encoder":"7958","distractor":"7956","target":"absent","response":"absent","rt":"1881","correct":true,"confidence":3},{"trial_n":122,"span":4,"encoder":"1059","distractor":"1759","target":"absent","response":"absent","rt":"2328","correct":true,"confidence":5},{"trial_n":123,"span":5,"encoder":"03701","distractor":"07701","target":"absent","response":"absent","rt":"2657","correct":true,"confidence":5},{"trial_n":124,"span":5,"encoder":"32786","distractor":"02786","target":"absent","response":"absent","rt":"1857","correct":true,"confidence":5},{"trial_n":125,"span":6,"encoder":"462170","distractor":"262170","target":"present","response":"present","rt":"7294","correct":true,"confidence":5},{"trial_n":126,"span":6,"encoder":"424676","distractor":"404676","target":"absent","response":"absent","rt":"2077","correct":true,"confidence":5},{"trial_n":127,"span":7,"encoder":"2939319","distractor":"2139319","target":"absent","response":"absent","rt":"6433","correct":true,"confidence":5},{"trial_n":128,"span":7,"encoder":"7091506","distractor":"7791506","target":"absent","response":"absent","rt":"1751","correct":true,"confidence":3},{"trial_n":129,"span":8,"encoder":"76095209","distractor":"77095209","target":"present","response":"present","rt":"2005","correct":true,"confidence":3},{"trial_n":130,"span":8,"encoder":"31255866","distractor":"31251866","target":"absent","response":"absent","rt":"2074","correct":true,"confidence":5},{"trial_n":131,"span":9,"encoder":"804675820","distractor":"804671820","target":"present","response":"absent","rt":"3239","correct":false,"confidence":1},{"trial_n":132,"span":8,"encoder":"24988007","distractor":"24988087","target":"absent","response":"absent","rt":"4027","correct":true,"confidence":4},{"trial_n":133,"span":8,"encoder":"05892136","distractor":"65892136","target":"present","response":"present","rt":"2930","correct":true,"confidence":5},{"trial_n":134,"span":9,"encoder":"115372988","distractor":"115772988","target":"absent","response":"present","rt":"3352.0000000002","correct":false,"confidence":4},{"trial_n":135,"span":8,"encoder":"46581750","distractor":"46581720","target":"absent","response":"present","rt":"2625","correct":false,"confidence":1},{"trial_n":136,"span":7,"encoder":"1827585","distractor":"1027585","target":"present","response":"present","rt":"2607.0000000002","correct":true,"confidence":3},{"trial_n":137,"span":7,"encoder":"5432143","distractor":"5132143","target":"present","response":"present","rt":"2444","correct":true,"confidence":1},{"trial_n":138,"span":8,"encoder":"41223248","distractor":"41220248","target":"present","response":"present","rt":"2798","correct":true,"confidence":4},{"trial_n":139,"span":8,"encoder":"33491828","distractor":"33991828","target":"present","response":"present","rt":"2313","correct":true,"confidence":3},{"trial_n":140,"span":9,"encoder":"829134127","distractor":"829154127","target":"present","response":"present","rt":"2498.9999999998","correct":true,"confidence":3}]