[{"trial_n":1,"span":8,"encoder":"70154448","distractor":"70154444","target":"present","response":"present","rt":"5444.5999999046","correct":true,"confidence":-1},{"trial_n":2,"span":8,"encoder":"52484644","distractor":"52084644","target":"present","response":"present","rt":"4409.8000001907","correct":true,"confidence":-1},{"trial_n":3,"span":10,"encoder":"5004771339","distractor":"3004771339","target":"absent","response":"present","rt":"4800","correct":false,"confidence":-1},{"trial_n":4,"span":8,"encoder":"49250560","distractor":"49200560","target":"absent","response":"absent","rt":"3307.2999997139","correct":true,"confidence":-1},{"trial_n":5,"span":8,"encoder":"71155789","distractor":"71755789","target":"present","response":"present","rt":"1552.9000000954","correct":true,"confidence":-1},{"trial_n":6,"span":10,"encoder":"9278437548","distractor":"9278477548","target":"absent","response":"absent","rt":"2316.3000001907","correct":true,"confidence":-1},{"trial_n":7,"span":10,"encoder":"5241478299","distractor":"5291478299","target":"present","response":"present","rt":"3283.4000000954","correct":true,"confidence":-1},{"trial_n":8,"span":12,"encoder":"340618397224","distractor":"340218397224","target":"present","response":"present","rt":"4684.8000001907","correct":true,"confidence":-1},{"trial_n":9,"span":12,"encoder":"794468540056","distractor":"794468540051","target":"absent","response":"absent","rt":"3099.2000002861","correct":true,"confidence":-1},{"trial_n":10,"span":14,"encoder":"85349422886508","distractor":"85348422886508","target":"absent","response":"absent","rt":"5531.8000001907","correct":true,"confidence":-1},{"trial_n":11,"span":14,"encoder":"31664157544340","distractor":"34664157544340","target":"absent","response":"absent","rt":"3042.8000001907","correct":true,"confidence":-1},{"trial_n":12,"span":15,"encoder":"656382193411407","distractor":"656382393411407","target":"present","response":"present","rt":"4517.4000000954","correct":true,"confidence":-1},{"trial_n":13,"span":15,"encoder":"113876984395393","distractor":"113876984395392","target":"present","response":"present","rt":"3778.2000002861","correct":true,"confidence":-1},{"trial_n":14,"span":16,"encoder":"1901568815513165","distractor":"1941568815513165","target":"present","response":"present","rt":"2520.6999998093","correct":true,"confidence":-1},{"trial_n":15,"span":16,"encoder":"6568979075054482","distractor":"6568979025054482","target":"present","response":"absent","rt":"9400.8000001907","correct":false,"confidence":-1},{"trial_n":16,"span":15,"encoder":"506939073860797","distractor":"506935073860797","target":"absent","response":"present","rt":"3944.4000000954","correct":false,"confidence":-1},{"trial_n":17,"span":14,"encoder":"48082479561790","distractor":"47082479561790","target":"absent","response":"present","rt":"3022.1999998093","correct":false,"confidence":-1},{"trial_n":18,"span":13,"encoder":"0825540578129","distractor":"0825540578124","target":"present","response":"present","rt":"4011.9000000954","correct":true,"confidence":-1},{"trial_n":19,"span":13,"encoder":"1298275135600","distractor":"1298275135700","target":"absent","response":"present","rt":"3315","correct":false,"confidence":-1},{"trial_n":20,"span":12,"encoder":"915751447545","distractor":"915751447565","target":"absent","response":"absent","rt":"1241.5999999046","correct":true,"confidence":-1},{"trial_n":21,"span":12,"encoder":"623498725529","distractor":"653498725529","target":"absent","response":"present","rt":"1815.9000000954","correct":false,"confidence":4},{"trial_n":22,"span":11,"encoder":"17482329676","distractor":"17282329676","target":"absent","response":"absent","rt":"4271.8000001907","correct":true,"confidence":3},{"trial_n":23,"span":11,"encoder":"32236953721","distractor":"42236953721","target":"present","response":"present","rt":"2661.7000002861","correct":true,"confidence":4},{"trial_n":24,"span":12,"encoder":"427276583364","distractor":"417276583364","target":"absent","response":"present","rt":"5138.4000000954","correct":false,"confidence":5},{"trial_n":25,"span":11,"encoder":"34984849146","distractor":"36984849146","target":"present","response":"present","rt":"6293.4000000954","correct":true,"confidence":3},{"trial_n":26,"span":11,"encoder":"38154083259","distractor":"38154083299","target":"absent","response":"absent","rt":"2143.7999997139","correct":true,"confidence":5},{"trial_n":27,"span":12,"encoder":"432172662593","distractor":"432172632593","target":"present","response":"absent","rt":"3531","correct":false,"confidence":3},{"trial_n":28,"span":11,"encoder":"61283650667","distractor":"61283650567","target":"present","response":"present","rt":"2687.6000003815","correct":true,"confidence":4},{"trial_n":29,"span":11,"encoder":"81846526424","distractor":"81846526434","target":"present","response":"present","rt":"11202.799999714","correct":true,"confidence":2},{"trial_n":30,"span":12,"encoder":"701777789541","distractor":"701777709541","target":"present","response":"present","rt":"1919.3000001907","correct":true,"confidence":4},{"trial_n":31,"span":12,"encoder":"224273498258","distractor":"224273298258","target":"absent","response":"absent","rt":"2658.1999998093","correct":true,"confidence":4},{"trial_n":32,"span":13,"encoder":"9227932770813","distractor":"9227332770813","target":"absent","response":"present","rt":"2418.6000003815","correct":false,"confidence":2},{"trial_n":33,"span":12,"encoder":"884736752245","distractor":"884736252245","target":"present","response":"present","rt":"3351.7999997139","correct":true,"confidence":5},{"trial_n":34,"span":12,"encoder":"211686325135","distractor":"211686325115","target":"present","response":"absent","rt":"6207.7999997139","correct":false,"confidence":3},{"trial_n":35,"span":11,"encoder":"26751092852","distractor":"26751492852","target":"present","response":"present","rt":"13868.5","correct":true,"confidence":4},{"trial_n":36,"span":11,"encoder":"13631623454","distractor":"23631623454","target":"absent","response":"present","rt":"4760.5","correct":false,"confidence":4},{"trial_n":37,"span":10,"encoder":"7134961639","distractor":"7134961659","target":"present","response":"present","rt":"5078","correct":true,"confidence":5},{"trial_n":38,"span":10,"encoder":"6422704928","distractor":"6462704928","target":"absent","response":"present","rt":"57275.199999809","correct":false,"confidence":2},{"trial_n":39,"span":9,"encoder":"975287968","distractor":"975287988","target":"present","response":"present","rt":"3690.3000001907","correct":true,"confidence":4},{"trial_n":40,"span":9,"encoder":"958835262","distractor":"938835262","target":"present","response":"absent","rt":"6432.3000001907","correct":false,"confidence":4},{"trial_n":41,"span":8,"encoder":"00813781","distractor":"08813781","target":"present","response":"present","rt":"3720.5","correct":true,"confidence":4},{"trial_n":42,"span":8,"encoder":"49028370","distractor":"49028380","target":"absent","response":"absent","rt":"4322.8000001907","correct":true,"confidence":3},{"trial_n":43,"span":9,"encoder":"237580137","distractor":"237580187","target":"present","response":"absent","rt":"2504.1999998093","correct":false,"confidence":4},{"trial_n":44,"span":8,"encoder":"09357545","distractor":"09357445","target":"absent","response":"absent","rt":"1834.1999998093","correct":true,"confidence":5},{"trial_n":45,"span":8,"encoder":"92068705","distractor":"92768705","target":"present","response":"absent","rt":"2952.2999997139","correct":false,"confidence":4},{"trial_n":46,"span":7,"encoder":"9003641","distractor":"9009641","target":"absent","response":"absent","rt":"4204.6000003815","correct":true,"confidence":3},{"trial_n":47,"span":7,"encoder":"0867027","distractor":"0867827","target":"absent","response":"absent","rt":"8192.5","correct":true,"confidence":3},{"trial_n":48,"span":8,"encoder":"56466035","distractor":"86466035","target":"absent","response":"present","rt":"3043.5","correct":false,"confidence":4},{"trial_n":49,"span":7,"encoder":"1498079","distractor":"1498979","target":"absent","response":"absent","rt":"1988.7000002861","correct":true,"confidence":5},{"trial_n":50,"span":7,"encoder":"2423542","distractor":"1423542","target":"absent","response":"absent","rt":"3105.9000000954","correct":true,"confidence":3},{"trial_n":51,"span":8,"encoder":"09525336","distractor":"09525331","target":"present","response":"present","rt":"3975.9000000954","correct":true,"confidence":4},{"trial_n":52,"span":8,"encoder":"07936948","distractor":"07336948","target":"absent","response":"absent","rt":"2150.2999997139","correct":true,"confidence":5},{"trial_n":53,"span":9,"encoder":"117576788","distractor":"117576708","target":"present","response":"present","rt":"32743.400000095","correct":true,"confidence":3},{"trial_n":54,"span":9,"encoder":"236443585","distractor":"234443585","target":"present","response":"present","rt":"3663.5999999046","correct":true,"confidence":4},{"trial_n":55,"span":10,"encoder":"7849657804","distractor":"7949657804","target":"present","response":"absent","rt":"5655.4000000954","correct":false,"confidence":3},{"trial_n":56,"span":9,"encoder":"643375860","distractor":"943375860","target":"present","response":"present","rt":"2706.4000000954","correct":true,"confidence":3},{"trial_n":57,"span":9,"encoder":"064181843","distractor":"074181843","target":"present","response":"present","rt":"2204.3000001907","correct":true,"confidence":4},{"trial_n":58,"span":10,"encoder":"1991553781","distractor":"1991053781","target":"absent","response":"absent","rt":"2804.6999998093","correct":true,"confidence":5},{"trial_n":59,"span":10,"encoder":"6664221720","distractor":"6664226720","target":"absent","response":"present","rt":"2587.3999996185","correct":false,"confidence":5},{"trial_n":60,"span":9,"encoder":"721907120","distractor":"721307120","target":"absent","response":"present","rt":"2387.3000001907","correct":false,"confidence":4},{"trial_n":61,"span":8,"encoder":"73897528","distractor":"73897508","target":"present","response":"present","rt":"2526","correct":true,"confidence":4},{"trial_n":62,"span":8,"encoder":"36207664","distractor":"36207654","target":"present","response":"present","rt":"4058.9000000954","correct":true,"confidence":5},{"trial_n":63,"span":9,"encoder":"735880211","distractor":"736880211","target":"present","response":"present","rt":"3407.4000000954","correct":true,"confidence":3},{"trial_n":64,"span":9,"encoder":"675302766","distractor":"675302066","target":"absent","response":"absent","rt":"45538.400000095","correct":true,"confidence":2},{"trial_n":65,"span":10,"encoder":"2791319520","distractor":"2791319527","target":"absent","response":"absent","rt":"4308","correct":true,"confidence":5},{"trial_n":66,"span":10,"encoder":"1819291686","distractor":"1819294686","target":"absent","response":"present","rt":"2775.5999999046","correct":false,"confidence":1},{"trial_n":67,"span":9,"encoder":"356198793","distractor":"356598793","target":"present","response":"present","rt":"3708.4000000954","correct":true,"confidence":4},{"trial_n":68,"span":9,"encoder":"328041147","distractor":"328041140","target":"absent","response":"absent","rt":"1549.1000003815","correct":true,"confidence":5},{"trial_n":69,"span":10,"encoder":"5910400127","distractor":"5910500127","target":"absent","response":"absent","rt":"5294.9000000954","correct":true,"confidence":5},{"trial_n":70,"span":10,"encoder":"9751003279","distractor":"9151003279","target":"present","response":"present","rt":"3543.5","correct":true,"confidence":3},{"trial_n":71,"span":8,"encoder":"27832014","distractor":"27832054","target":"present","response":"present","rt":"5526.1999998093","correct":true,"confidence":-1},{"trial_n":72,"span":8,"encoder":"66204748","distractor":"66200748","target":"present","response":"present","rt":"3721.5999999046","correct":true,"confidence":-1},{"trial_n":73,"span":9,"encoder":"047865915","distractor":"037865915","target":"absent","response":"absent","rt":"3406.3999996185","correct":true,"confidence":-1},{"trial_n":74,"span":9,"encoder":"724606111","distractor":"724606191","target":"absent","response":"absent","rt":"2144.0999999046","correct":true,"confidence":-1},{"trial_n":75,"span":10,"encoder":"6136164914","distractor":"2136164914","target":"present","response":"present","rt":"2119","correct":true,"confidence":-1},{"trial_n":76,"span":10,"encoder":"3276193689","distractor":"3273193689","target":"absent","response":"absent","rt":"6983","correct":true,"confidence":-1},{"trial_n":77,"span":11,"encoder":"76386435136","distractor":"76386425136","target":"absent","response":"absent","rt":"5404.9000000954","correct":true,"confidence":-1},{"trial_n":78,"span":11,"encoder":"96262891698","distractor":"96262891998","target":"absent","response":"absent","rt":"5829.8000001907","correct":true,"confidence":-1},{"trial_n":79,"span":12,"encoder":"337797902752","distractor":"337797901752","target":"absent","response":"present","rt":"4478.4000000954","correct":false,"confidence":-1},{"trial_n":80,"span":11,"encoder":"04615049626","distractor":"04615049226","target":"present","response":"present","rt":"3417.6999998093","correct":true,"confidence":-1},{"trial_n":81,"span":11,"encoder":"20652536774","distractor":"20652836774","target":"absent","response":"present","rt":"5061.5","correct":false,"confidence":-1},{"trial_n":82,"span":10,"encoder":"0598753104","distractor":"0595753104","target":"absent","response":"absent","rt":"6117.9000000954","correct":true,"confidence":-1},{"trial_n":83,"span":10,"encoder":"1652155326","distractor":"1652355326","target":"present","response":"absent","rt":"7756","correct":false,"confidence":-1},{"trial_n":84,"span":9,"encoder":"177949701","distractor":"277949701","target":"present","response":"present","rt":"1728.9000000954","correct":true,"confidence":-1},{"trial_n":85,"span":9,"encoder":"710251972","distractor":"710251962","target":"present","response":"present","rt":"3478","correct":true,"confidence":-1},{"trial_n":86,"span":10,"encoder":"4218185367","distractor":"4218186367","target":"present","response":"absent","rt":"3933.0999999046","correct":false,"confidence":-1},{"trial_n":87,"span":9,"encoder":"117888114","distractor":"117788114","target":"present","response":"absent","rt":"5732","correct":false,"confidence":-1},{"trial_n":88,"span":8,"encoder":"15363281","distractor":"15363261","target":"present","response":"absent","rt":"581039.4000001","correct":false,"confidence":-1},{"trial_n":89,"span":7,"encoder":"5049110","distractor":"5046110","target":"present","response":"present","rt":"2974.5999999046","correct":true,"confidence":-1},{"trial_n":90,"span":7,"encoder":"6972586","distractor":"8972586","target":"present","response":"present","rt":"2968.6999998093","correct":true,"confidence":-1},{"trial_n":91,"span":8,"encoder":"83028884","distractor":"81028884","target":"present","response":"absent","rt":"3855.5","correct":false,"confidence":4},{"trial_n":92,"span":7,"encoder":"4603729","distractor":"4608729","target":"present","response":"absent","rt":"3944.3000001907","correct":false,"confidence":4},{"trial_n":93,"span":6,"encoder":"808177","distractor":"908177","target":"present","response":"present","rt":"4037.0999999046","correct":true,"confidence":5},{"trial_n":94,"span":6,"encoder":"457664","distractor":"447664","target":"absent","response":"absent","rt":"2629.0999999046","correct":true,"confidence":5},{"trial_n":95,"span":7,"encoder":"4249397","distractor":"4249347","target":"absent","response":"absent","rt":"3491.8999996185","correct":true,"confidence":5},{"trial_n":96,"span":7,"encoder":"5564629","distractor":"5864629","target":"absent","response":"absent","rt":"2514.3000001907","correct":true,"confidence":3},{"trial_n":97,"span":8,"encoder":"63486547","distractor":"63486544","target":"absent","response":"absent","rt":"3125.3999996185","correct":true,"confidence":5},{"trial_n":98,"span":8,"encoder":"70379871","distractor":"70375871","target":"present","response":"present","rt":"5096.4000000954","correct":true,"confidence":5},{"trial_n":99,"span":9,"encoder":"330291983","distractor":"330291993","target":"absent","response":"absent","rt":"5391.0999999046","correct":true,"confidence":4},{"trial_n":100,"span":9,"encoder":"311446149","distractor":"314446149","target":"present","response":"present","rt":"3002.2999997139","correct":true,"confidence":5},{"trial_n":101,"span":10,"encoder":"4511764881","distractor":"6511764881","target":"absent","response":"absent","rt":"5749.8999996185","correct":true,"confidence":3},{"trial_n":102,"span":10,"encoder":"4074256619","distractor":"4874256619","target":"absent","response":"absent","rt":"6410.7000002861","correct":true,"confidence":4},{"trial_n":103,"span":11,"encoder":"19568319008","distractor":"19568314008","target":"present","response":"absent","rt":"6485.9000000954","correct":false,"confidence":2},{"trial_n":104,"span":10,"encoder":"9254980074","distractor":"9254980044","target":"absent","response":"absent","rt":"2704.7000002861","correct":true,"confidence":5},{"trial_n":105,"span":10,"encoder":"5560447188","distractor":"5540447188","target":"present","response":"present","rt":"7487.2999997139","correct":true,"confidence":2},{"trial_n":106,"span":11,"encoder":"99361752318","distractor":"99361752518","target":"absent","response":"absent","rt":"4568.6999998093","correct":true,"confidence":3},{"trial_n":107,"span":11,"encoder":"93990409624","distractor":"93990406624","target":"present","response":"present","rt":"3942.5","correct":true,"confidence":4},{"trial_n":108,"span":12,"encoder":"149717302706","distractor":"149117302706","target":"absent","response":"absent","rt":"5226.5999999046","correct":true,"confidence":4},{"trial_n":109,"span":12,"encoder":"015887075226","distractor":"015877075226","target":"present","response":"absent","rt":"6257.6999998093","correct":false,"confidence":3},{"trial_n":110,"span":11,"encoder":"59429025036","distractor":"59329025036","target":"present","response":"present","rt":"5771.8999996185","correct":true,"confidence":4},{"trial_n":111,"span":11,"encoder":"79060993164","distractor":"78060993164","target":"absent","response":"present","rt":"5914.4000000954","correct":false,"confidence":2},{"trial_n":112,"span":10,"encoder":"4669054348","distractor":"4668054348","target":"absent","response":"absent","rt":"7190.7999997139","correct":true,"confidence":4},{"trial_n":113,"span":10,"encoder":"0006332918","distractor":"2006332918","target":"present","response":"present","rt":"4138.7000002861","correct":true,"confidence":5},{"trial_n":114,"span":11,"encoder":"69173934769","distractor":"69172934769","target":"present","response":"absent","rt":"6407.3999996185","correct":false,"confidence":3},{"trial_n":115,"span":10,"encoder":"6212485609","distractor":"6212485629","target":"absent","response":"absent","rt":"2685.4000000954","correct":true,"confidence":5},{"trial_n":116,"span":10,"encoder":"7926070003","distractor":"7926070000","target":"absent","response":"absent","rt":"2564.7999997139","correct":true,"confidence":5},{"trial_n":117,"span":11,"encoder":"81414746684","distractor":"81414743684","target":"absent","response":"absent","rt":"7955.1999998093","correct":true,"confidence":5},{"trial_n":118,"span":11,"encoder":"86116683556","distractor":"86116383556","target":"absent","response":"absent","rt":"4815.6000003815","correct":true,"confidence":5},{"trial_n":119,"span":12,"encoder":"509288254474","distractor":"509288254434","target":"present","response":"absent","rt":"53180.700000286","correct":false,"confidence":2},{"trial_n":120,"span":11,"encoder":"01960805625","distractor":"09960805625","target":"present","response":"present","rt":"5248.5","correct":true,"confidence":3},{"trial_n":121,"span":11,"encoder":"51633082375","distractor":"51733082375","target":"absent","response":"absent","rt":"4482.5999999046","correct":true,"confidence":3},{"trial_n":122,"span":12,"encoder":"654666070580","distractor":"154666070580","target":"absent","response":"present","rt":"3817.9000000954","correct":false,"confidence":4},{"trial_n":123,"span":11,"encoder":"74843661283","distractor":"74643661283","target":"present","response":"present","rt":"5904.2999997139","correct":true,"confidence":3},{"trial_n":124,"span":11,"encoder":"46345101604","distractor":"46345161604","target":"absent","response":"absent","rt":"1681.2000002861","correct":true,"confidence":1},{"trial_n":125,"span":12,"encoder":"384867729714","distractor":"384167729714","target":"present","response":"present","rt":"4852.5","correct":true,"confidence":2},{"trial_n":126,"span":12,"encoder":"483956645781","distractor":"583956645781","target":"present","response":"present","rt":"8435.5","correct":true,"confidence":4},{"trial_n":127,"span":13,"encoder":"5019434542186","distractor":"5019434542180","target":"absent","response":"absent","rt":"2883.1999998093","correct":true,"confidence":5},{"trial_n":128,"span":13,"encoder":"2450404955055","distractor":"2490404955055","target":"absent","response":"absent","rt":"8373.5","correct":true,"confidence":2},{"trial_n":129,"span":14,"encoder":"14499933215916","distractor":"14499933215956","target":"absent","response":"absent","rt":"8083.4000000954","correct":true,"confidence":3},{"trial_n":130,"span":14,"encoder":"53842081992481","distractor":"53842081992471","target":"absent","response":"present","rt":"6615.6999998093","correct":false,"confidence":3},{"trial_n":131,"span":13,"encoder":"9987204160876","distractor":"9984204160876","target":"absent","response":"present","rt":"5881.2000002861","correct":false,"confidence":4},{"trial_n":132,"span":12,"encoder":"360638497511","distractor":"360638997511","target":"present","response":"absent","rt":"9318.1999998093","correct":false,"confidence":2},{"trial_n":133,"span":11,"encoder":"39175795357","distractor":"39178795357","target":"absent","response":"present","rt":"8128.6999998093","correct":false,"confidence":3},{"trial_n":134,"span":10,"encoder":"6943635653","distractor":"6943645653","target":"present","response":"absent","rt":"6970.7000002861","correct":false,"confidence":3},{"trial_n":135,"span":9,"encoder":"016212700","distractor":"016112700","target":"present","response":"present","rt":"4428.8000001907","correct":true,"confidence":4},{"trial_n":136,"span":9,"encoder":"486594271","distractor":"086594271","target":"present","response":"present","rt":"4442.7999997139","correct":true,"confidence":3},{"trial_n":137,"span":10,"encoder":"5674366606","distractor":"5672366606","target":"present","response":"absent","rt":"9569.8999996185","correct":false,"confidence":4},{"trial_n":138,"span":9,"encoder":"909555629","distractor":"909555625","target":"present","response":"present","rt":"4112","correct":true,"confidence":5},{"trial_n":139,"span":9,"encoder":"254319947","distractor":"254319941","target":"absent","response":"absent","rt":"3006.0999999046","correct":true,"confidence":5},{"trial_n":140,"span":10,"encoder":"7243021467","distractor":"7143021467","target":"present","response":"present","rt":"5350.0999999046","correct":true,"confidence":4}]