[{"trial_n":1,"span":8,"encoder":"37387234","distractor":"37387934","target":"present","response":"absent","rt":"6282.6999999285","correct":false,"confidence":-1},{"trial_n":2,"span":6,"encoder":"778118","distractor":"778178","target":"present","response":"present","rt":"2233.4000000954","correct":true,"confidence":-1},{"trial_n":3,"span":6,"encoder":"832668","distractor":"832667","target":"absent","response":"absent","rt":"2270.2999999523","correct":true,"confidence":-1},{"trial_n":4,"span":8,"encoder":"83317479","distractor":"83317979","target":"absent","response":"absent","rt":"3460.3000000715","correct":true,"confidence":-1},{"trial_n":5,"span":8,"encoder":"11972286","distractor":"11972256","target":"present","response":"present","rt":"998.60000002384","correct":true,"confidence":-1},{"trial_n":6,"span":10,"encoder":"4729536913","distractor":"4729596913","target":"absent","response":"absent","rt":"5228.3999999762","correct":true,"confidence":-1},{"trial_n":7,"span":10,"encoder":"8794214460","distractor":"8794217460","target":"present","response":"present","rt":"3398.5","correct":true,"confidence":-1},{"trial_n":8,"span":12,"encoder":"285732246422","distractor":"285732276422","target":"present","response":"absent","rt":"4545","correct":false,"confidence":-1},{"trial_n":9,"span":10,"encoder":"1556610242","distractor":"1586610242","target":"absent","response":"absent","rt":"1914.7000000477","correct":true,"confidence":-1},{"trial_n":10,"span":10,"encoder":"2314015237","distractor":"2374015237","target":"present","response":"present","rt":"3960.8999999762","correct":true,"confidence":-1},{"trial_n":11,"span":12,"encoder":"486613532917","distractor":"406613532917","target":"absent","response":"present","rt":"4022.5999999046","correct":false,"confidence":-1},{"trial_n":12,"span":11,"encoder":"27431377412","distractor":"27431371412","target":"absent","response":"absent","rt":"1821.1000000238","correct":true,"confidence":-1},{"trial_n":13,"span":11,"encoder":"26126499993","distractor":"26126099993","target":"present","response":"present","rt":"2654.1000000238","correct":true,"confidence":-1},{"trial_n":14,"span":12,"encoder":"640996615801","distractor":"646996615801","target":"absent","response":"present","rt":"3016.6999999285","correct":false,"confidence":-1},{"trial_n":15,"span":11,"encoder":"37028458066","distractor":"31028458066","target":"present","response":"present","rt":"2778.9000000954","correct":true,"confidence":-1},{"trial_n":16,"span":11,"encoder":"25627702530","distractor":"25927702530","target":"absent","response":"present","rt":"2408.1000000238","correct":false,"confidence":-1},{"trial_n":17,"span":10,"encoder":"2796435279","distractor":"2796535279","target":"absent","response":"present","rt":"3784.3000000715","correct":false,"confidence":-1},{"trial_n":18,"span":9,"encoder":"195497252","distractor":"595497252","target":"absent","response":"absent","rt":"2300.1999999285","correct":true,"confidence":-1},{"trial_n":19,"span":9,"encoder":"290021565","distractor":"290021515","target":"present","response":"present","rt":"2266.3999999762","correct":true,"confidence":-1},{"trial_n":20,"span":10,"encoder":"0325400319","distractor":"0325450319","target":"present","response":"present","rt":"2086.6000000238","correct":true,"confidence":-1},{"trial_n":21,"span":10,"encoder":"2565460875","distractor":"2565460885","target":"present","response":"present","rt":"2404.2000000477","correct":true,"confidence":5},{"trial_n":22,"span":11,"encoder":"56546473923","distractor":"46546473923","target":"present","response":"present","rt":"2618.2999999523","correct":true,"confidence":5},{"trial_n":23,"span":11,"encoder":"68540044473","distractor":"61540044473","target":"present","response":"absent","rt":"4232.5","correct":false,"confidence":3},{"trial_n":24,"span":10,"encoder":"6958875644","distractor":"6938875644","target":"absent","response":"absent","rt":"3878.8999999762","correct":true,"confidence":3},{"trial_n":25,"span":10,"encoder":"9690477464","distractor":"0690477464","target":"absent","response":"present","rt":"4247.1000000238","correct":false,"confidence":5},{"trial_n":26,"span":9,"encoder":"000909627","distractor":"500909627","target":"present","response":"present","rt":"3346","correct":true,"confidence":5},{"trial_n":27,"span":9,"encoder":"893439311","distractor":"898439311","target":"present","response":"absent","rt":"3392","correct":false,"confidence":2},{"trial_n":28,"span":8,"encoder":"13131142","distractor":"13131192","target":"present","response":"present","rt":"3671.8999999762","correct":true,"confidence":4},{"trial_n":29,"span":8,"encoder":"92041168","distractor":"92041160","target":"present","response":"present","rt":"2227.4000000954","correct":true,"confidence":5},{"trial_n":30,"span":9,"encoder":"196400167","distractor":"192400167","target":"present","response":"present","rt":"2762.1999999285","correct":true,"confidence":5},{"trial_n":31,"span":9,"encoder":"322343879","distractor":"322843879","target":"present","response":"present","rt":"2268.0999999046","correct":true,"confidence":5},{"trial_n":32,"span":10,"encoder":"2438197650","distractor":"2438177650","target":"absent","response":"absent","rt":"4088.8999999762","correct":true,"confidence":5},{"trial_n":33,"span":10,"encoder":"6141359111","distractor":"6147359111","target":"present","response":"absent","rt":"1710.6000000238","correct":false,"confidence":5},{"trial_n":34,"span":9,"encoder":"367345137","distractor":"367845137","target":"present","response":"absent","rt":"1792.6999999285","correct":false,"confidence":4},{"trial_n":35,"span":8,"encoder":"31127710","distractor":"31127700","target":"present","response":"present","rt":"3035.6000000238","correct":true,"confidence":5},{"trial_n":36,"span":8,"encoder":"70900136","distractor":"70900135","target":"absent","response":"absent","rt":"1629.1000000238","correct":true,"confidence":5},{"trial_n":37,"span":9,"encoder":"909915881","distractor":"909615881","target":"present","response":"present","rt":"2223.4000000954","correct":true,"confidence":3},{"trial_n":38,"span":9,"encoder":"259085820","distractor":"259085822","target":"present","response":"absent","rt":"4149.6000000238","correct":false,"confidence":4},{"trial_n":39,"span":8,"encoder":"33320486","distractor":"33320416","target":"present","response":"present","rt":"1797.5999999046","correct":true,"confidence":5},{"trial_n":40,"span":8,"encoder":"97851541","distractor":"97858541","target":"absent","response":"absent","rt":"4011.1999999285","correct":true,"confidence":3},{"trial_n":41,"span":9,"encoder":"135644052","distractor":"735644052","target":"absent","response":"present","rt":"5573.8999999762","correct":false,"confidence":2},{"trial_n":42,"span":8,"encoder":"12833276","distractor":"18833276","target":"present","response":"present","rt":"3174.7999999523","correct":true,"confidence":4},{"trial_n":43,"span":8,"encoder":"48547860","distractor":"48547867","target":"absent","response":"absent","rt":"1622","correct":true,"confidence":5},{"trial_n":44,"span":9,"encoder":"247664430","distractor":"247664435","target":"absent","response":"absent","rt":"1725.8999999762","correct":true,"confidence":5},{"trial_n":45,"span":9,"encoder":"292727497","distractor":"298727497","target":"absent","response":"absent","rt":"6861.7000000477","correct":true,"confidence":4},{"trial_n":46,"span":10,"encoder":"8420375753","distractor":"8490375753","target":"present","response":"present","rt":"4400.1999999285","correct":true,"confidence":4},{"trial_n":47,"span":10,"encoder":"9039288852","distractor":"9039288882","target":"absent","response":"absent","rt":"1917.1999999285","correct":true,"confidence":3},{"trial_n":48,"span":11,"encoder":"89155812456","distractor":"89155812454","target":"present","response":"absent","rt":"3089.8999999762","correct":false,"confidence":2},{"trial_n":49,"span":10,"encoder":"8688854068","distractor":"8628854068","target":"absent","response":"absent","rt":"3052.6999999285","correct":true,"confidence":2},{"trial_n":50,"span":10,"encoder":"2506234757","distractor":"2506234707","target":"present","response":"present","rt":"4500.2999999523","correct":true,"confidence":3},{"trial_n":51,"span":11,"encoder":"14049756555","distractor":"14049756585","target":"absent","response":"absent","rt":"1185","correct":true,"confidence":5},{"trial_n":52,"span":11,"encoder":"03778044138","distractor":"23778044138","target":"absent","response":"present","rt":"5086.1000000238","correct":false,"confidence":4},{"trial_n":53,"span":10,"encoder":"5054922253","distractor":"5054912253","target":"absent","response":"absent","rt":"2214.2999999523","correct":true,"confidence":5},{"trial_n":54,"span":10,"encoder":"2456084572","distractor":"2453084572","target":"present","response":"present","rt":"4858.3999999762","correct":true,"confidence":5},{"trial_n":55,"span":11,"encoder":"70214123984","distractor":"90214123984","target":"absent","response":"present","rt":"5488.3999999762","correct":false,"confidence":4},{"trial_n":56,"span":10,"encoder":"1309516963","distractor":"1309516964","target":"absent","response":"absent","rt":"1581","correct":true,"confidence":5},{"trial_n":57,"span":10,"encoder":"0718099017","distractor":"0718049017","target":"present","response":"present","rt":"2523","correct":true,"confidence":3},{"trial_n":58,"span":11,"encoder":"72529503226","distractor":"72529503246","target":"present","response":"present","rt":"4321.6000000238","correct":true,"confidence":2},{"trial_n":59,"span":11,"encoder":"38736925982","distractor":"38736925942","target":"present","response":"absent","rt":"4622.5999999046","correct":false,"confidence":3},{"trial_n":60,"span":10,"encoder":"6114874737","distractor":"6154874737","target":"absent","response":"absent","rt":"6737","correct":true,"confidence":2},{"trial_n":61,"span":10,"encoder":"8775147748","distractor":"8779147748","target":"present","response":"absent","rt":"4539.8999999762","correct":false,"confidence":2},{"trial_n":62,"span":9,"encoder":"159336127","distractor":"179336127","target":"absent","response":"absent","rt":"3514.3000000715","correct":true,"confidence":3},{"trial_n":63,"span":9,"encoder":"409866020","distractor":"409866120","target":"absent","response":"absent","rt":"1520.1999999285","correct":true,"confidence":5},{"trial_n":64,"span":10,"encoder":"1432250421","distractor":"1432250921","target":"present","response":"present","rt":"3813.7999999523","correct":true,"confidence":4},{"trial_n":65,"span":10,"encoder":"0848151627","distractor":"0848151697","target":"absent","response":"absent","rt":"4748.2000000477","correct":true,"confidence":4},{"trial_n":66,"span":11,"encoder":"95332943512","distractor":"95330943512","target":"absent","response":"present","rt":"5202.6999999285","correct":false,"confidence":3},{"trial_n":67,"span":10,"encoder":"6077507345","distractor":"6077597345","target":"absent","response":"present","rt":"6523.5","correct":false,"confidence":2},{"trial_n":68,"span":9,"encoder":"429012295","distractor":"929012295","target":"absent","response":"present","rt":"7515.7000000477","correct":false,"confidence":3},{"trial_n":69,"span":8,"encoder":"92544663","distractor":"92540663","target":"present","response":"present","rt":"1850.5999999046","correct":true,"confidence":4},{"trial_n":70,"span":8,"encoder":"17183142","distractor":"17183172","target":"absent","response":"absent","rt":"4461","correct":true,"confidence":3},{"trial_n":71,"span":8,"encoder":"88836999","distractor":"81836999","target":"present","response":"present","rt":"3603.6000000238","correct":true,"confidence":-1},{"trial_n":72,"span":8,"encoder":"06761741","distractor":"06763741","target":"present","response":"present","rt":"6378.2000000477","correct":true,"confidence":-1},{"trial_n":73,"span":9,"encoder":"584824989","distractor":"584824089","target":"absent","response":"absent","rt":"5276.5999999046","correct":true,"confidence":-1},{"trial_n":74,"span":9,"encoder":"675631677","distractor":"670631677","target":"absent","response":"present","rt":"4326.3999999762","correct":false,"confidence":-1},{"trial_n":75,"span":8,"encoder":"48779366","distractor":"48779386","target":"present","response":"present","rt":"5278.3000000715","correct":true,"confidence":-1},{"trial_n":76,"span":8,"encoder":"36239684","distractor":"36229684","target":"present","response":"present","rt":"4044.6999999285","correct":true,"confidence":-1},{"trial_n":77,"span":9,"encoder":"892519396","distractor":"892519390","target":"present","response":"present","rt":"1232.6000000238","correct":true,"confidence":-1},{"trial_n":78,"span":9,"encoder":"054351772","distractor":"054371772","target":"absent","response":"absent","rt":"3024","correct":true,"confidence":-1},{"trial_n":79,"span":10,"encoder":"3862377019","distractor":"3862347019","target":"present","response":"present","rt":"1922.4000000954","correct":true,"confidence":-1},{"trial_n":80,"span":10,"encoder":"8911879934","distractor":"8971879934","target":"absent","response":"absent","rt":"2379.1000000238","correct":true,"confidence":-1},{"trial_n":81,"span":11,"encoder":"50035911886","distractor":"51035911886","target":"absent","response":"absent","rt":"2361.2000000477","correct":true,"confidence":-1},{"trial_n":82,"span":11,"encoder":"49262327100","distractor":"49262321100","target":"present","response":"present","rt":"3822.1000000238","correct":true,"confidence":-1},{"trial_n":83,"span":12,"encoder":"201573471772","distractor":"201273471772","target":"present","response":"absent","rt":"7616","correct":false,"confidence":-1},{"trial_n":84,"span":11,"encoder":"35607582708","distractor":"35627582708","target":"present","response":"absent","rt":"4908.2000000477","correct":false,"confidence":-1},{"trial_n":85,"span":10,"encoder":"2806985809","distractor":"2906985809","target":"absent","response":"present","rt":"10166.899999976","correct":false,"confidence":-1},{"trial_n":86,"span":9,"encoder":"260508879","distractor":"210508879","target":"present","response":"present","rt":"2320.5","correct":true,"confidence":-1},{"trial_n":87,"span":9,"encoder":"165012242","distractor":"161012242","target":"present","response":"present","rt":"4710.6000000238","correct":true,"confidence":-1},{"trial_n":88,"span":10,"encoder":"5381554774","distractor":"5361554774","target":"absent","response":"absent","rt":"5502.2000000477","correct":true,"confidence":-1},{"trial_n":89,"span":10,"encoder":"1013947051","distractor":"1513947051","target":"present","response":"absent","rt":"3672.0999999046","correct":false,"confidence":-1},{"trial_n":90,"span":9,"encoder":"304576369","distractor":"304576669","target":"present","response":"present","rt":"6245.1999999285","correct":true,"confidence":-1},{"trial_n":91,"span":9,"encoder":"800513091","distractor":"800513891","target":"present","response":"present","rt":"3016.8999999762","correct":true,"confidence":4},{"trial_n":92,"span":10,"encoder":"8789595772","distractor":"3789595772","target":"absent","response":"absent","rt":"3279.9000000954","correct":true,"confidence":4},{"trial_n":93,"span":10,"encoder":"1010079482","distractor":"1010076482","target":"absent","response":"absent","rt":"3390.1000000238","correct":true,"confidence":5},{"trial_n":94,"span":11,"encoder":"79188768143","distractor":"79188868143","target":"present","response":"present","rt":"4390.6000000238","correct":true,"confidence":3},{"trial_n":95,"span":11,"encoder":"02795535983","distractor":"92795535983","target":"absent","response":"absent","rt":"8373","correct":true,"confidence":3},{"trial_n":96,"span":12,"encoder":"558508008208","distractor":"158508008208","target":"present","response":"present","rt":"3483.1000000238","correct":true,"confidence":5},{"trial_n":97,"span":12,"encoder":"990225297598","distractor":"990825297598","target":"present","response":"present","rt":"2156.6000000238","correct":true,"confidence":5},{"trial_n":98,"span":13,"encoder":"4913966292241","distractor":"4913966292231","target":"present","response":"present","rt":"1804.2000000477","correct":true,"confidence":5},{"trial_n":99,"span":13,"encoder":"7315951440084","distractor":"6315951440084","target":"absent","response":"present","rt":"4521.9000000954","correct":false,"confidence":2},{"trial_n":100,"span":12,"encoder":"317408499642","distractor":"317408496642","target":"present","response":"absent","rt":"10851.100000024","correct":false,"confidence":2},{"trial_n":101,"span":11,"encoder":"01397143001","distractor":"01897143001","target":"present","response":"absent","rt":"3622.6000000238","correct":false,"confidence":1},{"trial_n":102,"span":10,"encoder":"0673565029","distractor":"0613565029","target":"present","response":"present","rt":"7380.1999999285","correct":true,"confidence":2},{"trial_n":103,"span":10,"encoder":"2405221334","distractor":"2405221234","target":"absent","response":"absent","rt":"1161.2999999523","correct":true,"confidence":5},{"trial_n":104,"span":11,"encoder":"96454275661","distractor":"96654275661","target":"present","response":"present","rt":"4627.2000000477","correct":true,"confidence":3},{"trial_n":105,"span":11,"encoder":"50655267597","distractor":"00655267597","target":"present","response":"present","rt":"9247.1999999285","correct":true,"confidence":3},{"trial_n":106,"span":12,"encoder":"765172783893","distractor":"765172783898","target":"present","response":"absent","rt":"13773.199999928","correct":false,"confidence":2},{"trial_n":107,"span":11,"encoder":"08102481501","distractor":"08132481501","target":"absent","response":"absent","rt":"9211.2000000477","correct":true,"confidence":2},{"trial_n":108,"span":11,"encoder":"85645686794","distractor":"85635686794","target":"absent","response":"absent","rt":"5277.5","correct":true,"confidence":1},{"trial_n":109,"span":12,"encoder":"666471154381","distractor":"666474154381","target":"present","response":"present","rt":"4742.5","correct":true,"confidence":4},{"trial_n":110,"span":12,"encoder":"448791814442","distractor":"448791817442","target":"absent","response":"absent","rt":"12154.700000048","correct":true,"confidence":3},{"trial_n":111,"span":13,"encoder":"2081831305382","distractor":"2080831305382","target":"present","response":"absent","rt":"9099.5","correct":false,"confidence":3},{"trial_n":112,"span":12,"encoder":"215599250790","distractor":"215599260790","target":"absent","response":"absent","rt":"1688","correct":true,"confidence":5},{"trial_n":113,"span":12,"encoder":"877404816059","distractor":"677404816059","target":"absent","response":"present","rt":"7467.7000000477","correct":false,"confidence":4},{"trial_n":114,"span":11,"encoder":"52248163611","distractor":"52248163671","target":"absent","response":"absent","rt":"3314.3999999762","correct":true,"confidence":3},{"trial_n":115,"span":11,"encoder":"70485116780","distractor":"70485116787","target":"absent","response":"absent","rt":"3880.8999999762","correct":true,"confidence":1},{"trial_n":116,"span":12,"encoder":"837477532667","distractor":"837477532867","target":"absent","response":"absent","rt":"2780.7000000477","correct":true,"confidence":5},{"trial_n":117,"span":12,"encoder":"085589225791","distractor":"085589235791","target":"absent","response":"absent","rt":"3289.7999999523","correct":true,"confidence":5},{"trial_n":118,"span":13,"encoder":"5250489441746","distractor":"5250489441716","target":"absent","response":"absent","rt":"11285.5","correct":true,"confidence":2},{"trial_n":119,"span":13,"encoder":"1766669168425","distractor":"1766669168485","target":"present","response":"present","rt":"10386.5","correct":true,"confidence":1},{"trial_n":120,"span":14,"encoder":"29323267874642","distractor":"29323266874642","target":"absent","response":"present","rt":"6514.7999999523","correct":false,"confidence":2},{"trial_n":121,"span":13,"encoder":"0386741760071","distractor":"0387741760071","target":"absent","response":"absent","rt":"5611.8999999762","correct":true,"confidence":2},{"trial_n":122,"span":13,"encoder":"7901254449710","distractor":"7901294449710","target":"absent","response":"present","rt":"5072","correct":false,"confidence":1},{"trial_n":123,"span":12,"encoder":"223680385155","distractor":"223680387155","target":"present","response":"present","rt":"4377","correct":true,"confidence":2},{"trial_n":124,"span":12,"encoder":"267849594073","distractor":"267849574073","target":"absent","response":"absent","rt":"2579.7000000477","correct":true,"confidence":2},{"trial_n":125,"span":13,"encoder":"2816794951873","distractor":"2116794951873","target":"present","response":"present","rt":"8102.7000000477","correct":true,"confidence":2},{"trial_n":126,"span":13,"encoder":"6990301142073","distractor":"6990308142073","target":"absent","response":"absent","rt":"2327.3000000715","correct":true,"confidence":5},{"trial_n":127,"span":14,"encoder":"53463127348881","distractor":"53493127348881","target":"absent","response":"absent","rt":"1755.6000000238","correct":true,"confidence":4},{"trial_n":128,"span":14,"encoder":"84101952674961","distractor":"84101952474961","target":"present","response":"absent","rt":"4478.5","correct":false,"confidence":3},{"trial_n":129,"span":13,"encoder":"3501461684628","distractor":"8501461684628","target":"present","response":"present","rt":"7125.8999999762","correct":true,"confidence":2},{"trial_n":130,"span":13,"encoder":"2195410048740","distractor":"2195415048740","target":"absent","response":"absent","rt":"1825.3000000715","correct":true,"confidence":1},{"trial_n":131,"span":14,"encoder":"54744611405963","distractor":"54744611401963","target":"absent","response":"absent","rt":"6191.8999999762","correct":true,"confidence":1},{"trial_n":132,"span":14,"encoder":"22558303682987","distractor":"22558303680987","target":"present","response":"absent","rt":"6795.1999999285","correct":false,"confidence":3},{"trial_n":133,"span":13,"encoder":"8815218243987","distractor":"9815218243987","target":"absent","response":"absent","rt":"5440","correct":true,"confidence":3},{"trial_n":134,"span":13,"encoder":"9033830085816","distractor":"9030830085816","target":"present","response":"present","rt":"6322.5","correct":true,"confidence":3},{"trial_n":135,"span":14,"encoder":"55502433669978","distractor":"55502533669978","target":"present","response":"absent","rt":"7995","correct":false,"confidence":2},{"trial_n":136,"span":13,"encoder":"6078536951873","distractor":"6078536951573","target":"absent","response":"absent","rt":"2585.7000000477","correct":true,"confidence":5},{"trial_n":137,"span":13,"encoder":"3944322942471","distractor":"3944322943471","target":"absent","response":"present","rt":"5134.1999999285","correct":false,"confidence":1},{"trial_n":138,"span":12,"encoder":"727284329296","distractor":"717284329296","target":"absent","response":"present","rt":"11294.099999905","correct":false,"confidence":3},{"trial_n":139,"span":11,"encoder":"89756865865","distractor":"89756865815","target":"present","response":"present","rt":"1893.1999999285","correct":true,"confidence":5},{"trial_n":140,"span":11,"encoder":"37784932278","distractor":"07784932278","target":"present","response":"present","rt":"2341.8999999762","correct":true,"confidence":4}]