[{"trial_n":1,"n_dots":4.25,"target":"left","response":"left","rt":12024.900000006,"correct":true,"confidence":-1},{"trial_n":2,"n_dots":4.25,"target":"right","response":"right","rt":789,"correct":true,"confidence":-1},{"trial_n":3,"n_dots":3.85,"target":"left","response":"left","rt":417.79999999702,"correct":true,"confidence":-1},{"trial_n":4,"n_dots":3.85,"target":"right","response":"right","rt":563.79999999702,"correct":true,"confidence":-1},{"trial_n":5,"n_dots":3.45,"target":"left","response":"left","rt":916.79999999702,"correct":true,"confidence":-1},{"trial_n":6,"n_dots":3.45,"target":"left","response":"left","rt":1719.5,"correct":true,"confidence":-1},{"trial_n":7,"n_dots":3.05,"target":"left","response":"left","rt":453.29999999702,"correct":true,"confidence":-1},{"trial_n":8,"n_dots":3.05,"target":"left","response":"left","rt":1108.099999994,"correct":true,"confidence":-1},{"trial_n":9,"n_dots":2.85,"target":"right","response":"left","rt":2355.6000000089,"correct":false,"confidence":-1},{"trial_n":10,"n_dots":3.05,"target":"left","response":"right","rt":576.10000000894,"correct":false,"confidence":-1},{"trial_n":11,"n_dots":3.25,"target":"left","response":"left","rt":336.09999999404,"correct":true,"confidence":-1},{"trial_n":12,"n_dots":3.25,"target":"left","response":"right","rt":1384.1000000089,"correct":false,"confidence":-1},{"trial_n":13,"n_dots":3.35,"target":"right","response":"left","rt":400.79999999702,"correct":false,"confidence":-1},{"trial_n":14,"n_dots":3.45,"target":"right","response":"right","rt":458.79999999702,"correct":true,"confidence":-1},{"trial_n":15,"n_dots":3.45,"target":"right","response":"right","rt":1320.5,"correct":true,"confidence":-1},{"trial_n":16,"n_dots":3.35,"target":"right","response":"right","rt":451.5,"correct":true,"confidence":-1},{"trial_n":17,"n_dots":3.35,"target":"right","response":"left","rt":1065.200000003,"correct":false,"confidence":-1},{"trial_n":18,"n_dots":3.45,"target":"right","response":"right","rt":423.39999999106,"correct":true,"confidence":-1},{"trial_n":19,"n_dots":3.45,"target":"left","response":"left","rt":330.10000000894,"correct":true,"confidence":-1},{"trial_n":20,"n_dots":3.35,"target":"left","response":"left","rt":594.90000000596,"correct":true,"confidence":-1},{"trial_n":21,"n_dots":3.35,"target":"left","response":"left","rt":520.70000000298,"correct":true,"confidence":2},{"trial_n":22,"n_dots":3.25,"target":"right","response":"left","rt":6486.700000003,"correct":false,"confidence":1},{"trial_n":23,"n_dots":3.35,"target":"left","response":"left","rt":6891.700000003,"correct":true,"confidence":1},{"trial_n":24,"n_dots":3.35,"target":"left","response":"left","rt":353.09999999404,"correct":true,"confidence":3},{"trial_n":25,"n_dots":3.25,"target":"right","response":"right","rt":820.5,"correct":true,"confidence":2},{"trial_n":26,"n_dots":3.25,"target":"right","response":"right","rt":580.59999999404,"correct":true,"confidence":2},{"trial_n":27,"n_dots":3.15,"target":"right","response":"right","rt":1172.200000003,"correct":true,"confidence":2},{"trial_n":28,"n_dots":3.15,"target":"left","response":"left","rt":662.60000000894,"correct":true,"confidence":3},{"trial_n":29,"n_dots":3.05,"target":"right","response":"left","rt":1253.700000003,"correct":false,"confidence":2},{"trial_n":30,"n_dots":3.15,"target":"left","response":"left","rt":462.5,"correct":true,"confidence":4},{"trial_n":31,"n_dots":3.15,"target":"right","response":"left","rt":688.79999999702,"correct":false,"confidence":2},{"trial_n":32,"n_dots":3.25,"target":"left","response":"left","rt":1300.900000006,"correct":true,"confidence":2},{"trial_n":33,"n_dots":3.25,"target":"right","response":"left","rt":791.5,"correct":false,"confidence":2},{"trial_n":34,"n_dots":3.35,"target":"left","response":"left","rt":619.90000000596,"correct":true,"confidence":3},{"trial_n":35,"n_dots":3.35,"target":"left","response":"left","rt":1339.799999997,"correct":true,"confidence":4},{"trial_n":36,"n_dots":3.25,"target":"right","response":"left","rt":635.20000000298,"correct":false,"confidence":3},{"trial_n":37,"n_dots":3.35,"target":"right","response":"right","rt":696.29999999702,"correct":true,"confidence":3},{"trial_n":38,"n_dots":3.35,"target":"right","response":"left","rt":877.20000000298,"correct":false,"confidence":3},{"trial_n":39,"n_dots":3.45,"target":"right","response":"right","rt":671.79999999702,"correct":true,"confidence":3},{"trial_n":40,"n_dots":3.45,"target":"right","response":"right","rt":618.5,"correct":true,"confidence":2},{"trial_n":41,"n_dots":3.35,"target":"left","response":"left","rt":670.5,"correct":true,"confidence":1},{"trial_n":42,"n_dots":3.35,"target":"right","response":"right","rt":1580.299999997,"correct":true,"confidence":4},{"trial_n":43,"n_dots":3.25,"target":"left","response":"left","rt":538.5,"correct":true,"confidence":3},{"trial_n":44,"n_dots":3.25,"target":"right","response":"right","rt":547.10000000894,"correct":true,"confidence":3},{"trial_n":45,"n_dots":3.15,"target":"left","response":"left","rt":814.5,"correct":true,"confidence":3},{"trial_n":46,"n_dots":3.15,"target":"left","response":"left","rt":552.29999999702,"correct":true,"confidence":3},{"trial_n":47,"n_dots":3.05,"target":"left","response":"left","rt":2134.5,"correct":true,"confidence":1},{"trial_n":48,"n_dots":3.05,"target":"right","response":"right","rt":382.20000000298,"correct":true,"confidence":4},{"trial_n":49,"n_dots":2.95,"target":"right","response":"right","rt":1206.599999994,"correct":true,"confidence":1},{"trial_n":50,"n_dots":2.95,"target":"left","response":"left","rt":755,"correct":true,"confidence":2},{"trial_n":51,"n_dots":2.85,"target":"right","response":"left","rt":1157.299999997,"correct":false,"confidence":1},{"trial_n":52,"n_dots":2.95,"target":"right","response":"left","rt":741.40000000596,"correct":false,"confidence":1},{"trial_n":53,"n_dots":3.05,"target":"right","response":"right","rt":571.20000000298,"correct":true,"confidence":3},{"trial_n":54,"n_dots":3.05,"target":"right","response":"right","rt":1262.599999994,"correct":true,"confidence":1},{"trial_n":55,"n_dots":2.95,"target":"right","response":"right","rt":1284.5,"correct":true,"confidence":1},{"trial_n":56,"n_dots":2.95,"target":"left","response":"left","rt":892.40000000596,"correct":true,"confidence":1},{"trial_n":57,"n_dots":2.85,"target":"right","response":"left","rt":834.40000000596,"correct":false,"confidence":3},{"trial_n":58,"n_dots":2.95,"target":"left","response":"left","rt":486.5,"correct":true,"confidence":3},{"trial_n":59,"n_dots":2.95,"target":"left","response":"left","rt":716.5,"correct":true,"confidence":3},{"trial_n":60,"n_dots":2.85,"target":"right","response":"right","rt":739.39999999106,"correct":true,"confidence":2},{"trial_n":61,"n_dots":2.85,"target":"left","response":"left","rt":529.29999999702,"correct":true,"confidence":4},{"trial_n":62,"n_dots":2.75,"target":"right","response":"left","rt":407.40000000596,"correct":false,"confidence":4},{"trial_n":63,"n_dots":2.85,"target":"left","response":"left","rt":522.59999999404,"correct":true,"confidence":4},{"trial_n":64,"n_dots":2.85,"target":"right","response":"left","rt":586.40000000596,"correct":false,"confidence":3},{"trial_n":65,"n_dots":2.95,"target":"right","response":"right","rt":638.40000000596,"correct":true,"confidence":3},{"trial_n":66,"n_dots":2.95,"target":"right","response":"right","rt":613.29999999702,"correct":true,"confidence":2},{"trial_n":67,"n_dots":2.85,"target":"right","response":"right","rt":913.70000000298,"correct":true,"confidence":2},{"trial_n":68,"n_dots":2.85,"target":"right","response":"left","rt":1731,"correct":false,"confidence":2},{"trial_n":69,"n_dots":2.95,"target":"left","response":"left","rt":308.59999999404,"correct":true,"confidence":3},{"trial_n":70,"n_dots":2.95,"target":"right","response":"left","rt":1258.3999999911,"correct":false,"confidence":2},{"trial_n":71,"n_dots":3.05,"target":"right","response":"right","rt":864.5,"correct":true,"confidence":2},{"trial_n":72,"n_dots":3.05,"target":"right","response":"right","rt":516.70000000298,"correct":true,"confidence":2},{"trial_n":73,"n_dots":2.95,"target":"left","response":"left","rt":414.40000000596,"correct":true,"confidence":2},{"trial_n":74,"n_dots":2.95,"target":"left","response":"left","rt":407.70000000298,"correct":true,"confidence":2},{"trial_n":75,"n_dots":2.85,"target":"left","response":"left","rt":560.5,"correct":true,"confidence":2},{"trial_n":76,"n_dots":2.85,"target":"left","response":"left","rt":406.40000000596,"correct":true,"confidence":4},{"trial_n":77,"n_dots":2.75,"target":"left","response":"right","rt":554.40000000596,"correct":false,"confidence":2},{"trial_n":78,"n_dots":2.85,"target":"right","response":"right","rt":852.39999999106,"correct":true,"confidence":2},{"trial_n":79,"n_dots":2.85,"target":"left","response":"left","rt":614.5,"correct":true,"confidence":2},{"trial_n":80,"n_dots":2.75,"target":"left","response":"left","rt":537.5,"correct":true,"confidence":3},{"trial_n":81,"n_dots":2.75,"target":"left","response":"left","rt":1014.299999997,"correct":true,"confidence":1},{"trial_n":82,"n_dots":2.65,"target":"left","response":"right","rt":946.5,"correct":false,"confidence":1},{"trial_n":83,"n_dots":2.75,"target":"right","response":"right","rt":461.10000000894,"correct":true,"confidence":1},{"trial_n":84,"n_dots":2.75,"target":"left","response":"left","rt":362.29999999702,"correct":true,"confidence":3},{"trial_n":85,"n_dots":2.65,"target":"right","response":"right","rt":610.29999999702,"correct":true,"confidence":2},{"trial_n":86,"n_dots":2.65,"target":"left","response":"left","rt":523.5,"correct":true,"confidence":2},{"trial_n":87,"n_dots":2.55,"target":"right","response":"right","rt":496.60000000894,"correct":true,"confidence":2},{"trial_n":88,"n_dots":2.55,"target":"left","response":"right","rt":731.20000000298,"correct":false,"confidence":2},{"trial_n":89,"n_dots":2.65,"target":"right","response":"left","rt":480.5,"correct":false,"confidence":2},{"trial_n":90,"n_dots":2.75,"target":"left","response":"left","rt":448.5,"correct":true,"confidence":2},{"trial_n":91,"n_dots":2.75,"target":"right","response":"right","rt":257.40000000596,"correct":true,"confidence":3},{"trial_n":92,"n_dots":2.65,"target":"right","response":"right","rt":622.59999999404,"correct":true,"confidence":2},{"trial_n":93,"n_dots":2.65,"target":"left","response":"right","rt":878.39999999106,"correct":false,"confidence":1},{"trial_n":94,"n_dots":2.75,"target":"left","response":"left","rt":300.40000000596,"correct":true,"confidence":3},{"trial_n":95,"n_dots":2.75,"target":"right","response":"right","rt":271.40000000596,"correct":true,"confidence":2},{"trial_n":96,"n_dots":2.65,"target":"left","response":"right","rt":686.5,"correct":false,"confidence":2},{"trial_n":97,"n_dots":2.75,"target":"right","response":"right","rt":373.90000000596,"correct":true,"confidence":3},{"trial_n":98,"n_dots":2.75,"target":"left","response":"left","rt":187.29999999702,"correct":true,"confidence":3},{"trial_n":99,"n_dots":2.65,"target":"right","response":"right","rt":700.40000000596,"correct":true,"confidence":3},{"trial_n":100,"n_dots":2.65,"target":"left","response":"left","rt":388.79999999702,"correct":true,"confidence":3},{"trial_n":101,"n_dots":2.55,"target":"right","response":"right","rt":1110.6999999881,"correct":true,"confidence":1},{"trial_n":102,"n_dots":2.55,"target":"left","response":"left","rt":739.60000000894,"correct":true,"confidence":1},{"trial_n":103,"n_dots":2.45,"target":"right","response":"left","rt":374.70000000298,"correct":false,"confidence":2},{"trial_n":104,"n_dots":2.55,"target":"right","response":"right","rt":215.29999999702,"correct":true,"confidence":3},{"trial_n":105,"n_dots":2.55,"target":"right","response":"right","rt":1328.6999999881,"correct":true,"confidence":1},{"trial_n":106,"n_dots":2.45,"target":"left","response":"left","rt":478.5,"correct":true,"confidence":3},{"trial_n":107,"n_dots":2.45,"target":"left","response":"right","rt":1442.5,"correct":false,"confidence":1},{"trial_n":108,"n_dots":2.55,"target":"left","response":"left","rt":554.5,"correct":true,"confidence":3},{"trial_n":109,"n_dots":2.55,"target":"left","response":"left","rt":518.5,"correct":true,"confidence":3},{"trial_n":110,"n_dots":2.45,"target":"left","response":"left","rt":426.40000000596,"correct":true,"confidence":2},{"trial_n":111,"n_dots":2.45,"target":"left","response":"left","rt":815.10000000894,"correct":true,"confidence":2},{"trial_n":112,"n_dots":2.35,"target":"left","response":"left","rt":618.5,"correct":true,"confidence":4},{"trial_n":113,"n_dots":2.35,"target":"left","response":"left","rt":455.19999998808,"correct":true,"confidence":3},{"trial_n":114,"n_dots":2.25,"target":"right","response":"right","rt":966.59999999404,"correct":true,"confidence":2},{"trial_n":115,"n_dots":2.25,"target":"right","response":"left","rt":340.40000000596,"correct":false,"confidence":4},{"trial_n":116,"n_dots":2.35,"target":"left","response":"right","rt":649.5,"correct":false,"confidence":3},{"trial_n":117,"n_dots":2.45,"target":"right","response":"right","rt":612.5,"correct":true,"confidence":2},{"trial_n":118,"n_dots":2.45,"target":"right","response":"left","rt":446.39999999106,"correct":false,"confidence":3},{"trial_n":119,"n_dots":2.55,"target":"left","response":"left","rt":872.40000000596,"correct":true,"confidence":3},{"trial_n":120,"n_dots":2.55,"target":"right","response":"left","rt":480.70000000298,"correct":false,"confidence":4}]