[{"trial_n":1,"min":25,"max":230,"target":"present","response":"present","rt":10603.200000048,"correct":true,"confidence":-1},{"trial_n":2,"min":25,"max":230,"target":"present","response":"present","rt":754.80000007153,"correct":true,"confidence":-1},{"trial_n":3,"min":41,"max":214,"target":"absent","response":"absent","rt":643.30000007153,"correct":true,"confidence":-1},{"trial_n":4,"min":41,"max":214,"target":"absent","response":"absent","rt":606.60000002384,"correct":true,"confidence":-1},{"trial_n":5,"min":57,"max":198,"target":"present","response":"present","rt":575.70000004768,"correct":true,"confidence":-1},{"trial_n":6,"min":57,"max":198,"target":"present","response":"present","rt":628.29999995232,"correct":true,"confidence":-1},{"trial_n":7,"min":73,"max":182,"target":"absent","response":"absent","rt":681.69999992847,"correct":true,"confidence":-1},{"trial_n":8,"min":73,"max":182,"target":"present","response":"absent","rt":626.70000004768,"correct":false,"confidence":-1},{"trial_n":9,"min":57,"max":198,"target":"absent","response":"absent","rt":686.79999995232,"correct":true,"confidence":-1},{"trial_n":10,"min":57,"max":198,"target":"absent","response":"absent","rt":666.80000007153,"correct":true,"confidence":-1},{"trial_n":11,"min":65,"max":190,"target":"absent","response":"absent","rt":640.5,"correct":true,"confidence":-1},{"trial_n":12,"min":65,"max":190,"target":"absent","response":"absent","rt":678.60000002384,"correct":true,"confidence":-1},{"trial_n":13,"min":73,"max":182,"target":"absent","response":"absent","rt":632.60000002384,"correct":true,"confidence":-1},{"trial_n":14,"min":73,"max":182,"target":"present","response":"present","rt":571.89999997616,"correct":true,"confidence":-1},{"trial_n":15,"min":81,"max":174,"target":"absent","response":"absent","rt":737.39999997616,"correct":true,"confidence":-1},{"trial_n":16,"min":81,"max":174,"target":"absent","response":"absent","rt":717,"correct":true,"confidence":-1},{"trial_n":17,"min":89,"max":166,"target":"absent","response":"absent","rt":692.89999997616,"correct":true,"confidence":-1},{"trial_n":18,"min":89,"max":166,"target":"present","response":"absent","rt":803.79999995232,"correct":false,"confidence":-1},{"trial_n":19,"min":81,"max":174,"target":"absent","response":"absent","rt":691.5,"correct":true,"confidence":-1},{"trial_n":20,"min":81,"max":174,"target":"absent","response":"absent","rt":626.70000004768,"correct":true,"confidence":-1},{"trial_n":21,"min":85,"max":170,"target":"present","response":"absent","rt":598.19999992847,"correct":false,"confidence":2},{"trial_n":22,"min":81,"max":174,"target":"absent","response":"present","rt":628.10000002384,"correct":false,"confidence":4},{"trial_n":23,"min":77,"max":178,"target":"present","response":"present","rt":760.5,"correct":true,"confidence":4},{"trial_n":24,"min":77,"max":178,"target":"present","response":"present","rt":623,"correct":true,"confidence":5},{"trial_n":25,"min":81,"max":174,"target":"present","response":"present","rt":577.39999997616,"correct":true,"confidence":5},{"trial_n":26,"min":81,"max":174,"target":"absent","response":"present","rt":772.10000002384,"correct":false,"confidence":4},{"trial_n":27,"min":77,"max":178,"target":"absent","response":"absent","rt":671.59999990463,"correct":true,"confidence":4},{"trial_n":28,"min":77,"max":178,"target":"present","response":"present","rt":575.79999995232,"correct":true,"confidence":5},{"trial_n":29,"min":81,"max":174,"target":"present","response":"present","rt":855.5,"correct":true,"confidence":4},{"trial_n":30,"min":81,"max":174,"target":"absent","response":"absent","rt":1005.1000000238,"correct":true,"confidence":2},{"trial_n":31,"min":83,"max":172,"target":"present","response":"present","rt":845.10000002384,"correct":true,"confidence":3},{"trial_n":32,"min":83,"max":172,"target":"present","response":"present","rt":686.19999992847,"correct":true,"confidence":4},{"trial_n":33,"min":85,"max":170,"target":"absent","response":"absent","rt":713.60000002384,"correct":true,"confidence":4},{"trial_n":34,"min":85,"max":170,"target":"absent","response":"absent","rt":1362,"correct":true,"confidence":4},{"trial_n":35,"min":87,"max":168,"target":"present","response":"absent","rt":2875.8000000715,"correct":false,"confidence":2},{"trial_n":36,"min":85,"max":170,"target":"present","response":"absent","rt":1957.1000000238,"correct":false,"confidence":1},{"trial_n":37,"min":83,"max":172,"target":"present","response":"present","rt":800.70000004768,"correct":true,"confidence":2},{"trial_n":38,"min":83,"max":172,"target":"present","response":"present","rt":1454,"correct":true,"confidence":4},{"trial_n":39,"min":85,"max":170,"target":"absent","response":"absent","rt":695.70000004768,"correct":true,"confidence":3},{"trial_n":40,"min":85,"max":170,"target":"absent","response":"absent","rt":838.39999997616,"correct":true,"confidence":4},{"trial_n":41,"min":86,"max":169,"target":"absent","response":"absent","rt":512.5,"correct":true,"confidence":4},{"trial_n":42,"min":86,"max":169,"target":"present","response":"present","rt":3753.8999999762,"correct":true,"confidence":3},{"trial_n":43,"min":87,"max":168,"target":"present","response":"absent","rt":1223.2999999523,"correct":false,"confidence":4},{"trial_n":44,"min":86,"max":169,"target":"present","response":"absent","rt":1247.5,"correct":false,"confidence":2},{"trial_n":45,"min":85,"max":170,"target":"absent","response":"absent","rt":665.5,"correct":true,"confidence":4},{"trial_n":46,"min":85,"max":170,"target":"absent","response":"absent","rt":558.89999997616,"correct":true,"confidence":5},{"trial_n":47,"min":86,"max":169,"target":"present","response":"absent","rt":1005.5,"correct":false,"confidence":3},{"trial_n":48,"min":85,"max":170,"target":"present","response":"absent","rt":670.20000004768,"correct":false,"confidence":5},{"trial_n":49,"min":84,"max":171,"target":"present","response":"present","rt":1053.1000000238,"correct":true,"confidence":5},{"trial_n":50,"min":84,"max":171,"target":"absent","response":"absent","rt":568.19999992847,"correct":true,"confidence":4},{"trial_n":51,"min":85,"max":170,"target":"present","response":"present","rt":1549.2999999523,"correct":true,"confidence":3},{"trial_n":52,"min":85,"max":170,"target":"absent","response":"absent","rt":1782.2999999523,"correct":true,"confidence":4},{"trial_n":53,"min":86,"max":169,"target":"absent","response":"absent","rt":2252.8999999762,"correct":true,"confidence":3},{"trial_n":54,"min":86,"max":169,"target":"present","response":"present","rt":1024.6000000238,"correct":true,"confidence":3},{"trial_n":55,"min":87,"max":168,"target":"absent","response":"absent","rt":1051.5,"correct":true,"confidence":2},{"trial_n":56,"min":87,"max":168,"target":"present","response":"absent","rt":1450.2999999523,"correct":false,"confidence":2},{"trial_n":57,"min":86,"max":169,"target":"absent","response":"present","rt":3574.3999999762,"correct":false,"confidence":2},{"trial_n":58,"min":85,"max":170,"target":"absent","response":"absent","rt":654.19999992847,"correct":true,"confidence":3},{"trial_n":59,"min":85,"max":170,"target":"present","response":"present","rt":1001.1000000238,"correct":true,"confidence":5},{"trial_n":60,"min":86,"max":169,"target":"absent","response":"absent","rt":901.20000004768,"correct":true,"confidence":3},{"trial_n":61,"min":86,"max":169,"target":"present","response":"present","rt":1512.6999999285,"correct":true,"confidence":5},{"trial_n":62,"min":87,"max":168,"target":"present","response":"present","rt":2326.2999999523,"correct":true,"confidence":4},{"trial_n":63,"min":87,"max":168,"target":"absent","response":"present","rt":1027.1000000238,"correct":false,"confidence":4},{"trial_n":64,"min":86,"max":169,"target":"present","response":"present","rt":1569.0999999046,"correct":true,"confidence":5},{"trial_n":65,"min":86,"max":169,"target":"present","response":"absent","rt":2553.8999999762,"correct":false,"confidence":2},{"trial_n":66,"min":85,"max":170,"target":"present","response":"present","rt":800.29999995232,"correct":true,"confidence":5},{"trial_n":67,"min":85,"max":170,"target":"absent","response":"present","rt":903,"correct":false,"confidence":3},{"trial_n":68,"min":84,"max":171,"target":"present","response":"present","rt":832.09999990463,"correct":true,"confidence":5},{"trial_n":69,"min":84,"max":171,"target":"absent","response":"absent","rt":833.5,"correct":true,"confidence":4},{"trial_n":70,"min":85,"max":170,"target":"present","response":"present","rt":778.69999992847,"correct":true,"confidence":5},{"trial_n":71,"min":41,"max":214,"target":"present","response":"present","rt":4263.5,"correct":true,"confidence":-1},{"trial_n":72,"min":41,"max":214,"target":"present","response":"present","rt":478.60000002384,"correct":true,"confidence":-1},{"trial_n":73,"min":57,"max":198,"target":"absent","response":"absent","rt":520.80000007153,"correct":true,"confidence":-1},{"trial_n":74,"min":57,"max":198,"target":"absent","response":"absent","rt":488.30000007153,"correct":true,"confidence":-1},{"trial_n":75,"min":73,"max":182,"target":"present","response":"present","rt":536.70000004768,"correct":true,"confidence":-1},{"trial_n":76,"min":73,"max":182,"target":"present","response":"present","rt":555.60000002384,"correct":true,"confidence":-1},{"trial_n":77,"min":89,"max":166,"target":"absent","response":"absent","rt":3966.1999999285,"correct":true,"confidence":-1},{"trial_n":78,"min":89,"max":166,"target":"present","response":"present","rt":577,"correct":true,"confidence":-1},{"trial_n":79,"min":105,"max":150,"target":"present","response":"absent","rt":635.69999992847,"correct":false,"confidence":-1},{"trial_n":80,"min":89,"max":166,"target":"present","response":"present","rt":689.19999992847,"correct":true,"confidence":-1},{"trial_n":81,"min":89,"max":166,"target":"absent","response":"present","rt":650.29999995232,"correct":false,"confidence":-1},{"trial_n":82,"min":81,"max":174,"target":"present","response":"present","rt":483,"correct":true,"confidence":-1},{"trial_n":83,"min":81,"max":174,"target":"absent","response":"absent","rt":593.89999997616,"correct":true,"confidence":-1},{"trial_n":84,"min":89,"max":166,"target":"absent","response":"absent","rt":566.10000002384,"correct":true,"confidence":-1},{"trial_n":85,"min":89,"max":166,"target":"present","response":"present","rt":782.29999995232,"correct":true,"confidence":-1},{"trial_n":86,"min":97,"max":158,"target":"absent","response":"absent","rt":765.60000002384,"correct":true,"confidence":-1},{"trial_n":87,"min":97,"max":158,"target":"absent","response":"absent","rt":649.39999997616,"correct":true,"confidence":-1},{"trial_n":88,"min":105,"max":150,"target":"present","response":"present","rt":557.20000004768,"correct":true,"confidence":-1},{"trial_n":89,"min":105,"max":150,"target":"present","response":"absent","rt":582.79999995232,"correct":false,"confidence":-1},{"trial_n":90,"min":97,"max":158,"target":"present","response":"absent","rt":584.39999997616,"correct":false,"confidence":-1},{"trial_n":91,"min":93,"max":162,"target":"absent","response":"present","rt":1707.1000000238,"correct":false,"confidence":2},{"trial_n":92,"min":89,"max":166,"target":"present","response":"present","rt":843.10000002384,"correct":true,"confidence":3},{"trial_n":93,"min":89,"max":166,"target":"absent","response":"present","rt":431.39999997616,"correct":false,"confidence":5},{"trial_n":94,"min":85,"max":170,"target":"absent","response":"absent","rt":935,"correct":true,"confidence":4},{"trial_n":95,"min":85,"max":170,"target":"absent","response":"present","rt":1079.0999999046,"correct":false,"confidence":3},{"trial_n":96,"min":81,"max":174,"target":"present","response":"present","rt":428.89999997616,"correct":true,"confidence":5},{"trial_n":97,"min":81,"max":174,"target":"absent","response":"present","rt":530.69999992847,"correct":false,"confidence":5},{"trial_n":98,"min":77,"max":178,"target":"present","response":"absent","rt":1012.2999999523,"correct":false,"confidence":4},{"trial_n":99,"min":73,"max":182,"target":"absent","response":"present","rt":616,"correct":false,"confidence":5},{"trial_n":100,"min":69,"max":186,"target":"present","response":"present","rt":582.39999997616,"correct":true,"confidence":5},{"trial_n":101,"min":69,"max":186,"target":"present","response":"absent","rt":566.30000007153,"correct":false,"confidence":5},{"trial_n":102,"min":67,"max":188,"target":"present","response":"absent","rt":635.20000004768,"correct":false,"confidence":5},{"trial_n":103,"min":65,"max":190,"target":"present","response":"present","rt":598,"correct":true,"confidence":5},{"trial_n":104,"min":65,"max":190,"target":"present","response":"present","rt":492.70000004768,"correct":true,"confidence":5},{"trial_n":105,"min":67,"max":188,"target":"absent","response":"absent","rt":845.39999997616,"correct":true,"confidence":3},{"trial_n":106,"min":67,"max":188,"target":"present","response":"present","rt":431.29999995232,"correct":true,"confidence":5},{"trial_n":107,"min":69,"max":186,"target":"absent","response":"present","rt":420.70000004768,"correct":false,"confidence":5},{"trial_n":108,"min":67,"max":188,"target":"absent","response":"absent","rt":1211.5,"correct":true,"confidence":4},{"trial_n":109,"min":67,"max":188,"target":"absent","response":"absent","rt":1029.2999999523,"correct":true,"confidence":5},{"trial_n":110,"min":69,"max":186,"target":"absent","response":"present","rt":472.89999997616,"correct":false,"confidence":1},{"trial_n":111,"min":68,"max":187,"target":"present","response":"present","rt":476.10000002384,"correct":true,"confidence":5},{"trial_n":112,"min":68,"max":187,"target":"absent","response":"absent","rt":710.60000002384,"correct":true,"confidence":5},{"trial_n":113,"min":69,"max":186,"target":"present","response":"present","rt":561.79999995232,"correct":true,"confidence":5},{"trial_n":114,"min":69,"max":186,"target":"present","response":"present","rt":655,"correct":true,"confidence":5},{"trial_n":115,"min":70,"max":185,"target":"present","response":"absent","rt":829.20000004768,"correct":false,"confidence":1},{"trial_n":116,"min":69,"max":186,"target":"absent","response":"absent","rt":1156.6999999285,"correct":true,"confidence":3},{"trial_n":117,"min":69,"max":186,"target":"present","response":"present","rt":456.90000009537,"correct":true,"confidence":5},{"trial_n":118,"min":70,"max":185,"target":"present","response":"present","rt":580.80000007153,"correct":true,"confidence":5},{"trial_n":119,"min":70,"max":185,"target":"absent","response":"absent","rt":1340.6000000238,"correct":true,"confidence":2},{"trial_n":120,"min":71,"max":184,"target":"absent","response":"absent","rt":912.90000009537,"correct":true,"confidence":2},{"trial_n":121,"min":71,"max":184,"target":"present","response":"present","rt":363.89999997616,"correct":true,"confidence":5},{"trial_n":122,"min":72,"max":183,"target":"absent","response":"absent","rt":823.30000007153,"correct":true,"confidence":5},{"trial_n":123,"min":72,"max":183,"target":"present","response":"present","rt":658.70000004768,"correct":true,"confidence":5},{"trial_n":124,"min":73,"max":182,"target":"absent","response":"absent","rt":1806.8999999762,"correct":true,"confidence":1},{"trial_n":125,"min":73,"max":182,"target":"present","response":"present","rt":1021.7000000477,"correct":true,"confidence":3},{"trial_n":126,"min":74,"max":181,"target":"absent","response":"absent","rt":1234.8999999762,"correct":true,"confidence":2},{"trial_n":127,"min":74,"max":181,"target":"absent","response":"absent","rt":724.5,"correct":true,"confidence":5},{"trial_n":128,"min":75,"max":180,"target":"present","response":"present","rt":705.30000007153,"correct":true,"confidence":5},{"trial_n":129,"min":75,"max":180,"target":"absent","response":"absent","rt":1065.0999999046,"correct":true,"confidence":3},{"trial_n":130,"min":76,"max":179,"target":"absent","response":"absent","rt":1256.7999999523,"correct":true,"confidence":5},{"trial_n":131,"min":76,"max":179,"target":"absent","response":"absent","rt":1561.6999999285,"correct":true,"confidence":4},{"trial_n":132,"min":77,"max":178,"target":"absent","response":"absent","rt":775.60000002384,"correct":true,"confidence":5},{"trial_n":133,"min":77,"max":178,"target":"absent","response":"absent","rt":895.10000002384,"correct":true,"confidence":3},{"trial_n":134,"min":78,"max":177,"target":"present","response":"present","rt":541.89999997616,"correct":true,"confidence":5},{"trial_n":135,"min":78,"max":177,"target":"absent","response":"absent","rt":3112.2999999523,"correct":true,"confidence":1},{"trial_n":136,"min":79,"max":176,"target":"absent","response":"absent","rt":908.70000004768,"correct":true,"confidence":4},{"trial_n":137,"min":79,"max":176,"target":"present","response":"present","rt":946.70000004768,"correct":true,"confidence":4},{"trial_n":138,"min":80,"max":175,"target":"present","response":"absent","rt":671.20000004768,"correct":false,"confidence":5},{"trial_n":139,"min":79,"max":176,"target":"present","response":"present","rt":2492.5999999046,"correct":true,"confidence":4},{"trial_n":140,"min":79,"max":176,"target":"present","response":"present","rt":668.19999992847,"correct":true,"confidence":5}]