[{"trial_n":1,"min":25,"max":230,"target":"present","response":"present","rt":17113.299999997,"correct":true,"confidence":-1},{"trial_n":2,"min":25,"max":230,"target":"present","response":"present","rt":2200.5,"correct":true,"confidence":-1},{"trial_n":3,"min":41,"max":214,"target":"absent","response":"absent","rt":976.39999999106,"correct":true,"confidence":-1},{"trial_n":4,"min":41,"max":214,"target":"absent","response":"absent","rt":1615.1000000089,"correct":true,"confidence":-1},{"trial_n":5,"min":57,"max":198,"target":"present","response":"present","rt":914.20000000298,"correct":true,"confidence":-1},{"trial_n":6,"min":57,"max":198,"target":"absent","response":"absent","rt":1204.799999997,"correct":true,"confidence":-1},{"trial_n":7,"min":73,"max":182,"target":"present","response":"present","rt":1594.5,"correct":true,"confidence":-1},{"trial_n":8,"min":73,"max":182,"target":"absent","response":"absent","rt":1034.299999997,"correct":true,"confidence":-1},{"trial_n":9,"min":89,"max":166,"target":"present","response":"absent","rt":647,"correct":false,"confidence":-1},{"trial_n":10,"min":73,"max":182,"target":"present","response":"present","rt":993.89999999106,"correct":true,"confidence":-1},{"trial_n":11,"min":73,"max":182,"target":"present","response":"present","rt":712.29999999702,"correct":true,"confidence":-1},{"trial_n":12,"min":81,"max":174,"target":"present","response":"present","rt":846.39999999106,"correct":true,"confidence":-1},{"trial_n":13,"min":81,"max":174,"target":"present","response":"absent","rt":1004.5,"correct":false,"confidence":-1},{"trial_n":14,"min":73,"max":182,"target":"absent","response":"absent","rt":1167.200000003,"correct":true,"confidence":-1},{"trial_n":15,"min":73,"max":182,"target":"present","response":"present","rt":856.29999999702,"correct":true,"confidence":-1},{"trial_n":16,"min":81,"max":174,"target":"present","response":"present","rt":606.39999999106,"correct":true,"confidence":-1},{"trial_n":17,"min":81,"max":174,"target":"absent","response":"absent","rt":846.40000000596,"correct":true,"confidence":-1},{"trial_n":18,"min":89,"max":166,"target":"present","response":"present","rt":892.5,"correct":true,"confidence":-1},{"trial_n":19,"min":89,"max":166,"target":"absent","response":"absent","rt":978.39999999106,"correct":true,"confidence":-1},{"trial_n":20,"min":97,"max":158,"target":"present","response":"absent","rt":641.89999999106,"correct":false,"confidence":-1},{"trial_n":21,"min":93,"max":162,"target":"present","response":"absent","rt":6712.5,"correct":false,"confidence":1},{"trial_n":22,"min":89,"max":166,"target":"present","response":"absent","rt":2520.400000006,"correct":false,"confidence":1},{"trial_n":23,"min":85,"max":170,"target":"present","response":"present","rt":828.29999999702,"correct":true,"confidence":4},{"trial_n":24,"min":85,"max":170,"target":"absent","response":"absent","rt":1690.400000006,"correct":true,"confidence":2},{"trial_n":25,"min":89,"max":166,"target":"absent","response":"absent","rt":1152.400000006,"correct":true,"confidence":2},{"trial_n":26,"min":89,"max":166,"target":"present","response":"present","rt":1382.400000006,"correct":true,"confidence":2},{"trial_n":27,"min":93,"max":162,"target":"absent","response":"absent","rt":1418.5,"correct":true,"confidence":1},{"trial_n":28,"min":93,"max":162,"target":"absent","response":"absent","rt":4522.400000006,"correct":true,"confidence":3},{"trial_n":29,"min":97,"max":158,"target":"absent","response":"present","rt":1506.3999999911,"correct":false,"confidence":3},{"trial_n":30,"min":93,"max":162,"target":"present","response":"absent","rt":2006.1000000089,"correct":false,"confidence":4},{"trial_n":31,"min":91,"max":164,"target":"absent","response":"absent","rt":4592.6000000089,"correct":true,"confidence":2},{"trial_n":32,"min":91,"max":164,"target":"absent","response":"present","rt":847.40000000596,"correct":false,"confidence":4},{"trial_n":33,"min":89,"max":166,"target":"absent","response":"absent","rt":1331.6999999881,"correct":true,"confidence":3},{"trial_n":34,"min":89,"max":166,"target":"present","response":"absent","rt":4028.5,"correct":false,"confidence":1},{"trial_n":35,"min":87,"max":168,"target":"present","response":"present","rt":1026.5,"correct":true,"confidence":3},{"trial_n":36,"min":87,"max":168,"target":"present","response":"present","rt":868.5,"correct":true,"confidence":5},{"trial_n":37,"min":89,"max":166,"target":"absent","response":"present","rt":950.29999999702,"correct":false,"confidence":3},{"trial_n":38,"min":87,"max":168,"target":"present","response":"present","rt":4240.400000006,"correct":true,"confidence":2},{"trial_n":39,"min":87,"max":168,"target":"present","response":"present","rt":806.40000000596,"correct":true,"confidence":3},{"trial_n":40,"min":89,"max":166,"target":"absent","response":"present","rt":1501.400000006,"correct":false,"confidence":2},{"trial_n":41,"min":88,"max":167,"target":"absent","response":"absent","rt":2459.599999994,"correct":true,"confidence":2},{"trial_n":42,"min":88,"max":167,"target":"absent","response":"absent","rt":2113.299999997,"correct":true,"confidence":2},{"trial_n":43,"min":89,"max":166,"target":"absent","response":"absent","rt":2284,"correct":true,"confidence":2},{"trial_n":44,"min":89,"max":166,"target":"present","response":"present","rt":763.5,"correct":true,"confidence":5},{"trial_n":45,"min":90,"max":165,"target":"present","response":"present","rt":784.29999999702,"correct":true,"confidence":4},{"trial_n":46,"min":90,"max":165,"target":"absent","response":"present","rt":4752.299999997,"correct":false,"confidence":2},{"trial_n":47,"min":89,"max":166,"target":"absent","response":"absent","rt":1277.299999997,"correct":true,"confidence":3},{"trial_n":48,"min":89,"max":166,"target":"absent","response":"present","rt":3190.8999999911,"correct":false,"confidence":1},{"trial_n":49,"min":88,"max":167,"target":"absent","response":"present","rt":1971.099999994,"correct":false,"confidence":1},{"trial_n":50,"min":87,"max":168,"target":"present","response":"present","rt":861.89999999106,"correct":true,"confidence":5},{"trial_n":51,"min":87,"max":168,"target":"present","response":"absent","rt":810.40000000596,"correct":false,"confidence":4},{"trial_n":52,"min":86,"max":169,"target":"absent","response":"present","rt":904.70000000298,"correct":false,"confidence":4},{"trial_n":53,"min":85,"max":170,"target":"absent","response":"present","rt":1260,"correct":false,"confidence":3},{"trial_n":54,"min":84,"max":171,"target":"absent","response":"present","rt":923.09999999404,"correct":false,"confidence":2},{"trial_n":55,"min":83,"max":172,"target":"absent","response":"absent","rt":950.39999999106,"correct":true,"confidence":1},{"trial_n":56,"min":83,"max":172,"target":"absent","response":"absent","rt":1233.700000003,"correct":true,"confidence":1},{"trial_n":57,"min":84,"max":171,"target":"absent","response":"absent","rt":2246.5,"correct":true,"confidence":2},{"trial_n":58,"min":84,"max":171,"target":"present","response":"present","rt":852.5,"correct":true,"confidence":3},{"trial_n":59,"min":85,"max":170,"target":"present","response":"present","rt":776.29999999702,"correct":true,"confidence":4},{"trial_n":60,"min":85,"max":170,"target":"present","response":"present","rt":818.40000000596,"correct":true,"confidence":5},{"trial_n":61,"min":86,"max":169,"target":"present","response":"present","rt":706.90000000596,"correct":true,"confidence":5},{"trial_n":62,"min":86,"max":169,"target":"present","response":"present","rt":902.40000000596,"correct":true,"confidence":5},{"trial_n":63,"min":87,"max":168,"target":"absent","response":"present","rt":1198.3999999911,"correct":false,"confidence":3},{"trial_n":64,"min":86,"max":169,"target":"present","response":"present","rt":832.40000000596,"correct":true,"confidence":3},{"trial_n":65,"min":86,"max":169,"target":"present","response":"present","rt":746.5,"correct":true,"confidence":5},{"trial_n":66,"min":87,"max":168,"target":"absent","response":"present","rt":927.39999999106,"correct":false,"confidence":3},{"trial_n":67,"min":86,"max":169,"target":"absent","response":"absent","rt":1002.5,"correct":true,"confidence":2},{"trial_n":68,"min":86,"max":169,"target":"present","response":"present","rt":1137.700000003,"correct":true,"confidence":5},{"trial_n":69,"min":87,"max":168,"target":"present","response":"present","rt":826.40000000596,"correct":true,"confidence":5},{"trial_n":70,"min":87,"max":168,"target":"absent","response":"present","rt":860.5,"correct":false,"confidence":5},{"trial_n":71,"min":41,"max":214,"target":"present","response":"present","rt":33342.200000003,"correct":true,"confidence":-1},{"trial_n":72,"min":41,"max":214,"target":"present","response":"present","rt":490.5,"correct":true,"confidence":-1},{"trial_n":73,"min":57,"max":198,"target":"absent","response":"absent","rt":944.60000000894,"correct":true,"confidence":-1},{"trial_n":74,"min":57,"max":198,"target":"absent","response":"absent","rt":490.40000000596,"correct":true,"confidence":-1},{"trial_n":75,"min":73,"max":182,"target":"present","response":"present","rt":1018.400000006,"correct":true,"confidence":-1},{"trial_n":76,"min":73,"max":182,"target":"absent","response":"absent","rt":1392.799999997,"correct":true,"confidence":-1},{"trial_n":77,"min":89,"max":166,"target":"present","response":"present","rt":189.79999999702,"correct":true,"confidence":-1},{"trial_n":78,"min":89,"max":166,"target":"absent","response":"absent","rt":475.09999999404,"correct":true,"confidence":-1},{"trial_n":79,"min":105,"max":150,"target":"present","response":"present","rt":1140.700000003,"correct":true,"confidence":-1},{"trial_n":80,"min":105,"max":150,"target":"absent","response":"present","rt":548.59999999404,"correct":false,"confidence":-1},{"trial_n":81,"min":97,"max":158,"target":"present","response":"present","rt":996.5,"correct":true,"confidence":-1},{"trial_n":82,"min":97,"max":158,"target":"present","response":"present","rt":562.69999998808,"correct":true,"confidence":-1},{"trial_n":83,"min":105,"max":150,"target":"absent","response":"present","rt":341.70000000298,"correct":false,"confidence":-1},{"trial_n":84,"min":97,"max":158,"target":"absent","response":"present","rt":658.20000000298,"correct":false,"confidence":-1},{"trial_n":85,"min":89,"max":166,"target":"present","response":"present","rt":403.20000000298,"correct":true,"confidence":-1},{"trial_n":86,"min":89,"max":166,"target":"present","response":"present","rt":333.70000000298,"correct":true,"confidence":-1},{"trial_n":87,"min":97,"max":158,"target":"present","response":"present","rt":632,"correct":true,"confidence":-1},{"trial_n":88,"min":97,"max":158,"target":"absent","response":"present","rt":410,"correct":false,"confidence":-1},{"trial_n":89,"min":89,"max":166,"target":"present","response":"absent","rt":244,"correct":false,"confidence":-1},{"trial_n":90,"min":81,"max":174,"target":"present","response":"present","rt":156.89999999106,"correct":true,"confidence":-1},{"trial_n":91,"min":81,"max":174,"target":"present","response":"present","rt":91.5,"correct":true,"confidence":5},{"trial_n":92,"min":85,"max":170,"target":"present","response":"present","rt":336,"correct":true,"confidence":5},{"trial_n":93,"min":85,"max":170,"target":"present","response":"present","rt":37.40000000596,"correct":true,"confidence":5},{"trial_n":94,"min":89,"max":166,"target":"present","response":"present","rt":291.90000000596,"correct":true,"confidence":5},{"trial_n":95,"min":89,"max":166,"target":"present","response":"present","rt":239.5,"correct":true,"confidence":5},{"trial_n":96,"min":93,"max":162,"target":"present","response":"present","rt":286.29999999702,"correct":true,"confidence":1},{"trial_n":97,"min":93,"max":162,"target":"present","response":"present","rt":3979.900000006,"correct":true,"confidence":2},{"trial_n":98,"min":97,"max":158,"target":"present","response":"present","rt":256.40000000596,"correct":true,"confidence":5},{"trial_n":99,"min":97,"max":158,"target":"absent","response":"present","rt":692.09999999404,"correct":false,"confidence":3},{"trial_n":100,"min":93,"max":162,"target":"absent","response":"present","rt":888.10000000894,"correct":false,"confidence":1},{"trial_n":101,"min":91,"max":164,"target":"absent","response":"present","rt":1069.900000006,"correct":false,"confidence":1},{"trial_n":102,"min":89,"max":166,"target":"absent","response":"absent","rt":1754.799999997,"correct":true,"confidence":1},{"trial_n":103,"min":89,"max":166,"target":"absent","response":"absent","rt":654,"correct":true,"confidence":3},{"trial_n":104,"min":91,"max":164,"target":"absent","response":"present","rt":711,"correct":false,"confidence":2},{"trial_n":105,"min":89,"max":166,"target":"absent","response":"present","rt":1083.299999997,"correct":false,"confidence":2},{"trial_n":106,"min":87,"max":168,"target":"present","response":"present","rt":356.70000000298,"correct":true,"confidence":5},{"trial_n":107,"min":87,"max":168,"target":"present","response":"present","rt":279.20000000298,"correct":true,"confidence":4},{"trial_n":108,"min":89,"max":166,"target":"present","response":"present","rt":1397.900000006,"correct":true,"confidence":3},{"trial_n":109,"min":89,"max":166,"target":"absent","response":"present","rt":1711.799999997,"correct":false,"confidence":1},{"trial_n":110,"min":87,"max":168,"target":"absent","response":"present","rt":1439.700000003,"correct":false,"confidence":1},{"trial_n":111,"min":86,"max":169,"target":"present","response":"present","rt":119.5,"correct":true,"confidence":5},{"trial_n":112,"min":86,"max":169,"target":"absent","response":"present","rt":1781.099999994,"correct":false,"confidence":1},{"trial_n":113,"min":85,"max":170,"target":"absent","response":"present","rt":671.20000000298,"correct":false,"confidence":1},{"trial_n":114,"min":84,"max":171,"target":"absent","response":"absent","rt":1426.1000000089,"correct":true,"confidence":2},{"trial_n":115,"min":84,"max":171,"target":"absent","response":"absent","rt":1581.900000006,"correct":true,"confidence":1},{"trial_n":116,"min":85,"max":170,"target":"present","response":"present","rt":235.60000000894,"correct":true,"confidence":4},{"trial_n":117,"min":85,"max":170,"target":"present","response":"present","rt":270.70000000298,"correct":true,"confidence":3},{"trial_n":118,"min":86,"max":169,"target":"present","response":"present","rt":317.70000000298,"correct":true,"confidence":3},{"trial_n":119,"min":86,"max":169,"target":"present","response":"present","rt":183.40000000596,"correct":true,"confidence":5},{"trial_n":120,"min":87,"max":168,"target":"absent","response":"present","rt":933.29999999702,"correct":false,"confidence":1},{"trial_n":121,"min":86,"max":169,"target":"absent","response":"present","rt":255.20000000298,"correct":false,"confidence":2},{"trial_n":122,"min":85,"max":170,"target":"present","response":"present","rt":206.40000000596,"correct":true,"confidence":3},{"trial_n":123,"min":85,"max":170,"target":"absent","response":"present","rt":2214.900000006,"correct":false,"confidence":1},{"trial_n":124,"min":84,"max":171,"target":"present","response":"present","rt":162.5,"correct":true,"confidence":4},{"trial_n":125,"min":84,"max":171,"target":"absent","response":"present","rt":718.70000000298,"correct":false,"confidence":1},{"trial_n":126,"min":83,"max":172,"target":"absent","response":"present","rt":885.39999999106,"correct":false,"confidence":1},{"trial_n":127,"min":82,"max":173,"target":"absent","response":"present","rt":382.5,"correct":false,"confidence":3},{"trial_n":128,"min":81,"max":174,"target":"absent","response":"present","rt":1929.299999997,"correct":false,"confidence":3},{"trial_n":129,"min":80,"max":175,"target":"absent","response":"present","rt":1586,"correct":false,"confidence":2},{"trial_n":130,"min":79,"max":176,"target":"absent","response":"absent","rt":558,"correct":true,"confidence":2},{"trial_n":131,"min":79,"max":176,"target":"present","response":"present","rt":173.5,"correct":true,"confidence":3},{"trial_n":132,"min":80,"max":175,"target":"absent","response":"absent","rt":672.40000000596,"correct":true,"confidence":4},{"trial_n":133,"min":80,"max":175,"target":"present","response":"present","rt":418.39999999106,"correct":true,"confidence":3},{"trial_n":134,"min":81,"max":174,"target":"present","response":"present","rt":341.20000000298,"correct":true,"confidence":3},{"trial_n":135,"min":81,"max":174,"target":"absent","response":"absent","rt":391.5,"correct":true,"confidence":5},{"trial_n":136,"min":82,"max":173,"target":"present","response":"present","rt":149,"correct":true,"confidence":4},{"trial_n":137,"min":82,"max":173,"target":"present","response":"present","rt":181.90000000596,"correct":true,"confidence":4},{"trial_n":138,"min":83,"max":172,"target":"absent","response":"present","rt":695.79999999702,"correct":false,"confidence":4},{"trial_n":139,"min":82,"max":173,"target":"absent","response":"absent","rt":844.89999999106,"correct":true,"confidence":4},{"trial_n":140,"min":82,"max":173,"target":"present","response":"present","rt":600.5,"correct":true,"confidence":4}]