[{"trial_n":1,"min":25,"max":230,"target":"present","response":"absent","rt":7795,"correct":false,"confidence":-1},{"trial_n":2,"min":25,"max":230,"target":"present","response":"present","rt":1229,"correct":true,"confidence":-1},{"trial_n":3,"min":25,"max":230,"target":"absent","response":"absent","rt":1586,"correct":true,"confidence":-1},{"trial_n":4,"min":41,"max":214,"target":"absent","response":"absent","rt":901,"correct":true,"confidence":-1},{"trial_n":5,"min":41,"max":214,"target":"present","response":"present","rt":1029,"correct":true,"confidence":-1},{"trial_n":6,"min":57,"max":198,"target":"present","response":"present","rt":680,"correct":true,"confidence":-1},{"trial_n":7,"min":57,"max":198,"target":"present","response":"present","rt":728.99999999999,"correct":true,"confidence":-1},{"trial_n":8,"min":73,"max":182,"target":"present","response":"present","rt":724,"correct":true,"confidence":-1},{"trial_n":9,"min":73,"max":182,"target":"absent","response":"absent","rt":1320,"correct":true,"confidence":-1},{"trial_n":10,"min":89,"max":166,"target":"present","response":"absent","rt":610.99999999999,"correct":false,"confidence":-1},{"trial_n":11,"min":81,"max":174,"target":"absent","response":"absent","rt":1320,"correct":true,"confidence":-1},{"trial_n":12,"min":81,"max":174,"target":"present","response":"absent","rt":629.00000000001,"correct":false,"confidence":-1},{"trial_n":13,"min":73,"max":182,"target":"absent","response":"absent","rt":1404,"correct":true,"confidence":-1},{"trial_n":14,"min":73,"max":182,"target":"present","response":"absent","rt":883.00000000001,"correct":false,"confidence":-1},{"trial_n":15,"min":65,"max":190,"target":"present","response":"present","rt":967,"correct":true,"confidence":-1},{"trial_n":16,"min":65,"max":190,"target":"absent","response":"absent","rt":1171,"correct":true,"confidence":-1},{"trial_n":17,"min":73,"max":182,"target":"absent","response":"absent","rt":1103,"correct":true,"confidence":-1},{"trial_n":18,"min":73,"max":182,"target":"present","response":"present","rt":1197,"correct":true,"confidence":-1},{"trial_n":19,"min":81,"max":174,"target":"absent","response":"absent","rt":838,"correct":true,"confidence":-1},{"trial_n":20,"min":81,"max":174,"target":"present","response":"present","rt":1263,"correct":true,"confidence":-1},{"trial_n":21,"min":85,"max":170,"target":"absent","response":"absent","rt":4871,"correct":true,"confidence":2},{"trial_n":22,"min":85,"max":170,"target":"present","response":"present","rt":1930,"correct":true,"confidence":2},{"trial_n":23,"min":89,"max":166,"target":"present","response":"present","rt":3097,"correct":true,"confidence":2},{"trial_n":24,"min":89,"max":166,"target":"present","response":"present","rt":1049,"correct":true,"confidence":3},{"trial_n":25,"min":93,"max":162,"target":"absent","response":"absent","rt":2290,"correct":true,"confidence":1},{"trial_n":26,"min":93,"max":162,"target":"absent","response":"absent","rt":1207,"correct":true,"confidence":4},{"trial_n":27,"min":97,"max":158,"target":"absent","response":"present","rt":3974,"correct":false,"confidence":2},{"trial_n":28,"min":93,"max":162,"target":"present","response":"absent","rt":1500,"correct":false,"confidence":3},{"trial_n":29,"min":89,"max":166,"target":"present","response":"absent","rt":5667,"correct":false,"confidence":3},{"trial_n":30,"min":85,"max":170,"target":"present","response":"present","rt":1066,"correct":true,"confidence":2},{"trial_n":31,"min":85,"max":170,"target":"absent","response":"absent","rt":1293,"correct":true,"confidence":4},{"trial_n":32,"min":87,"max":168,"target":"absent","response":"absent","rt":910,"correct":true,"confidence":4},{"trial_n":33,"min":87,"max":168,"target":"absent","response":"absent","rt":2360,"correct":true,"confidence":4},{"trial_n":34,"min":89,"max":166,"target":"absent","response":"absent","rt":1042,"correct":true,"confidence":4},{"trial_n":35,"min":89,"max":166,"target":"absent","response":"absent","rt":926,"correct":true,"confidence":4},{"trial_n":36,"min":91,"max":164,"target":"absent","response":"absent","rt":2343,"correct":true,"confidence":4},{"trial_n":37,"min":91,"max":164,"target":"absent","response":"absent","rt":1042,"correct":true,"confidence":4},{"trial_n":38,"min":93,"max":162,"target":"present","response":"absent","rt":872.00000000003,"correct":false,"confidence":5},{"trial_n":39,"min":91,"max":164,"target":"absent","response":"absent","rt":1060,"correct":true,"confidence":5},{"trial_n":40,"min":91,"max":164,"target":"absent","response":"absent","rt":792,"correct":true,"confidence":5},{"trial_n":41,"min":92,"max":163,"target":"present","response":"absent","rt":1334,"correct":false,"confidence":4},{"trial_n":42,"min":91,"max":164,"target":"absent","response":"absent","rt":777,"correct":true,"confidence":4},{"trial_n":43,"min":91,"max":164,"target":"absent","response":"absent","rt":744,"correct":true,"confidence":4},{"trial_n":44,"min":92,"max":163,"target":"absent","response":"absent","rt":3343,"correct":true,"confidence":4},{"trial_n":45,"min":92,"max":163,"target":"present","response":"absent","rt":753,"correct":false,"confidence":4},{"trial_n":46,"min":91,"max":164,"target":"present","response":"present","rt":1105,"correct":true,"confidence":3},{"trial_n":47,"min":91,"max":164,"target":"absent","response":"absent","rt":1311,"correct":true,"confidence":4},{"trial_n":48,"min":92,"max":163,"target":"absent","response":"absent","rt":3777.9999999999,"correct":true,"confidence":3},{"trial_n":49,"min":92,"max":163,"target":"present","response":"present","rt":1839,"correct":true,"confidence":3},{"trial_n":50,"min":93,"max":162,"target":"absent","response":"present","rt":1594,"correct":false,"confidence":2},{"trial_n":51,"min":92,"max":163,"target":"absent","response":"present","rt":2607,"correct":false,"confidence":2},{"trial_n":52,"min":91,"max":164,"target":"present","response":"present","rt":1122,"correct":true,"confidence":3},{"trial_n":53,"min":91,"max":164,"target":"present","response":"present","rt":1106,"correct":true,"confidence":3},{"trial_n":54,"min":92,"max":163,"target":"present","response":"present","rt":1056,"correct":true,"confidence":4},{"trial_n":55,"min":92,"max":163,"target":"present","response":"present","rt":1923,"correct":true,"confidence":2},{"trial_n":56,"min":93,"max":162,"target":"absent","response":"absent","rt":1012,"correct":true,"confidence":4},{"trial_n":57,"min":93,"max":162,"target":"absent","response":"present","rt":1130,"correct":false,"confidence":3},{"trial_n":58,"min":92,"max":163,"target":"absent","response":"absent","rt":1613,"correct":true,"confidence":3},{"trial_n":59,"min":92,"max":163,"target":"absent","response":"present","rt":1431,"correct":false,"confidence":2},{"trial_n":60,"min":91,"max":164,"target":"present","response":"absent","rt":1490.0000000001,"correct":false,"confidence":4},{"trial_n":61,"min":90,"max":165,"target":"present","response":"absent","rt":1627,"correct":false,"confidence":2},{"trial_n":62,"min":89,"max":166,"target":"absent","response":"absent","rt":1681.0000000001,"correct":true,"confidence":4},{"trial_n":63,"min":89,"max":166,"target":"present","response":"absent","rt":1606,"correct":false,"confidence":3},{"trial_n":64,"min":88,"max":167,"target":"present","response":"absent","rt":1573,"correct":false,"confidence":2},{"trial_n":65,"min":87,"max":168,"target":"present","response":"present","rt":1040,"correct":true,"confidence":4},{"trial_n":66,"min":87,"max":168,"target":"absent","response":"absent","rt":1482,"correct":true,"confidence":5},{"trial_n":67,"min":88,"max":167,"target":"present","response":"absent","rt":2940,"correct":false,"confidence":2},{"trial_n":68,"min":87,"max":168,"target":"present","response":"present","rt":1690.9999999999,"correct":true,"confidence":2},{"trial_n":69,"min":87,"max":168,"target":"present","response":"present","rt":1457.0000000001,"correct":true,"confidence":4},{"trial_n":70,"min":88,"max":167,"target":"present","response":"present","rt":973.99999999994,"correct":true,"confidence":3},{"trial_n":71,"min":41,"max":214,"target":"present","response":"present","rt":1835,"correct":true,"confidence":-1},{"trial_n":72,"min":41,"max":214,"target":"present","response":"present","rt":1104,"correct":true,"confidence":-1},{"trial_n":73,"min":57,"max":198,"target":"absent","response":"absent","rt":1574,"correct":true,"confidence":-1},{"trial_n":74,"min":57,"max":198,"target":"absent","response":"absent","rt":739,"correct":true,"confidence":-1},{"trial_n":75,"min":73,"max":182,"target":"present","response":"present","rt":1491,"correct":true,"confidence":-1},{"trial_n":76,"min":73,"max":182,"target":"present","response":"present","rt":1007,"correct":true,"confidence":-1},{"trial_n":77,"min":89,"max":166,"target":"present","response":"absent","rt":3288.0000000001,"correct":false,"confidence":-1},{"trial_n":78,"min":73,"max":182,"target":"present","response":"present","rt":723,"correct":true,"confidence":-1},{"trial_n":79,"min":73,"max":182,"target":"absent","response":"absent","rt":1521.9999999999,"correct":true,"confidence":-1},{"trial_n":80,"min":89,"max":166,"target":"present","response":"absent","rt":5655,"correct":false,"confidence":-1},{"trial_n":81,"min":81,"max":174,"target":"absent","response":"absent","rt":856,"correct":true,"confidence":-1},{"trial_n":82,"min":81,"max":174,"target":"present","response":"present","rt":1276,"correct":true,"confidence":-1},{"trial_n":83,"min":89,"max":166,"target":"absent","response":"absent","rt":1391,"correct":true,"confidence":-1},{"trial_n":84,"min":89,"max":166,"target":"absent","response":"absent","rt":1257,"correct":true,"confidence":-1},{"trial_n":85,"min":97,"max":158,"target":"absent","response":"present","rt":1643.0000000001,"correct":false,"confidence":-1},{"trial_n":86,"min":89,"max":166,"target":"absent","response":"present","rt":1507,"correct":false,"confidence":-1},{"trial_n":87,"min":81,"max":174,"target":"absent","response":"absent","rt":1005,"correct":true,"confidence":-1},{"trial_n":88,"min":81,"max":174,"target":"absent","response":"absent","rt":1539.0000000001,"correct":true,"confidence":-1},{"trial_n":89,"min":89,"max":166,"target":"present","response":"absent","rt":1090,"correct":false,"confidence":-1},{"trial_n":90,"min":81,"max":174,"target":"present","response":"present","rt":1090,"correct":true,"confidence":-1},{"trial_n":91,"min":81,"max":174,"target":"absent","response":"absent","rt":1290,"correct":true,"confidence":3},{"trial_n":92,"min":85,"max":170,"target":"present","response":"present","rt":1810,"correct":true,"confidence":2},{"trial_n":93,"min":85,"max":170,"target":"absent","response":"present","rt":4259,"correct":false,"confidence":2},{"trial_n":94,"min":81,"max":174,"target":"present","response":"present","rt":842,"correct":true,"confidence":4},{"trial_n":95,"min":81,"max":174,"target":"absent","response":"absent","rt":1458,"correct":true,"confidence":2},{"trial_n":96,"min":85,"max":170,"target":"absent","response":"absent","rt":4145,"correct":true,"confidence":2},{"trial_n":97,"min":85,"max":170,"target":"absent","response":"absent","rt":1324.9999999999,"correct":true,"confidence":4},{"trial_n":98,"min":89,"max":166,"target":"present","response":"present","rt":1362.0000000001,"correct":true,"confidence":2},{"trial_n":99,"min":89,"max":166,"target":"absent","response":"present","rt":1692.9999999999,"correct":false,"confidence":2},{"trial_n":100,"min":85,"max":170,"target":"present","response":"absent","rt":1579,"correct":false,"confidence":2},{"trial_n":101,"min":83,"max":172,"target":"present","response":"present","rt":1330.9999999999,"correct":true,"confidence":4},{"trial_n":102,"min":83,"max":172,"target":"present","response":"present","rt":1250,"correct":true,"confidence":2},{"trial_n":103,"min":85,"max":170,"target":"absent","response":"present","rt":1600,"correct":false,"confidence":2},{"trial_n":104,"min":83,"max":172,"target":"absent","response":"present","rt":1449,"correct":false,"confidence":2},{"trial_n":105,"min":81,"max":174,"target":"absent","response":"absent","rt":1851,"correct":true,"confidence":2},{"trial_n":106,"min":81,"max":174,"target":"absent","response":"absent","rt":1182,"correct":true,"confidence":3},{"trial_n":107,"min":83,"max":172,"target":"present","response":"present","rt":8548,"correct":true,"confidence":1},{"trial_n":108,"min":83,"max":172,"target":"present","response":"present","rt":1016,"correct":true,"confidence":5},{"trial_n":109,"min":85,"max":170,"target":"present","response":"present","rt":1214,"correct":true,"confidence":5},{"trial_n":110,"min":85,"max":170,"target":"present","response":"present","rt":966,"correct":true,"confidence":5},{"trial_n":111,"min":86,"max":169,"target":"present","response":"present","rt":758.00000000012,"correct":true,"confidence":4},{"trial_n":112,"min":86,"max":169,"target":"absent","response":"absent","rt":2067,"correct":true,"confidence":2},{"trial_n":113,"min":87,"max":168,"target":"absent","response":"present","rt":981,"correct":false,"confidence":2},{"trial_n":114,"min":86,"max":169,"target":"present","response":"present","rt":1800.0000000001,"correct":true,"confidence":2},{"trial_n":115,"min":86,"max":169,"target":"present","response":"present","rt":1086,"correct":true,"confidence":3},{"trial_n":116,"min":87,"max":168,"target":"absent","response":"present","rt":1919.0000000001,"correct":false,"confidence":2},{"trial_n":117,"min":86,"max":169,"target":"absent","response":"present","rt":1919,"correct":false,"confidence":1},{"trial_n":118,"min":85,"max":170,"target":"absent","response":"absent","rt":1068,"correct":true,"confidence":2},{"trial_n":119,"min":85,"max":170,"target":"absent","response":"absent","rt":1069.0000000001,"correct":true,"confidence":2},{"trial_n":120,"min":86,"max":169,"target":"absent","response":"absent","rt":1518,"correct":true,"confidence":2},{"trial_n":121,"min":86,"max":169,"target":"present","response":"absent","rt":1872,"correct":false,"confidence":2},{"trial_n":122,"min":85,"max":170,"target":"present","response":"present","rt":835,"correct":true,"confidence":3},{"trial_n":123,"min":85,"max":170,"target":"present","response":"present","rt":1387,"correct":true,"confidence":3},{"trial_n":124,"min":86,"max":169,"target":"absent","response":"absent","rt":2294,"correct":true,"confidence":2},{"trial_n":125,"min":86,"max":169,"target":"present","response":"present","rt":868,"correct":true,"confidence":3},{"trial_n":126,"min":87,"max":168,"target":"absent","response":"present","rt":787,"correct":false,"confidence":3},{"trial_n":127,"min":86,"max":169,"target":"present","response":"present","rt":871,"correct":true,"confidence":4},{"trial_n":128,"min":86,"max":169,"target":"absent","response":"present","rt":1071,"correct":false,"confidence":2},{"trial_n":129,"min":85,"max":170,"target":"absent","response":"present","rt":871.00000000012,"correct":false,"confidence":3},{"trial_n":130,"min":84,"max":171,"target":"present","response":"absent","rt":1320,"correct":false,"confidence":1},{"trial_n":131,"min":83,"max":172,"target":"present","response":"present","rt":2988,"correct":true,"confidence":3},{"trial_n":132,"min":83,"max":172,"target":"present","response":"present","rt":956,"correct":true,"confidence":3},{"trial_n":133,"min":84,"max":171,"target":"absent","response":"absent","rt":1455.9999999999,"correct":true,"confidence":2},{"trial_n":134,"min":84,"max":171,"target":"present","response":"present","rt":1555.0000000001,"correct":true,"confidence":3},{"trial_n":135,"min":85,"max":170,"target":"present","response":"absent","rt":6956.9999999999,"correct":false,"confidence":2},{"trial_n":136,"min":84,"max":171,"target":"present","response":"absent","rt":1107,"correct":false,"confidence":3},{"trial_n":137,"min":83,"max":172,"target":"absent","response":"present","rt":14525,"correct":false,"confidence":3},{"trial_n":138,"min":82,"max":173,"target":"present","response":"present","rt":1558,"correct":true,"confidence":2},{"trial_n":139,"min":82,"max":173,"target":"present","response":"absent","rt":1883.0000000001,"correct":false,"confidence":1},{"trial_n":140,"min":81,"max":174,"target":"absent","response":"absent","rt":1722.9999999999,"correct":true,"confidence":1}]