[{"trial_n":1,"n_dots":4.25,"target":"left","response":"left","rt":10183.100000024,"correct":true,"confidence":-1},{"trial_n":2,"n_dots":4.25,"target":"right","response":"left","rt":1494,"correct":false,"confidence":-1},{"trial_n":3,"n_dots":4.65,"target":"left","response":"left","rt":466.89999997616,"correct":true,"confidence":-1},{"trial_n":4,"n_dots":4.65,"target":"left","response":"left","rt":420.90000009537,"correct":true,"confidence":-1},{"trial_n":5,"n_dots":4.25,"target":"right","response":"right","rt":357.60000002384,"correct":true,"confidence":-1},{"trial_n":6,"n_dots":4.25,"target":"right","response":"right","rt":396,"correct":true,"confidence":-1},{"trial_n":7,"n_dots":3.85,"target":"left","response":"left","rt":450.39999997616,"correct":true,"confidence":-1},{"trial_n":8,"n_dots":3.85,"target":"right","response":"left","rt":504.79999995232,"correct":false,"confidence":-1},{"trial_n":9,"n_dots":4.05,"target":"left","response":"left","rt":519.10000002384,"correct":true,"confidence":-1},{"trial_n":10,"n_dots":4.05,"target":"right","response":"right","rt":363,"correct":true,"confidence":-1},{"trial_n":11,"n_dots":3.85,"target":"right","response":"left","rt":799.10000002384,"correct":false,"confidence":-1},{"trial_n":12,"n_dots":4.05,"target":"right","response":"right","rt":428,"correct":true,"confidence":-1},{"trial_n":13,"n_dots":4.05,"target":"left","response":"left","rt":701.10000002384,"correct":true,"confidence":-1},{"trial_n":14,"n_dots":3.95,"target":"right","response":"right","rt":295.89999997616,"correct":true,"confidence":-1},{"trial_n":15,"n_dots":3.95,"target":"left","response":"left","rt":343.20000004768,"correct":true,"confidence":-1},{"trial_n":16,"n_dots":3.85,"target":"left","response":"left","rt":526.10000002384,"correct":true,"confidence":-1},{"trial_n":17,"n_dots":3.85,"target":"left","response":"left","rt":13.600000023842,"correct":true,"confidence":-1},{"trial_n":18,"n_dots":3.75,"target":"left","response":"left","rt":226.10000002384,"correct":true,"confidence":-1},{"trial_n":19,"n_dots":3.75,"target":"right","response":"right","rt":159,"correct":true,"confidence":-1},{"trial_n":20,"n_dots":3.65,"target":"left","response":"left","rt":1655.5,"correct":true,"confidence":-1},{"trial_n":21,"n_dots":3.65,"target":"left","response":"left","rt":437.09999990463,"correct":true,"confidence":2},{"trial_n":22,"n_dots":3.55,"target":"left","response":"right","rt":916.5,"correct":false,"confidence":2},{"trial_n":23,"n_dots":3.65,"target":"left","response":"left","rt":413.5,"correct":true,"confidence":4},{"trial_n":24,"n_dots":3.65,"target":"left","response":"left","rt":2025.3999999762,"correct":true,"confidence":3},{"trial_n":25,"n_dots":3.55,"target":"right","response":"right","rt":1219.5,"correct":true,"confidence":2},{"trial_n":26,"n_dots":3.55,"target":"left","response":"left","rt":692.29999995232,"correct":true,"confidence":3},{"trial_n":27,"n_dots":3.45,"target":"left","response":"left","rt":1109.1999999285,"correct":true,"confidence":1},{"trial_n":28,"n_dots":3.45,"target":"left","response":"left","rt":430.39999997616,"correct":true,"confidence":3},{"trial_n":29,"n_dots":3.35,"target":"left","response":"left","rt":1924.6000000238,"correct":true,"confidence":3},{"trial_n":30,"n_dots":3.35,"target":"right","response":"right","rt":1070.7999999523,"correct":true,"confidence":2},{"trial_n":31,"n_dots":3.25,"target":"left","response":"left","rt":831.30000007153,"correct":true,"confidence":4},{"trial_n":32,"n_dots":3.25,"target":"right","response":"right","rt":569.79999995232,"correct":true,"confidence":3},{"trial_n":33,"n_dots":3.15,"target":"right","response":"left","rt":1209.2000000477,"correct":false,"confidence":1},{"trial_n":34,"n_dots":3.25,"target":"left","response":"right","rt":1384.2999999523,"correct":false,"confidence":1},{"trial_n":35,"n_dots":3.35,"target":"right","response":"right","rt":720.70000004768,"correct":true,"confidence":2},{"trial_n":36,"n_dots":3.35,"target":"left","response":"left","rt":807.80000007153,"correct":true,"confidence":2},{"trial_n":37,"n_dots":3.25,"target":"right","response":"right","rt":509.30000007153,"correct":true,"confidence":2},{"trial_n":38,"n_dots":3.25,"target":"right","response":"right","rt":862.40000009537,"correct":true,"confidence":3},{"trial_n":39,"n_dots":3.15,"target":"right","response":"right","rt":872.10000002384,"correct":true,"confidence":2},{"trial_n":40,"n_dots":3.15,"target":"right","response":"right","rt":1966.8999999762,"correct":true,"confidence":2},{"trial_n":41,"n_dots":3.05,"target":"right","response":"right","rt":725.79999995232,"correct":true,"confidence":2},{"trial_n":42,"n_dots":3.05,"target":"left","response":"left","rt":1077,"correct":true,"confidence":2},{"trial_n":43,"n_dots":2.95,"target":"left","response":"left","rt":609.29999995232,"correct":true,"confidence":3},{"trial_n":44,"n_dots":2.95,"target":"right","response":"right","rt":1263.8000000715,"correct":true,"confidence":1},{"trial_n":45,"n_dots":2.85,"target":"right","response":"right","rt":855.20000004768,"correct":true,"confidence":1},{"trial_n":46,"n_dots":2.85,"target":"left","response":"left","rt":954.5,"correct":true,"confidence":2},{"trial_n":47,"n_dots":2.75,"target":"left","response":"left","rt":521,"correct":true,"confidence":2},{"trial_n":48,"n_dots":2.75,"target":"right","response":"left","rt":2441.5999999046,"correct":false,"confidence":1},{"trial_n":49,"n_dots":2.85,"target":"right","response":"left","rt":1209.6000000238,"correct":false,"confidence":1},{"trial_n":50,"n_dots":2.95,"target":"right","response":"left","rt":786.60000002384,"correct":false,"confidence":2},{"trial_n":51,"n_dots":3.05,"target":"right","response":"left","rt":1689.0999999046,"correct":false,"confidence":2},{"trial_n":52,"n_dots":3.15,"target":"right","response":"left","rt":2343.3999999762,"correct":false,"confidence":1},{"trial_n":53,"n_dots":3.25,"target":"left","response":"left","rt":485,"correct":true,"confidence":3},{"trial_n":54,"n_dots":3.25,"target":"left","response":"left","rt":768.39999997616,"correct":true,"confidence":3},{"trial_n":55,"n_dots":3.15,"target":"right","response":"right","rt":2357,"correct":true,"confidence":1},{"trial_n":56,"n_dots":3.15,"target":"right","response":"right","rt":628.5,"correct":true,"confidence":2},{"trial_n":57,"n_dots":3.05,"target":"right","response":"left","rt":4806.6000000238,"correct":false,"confidence":1},{"trial_n":58,"n_dots":3.15,"target":"right","response":"left","rt":5542.0999999046,"correct":false,"confidence":1},{"trial_n":59,"n_dots":3.25,"target":"left","response":"right","rt":661.5,"correct":false,"confidence":1},{"trial_n":60,"n_dots":3.35,"target":"right","response":"right","rt":330.5,"correct":true,"confidence":1},{"trial_n":61,"n_dots":3.35,"target":"right","response":"right","rt":772.39999997616,"correct":true,"confidence":2},{"trial_n":62,"n_dots":3.25,"target":"right","response":"right","rt":610.29999995232,"correct":true,"confidence":2},{"trial_n":63,"n_dots":3.25,"target":"left","response":"left","rt":301.39999997616,"correct":true,"confidence":2},{"trial_n":64,"n_dots":3.15,"target":"left","response":"right","rt":1314.7999999523,"correct":false,"confidence":1},{"trial_n":65,"n_dots":3.25,"target":"left","response":"left","rt":353.39999997616,"correct":true,"confidence":3},{"trial_n":66,"n_dots":3.25,"target":"right","response":"left","rt":1416.5,"correct":false,"confidence":1},{"trial_n":67,"n_dots":3.35,"target":"right","response":"right","rt":743.79999995232,"correct":true,"confidence":3},{"trial_n":68,"n_dots":3.35,"target":"left","response":"left","rt":1108.5999999046,"correct":true,"confidence":3},{"trial_n":69,"n_dots":3.25,"target":"left","response":"left","rt":1231.2999999523,"correct":true,"confidence":3},{"trial_n":70,"n_dots":3.25,"target":"left","response":"left","rt":1137.5,"correct":true,"confidence":3},{"trial_n":71,"n_dots":3.15,"target":"right","response":"right","rt":874.39999997616,"correct":true,"confidence":4},{"trial_n":72,"n_dots":3.15,"target":"right","response":"right","rt":1082,"correct":true,"confidence":2},{"trial_n":73,"n_dots":3.05,"target":"left","response":"left","rt":651.70000004768,"correct":true,"confidence":2},{"trial_n":74,"n_dots":3.05,"target":"left","response":"left","rt":2212.5,"correct":true,"confidence":1},{"trial_n":75,"n_dots":2.95,"target":"left","response":"left","rt":932.19999992847,"correct":true,"confidence":2},{"trial_n":76,"n_dots":2.95,"target":"right","response":"left","rt":907.10000002384,"correct":false,"confidence":3},{"trial_n":77,"n_dots":3.05,"target":"left","response":"left","rt":1042.7999999523,"correct":true,"confidence":2},{"trial_n":78,"n_dots":3.05,"target":"right","response":"right","rt":696.60000002384,"correct":true,"confidence":3},{"trial_n":79,"n_dots":2.95,"target":"left","response":"left","rt":455.79999995232,"correct":true,"confidence":3},{"trial_n":80,"n_dots":2.95,"target":"left","response":"right","rt":828.10000002384,"correct":false,"confidence":1},{"trial_n":81,"n_dots":3.05,"target":"right","response":"right","rt":1740.3999999762,"correct":true,"confidence":1},{"trial_n":82,"n_dots":3.05,"target":"left","response":"left","rt":1775,"correct":true,"confidence":2},{"trial_n":83,"n_dots":2.95,"target":"right","response":"left","rt":1689.6000000238,"correct":false,"confidence":1},{"trial_n":84,"n_dots":3.05,"target":"left","response":"right","rt":2759.2000000477,"correct":false,"confidence":1},{"trial_n":85,"n_dots":3.15,"target":"right","response":"right","rt":388.69999992847,"correct":true,"confidence":3},{"trial_n":86,"n_dots":3.15,"target":"left","response":"left","rt":751.5,"correct":true,"confidence":2},{"trial_n":87,"n_dots":3.05,"target":"left","response":"right","rt":272.10000002384,"correct":false,"confidence":3},{"trial_n":88,"n_dots":3.15,"target":"left","response":"right","rt":811.60000002384,"correct":false,"confidence":2},{"trial_n":89,"n_dots":3.25,"target":"left","response":"left","rt":531.10000002384,"correct":true,"confidence":2},{"trial_n":90,"n_dots":3.25,"target":"right","response":"right","rt":539.10000002384,"correct":true,"confidence":2},{"trial_n":91,"n_dots":3.15,"target":"left","response":"left","rt":882.20000004768,"correct":true,"confidence":3},{"trial_n":92,"n_dots":3.15,"target":"right","response":"right","rt":455.30000007153,"correct":true,"confidence":2},{"trial_n":93,"n_dots":3.05,"target":"left","response":"left","rt":282,"correct":true,"confidence":3},{"trial_n":94,"n_dots":3.05,"target":"left","response":"left","rt":1177.1000000238,"correct":true,"confidence":2},{"trial_n":95,"n_dots":2.95,"target":"left","response":"right","rt":441,"correct":false,"confidence":2},{"trial_n":96,"n_dots":3.05,"target":"right","response":"left","rt":555,"correct":false,"confidence":2},{"trial_n":97,"n_dots":3.15,"target":"left","response":"left","rt":338,"correct":true,"confidence":4},{"trial_n":98,"n_dots":3.15,"target":"right","response":"left","rt":911.09999990463,"correct":false,"confidence":3},{"trial_n":99,"n_dots":3.25,"target":"left","response":"left","rt":365.60000002384,"correct":true,"confidence":4},{"trial_n":100,"n_dots":3.25,"target":"right","response":"right","rt":698.5,"correct":true,"confidence":2},{"trial_n":101,"n_dots":3.15,"target":"right","response":"right","rt":1385.5,"correct":true,"confidence":2},{"trial_n":102,"n_dots":3.15,"target":"left","response":"left","rt":266,"correct":true,"confidence":4},{"trial_n":103,"n_dots":3.05,"target":"left","response":"left","rt":954.29999995232,"correct":true,"confidence":1},{"trial_n":104,"n_dots":3.05,"target":"right","response":"right","rt":867.70000004768,"correct":true,"confidence":2},{"trial_n":105,"n_dots":2.95,"target":"right","response":"right","rt":1453,"correct":true,"confidence":2},{"trial_n":106,"n_dots":2.95,"target":"left","response":"left","rt":526.80000007153,"correct":true,"confidence":3},{"trial_n":107,"n_dots":2.85,"target":"left","response":"left","rt":3966.2000000477,"correct":true,"confidence":1},{"trial_n":108,"n_dots":2.85,"target":"right","response":"right","rt":1537,"correct":true,"confidence":1},{"trial_n":109,"n_dots":2.75,"target":"right","response":"right","rt":400.60000002384,"correct":true,"confidence":2},{"trial_n":110,"n_dots":2.75,"target":"right","response":"left","rt":942.10000002384,"correct":false,"confidence":1},{"trial_n":111,"n_dots":2.85,"target":"left","response":"left","rt":296.70000004768,"correct":true,"confidence":2},{"trial_n":112,"n_dots":2.85,"target":"right","response":"left","rt":499.39999997616,"correct":false,"confidence":1},{"trial_n":113,"n_dots":2.95,"target":"right","response":"right","rt":1024.5,"correct":true,"confidence":2},{"trial_n":114,"n_dots":2.95,"target":"right","response":"left","rt":1248.1000000238,"correct":false,"confidence":1},{"trial_n":115,"n_dots":3.05,"target":"right","response":"right","rt":564.69999992847,"correct":true,"confidence":1},{"trial_n":116,"n_dots":3.05,"target":"left","response":"left","rt":1167.8000000715,"correct":true,"confidence":2},{"trial_n":117,"n_dots":2.95,"target":"left","response":"left","rt":267.60000002384,"correct":true,"confidence":3},{"trial_n":118,"n_dots":2.95,"target":"right","response":"left","rt":1426.3000000715,"correct":false,"confidence":2},{"trial_n":119,"n_dots":3.05,"target":"right","response":"left","rt":810.09999990463,"correct":false,"confidence":1},{"trial_n":120,"n_dots":3.15,"target":"right","response":"left","rt":1261.8000000715,"correct":false,"confidence":1}]