[{"trial_n":1,"span":8,"encoder":"62201565","distractor":"62201515","target":"present","response":"present","rt":"8211.799999997","correct":true,"confidence":-1},{"trial_n":2,"span":8,"encoder":"53925471","distractor":"53925474","target":"present","response":"present","rt":"17383.599999994","correct":true,"confidence":-1},{"trial_n":3,"span":10,"encoder":"4730848595","distractor":"4730848895","target":"absent","response":"absent","rt":"3714.299999997","correct":true,"confidence":-1},{"trial_n":4,"span":10,"encoder":"8601814536","distractor":"8601814535","target":"absent","response":"absent","rt":"3608.700000003","correct":true,"confidence":-1},{"trial_n":5,"span":12,"encoder":"903877189368","distractor":"903677189368","target":"present","response":"absent","rt":"2906.700000003","correct":false,"confidence":-1},{"trial_n":6,"span":10,"encoder":"8698048916","distractor":"8698041916","target":"present","response":"present","rt":"3830.299999997","correct":true,"confidence":-1},{"trial_n":7,"span":10,"encoder":"5721086562","distractor":"5521086562","target":"absent","response":"absent","rt":"1838.299999997","correct":true,"confidence":-1},{"trial_n":8,"span":12,"encoder":"111742207564","distractor":"111742207567","target":"absent","response":"absent","rt":"4633.1999999881","correct":true,"confidence":-1},{"trial_n":9,"span":12,"encoder":"123009806852","distractor":"123009606852","target":"present","response":"present","rt":"4562.3999999911","correct":true,"confidence":-1},{"trial_n":10,"span":14,"encoder":"89404284524376","distractor":"89404284521376","target":"absent","response":"absent","rt":"7351.700000003","correct":true,"confidence":-1},{"trial_n":11,"span":14,"encoder":"48369453174702","distractor":"48369453174706","target":"absent","response":"absent","rt":"1484.3999999911","correct":true,"confidence":-1},{"trial_n":12,"span":15,"encoder":"604757663600275","distractor":"604757663600475","target":"absent","response":"present","rt":"5738.099999994","correct":false,"confidence":-1},{"trial_n":13,"span":14,"encoder":"87969178599618","distractor":"47969178599618","target":"absent","response":"present","rt":"1812.3999999911","correct":false,"confidence":-1},{"trial_n":14,"span":13,"encoder":"5102004121263","distractor":"5102004121267","target":"present","response":"present","rt":"3664.299999997","correct":true,"confidence":-1},{"trial_n":15,"span":13,"encoder":"0386354430595","distractor":"0386354430598","target":"present","response":"present","rt":"18921.299999997","correct":true,"confidence":-1},{"trial_n":16,"span":14,"encoder":"15938059779355","distractor":"15938059719355","target":"present","response":"present","rt":"4037.299999997","correct":true,"confidence":-1},{"trial_n":17,"span":14,"encoder":"72481825100720","distractor":"72481825108720","target":"present","response":"absent","rt":"4105.700000003","correct":false,"confidence":-1},{"trial_n":18,"span":13,"encoder":"1276081544417","distractor":"1276081564417","target":"absent","response":"present","rt":"1847.3999999911","correct":false,"confidence":-1},{"trial_n":19,"span":12,"encoder":"008465772889","distractor":"008455772889","target":"absent","response":"present","rt":"1824.099999994","correct":false,"confidence":-1},{"trial_n":20,"span":11,"encoder":"74927438625","distractor":"74927438725","target":"present","response":"present","rt":"4810.6000000089","correct":true,"confidence":-1},{"trial_n":21,"span":11,"encoder":"19428202035","distractor":"19428202005","target":"present","response":"present","rt":"4596.3999999911","correct":true,"confidence":2},{"trial_n":22,"span":12,"encoder":"089576465457","distractor":"089516465457","target":"present","response":"present","rt":"4222.400000006","correct":true,"confidence":2},{"trial_n":23,"span":12,"encoder":"051852003515","distractor":"001852003515","target":"present","response":"present","rt":"7747","correct":true,"confidence":5},{"trial_n":24,"span":13,"encoder":"7313498846762","distractor":"7313498826762","target":"absent","response":"absent","rt":"10376.299999997","correct":true,"confidence":4},{"trial_n":25,"span":13,"encoder":"3159109254082","distractor":"3149109254082","target":"absent","response":"absent","rt":"2977.3999999911","correct":true,"confidence":4},{"trial_n":26,"span":14,"encoder":"98699546677361","distractor":"98699546677061","target":"present","response":"present","rt":"7058.8999999911","correct":true,"confidence":3},{"trial_n":27,"span":14,"encoder":"92719018461173","distractor":"92719018661173","target":"present","response":"present","rt":"9691.700000003","correct":true,"confidence":4},{"trial_n":28,"span":15,"encoder":"541833904238717","distractor":"541033904238717","target":"absent","response":"absent","rt":"8370.1000000089","correct":true,"confidence":3},{"trial_n":29,"span":15,"encoder":"976914024713956","distractor":"974914024713956","target":"absent","response":"absent","rt":"4745.5","correct":true,"confidence":2},{"trial_n":30,"span":16,"encoder":"3599971800302424","distractor":"3599971800302474","target":"present","response":"present","rt":"10615.399999991","correct":true,"confidence":2},{"trial_n":31,"span":16,"encoder":"9629359239642080","distractor":"9629359239642050","target":"present","response":"present","rt":"16479.799999997","correct":true,"confidence":5},{"trial_n":32,"span":17,"encoder":"30381805425017203","distractor":"30381805725017203","target":"present","response":"present","rt":"10845.799999997","correct":true,"confidence":5},{"trial_n":33,"span":17,"encoder":"22968431014235530","distractor":"22963431014235530","target":"absent","response":"absent","rt":"6660.299999997","correct":true,"confidence":3},{"trial_n":34,"span":18,"encoder":"223223665565667605","distractor":"223221665565667605","target":"present","response":"absent","rt":"15933.400000006","correct":false,"confidence":2},{"trial_n":35,"span":17,"encoder":"30655687626126419","distractor":"30655787626126419","target":"absent","response":"present","rt":"13261.5","correct":false,"confidence":2},{"trial_n":36,"span":16,"encoder":"9314298791903558","distractor":"9314298791903258","target":"absent","response":"absent","rt":"3271.799999997","correct":true,"confidence":5},{"trial_n":37,"span":16,"encoder":"1043985248166667","distractor":"1043985648166667","target":"absent","response":"absent","rt":"4381.299999997","correct":true,"confidence":2},{"trial_n":38,"span":17,"encoder":"27495431546786576","distractor":"27495431546788576","target":"absent","response":"absent","rt":"2914.799999997","correct":true,"confidence":4},{"trial_n":39,"span":17,"encoder":"75560633874921620","distractor":"75560633874921621","target":"absent","response":"absent","rt":"1706.400000006","correct":true,"confidence":5},{"trial_n":40,"span":18,"encoder":"828188383344983987","distractor":"828188883344983987","target":"absent","response":"absent","rt":"5157.900000006","correct":true,"confidence":3},{"trial_n":41,"span":18,"encoder":"293986271247861338","distractor":"292986271247861338","target":"absent","response":"absent","rt":"4805.299999997","correct":true,"confidence":3},{"trial_n":42,"span":19,"encoder":"2879794270667067109","distractor":"2879794273667067109","target":"absent","response":"absent","rt":"9424.299999997","correct":true,"confidence":1},{"trial_n":43,"span":19,"encoder":"4914054678861721406","distractor":"4914054578861721406","target":"present","response":"present","rt":"12638.400000006","correct":true,"confidence":3},{"trial_n":44,"span":20,"encoder":"90874001507920928179","distractor":"90871001507920928179","target":"absent","response":"absent","rt":"6321.900000006","correct":true,"confidence":3},{"trial_n":45,"span":20,"encoder":"25805757758924614349","distractor":"25805747758924614349","target":"absent","response":"absent","rt":"12932.600000009","correct":true,"confidence":2},{"trial_n":46,"span":21,"encoder":"448636319205154990622","distractor":"448636319205154950622","target":"present","response":"present","rt":"19694.399999991","correct":true,"confidence":3},{"trial_n":47,"span":21,"encoder":"964941564411029722342","distractor":"964941564411029721342","target":"absent","response":"present","rt":"15468.299999997","correct":false,"confidence":2},{"trial_n":48,"span":20,"encoder":"45783909305270275840","distractor":"45783919305270275840","target":"present","response":"present","rt":"14750.600000009","correct":true,"confidence":3},{"trial_n":49,"span":20,"encoder":"35345704655311242131","distractor":"35345704655311242111","target":"absent","response":"absent","rt":"13724.400000006","correct":true,"confidence":5},{"trial_n":50,"span":21,"encoder":"597032748289224212280","distractor":"597032748489224212280","target":"present","response":"present","rt":"187296.3","correct":true,"confidence":3},{"trial_n":51,"span":21,"encoder":"014966237124993197188","distractor":"014966237124903197188","target":"present","response":"present","rt":"16478.399999991","correct":true,"confidence":3},{"trial_n":52,"span":22,"encoder":"8272420950618935844913","distractor":"8272420950618735844913","target":"absent","response":"present","rt":"11156.400000006","correct":false,"confidence":2},{"trial_n":53,"span":21,"encoder":"150139473242543277229","distractor":"150189473242543277229","target":"absent","response":"absent","rt":"6018.299999997","correct":true,"confidence":4},{"trial_n":54,"span":21,"encoder":"329197938464836810864","distractor":"029197938464836810864","target":"present","response":"present","rt":"19389.5","correct":true,"confidence":4},{"trial_n":55,"span":22,"encoder":"7689721286239841383775","distractor":"7789721286239841383775","target":"present","response":"present","rt":"13010.299999997","correct":true,"confidence":4},{"trial_n":56,"span":22,"encoder":"7163684017827008254568","distractor":"0163684017827008254568","target":"present","response":"present","rt":"14844.799999997","correct":true,"confidence":3},{"trial_n":57,"span":23,"encoder":"69725506735567762277489","distractor":"69725506735567762277989","target":"present","response":"present","rt":"16716.299999997","correct":true,"confidence":3},{"trial_n":58,"span":23,"encoder":"47762653599378410321492","distractor":"47762653539378410321492","target":"present","response":"present","rt":"23038.600000009","correct":true,"confidence":2},{"trial_n":59,"span":24,"encoder":"613403327127875265591490","distractor":"613423327127875265591490","target":"absent","response":"absent","rt":"19936.399999991","correct":true,"confidence":1},{"trial_n":60,"span":24,"encoder":"606729377120489070921946","distractor":"606729377120499070921946","target":"absent","response":"present","rt":"15852.399999991","correct":false,"confidence":1},{"trial_n":61,"span":23,"encoder":"90778632482336122289821","distractor":"90778692482336122289821","target":"present","response":"absent","rt":"6120.400000006","correct":false,"confidence":1},{"trial_n":62,"span":22,"encoder":"2245673888132958769427","distractor":"2245673828132958769427","target":"absent","response":"absent","rt":"3172.3999999911","correct":true,"confidence":1},{"trial_n":63,"span":22,"encoder":"0741994646256254867093","distractor":"0741994646256254467093","target":"present","response":"present","rt":"3026.299999997","correct":true,"confidence":1},{"trial_n":64,"span":23,"encoder":"67583599902333276691523","distractor":"67583599902383276691523","target":"absent","response":"present","rt":"3696.5","correct":false,"confidence":2},{"trial_n":65,"span":22,"encoder":"5761211639650319531792","distractor":"5761211639650019531792","target":"present","response":"present","rt":"6133","correct":true,"confidence":2},{"trial_n":66,"span":22,"encoder":"9887403622090289344355","distractor":"9787403622090289344355","target":"present","response":"present","rt":"13908.400000006","correct":true,"confidence":1},{"trial_n":67,"span":23,"encoder":"62082336962533885778675","distractor":"62082336962533885774675","target":"present","response":"present","rt":"9066.5","correct":true,"confidence":1},{"trial_n":68,"span":23,"encoder":"06970715761343870294677","distractor":"06970715761343870294674","target":"present","response":"absent","rt":"34178.700000003","correct":false,"confidence":2},{"trial_n":69,"span":22,"encoder":"5505633989544449129548","distractor":"5505633989544649129548","target":"absent","response":"absent","rt":"271139","correct":true,"confidence":2},{"trial_n":70,"span":22,"encoder":"7007319782152057030689","distractor":"7007319482152057030689","target":"present","response":"present","rt":"1536.700000003","correct":true,"confidence":1},{"trial_n":71,"span":8,"encoder":"76345389","distractor":"78345389","target":"present","response":"present","rt":"3693","correct":true,"confidence":-1},{"trial_n":72,"span":8,"encoder":"41074106","distractor":"41074102","target":"present","response":"present","rt":"4776.299999997","correct":true,"confidence":-1},{"trial_n":73,"span":9,"encoder":"209124568","distractor":"209124168","target":"absent","response":"absent","rt":"6248","correct":true,"confidence":-1},{"trial_n":74,"span":9,"encoder":"794276996","distractor":"394276996","target":"absent","response":"absent","rt":"2446.299999997","correct":true,"confidence":-1},{"trial_n":75,"span":10,"encoder":"4153627097","distractor":"4153227097","target":"present","response":"present","rt":"3552.3999999911","correct":true,"confidence":-1},{"trial_n":76,"span":10,"encoder":"4166843892","distractor":"4666843892","target":"present","response":"present","rt":"2480.1999999881","correct":true,"confidence":-1},{"trial_n":77,"span":11,"encoder":"30088421043","distractor":"30088401043","target":"absent","response":"present","rt":"16176.299999997","correct":false,"confidence":-1},{"trial_n":78,"span":10,"encoder":"2784703805","distractor":"2784703105","target":"absent","response":"absent","rt":"3125","correct":true,"confidence":-1},{"trial_n":79,"span":10,"encoder":"2994944626","distractor":"2994944629","target":"present","response":"present","rt":"3249.099999994","correct":true,"confidence":-1},{"trial_n":80,"span":11,"encoder":"19978928297","distractor":"19978928292","target":"present","response":"present","rt":"1674.299999997","correct":true,"confidence":-1},{"trial_n":81,"span":11,"encoder":"12674028104","distractor":"12671028104","target":"present","response":"present","rt":"4796.3999999911","correct":true,"confidence":-1},{"trial_n":82,"span":12,"encoder":"430384626771","distractor":"730384626771","target":"absent","response":"present","rt":"3306.1999999881","correct":false,"confidence":-1},{"trial_n":83,"span":11,"encoder":"03242145817","distractor":"03242145813","target":"present","response":"present","rt":"1292.1999999881","correct":true,"confidence":-1},{"trial_n":84,"span":11,"encoder":"25604073867","distractor":"95604073867","target":"present","response":"absent","rt":"3896.299999997","correct":false,"confidence":-1},{"trial_n":85,"span":10,"encoder":"0670945426","distractor":"0670945466","target":"present","response":"present","rt":"1826.5","correct":true,"confidence":-1},{"trial_n":86,"span":10,"encoder":"2842407290","distractor":"2142407290","target":"absent","response":"absent","rt":"3644.799999997","correct":true,"confidence":-1},{"trial_n":87,"span":11,"encoder":"83226598780","distractor":"83225598780","target":"absent","response":"absent","rt":"20542.299999997","correct":true,"confidence":-1},{"trial_n":88,"span":11,"encoder":"72204642317","distractor":"72204642617","target":"present","response":"present","rt":"1668.299999997","correct":true,"confidence":-1},{"trial_n":89,"span":12,"encoder":"438448182502","distractor":"438445182502","target":"absent","response":"present","rt":"4950.5","correct":false,"confidence":-1},{"trial_n":90,"span":11,"encoder":"23605309283","distractor":"23605305283","target":"absent","response":"absent","rt":"4486.799999997","correct":true,"confidence":-1},{"trial_n":91,"span":11,"encoder":"77933233364","distractor":"77932233364","target":"present","response":"present","rt":"6530.3999999911","correct":true,"confidence":2},{"trial_n":92,"span":12,"encoder":"208393315099","distractor":"208993315099","target":"present","response":"present","rt":"2686.299999997","correct":true,"confidence":3},{"trial_n":93,"span":12,"encoder":"542688796847","distractor":"542698796847","target":"absent","response":"absent","rt":"39624.400000006","correct":true,"confidence":1},{"trial_n":94,"span":13,"encoder":"0630491387177","distractor":"0630491357177","target":"present","response":"present","rt":"21596.5","correct":true,"confidence":1},{"trial_n":95,"span":13,"encoder":"0666804849581","distractor":"0666804849587","target":"present","response":"present","rt":"8905.299999997","correct":true,"confidence":4},{"trial_n":96,"span":14,"encoder":"28974794674756","distractor":"28974994674756","target":"present","response":"present","rt":"4924.299999997","correct":true,"confidence":3},{"trial_n":97,"span":14,"encoder":"68964415752491","distractor":"68964415752401","target":"absent","response":"present","rt":"51046.400000006","correct":false,"confidence":1},{"trial_n":98,"span":13,"encoder":"6357856529975","distractor":"6257856529975","target":"absent","response":"absent","rt":"7292.799999997","correct":true,"confidence":2},{"trial_n":99,"span":13,"encoder":"5568033600866","distractor":"7568033600866","target":"absent","response":"present","rt":"7594.799999997","correct":false,"confidence":1},{"trial_n":100,"span":12,"encoder":"867050198783","distractor":"867050188783","target":"absent","response":"absent","rt":"6991.299999997","correct":true,"confidence":2},{"trial_n":101,"span":12,"encoder":"903048140199","distractor":"903018140199","target":"absent","response":"absent","rt":"3209.299999997","correct":true,"confidence":4},{"trial_n":102,"span":13,"encoder":"9141721923494","distractor":"9141725923494","target":"absent","response":"absent","rt":"92282.199999988","correct":true,"confidence":3},{"trial_n":103,"span":13,"encoder":"1413281382631","distractor":"1413284382631","target":"present","response":"present","rt":"9970.1999999881","correct":true,"confidence":4},{"trial_n":104,"span":14,"encoder":"95350695968259","distractor":"15350695968259","target":"present","response":"present","rt":"10175.799999997","correct":true,"confidence":5},{"trial_n":105,"span":14,"encoder":"89157427776074","distractor":"89157827776074","target":"present","response":"present","rt":"11592.099999994","correct":true,"confidence":5},{"trial_n":106,"span":15,"encoder":"375820916767972","distractor":"375860916767972","target":"absent","response":"absent","rt":"6498","correct":true,"confidence":5},{"trial_n":107,"span":15,"encoder":"097843783395071","distractor":"097893783395071","target":"absent","response":"absent","rt":"5220.799999997","correct":true,"confidence":4},{"trial_n":108,"span":16,"encoder":"1826282330466585","distractor":"1826282330416585","target":"present","response":"present","rt":"54134.299999997","correct":true,"confidence":3},{"trial_n":109,"span":16,"encoder":"8695428719117616","distractor":"8695428719117619","target":"absent","response":"absent","rt":"2796.700000003","correct":true,"confidence":5},{"trial_n":110,"span":17,"encoder":"90702439771001263","distractor":"90702939771001263","target":"present","response":"present","rt":"139825.19999999","correct":true,"confidence":3},{"trial_n":111,"span":17,"encoder":"75079977976986949","distractor":"75079977976981949","target":"absent","response":"absent","rt":"9200.900000006","correct":true,"confidence":4},{"trial_n":112,"span":18,"encoder":"171621187453611838","distractor":"171621187453631838","target":"absent","response":"absent","rt":"13442.099999994","correct":true,"confidence":5},{"trial_n":113,"span":18,"encoder":"578532451592654320","distractor":"578532451512654320","target":"present","response":"present","rt":"15506.700000003","correct":true,"confidence":2},{"trial_n":114,"span":19,"encoder":"7629071477288678042","distractor":"7629071475288678042","target":"present","response":"present","rt":"14400.5","correct":true,"confidence":4},{"trial_n":115,"span":19,"encoder":"1895990580494872813","distractor":"1895990580493872813","target":"absent","response":"present","rt":"13221.399999991","correct":false,"confidence":1},{"trial_n":116,"span":18,"encoder":"476288789502566851","distractor":"476988789502566851","target":"absent","response":"absent","rt":"3528.099999994","correct":true,"confidence":5},{"trial_n":117,"span":18,"encoder":"986134384595948982","distractor":"986134384595748982","target":"absent","response":"absent","rt":"16949.399999991","correct":true,"confidence":3},{"trial_n":118,"span":19,"encoder":"8300896490300849198","distractor":"8301896490300849198","target":"absent","response":"absent","rt":"7697.5","correct":true,"confidence":5},{"trial_n":119,"span":19,"encoder":"3304727722316374144","distractor":"3304727722310374144","target":"present","response":"present","rt":"13850.5","correct":true,"confidence":2},{"trial_n":120,"span":20,"encoder":"54026145632708933130","distractor":"54026145632708033130","target":"present","response":"present","rt":"13300.299999997","correct":true,"confidence":2},{"trial_n":121,"span":20,"encoder":"33342392069593698762","distractor":"33342392069595698762","target":"present","response":"present","rt":"10048.399999991","correct":true,"confidence":3},{"trial_n":122,"span":21,"encoder":"140586515434620890377","distractor":"140586575434620890377","target":"absent","response":"absent","rt":"7036.599999994","correct":true,"confidence":3},{"trial_n":123,"span":21,"encoder":"212164760748940336647","distractor":"212164760744940336647","target":"present","response":"present","rt":"14589.599999994","correct":true,"confidence":2},{"trial_n":124,"span":22,"encoder":"4598830330304911669793","distractor":"4598830330304911669794","target":"present","response":"present","rt":"14078","correct":true,"confidence":3},{"trial_n":125,"span":22,"encoder":"5922261661436523073484","distractor":"5922261661436523033484","target":"present","response":"present","rt":"93830.599999994","correct":true,"confidence":3},{"trial_n":126,"span":23,"encoder":"13232142255758090421572","distractor":"13232142255728090421572","target":"present","response":"present","rt":"12250.099999994","correct":true,"confidence":4},{"trial_n":127,"span":23,"encoder":"42630085914316358966053","distractor":"42630085214316358966053","target":"present","response":"present","rt":"7994.5","correct":true,"confidence":3},{"trial_n":128,"span":24,"encoder":"397406321795682651390781","distractor":"397406321695682651390781","target":"present","response":"present","rt":"49661","correct":true,"confidence":2},{"trial_n":129,"span":24,"encoder":"658189676793259506528405","distractor":"658189976793259506528405","target":"present","response":"absent","rt":"4384.3999999911","correct":false,"confidence":1},{"trial_n":130,"span":23,"encoder":"30765217052230990051775","distractor":"30765217052230910051775","target":"absent","response":"absent","rt":"20797.599999994","correct":true,"confidence":3},{"trial_n":131,"span":23,"encoder":"21314146652397903352391","distractor":"21314746652397903352391","target":"absent","response":"absent","rt":"5273.099999994","correct":true,"confidence":5},{"trial_n":132,"span":24,"encoder":"932711556279788970070296","distractor":"932711506279788970070296","target":"absent","response":"absent","rt":"7057.5","correct":true,"confidence":5},{"trial_n":133,"span":24,"encoder":"164664059130168214846032","distractor":"164634059130168214846032","target":"present","response":"present","rt":"20350.599999994","correct":true,"confidence":4},{"trial_n":134,"span":25,"encoder":"1773909935098000215396054","distractor":"1713909935098000215396054","target":"absent","response":"absent","rt":"3907.8999999911","correct":true,"confidence":5},{"trial_n":135,"span":25,"encoder":"9619989618340872816856661","distractor":"9619989618340872836856661","target":"present","response":"present","rt":"9806.299999997","correct":true,"confidence":2},{"trial_n":136,"span":26,"encoder":"83393994580526613124784138","distractor":"83393994580526613124784135","target":"absent","response":"absent","rt":"3439.700000003","correct":true,"confidence":5},{"trial_n":137,"span":26,"encoder":"05228125622892079344408066","distractor":"05228125622892779344408066","target":"absent","response":"absent","rt":"9943.6000000089","correct":true,"confidence":2},{"trial_n":138,"span":27,"encoder":"112046942212197028409445145","distractor":"112026942212197028409445145","target":"absent","response":"absent","rt":"6906.599999994","correct":true,"confidence":5},{"trial_n":139,"span":27,"encoder":"613930955893937463304332878","distractor":"613930955893937463904332878","target":"absent","response":"absent","rt":"5080.8999999911","correct":true,"confidence":3},{"trial_n":140,"span":28,"encoder":"1818408876234372724927971190","distractor":"1818408876234372794927971190","target":"present","response":"absent","rt":"12208.299999997","correct":false,"confidence":1}]