[{"trial_n":1,"n_dots":4.25,"target":"right","response":"left","rt":6851,"correct":false,"confidence":-1},{"trial_n":2,"n_dots":4.25,"target":"left","response":"left","rt":2858,"correct":true,"confidence":-1},{"trial_n":3,"n_dots":4.25,"target":"left","response":"left","rt":618.99999999994,"correct":true,"confidence":-1},{"trial_n":4,"n_dots":3.85,"target":"right","response":"right","rt":952,"correct":true,"confidence":-1},{"trial_n":5,"n_dots":3.85,"target":"left","response":"left","rt":501,"correct":true,"confidence":-1},{"trial_n":6,"n_dots":3.45,"target":"left","response":"left","rt":595.00000000006,"correct":true,"confidence":-1},{"trial_n":7,"n_dots":3.45,"target":"left","response":"left","rt":564,"correct":true,"confidence":-1},{"trial_n":8,"n_dots":3.25,"target":"right","response":"left","rt":525,"correct":false,"confidence":-1},{"trial_n":9,"n_dots":3.45,"target":"left","response":"left","rt":478,"correct":true,"confidence":-1},{"trial_n":10,"n_dots":3.45,"target":"left","response":"left","rt":448,"correct":true,"confidence":-1},{"trial_n":11,"n_dots":3.25,"target":"left","response":"right","rt":836,"correct":false,"confidence":-1},{"trial_n":12,"n_dots":3.45,"target":"left","response":"right","rt":580,"correct":false,"confidence":-1},{"trial_n":13,"n_dots":3.55,"target":"left","response":"right","rt":775.99999999994,"correct":false,"confidence":-1},{"trial_n":14,"n_dots":3.65,"target":"right","response":"right","rt":871,"correct":true,"confidence":-1},{"trial_n":15,"n_dots":3.65,"target":"right","response":"right","rt":629,"correct":true,"confidence":-1},{"trial_n":16,"n_dots":3.55,"target":"right","response":"right","rt":539,"correct":true,"confidence":-1},{"trial_n":17,"n_dots":3.55,"target":"right","response":"right","rt":508,"correct":true,"confidence":-1},{"trial_n":18,"n_dots":3.45,"target":"left","response":"left","rt":1078,"correct":true,"confidence":-1},{"trial_n":19,"n_dots":3.45,"target":"right","response":"right","rt":198,"correct":true,"confidence":-1},{"trial_n":20,"n_dots":3.35,"target":"right","response":"right","rt":160,"correct":true,"confidence":-1},{"trial_n":21,"n_dots":3.35,"target":"right","response":"left","rt":616,"correct":false,"confidence":3},{"trial_n":22,"n_dots":3.45,"target":"right","response":"right","rt":486,"correct":true,"confidence":1},{"trial_n":23,"n_dots":3.45,"target":"right","response":"left","rt":1267.9999999999,"correct":false,"confidence":1},{"trial_n":24,"n_dots":3.55,"target":"right","response":"right","rt":1369,"correct":true,"confidence":1},{"trial_n":25,"n_dots":3.55,"target":"right","response":"right","rt":503.00000000006,"correct":true,"confidence":1},{"trial_n":26,"n_dots":3.45,"target":"left","response":"left","rt":635.00000000006,"correct":true,"confidence":1},{"trial_n":27,"n_dots":3.45,"target":"right","response":"right","rt":517,"correct":true,"confidence":1},{"trial_n":28,"n_dots":3.35,"target":"right","response":"right","rt":2297,"correct":true,"confidence":1},{"trial_n":29,"n_dots":3.35,"target":"right","response":"left","rt":1478.9999999999,"correct":false,"confidence":1},{"trial_n":30,"n_dots":3.45,"target":"left","response":"left","rt":1847.9999999999,"correct":true,"confidence":1},{"trial_n":31,"n_dots":3.45,"target":"right","response":"left","rt":826,"correct":false,"confidence":1},{"trial_n":32,"n_dots":3.55,"target":"right","response":"right","rt":486,"correct":true,"confidence":1},{"trial_n":33,"n_dots":3.55,"target":"left","response":"left","rt":531,"correct":true,"confidence":1},{"trial_n":34,"n_dots":3.45,"target":"right","response":"right","rt":510,"correct":true,"confidence":1},{"trial_n":35,"n_dots":3.45,"target":"left","response":"left","rt":804.00000000006,"correct":true,"confidence":1},{"trial_n":36,"n_dots":3.35,"target":"right","response":"right","rt":503,"correct":true,"confidence":1},{"trial_n":37,"n_dots":3.35,"target":"right","response":"right","rt":542,"correct":true,"confidence":1},{"trial_n":38,"n_dots":3.25,"target":"right","response":"right","rt":720,"correct":true,"confidence":1},{"trial_n":39,"n_dots":3.25,"target":"right","response":"right","rt":469.00000000006,"correct":true,"confidence":1},{"trial_n":40,"n_dots":3.15,"target":"left","response":"left","rt":713,"correct":true,"confidence":1},{"trial_n":41,"n_dots":3.15,"target":"right","response":"left","rt":3862,"correct":false,"confidence":1},{"trial_n":42,"n_dots":3.25,"target":"left","response":"left","rt":589,"correct":true,"confidence":1},{"trial_n":43,"n_dots":3.25,"target":"left","response":"left","rt":466,"correct":true,"confidence":1},{"trial_n":44,"n_dots":3.15,"target":"left","response":"left","rt":1918,"correct":true,"confidence":1},{"trial_n":45,"n_dots":3.15,"target":"right","response":"left","rt":1222,"correct":false,"confidence":1},{"trial_n":46,"n_dots":3.25,"target":"left","response":"left","rt":648,"correct":true,"confidence":1},{"trial_n":47,"n_dots":3.25,"target":"left","response":"left","rt":651,"correct":true,"confidence":1},{"trial_n":48,"n_dots":3.15,"target":"right","response":"right","rt":509,"correct":true,"confidence":1},{"trial_n":49,"n_dots":3.15,"target":"left","response":"left","rt":466.00000000006,"correct":true,"confidence":1},{"trial_n":50,"n_dots":3.05,"target":"left","response":"left","rt":714,"correct":true,"confidence":1},{"trial_n":51,"n_dots":3.05,"target":"left","response":"left","rt":904,"correct":true,"confidence":1},{"trial_n":52,"n_dots":2.95,"target":"left","response":"left","rt":797,"correct":true,"confidence":1},{"trial_n":53,"n_dots":2.95,"target":"right","response":"right","rt":716.00000000006,"correct":true,"confidence":1},{"trial_n":54,"n_dots":2.85,"target":"left","response":"left","rt":843,"correct":true,"confidence":1},{"trial_n":55,"n_dots":2.85,"target":"right","response":"right","rt":498,"correct":true,"confidence":1},{"trial_n":56,"n_dots":2.75,"target":"left","response":"left","rt":905.00000000006,"correct":true,"confidence":1},{"trial_n":57,"n_dots":2.75,"target":"left","response":"right","rt":481.99999999994,"correct":false,"confidence":1},{"trial_n":58,"n_dots":2.85,"target":"left","response":"left","rt":184.00000000006,"correct":true,"confidence":1},{"trial_n":59,"n_dots":2.85,"target":"right","response":"left","rt":1419,"correct":false,"confidence":1},{"trial_n":60,"n_dots":2.95,"target":"left","response":"left","rt":1387,"correct":true,"confidence":1},{"trial_n":61,"n_dots":2.95,"target":"left","response":"left","rt":762,"correct":true,"confidence":1},{"trial_n":62,"n_dots":2.85,"target":"right","response":"right","rt":2303,"correct":true,"confidence":1},{"trial_n":63,"n_dots":2.85,"target":"right","response":"left","rt":917.00000000006,"correct":false,"confidence":1},{"trial_n":64,"n_dots":2.95,"target":"right","response":"right","rt":613,"correct":true,"confidence":1},{"trial_n":65,"n_dots":2.95,"target":"left","response":"left","rt":496.00000000006,"correct":true,"confidence":1},{"trial_n":66,"n_dots":2.85,"target":"left","response":"left","rt":488,"correct":true,"confidence":1},{"trial_n":67,"n_dots":2.85,"target":"left","response":"right","rt":172,"correct":false,"confidence":1},{"trial_n":68,"n_dots":2.95,"target":"right","response":"right","rt":494.00000000006,"correct":true,"confidence":1},{"trial_n":69,"n_dots":2.95,"target":"right","response":"right","rt":677,"correct":true,"confidence":1},{"trial_n":70,"n_dots":2.85,"target":"right","response":"left","rt":652,"correct":false,"confidence":1},{"trial_n":71,"n_dots":2.95,"target":"left","response":"left","rt":247,"correct":true,"confidence":1},{"trial_n":72,"n_dots":2.95,"target":"left","response":"left","rt":577.99999999994,"correct":true,"confidence":1},{"trial_n":73,"n_dots":2.85,"target":"right","response":"right","rt":494,"correct":true,"confidence":1},{"trial_n":74,"n_dots":2.85,"target":"right","response":"right","rt":1055.0000000001,"correct":true,"confidence":1},{"trial_n":75,"n_dots":2.75,"target":"left","response":"left","rt":179.99999999994,"correct":true,"confidence":1},{"trial_n":76,"n_dots":2.75,"target":"right","response":"right","rt":1151,"correct":true,"confidence":1},{"trial_n":77,"n_dots":2.65,"target":"right","response":"left","rt":920,"correct":false,"confidence":1},{"trial_n":78,"n_dots":2.75,"target":"right","response":"left","rt":1534,"correct":false,"confidence":1},{"trial_n":79,"n_dots":2.85,"target":"right","response":"right","rt":960.99999999988,"correct":true,"confidence":1},{"trial_n":80,"n_dots":2.85,"target":"left","response":"left","rt":492.99999999988,"correct":true,"confidence":1},{"trial_n":81,"n_dots":2.75,"target":"left","response":"left","rt":729,"correct":true,"confidence":3},{"trial_n":82,"n_dots":2.75,"target":"left","response":"left","rt":261.99999999988,"correct":true,"confidence":1},{"trial_n":83,"n_dots":2.65,"target":"left","response":"left","rt":931,"correct":true,"confidence":1},{"trial_n":84,"n_dots":2.65,"target":"right","response":"right","rt":425,"correct":true,"confidence":1},{"trial_n":85,"n_dots":2.55,"target":"left","response":"right","rt":1510,"correct":false,"confidence":1},{"trial_n":86,"n_dots":2.65,"target":"right","response":"left","rt":512,"correct":false,"confidence":1},{"trial_n":87,"n_dots":2.75,"target":"right","response":"right","rt":1678,"correct":true,"confidence":1},{"trial_n":88,"n_dots":2.75,"target":"right","response":"left","rt":1073,"correct":false,"confidence":1},{"trial_n":89,"n_dots":2.85,"target":"left","response":"left","rt":629,"correct":true,"confidence":1},{"trial_n":90,"n_dots":2.85,"target":"right","response":"right","rt":488,"correct":true,"confidence":1},{"trial_n":91,"n_dots":2.75,"target":"left","response":"right","rt":468,"correct":false,"confidence":1},{"trial_n":92,"n_dots":2.85,"target":"left","response":"left","rt":724,"correct":true,"confidence":1},{"trial_n":93,"n_dots":2.85,"target":"left","response":"right","rt":787,"correct":false,"confidence":1},{"trial_n":94,"n_dots":2.95,"target":"left","response":"right","rt":611,"correct":false,"confidence":1},{"trial_n":95,"n_dots":3.05,"target":"right","response":"left","rt":649,"correct":false,"confidence":1},{"trial_n":96,"n_dots":3.15,"target":"right","response":"right","rt":205.00000000012,"correct":true,"confidence":1},{"trial_n":97,"n_dots":3.15,"target":"left","response":"right","rt":754,"correct":false,"confidence":1},{"trial_n":98,"n_dots":3.25,"target":"right","response":"left","rt":198,"correct":false,"confidence":1},{"trial_n":99,"n_dots":3.35,"target":"left","response":"left","rt":522.00000000012,"correct":true,"confidence":1},{"trial_n":100,"n_dots":3.35,"target":"left","response":"right","rt":721,"correct":false,"confidence":1},{"trial_n":101,"n_dots":3.45,"target":"right","response":"right","rt":1323.0000000001,"correct":true,"confidence":1},{"trial_n":102,"n_dots":3.45,"target":"right","response":"left","rt":1329,"correct":false,"confidence":1},{"trial_n":103,"n_dots":3.55,"target":"left","response":"right","rt":681,"correct":false,"confidence":1},{"trial_n":104,"n_dots":3.65,"target":"left","response":"left","rt":489.00000000012,"correct":true,"confidence":1},{"trial_n":105,"n_dots":3.65,"target":"right","response":"right","rt":441,"correct":true,"confidence":1},{"trial_n":106,"n_dots":3.55,"target":"left","response":"right","rt":556,"correct":false,"confidence":1},{"trial_n":107,"n_dots":3.65,"target":"right","response":"right","rt":467.99999999988,"correct":true,"confidence":1},{"trial_n":108,"n_dots":3.65,"target":"right","response":"right","rt":450,"correct":true,"confidence":1},{"trial_n":109,"n_dots":3.55,"target":"right","response":"right","rt":559,"correct":true,"confidence":1},{"trial_n":110,"n_dots":3.55,"target":"right","response":"right","rt":525,"correct":true,"confidence":1},{"trial_n":111,"n_dots":3.45,"target":"right","response":"right","rt":541,"correct":true,"confidence":1},{"trial_n":112,"n_dots":3.45,"target":"left","response":"left","rt":488,"correct":true,"confidence":1},{"trial_n":113,"n_dots":3.35,"target":"left","response":"left","rt":562,"correct":true,"confidence":1},{"trial_n":114,"n_dots":3.35,"target":"right","response":"right","rt":911,"correct":true,"confidence":1},{"trial_n":115,"n_dots":3.25,"target":"left","response":"left","rt":421,"correct":true,"confidence":1},{"trial_n":116,"n_dots":3.25,"target":"right","response":"right","rt":477,"correct":true,"confidence":1},{"trial_n":117,"n_dots":3.15,"target":"left","response":"left","rt":489,"correct":true,"confidence":1},{"trial_n":118,"n_dots":3.15,"target":"left","response":"left","rt":389,"correct":true,"confidence":1},{"trial_n":119,"n_dots":3.05,"target":"left","response":"left","rt":481,"correct":true,"confidence":1},{"trial_n":120,"n_dots":3.05,"target":"left","response":"left","rt":481,"correct":true,"confidence":1}]