[{"trial_n":1,"min":25,"max":230,"target":"present","response":"present","rt":9008.5,"correct":true,"confidence":-1},{"trial_n":2,"min":25,"max":230,"target":"present","response":"present","rt":818.80000019073,"correct":true,"confidence":-1},{"trial_n":3,"min":41,"max":214,"target":"absent","response":"absent","rt":391.90000009537,"correct":true,"confidence":-1},{"trial_n":4,"min":41,"max":214,"target":"absent","response":"absent","rt":458.40000009537,"correct":true,"confidence":-1},{"trial_n":5,"min":57,"max":198,"target":"present","response":"present","rt":364.90000009537,"correct":true,"confidence":-1},{"trial_n":6,"min":57,"max":198,"target":"absent","response":"absent","rt":475.40000009537,"correct":true,"confidence":-1},{"trial_n":7,"min":73,"max":182,"target":"absent","response":"absent","rt":401.7000002861,"correct":true,"confidence":-1},{"trial_n":8,"min":73,"max":182,"target":"absent","response":"absent","rt":418.90000009537,"correct":true,"confidence":-1},{"trial_n":9,"min":89,"max":166,"target":"present","response":"present","rt":506.80000019073,"correct":true,"confidence":-1},{"trial_n":10,"min":89,"max":166,"target":"present","response":"absent","rt":385.5,"correct":false,"confidence":-1},{"trial_n":11,"min":81,"max":174,"target":"present","response":"absent","rt":744.80000019073,"correct":false,"confidence":-1},{"trial_n":12,"min":73,"max":182,"target":"absent","response":"absent","rt":1547.6999998093,"correct":true,"confidence":-1},{"trial_n":13,"min":73,"max":182,"target":"absent","response":"absent","rt":547.7000002861,"correct":true,"confidence":-1},{"trial_n":14,"min":81,"max":174,"target":"present","response":"present","rt":447.19999980927,"correct":true,"confidence":-1},{"trial_n":15,"min":81,"max":174,"target":"present","response":"present","rt":502.19999980927,"correct":true,"confidence":-1},{"trial_n":16,"min":89,"max":166,"target":"present","response":"absent","rt":515.30000019073,"correct":false,"confidence":-1},{"trial_n":17,"min":81,"max":174,"target":"present","response":"present","rt":620.90000009537,"correct":true,"confidence":-1},{"trial_n":18,"min":81,"max":174,"target":"absent","response":"absent","rt":655.7000002861,"correct":true,"confidence":-1},{"trial_n":19,"min":89,"max":166,"target":"absent","response":"absent","rt":643.5,"correct":true,"confidence":-1},{"trial_n":20,"min":89,"max":166,"target":"present","response":"absent","rt":558.7000002861,"correct":false,"confidence":-1},{"trial_n":21,"min":85,"max":170,"target":"present","response":"present","rt":2377.3000001907,"correct":true,"confidence":4},{"trial_n":22,"min":85,"max":170,"target":"present","response":"present","rt":994.90000009537,"correct":true,"confidence":4},{"trial_n":23,"min":89,"max":166,"target":"absent","response":"present","rt":1122.8000001907,"correct":false,"confidence":3},{"trial_n":24,"min":85,"max":170,"target":"present","response":"present","rt":408.80000019073,"correct":true,"confidence":5},{"trial_n":25,"min":85,"max":170,"target":"present","response":"present","rt":677.5,"correct":true,"confidence":4},{"trial_n":26,"min":89,"max":166,"target":"absent","response":"absent","rt":1308.2999997139,"correct":true,"confidence":3},{"trial_n":27,"min":89,"max":166,"target":"present","response":"absent","rt":1234,"correct":false,"confidence":3},{"trial_n":28,"min":85,"max":170,"target":"present","response":"present","rt":1887.7000002861,"correct":true,"confidence":3},{"trial_n":29,"min":85,"max":170,"target":"present","response":"present","rt":462.80000019073,"correct":true,"confidence":5},{"trial_n":30,"min":89,"max":166,"target":"present","response":"absent","rt":1137,"correct":false,"confidence":4},{"trial_n":31,"min":87,"max":168,"target":"absent","response":"absent","rt":739.80000019073,"correct":true,"confidence":5},{"trial_n":32,"min":87,"max":168,"target":"present","response":"present","rt":973.5,"correct":true,"confidence":4},{"trial_n":33,"min":89,"max":166,"target":"absent","response":"absent","rt":982.5,"correct":true,"confidence":5},{"trial_n":34,"min":89,"max":166,"target":"absent","response":"absent","rt":1000.8000001907,"correct":true,"confidence":4},{"trial_n":35,"min":91,"max":164,"target":"absent","response":"absent","rt":741.59999990463,"correct":true,"confidence":5},{"trial_n":36,"min":91,"max":164,"target":"present","response":"absent","rt":1563.4000000954,"correct":false,"confidence":5},{"trial_n":37,"min":89,"max":166,"target":"absent","response":"absent","rt":1412.4000000954,"correct":true,"confidence":4},{"trial_n":38,"min":89,"max":166,"target":"present","response":"present","rt":1096.9000000954,"correct":true,"confidence":3},{"trial_n":39,"min":91,"max":164,"target":"present","response":"absent","rt":2560.9000000954,"correct":false,"confidence":3},{"trial_n":40,"min":89,"max":166,"target":"absent","response":"absent","rt":1118.7000002861,"correct":true,"confidence":4},{"trial_n":41,"min":89,"max":166,"target":"absent","response":"present","rt":2118.0999999046,"correct":false,"confidence":4},{"trial_n":42,"min":88,"max":167,"target":"absent","response":"absent","rt":1593.4000000954,"correct":true,"confidence":3},{"trial_n":43,"min":88,"max":167,"target":"absent","response":"present","rt":1341.6999998093,"correct":false,"confidence":2},{"trial_n":44,"min":87,"max":168,"target":"present","response":"present","rt":1078,"correct":true,"confidence":4},{"trial_n":45,"min":87,"max":168,"target":"present","response":"present","rt":940.90000009537,"correct":true,"confidence":4},{"trial_n":46,"min":88,"max":167,"target":"present","response":"absent","rt":1795.9000000954,"correct":false,"confidence":3},{"trial_n":47,"min":87,"max":168,"target":"absent","response":"absent","rt":802.90000009537,"correct":true,"confidence":5},{"trial_n":48,"min":87,"max":168,"target":"absent","response":"absent","rt":779.7999997139,"correct":true,"confidence":5},{"trial_n":49,"min":88,"max":167,"target":"absent","response":"present","rt":2256.4000000954,"correct":false,"confidence":3},{"trial_n":50,"min":87,"max":168,"target":"present","response":"present","rt":1477.4000000954,"correct":true,"confidence":4},{"trial_n":51,"min":87,"max":168,"target":"present","response":"present","rt":823.60000038147,"correct":true,"confidence":5},{"trial_n":52,"min":88,"max":167,"target":"present","response":"absent","rt":1195.6000003815,"correct":false,"confidence":4},{"trial_n":53,"min":87,"max":168,"target":"present","response":"present","rt":977.5,"correct":true,"confidence":5},{"trial_n":54,"min":87,"max":168,"target":"present","response":"absent","rt":2831.9000000954,"correct":false,"confidence":3},{"trial_n":55,"min":86,"max":169,"target":"absent","response":"absent","rt":1707.9000000954,"correct":true,"confidence":4},{"trial_n":56,"min":86,"max":169,"target":"absent","response":"absent","rt":1600.1000003815,"correct":true,"confidence":1},{"trial_n":57,"min":87,"max":168,"target":"absent","response":"absent","rt":939,"correct":true,"confidence":2},{"trial_n":58,"min":87,"max":168,"target":"present","response":"present","rt":1363.2000002861,"correct":true,"confidence":4},{"trial_n":59,"min":88,"max":167,"target":"present","response":"present","rt":1108.5999999046,"correct":true,"confidence":5},{"trial_n":60,"min":88,"max":167,"target":"absent","response":"present","rt":2090.6999998093,"correct":false,"confidence":4},{"trial_n":61,"min":87,"max":168,"target":"present","response":"present","rt":959.2000002861,"correct":true,"confidence":5},{"trial_n":62,"min":87,"max":168,"target":"absent","response":"present","rt":4636.5999999046,"correct":false,"confidence":4},{"trial_n":63,"min":86,"max":169,"target":"absent","response":"absent","rt":1170.5999999046,"correct":true,"confidence":3},{"trial_n":64,"min":86,"max":169,"target":"absent","response":"absent","rt":1091,"correct":true,"confidence":4},{"trial_n":65,"min":87,"max":168,"target":"absent","response":"absent","rt":1045.7000002861,"correct":true,"confidence":4},{"trial_n":66,"min":87,"max":168,"target":"absent","response":"absent","rt":772,"correct":true,"confidence":4},{"trial_n":67,"min":88,"max":167,"target":"absent","response":"absent","rt":1470.6999998093,"correct":true,"confidence":4},{"trial_n":68,"min":88,"max":167,"target":"absent","response":"present","rt":1656.6999998093,"correct":false,"confidence":3},{"trial_n":69,"min":87,"max":168,"target":"present","response":"absent","rt":1477.1999998093,"correct":false,"confidence":2},{"trial_n":70,"min":86,"max":169,"target":"present","response":"present","rt":860.89999961853,"correct":true,"confidence":5},{"trial_n":71,"min":41,"max":214,"target":"present","response":"present","rt":3177.3000001907,"correct":true,"confidence":-1},{"trial_n":72,"min":41,"max":214,"target":"present","response":"absent","rt":59.599999904633,"correct":false,"confidence":-1},{"trial_n":73,"min":25,"max":230,"target":"absent","response":"absent","rt":590.59999990463,"correct":true,"confidence":-1},{"trial_n":74,"min":25,"max":230,"target":"absent","response":"absent","rt":488.89999961853,"correct":true,"confidence":-1},{"trial_n":75,"min":41,"max":214,"target":"present","response":"present","rt":482.69999980927,"correct":true,"confidence":-1},{"trial_n":76,"min":41,"max":214,"target":"present","response":"present","rt":492.2000002861,"correct":true,"confidence":-1},{"trial_n":77,"min":57,"max":198,"target":"present","response":"present","rt":451.7000002861,"correct":true,"confidence":-1},{"trial_n":78,"min":57,"max":198,"target":"present","response":"present","rt":340.5,"correct":true,"confidence":-1},{"trial_n":79,"min":73,"max":182,"target":"present","response":"present","rt":436.30000019073,"correct":true,"confidence":-1},{"trial_n":80,"min":73,"max":182,"target":"present","response":"present","rt":577.90000009537,"correct":true,"confidence":-1},{"trial_n":81,"min":81,"max":174,"target":"absent","response":"absent","rt":637,"correct":true,"confidence":-1},{"trial_n":82,"min":81,"max":174,"target":"absent","response":"absent","rt":481,"correct":true,"confidence":-1},{"trial_n":83,"min":89,"max":166,"target":"present","response":"present","rt":445.59999990463,"correct":true,"confidence":-1},{"trial_n":84,"min":89,"max":166,"target":"present","response":"present","rt":456,"correct":true,"confidence":-1},{"trial_n":85,"min":97,"max":158,"target":"absent","response":"present","rt":809.2000002861,"correct":false,"confidence":-1},{"trial_n":86,"min":89,"max":166,"target":"absent","response":"present","rt":815.59999990463,"correct":false,"confidence":-1},{"trial_n":87,"min":81,"max":174,"target":"present","response":"present","rt":857.7000002861,"correct":true,"confidence":-1},{"trial_n":88,"min":81,"max":174,"target":"present","response":"present","rt":425.30000019073,"correct":true,"confidence":-1},{"trial_n":89,"min":89,"max":166,"target":"present","response":"present","rt":416.59999990463,"correct":true,"confidence":-1},{"trial_n":90,"min":89,"max":166,"target":"absent","response":"absent","rt":1090.5999999046,"correct":true,"confidence":-1},{"trial_n":91,"min":93,"max":162,"target":"present","response":"present","rt":1186.6999998093,"correct":true,"confidence":4},{"trial_n":92,"min":93,"max":162,"target":"absent","response":"absent","rt":1361.5,"correct":true,"confidence":3},{"trial_n":93,"min":97,"max":158,"target":"absent","response":"present","rt":917.69999980927,"correct":false,"confidence":5},{"trial_n":94,"min":93,"max":162,"target":"present","response":"present","rt":3064.2999997139,"correct":true,"confidence":3},{"trial_n":95,"min":93,"max":162,"target":"present","response":"present","rt":1051.9000000954,"correct":true,"confidence":4},{"trial_n":96,"min":97,"max":158,"target":"present","response":"present","rt":823,"correct":true,"confidence":4},{"trial_n":97,"min":97,"max":158,"target":"present","response":"present","rt":727.7000002861,"correct":true,"confidence":5},{"trial_n":98,"min":101,"max":154,"target":"absent","response":"present","rt":558.7000002861,"correct":false,"confidence":4},{"trial_n":99,"min":97,"max":158,"target":"present","response":"present","rt":775.80000019073,"correct":true,"confidence":3},{"trial_n":100,"min":97,"max":158,"target":"absent","response":"present","rt":1455.4000000954,"correct":false,"confidence":3},{"trial_n":101,"min":95,"max":160,"target":"absent","response":"present","rt":2199.7999997139,"correct":false,"confidence":3},{"trial_n":102,"min":93,"max":162,"target":"present","response":"present","rt":666.2999997139,"correct":true,"confidence":3},{"trial_n":103,"min":93,"max":162,"target":"present","response":"present","rt":1187,"correct":true,"confidence":4},{"trial_n":104,"min":95,"max":160,"target":"absent","response":"absent","rt":1168.3000001907,"correct":true,"confidence":2},{"trial_n":105,"min":95,"max":160,"target":"absent","response":"absent","rt":1592.4000000954,"correct":true,"confidence":1},{"trial_n":106,"min":97,"max":158,"target":"absent","response":"present","rt":1424.5,"correct":false,"confidence":3},{"trial_n":107,"min":95,"max":160,"target":"present","response":"absent","rt":633.60000038147,"correct":false,"confidence":4},{"trial_n":108,"min":93,"max":162,"target":"absent","response":"absent","rt":1172.7999997139,"correct":true,"confidence":2},{"trial_n":109,"min":93,"max":162,"target":"absent","response":"absent","rt":1105.7999997139,"correct":true,"confidence":4},{"trial_n":110,"min":95,"max":160,"target":"absent","response":"absent","rt":753.60000038147,"correct":true,"confidence":1},{"trial_n":111,"min":95,"max":160,"target":"present","response":"present","rt":1033.5,"correct":true,"confidence":3},{"trial_n":112,"min":96,"max":159,"target":"absent","response":"absent","rt":2484.4000000954,"correct":true,"confidence":2},{"trial_n":113,"min":96,"max":159,"target":"present","response":"present","rt":749.80000019073,"correct":true,"confidence":4},{"trial_n":114,"min":97,"max":158,"target":"absent","response":"absent","rt":1092,"correct":true,"confidence":3},{"trial_n":115,"min":97,"max":158,"target":"absent","response":"present","rt":1049.6999998093,"correct":false,"confidence":5},{"trial_n":116,"min":96,"max":159,"target":"present","response":"present","rt":646.19999980927,"correct":true,"confidence":4},{"trial_n":117,"min":96,"max":159,"target":"present","response":"present","rt":808.10000038147,"correct":true,"confidence":3},{"trial_n":118,"min":97,"max":158,"target":"present","response":"present","rt":963.90000009537,"correct":true,"confidence":5},{"trial_n":119,"min":97,"max":158,"target":"present","response":"absent","rt":1134.6999998093,"correct":false,"confidence":2},{"trial_n":120,"min":96,"max":159,"target":"absent","response":"present","rt":481.7000002861,"correct":false,"confidence":3},{"trial_n":121,"min":95,"max":160,"target":"present","response":"present","rt":887,"correct":true,"confidence":4},{"trial_n":122,"min":95,"max":160,"target":"absent","response":"present","rt":891.90000009537,"correct":false,"confidence":4},{"trial_n":123,"min":94,"max":161,"target":"absent","response":"present","rt":1560.5,"correct":false,"confidence":3},{"trial_n":124,"min":93,"max":162,"target":"absent","response":"absent","rt":1426.5,"correct":true,"confidence":2},{"trial_n":125,"min":93,"max":162,"target":"present","response":"absent","rt":1232.5,"correct":false,"confidence":4},{"trial_n":126,"min":92,"max":163,"target":"absent","response":"absent","rt":1319,"correct":true,"confidence":1},{"trial_n":127,"min":92,"max":163,"target":"absent","response":"absent","rt":904.7000002861,"correct":true,"confidence":1},{"trial_n":128,"min":93,"max":162,"target":"present","response":"present","rt":562.2999997139,"correct":true,"confidence":4},{"trial_n":129,"min":93,"max":162,"target":"present","response":"absent","rt":76741.099999905,"correct":false,"confidence":1},{"trial_n":130,"min":92,"max":163,"target":"absent","response":"present","rt":908.40000009537,"correct":false,"confidence":4},{"trial_n":131,"min":91,"max":164,"target":"present","response":"present","rt":1182.0999999046,"correct":true,"confidence":4},{"trial_n":132,"min":91,"max":164,"target":"absent","response":"absent","rt":1328,"correct":true,"confidence":2},{"trial_n":133,"min":92,"max":163,"target":"absent","response":"present","rt":582.2999997139,"correct":false,"confidence":3},{"trial_n":134,"min":91,"max":164,"target":"absent","response":"absent","rt":1074.4000000954,"correct":true,"confidence":3},{"trial_n":135,"min":91,"max":164,"target":"present","response":"present","rt":739.60000038147,"correct":true,"confidence":5},{"trial_n":136,"min":92,"max":163,"target":"absent","response":"absent","rt":731.09999990463,"correct":true,"confidence":4},{"trial_n":137,"min":92,"max":163,"target":"present","response":"present","rt":504.40000009537,"correct":true,"confidence":5},{"trial_n":138,"min":93,"max":162,"target":"absent","response":"absent","rt":1263.7999997139,"correct":true,"confidence":3},{"trial_n":139,"min":93,"max":162,"target":"present","response":"present","rt":392.30000019073,"correct":true,"confidence":5},{"trial_n":140,"min":94,"max":161,"target":"absent","response":"absent","rt":1267.5999999046,"correct":true,"confidence":4}]