[{"trial_n":1,"n_dots":4.25,"target":"right","response":"right","rt":8103.6000003815,"correct":true,"confidence":-1},{"trial_n":2,"n_dots":4.25,"target":"left","response":"left","rt":1681.7000002861,"correct":true,"confidence":-1},{"trial_n":3,"n_dots":3.85,"target":"right","response":"right","rt":869.40000009537,"correct":true,"confidence":-1},{"trial_n":4,"n_dots":3.85,"target":"right","response":"left","rt":1303.5,"correct":false,"confidence":-1},{"trial_n":5,"n_dots":4.25,"target":"right","response":"right","rt":538.30000019073,"correct":true,"confidence":-1},{"trial_n":6,"n_dots":4.25,"target":"left","response":"left","rt":423.5,"correct":true,"confidence":-1},{"trial_n":7,"n_dots":3.85,"target":"right","response":"right","rt":343,"correct":true,"confidence":-1},{"trial_n":8,"n_dots":3.85,"target":"left","response":"left","rt":488.09999990463,"correct":true,"confidence":-1},{"trial_n":9,"n_dots":3.65,"target":"left","response":"left","rt":531.69999980927,"correct":true,"confidence":-1},{"trial_n":10,"n_dots":3.65,"target":"left","response":"left","rt":497.60000038147,"correct":true,"confidence":-1},{"trial_n":11,"n_dots":3.45,"target":"right","response":"right","rt":372.19999980927,"correct":true,"confidence":-1},{"trial_n":12,"n_dots":3.45,"target":"left","response":"left","rt":330.30000019073,"correct":true,"confidence":-1},{"trial_n":13,"n_dots":3.35,"target":"left","response":"left","rt":443.5,"correct":true,"confidence":-1},{"trial_n":14,"n_dots":3.35,"target":"right","response":"right","rt":319.7999997139,"correct":true,"confidence":-1},{"trial_n":15,"n_dots":3.25,"target":"left","response":"left","rt":329.59999990463,"correct":true,"confidence":-1},{"trial_n":16,"n_dots":3.25,"target":"right","response":"right","rt":309.80000019073,"correct":true,"confidence":-1},{"trial_n":17,"n_dots":3.15,"target":"left","response":"right","rt":1770.0999999046,"correct":false,"confidence":-1},{"trial_n":18,"n_dots":3.25,"target":"right","response":"right","rt":492.09999990463,"correct":true,"confidence":-1},{"trial_n":19,"n_dots":3.25,"target":"right","response":"right","rt":321.80000019073,"correct":true,"confidence":-1},{"trial_n":20,"n_dots":3.15,"target":"right","response":"right","rt":774.2999997139,"correct":true,"confidence":-1},{"trial_n":21,"n_dots":3.15,"target":"left","response":"left","rt":661.19999980927,"correct":true,"confidence":4},{"trial_n":22,"n_dots":3.05,"target":"left","response":"left","rt":863.60000038147,"correct":true,"confidence":3},{"trial_n":23,"n_dots":3.05,"target":"right","response":"right","rt":886.7999997139,"correct":true,"confidence":5},{"trial_n":24,"n_dots":2.95,"target":"right","response":"right","rt":733,"correct":true,"confidence":5},{"trial_n":25,"n_dots":2.95,"target":"left","response":"left","rt":873,"correct":true,"confidence":3},{"trial_n":26,"n_dots":2.85,"target":"left","response":"right","rt":2896.7999997139,"correct":false,"confidence":3},{"trial_n":27,"n_dots":2.95,"target":"left","response":"left","rt":799.5,"correct":true,"confidence":4},{"trial_n":28,"n_dots":2.95,"target":"right","response":"right","rt":748.80000019073,"correct":true,"confidence":5},{"trial_n":29,"n_dots":2.85,"target":"right","response":"right","rt":755.7999997139,"correct":true,"confidence":5},{"trial_n":30,"n_dots":2.85,"target":"left","response":"right","rt":803.80000019073,"correct":false,"confidence":4},{"trial_n":31,"n_dots":2.95,"target":"right","response":"right","rt":704,"correct":true,"confidence":5},{"trial_n":32,"n_dots":2.95,"target":"left","response":"left","rt":2379.9000000954,"correct":true,"confidence":2},{"trial_n":33,"n_dots":2.85,"target":"left","response":"right","rt":820.90000009537,"correct":false,"confidence":4},{"trial_n":34,"n_dots":2.95,"target":"left","response":"right","rt":680.19999980927,"correct":false,"confidence":3},{"trial_n":35,"n_dots":3.05,"target":"right","response":"right","rt":1220.5,"correct":true,"confidence":3},{"trial_n":36,"n_dots":3.05,"target":"right","response":"right","rt":717.40000009537,"correct":true,"confidence":5},{"trial_n":37,"n_dots":2.95,"target":"right","response":"right","rt":783.5,"correct":true,"confidence":4},{"trial_n":38,"n_dots":2.95,"target":"left","response":"left","rt":855,"correct":true,"confidence":3},{"trial_n":39,"n_dots":2.85,"target":"right","response":"right","rt":1272.4000000954,"correct":true,"confidence":3},{"trial_n":40,"n_dots":2.85,"target":"left","response":"left","rt":991,"correct":true,"confidence":4},{"trial_n":41,"n_dots":2.75,"target":"left","response":"left","rt":512.69999980927,"correct":true,"confidence":4},{"trial_n":42,"n_dots":2.75,"target":"left","response":"left","rt":2761.5999999046,"correct":true,"confidence":2},{"trial_n":43,"n_dots":2.65,"target":"left","response":"left","rt":855.69999980927,"correct":true,"confidence":4},{"trial_n":44,"n_dots":2.65,"target":"right","response":"right","rt":5680.5999999046,"correct":true,"confidence":1},{"trial_n":45,"n_dots":2.55,"target":"right","response":"right","rt":720.5,"correct":true,"confidence":4},{"trial_n":46,"n_dots":2.55,"target":"right","response":"right","rt":738.90000009537,"correct":true,"confidence":5},{"trial_n":47,"n_dots":2.45,"target":"right","response":"right","rt":668.7999997139,"correct":true,"confidence":5},{"trial_n":48,"n_dots":2.45,"target":"left","response":"left","rt":1017.6999998093,"correct":true,"confidence":4},{"trial_n":49,"n_dots":2.35,"target":"right","response":"right","rt":2104.0999999046,"correct":true,"confidence":1},{"trial_n":50,"n_dots":2.35,"target":"left","response":"left","rt":1083.7000002861,"correct":true,"confidence":5},{"trial_n":51,"n_dots":2.25,"target":"right","response":"right","rt":834.59999990463,"correct":true,"confidence":4},{"trial_n":52,"n_dots":2.25,"target":"left","response":"left","rt":2045.6999998093,"correct":true,"confidence":3},{"trial_n":53,"n_dots":2.15,"target":"left","response":"right","rt":1166.5,"correct":false,"confidence":3},{"trial_n":54,"n_dots":2.25,"target":"left","response":"left","rt":581.7999997139,"correct":true,"confidence":4},{"trial_n":55,"n_dots":2.25,"target":"left","response":"left","rt":387,"correct":true,"confidence":4},{"trial_n":56,"n_dots":2.15,"target":"left","response":"left","rt":736.30000019073,"correct":true,"confidence":4},{"trial_n":57,"n_dots":2.15,"target":"right","response":"right","rt":1163.8000001907,"correct":true,"confidence":4},{"trial_n":58,"n_dots":2.05,"target":"right","response":"right","rt":751.69999980927,"correct":true,"confidence":2},{"trial_n":59,"n_dots":2.05,"target":"right","response":"left","rt":915,"correct":false,"confidence":3},{"trial_n":60,"n_dots":2.15,"target":"left","response":"right","rt":819.2999997139,"correct":false,"confidence":4},{"trial_n":61,"n_dots":2.25,"target":"left","response":"right","rt":1051.0999999046,"correct":false,"confidence":4},{"trial_n":62,"n_dots":2.35,"target":"left","response":"left","rt":844.5,"correct":true,"confidence":3},{"trial_n":63,"n_dots":2.35,"target":"right","response":"right","rt":930.19999980927,"correct":true,"confidence":2},{"trial_n":64,"n_dots":2.25,"target":"left","response":"left","rt":764.2999997139,"correct":true,"confidence":3},{"trial_n":65,"n_dots":2.25,"target":"left","response":"right","rt":773.69999980927,"correct":false,"confidence":4},{"trial_n":66,"n_dots":2.35,"target":"left","response":"right","rt":716.5,"correct":false,"confidence":4},{"trial_n":67,"n_dots":2.45,"target":"right","response":"right","rt":1133.7000002861,"correct":true,"confidence":3},{"trial_n":68,"n_dots":2.45,"target":"left","response":"right","rt":1574.6999998093,"correct":false,"confidence":2},{"trial_n":69,"n_dots":2.55,"target":"right","response":"left","rt":1382.1999998093,"correct":false,"confidence":4},{"trial_n":70,"n_dots":2.65,"target":"left","response":"right","rt":839.60000038147,"correct":false,"confidence":4},{"trial_n":71,"n_dots":2.75,"target":"right","response":"right","rt":680.5,"correct":true,"confidence":4},{"trial_n":72,"n_dots":2.75,"target":"right","response":"left","rt":787.40000009537,"correct":false,"confidence":4},{"trial_n":73,"n_dots":2.85,"target":"right","response":"right","rt":611.19999980927,"correct":true,"confidence":5},{"trial_n":74,"n_dots":2.85,"target":"left","response":"left","rt":608.2000002861,"correct":true,"confidence":4},{"trial_n":75,"n_dots":2.75,"target":"right","response":"right","rt":605.5,"correct":true,"confidence":5},{"trial_n":76,"n_dots":2.75,"target":"left","response":"right","rt":871.2999997139,"correct":false,"confidence":4},{"trial_n":77,"n_dots":2.85,"target":"right","response":"right","rt":646,"correct":true,"confidence":5},{"trial_n":78,"n_dots":2.85,"target":"right","response":"right","rt":687.19999980927,"correct":true,"confidence":5},{"trial_n":79,"n_dots":2.75,"target":"left","response":"right","rt":2488.2000002861,"correct":false,"confidence":3},{"trial_n":80,"n_dots":2.85,"target":"left","response":"left","rt":1364.0999999046,"correct":true,"confidence":3},{"trial_n":81,"n_dots":2.85,"target":"left","response":"right","rt":1052.1999998093,"correct":false,"confidence":3},{"trial_n":82,"n_dots":2.95,"target":"right","response":"right","rt":683,"correct":true,"confidence":4},{"trial_n":83,"n_dots":2.95,"target":"left","response":"right","rt":915.30000019073,"correct":false,"confidence":4},{"trial_n":84,"n_dots":3.05,"target":"right","response":"right","rt":786.19999980927,"correct":true,"confidence":4},{"trial_n":85,"n_dots":3.05,"target":"right","response":"right","rt":687.10000038147,"correct":true,"confidence":5},{"trial_n":86,"n_dots":2.95,"target":"left","response":"left","rt":993.7000002861,"correct":true,"confidence":4},{"trial_n":87,"n_dots":2.95,"target":"right","response":"right","rt":926.09999990463,"correct":true,"confidence":3},{"trial_n":88,"n_dots":2.85,"target":"right","response":"right","rt":1010.8999996185,"correct":true,"confidence":3},{"trial_n":89,"n_dots":2.85,"target":"left","response":"left","rt":1383.5,"correct":true,"confidence":2},{"trial_n":90,"n_dots":2.75,"target":"right","response":"right","rt":1162.3000001907,"correct":true,"confidence":2},{"trial_n":91,"n_dots":2.75,"target":"left","response":"left","rt":864.19999980927,"correct":true,"confidence":4},{"trial_n":92,"n_dots":2.65,"target":"right","response":"right","rt":681,"correct":true,"confidence":5},{"trial_n":93,"n_dots":2.65,"target":"right","response":"right","rt":1477,"correct":true,"confidence":4},{"trial_n":94,"n_dots":2.55,"target":"right","response":"left","rt":2182.5,"correct":false,"confidence":1},{"trial_n":95,"n_dots":2.65,"target":"left","response":"left","rt":926.09999990463,"correct":true,"confidence":3},{"trial_n":96,"n_dots":2.65,"target":"left","response":"right","rt":2260.2999997139,"correct":false,"confidence":2},{"trial_n":97,"n_dots":2.75,"target":"right","response":"left","rt":1123.9000000954,"correct":false,"confidence":3},{"trial_n":98,"n_dots":2.85,"target":"left","response":"left","rt":7404.1000003815,"correct":true,"confidence":2},{"trial_n":99,"n_dots":2.85,"target":"right","response":"right","rt":772,"correct":true,"confidence":3},{"trial_n":100,"n_dots":2.75,"target":"right","response":"right","rt":895.19999980927,"correct":true,"confidence":4},{"trial_n":101,"n_dots":2.75,"target":"left","response":"right","rt":841.40000009537,"correct":false,"confidence":4},{"trial_n":102,"n_dots":2.85,"target":"left","response":"left","rt":1042.4000000954,"correct":true,"confidence":5},{"trial_n":103,"n_dots":2.85,"target":"right","response":"right","rt":609.7999997139,"correct":true,"confidence":5},{"trial_n":104,"n_dots":2.75,"target":"left","response":"right","rt":667.40000009537,"correct":false,"confidence":5},{"trial_n":105,"n_dots":2.85,"target":"right","response":"right","rt":670.5,"correct":true,"confidence":5},{"trial_n":106,"n_dots":2.85,"target":"right","response":"right","rt":857.09999990463,"correct":true,"confidence":5},{"trial_n":107,"n_dots":2.75,"target":"left","response":"left","rt":863.09999990463,"correct":true,"confidence":4},{"trial_n":108,"n_dots":2.75,"target":"right","response":"right","rt":638.90000009537,"correct":true,"confidence":5},{"trial_n":109,"n_dots":2.65,"target":"left","response":"right","rt":852.90000009537,"correct":false,"confidence":3},{"trial_n":110,"n_dots":2.75,"target":"left","response":"right","rt":2245.5999999046,"correct":false,"confidence":3},{"trial_n":111,"n_dots":2.85,"target":"left","response":"right","rt":934.59999990463,"correct":false,"confidence":4},{"trial_n":112,"n_dots":2.95,"target":"right","response":"right","rt":533.5,"correct":true,"confidence":5},{"trial_n":113,"n_dots":2.95,"target":"left","response":"left","rt":1275.9000000954,"correct":true,"confidence":2},{"trial_n":114,"n_dots":2.85,"target":"left","response":"right","rt":615.2000002861,"correct":false,"confidence":4},{"trial_n":115,"n_dots":2.95,"target":"left","response":"left","rt":1159.4000000954,"correct":true,"confidence":3},{"trial_n":116,"n_dots":2.95,"target":"right","response":"right","rt":730.2999997139,"correct":true,"confidence":4},{"trial_n":117,"n_dots":2.85,"target":"right","response":"right","rt":928.40000009537,"correct":true,"confidence":3},{"trial_n":118,"n_dots":2.85,"target":"right","response":"right","rt":747.09999990463,"correct":true,"confidence":3},{"trial_n":119,"n_dots":2.75,"target":"right","response":"right","rt":497.5,"correct":true,"confidence":5},{"trial_n":120,"n_dots":2.75,"target":"right","response":"right","rt":952.40000009537,"correct":true,"confidence":4}]