[{"trial_n":1,"span":8,"encoder":"32046512","distractor":"32046562","target":"present","response":"absent","rt":"2732","correct":false,"confidence":-1},{"trial_n":2,"span":6,"encoder":"790087","distractor":"790587","target":"present","response":"present","rt":"3367","correct":true,"confidence":-1},{"trial_n":3,"span":6,"encoder":"344133","distractor":"349133","target":"absent","response":"absent","rt":"3712","correct":true,"confidence":-1},{"trial_n":4,"span":8,"encoder":"57325749","distractor":"57425749","target":"absent","response":"absent","rt":"4914","correct":true,"confidence":-1},{"trial_n":5,"span":8,"encoder":"02089693","distractor":"02080693","target":"present","response":"present","rt":"4262","correct":true,"confidence":-1},{"trial_n":6,"span":10,"encoder":"5402200759","distractor":"5402200659","target":"absent","response":"present","rt":"2573","correct":false,"confidence":-1},{"trial_n":7,"span":8,"encoder":"81951816","distractor":"81351816","target":"present","response":"present","rt":"4466","correct":true,"confidence":-1},{"trial_n":8,"span":8,"encoder":"94828841","distractor":"94828941","target":"absent","response":"present","rt":"5580","correct":false,"confidence":-1},{"trial_n":9,"span":6,"encoder":"449554","distractor":"449534","target":"present","response":"present","rt":"2739","correct":true,"confidence":-1},{"trial_n":10,"span":6,"encoder":"112035","distractor":"112065","target":"present","response":"present","rt":"2620","correct":true,"confidence":-1},{"trial_n":11,"span":8,"encoder":"17143582","distractor":"17146582","target":"present","response":"present","rt":"2811","correct":true,"confidence":-1},{"trial_n":12,"span":8,"encoder":"09083398","distractor":"05083398","target":"absent","response":"absent","rt":"2175","correct":true,"confidence":-1},{"trial_n":13,"span":9,"encoder":"892422730","distractor":"892422720","target":"absent","response":"present","rt":"2497","correct":false,"confidence":-1},{"trial_n":14,"span":8,"encoder":"19404255","distractor":"19404455","target":"absent","response":"present","rt":"1898","correct":false,"confidence":-1},{"trial_n":15,"span":7,"encoder":"0640820","distractor":"0640020","target":"absent","response":"absent","rt":"2866","correct":true,"confidence":-1},{"trial_n":16,"span":7,"encoder":"5331961","distractor":"5332961","target":"present","response":"present","rt":"2079","correct":true,"confidence":-1},{"trial_n":17,"span":8,"encoder":"08764849","distractor":"08765849","target":"present","response":"present","rt":"12027","correct":true,"confidence":-1},{"trial_n":18,"span":8,"encoder":"06095689","distractor":"16095689","target":"present","response":"present","rt":"1692","correct":true,"confidence":-1},{"trial_n":19,"span":9,"encoder":"029741263","distractor":"329741263","target":"absent","response":"absent","rt":"1982","correct":true,"confidence":-1},{"trial_n":20,"span":9,"encoder":"404445882","distractor":"444445882","target":"absent","response":"absent","rt":"3405","correct":true,"confidence":-1},{"trial_n":21,"span":10,"encoder":"0437050170","distractor":"0438050170","target":"present","response":"present","rt":"1985","correct":true,"confidence":2},{"trial_n":22,"span":10,"encoder":"0721144062","distractor":"0721114062","target":"absent","response":"present","rt":"2953","correct":false,"confidence":2},{"trial_n":23,"span":9,"encoder":"990135853","distractor":"990130853","target":"present","response":"present","rt":"4840","correct":true,"confidence":3},{"trial_n":24,"span":9,"encoder":"772541863","distractor":"772541563","target":"present","response":"absent","rt":"7061","correct":false,"confidence":3},{"trial_n":25,"span":8,"encoder":"92059581","distractor":"92052581","target":"absent","response":"absent","rt":"5881","correct":true,"confidence":3},{"trial_n":26,"span":8,"encoder":"95100319","distractor":"95100119","target":"present","response":"present","rt":"2545.0000000001","correct":true,"confidence":4},{"trial_n":27,"span":9,"encoder":"115202448","distractor":"115202458","target":"absent","response":"present","rt":"7941.0000000001","correct":false,"confidence":3},{"trial_n":28,"span":8,"encoder":"52367626","distractor":"32367626","target":"absent","response":"present","rt":"6165.0000000001","correct":false,"confidence":2},{"trial_n":29,"span":7,"encoder":"0037502","distractor":"0537502","target":"absent","response":"absent","rt":"3089","correct":true,"confidence":4},{"trial_n":30,"span":7,"encoder":"0135512","distractor":"0131512","target":"absent","response":"absent","rt":"6564","correct":true,"confidence":3},{"trial_n":31,"span":8,"encoder":"57666557","distractor":"57616557","target":"present","response":"present","rt":"2608","correct":true,"confidence":3},{"trial_n":32,"span":8,"encoder":"71720166","distractor":"75720166","target":"absent","response":"present","rt":"4848.9999999999","correct":false,"confidence":3},{"trial_n":33,"span":7,"encoder":"5471258","distractor":"5671258","target":"absent","response":"absent","rt":"4892.9999999999","correct":true,"confidence":4},{"trial_n":34,"span":7,"encoder":"9177470","distractor":"9177477","target":"present","response":"present","rt":"2309.9999999999","correct":true,"confidence":4},{"trial_n":35,"span":8,"encoder":"68213723","distractor":"68263723","target":"absent","response":"absent","rt":"5452.0000000001","correct":true,"confidence":3},{"trial_n":36,"span":8,"encoder":"26962406","distractor":"26962106","target":"present","response":"present","rt":"2693","correct":true,"confidence":3},{"trial_n":37,"span":9,"encoder":"652801953","distractor":"652841953","target":"present","response":"present","rt":"2861","correct":true,"confidence":3},{"trial_n":38,"span":9,"encoder":"488356302","distractor":"418356302","target":"present","response":"present","rt":"3113","correct":true,"confidence":3},{"trial_n":39,"span":10,"encoder":"1007133081","distractor":"1207133081","target":"absent","response":"absent","rt":"3205","correct":true,"confidence":4},{"trial_n":40,"span":10,"encoder":"0974927824","distractor":"0974977824","target":"absent","response":"present","rt":"4794","correct":false,"confidence":2},{"trial_n":41,"span":9,"encoder":"208146603","distractor":"108146603","target":"present","response":"present","rt":"2390.9999999999","correct":true,"confidence":4},{"trial_n":42,"span":9,"encoder":"802428875","distractor":"502428875","target":"present","response":"present","rt":"1805","correct":true,"confidence":3},{"trial_n":43,"span":10,"encoder":"7634293010","distractor":"7637293010","target":"present","response":"present","rt":"3158","correct":true,"confidence":3},{"trial_n":44,"span":10,"encoder":"4138874492","distractor":"4138878492","target":"present","response":"present","rt":"5855","correct":true,"confidence":2},{"trial_n":45,"span":11,"encoder":"31611492870","distractor":"31611192870","target":"absent","response":"absent","rt":"1985","correct":true,"confidence":4},{"trial_n":46,"span":11,"encoder":"26075573605","distractor":"26075533605","target":"present","response":"present","rt":"3626","correct":true,"confidence":3},{"trial_n":47,"span":12,"encoder":"762571285018","distractor":"762571585018","target":"present","response":"present","rt":"2996","correct":true,"confidence":3},{"trial_n":48,"span":12,"encoder":"020862935321","distractor":"020862635321","target":"present","response":"absent","rt":"7377","correct":false,"confidence":3},{"trial_n":49,"span":11,"encoder":"94958992429","distractor":"94958992424","target":"present","response":"present","rt":"7323.0000000001","correct":true,"confidence":2},{"trial_n":50,"span":11,"encoder":"01948723777","distractor":"01948723757","target":"absent","response":"absent","rt":"4639.9999999999","correct":true,"confidence":3},{"trial_n":51,"span":12,"encoder":"073262845795","distractor":"073662845795","target":"present","response":"present","rt":"3630.9999999999","correct":true,"confidence":3},{"trial_n":52,"span":12,"encoder":"858325737695","distractor":"858325727695","target":"absent","response":"absent","rt":"2596.0000000001","correct":true,"confidence":3},{"trial_n":53,"span":13,"encoder":"9037763682172","distractor":"9037463682172","target":"absent","response":"absent","rt":"4397.9999999999","correct":true,"confidence":3},{"trial_n":54,"span":13,"encoder":"5291783175951","distractor":"5291753175951","target":"present","response":"present","rt":"5066","correct":true,"confidence":4},{"trial_n":55,"span":14,"encoder":"85180517952931","distractor":"86180517952931","target":"present","response":"present","rt":"1957","correct":true,"confidence":2},{"trial_n":56,"span":14,"encoder":"42779002038004","distractor":"42779006038004","target":"absent","response":"present","rt":"2347","correct":false,"confidence":3},{"trial_n":57,"span":13,"encoder":"8197656489835","distractor":"8197656409835","target":"absent","response":"present","rt":"1698","correct":false,"confidence":3},{"trial_n":58,"span":12,"encoder":"711129730444","distractor":"711129730443","target":"present","response":"absent","rt":"13130","correct":false,"confidence":1},{"trial_n":59,"span":11,"encoder":"41277999220","distractor":"41277990220","target":"present","response":"present","rt":"1671","correct":true,"confidence":3},{"trial_n":60,"span":11,"encoder":"86020969931","distractor":"84020969931","target":"absent","response":"present","rt":"2696","correct":false,"confidence":1},{"trial_n":61,"span":10,"encoder":"3397234962","distractor":"3397234922","target":"present","response":"present","rt":"1624","correct":true,"confidence":1},{"trial_n":62,"span":10,"encoder":"7984591766","distractor":"7984591966","target":"present","response":"present","rt":"3380.9999999998","correct":true,"confidence":4},{"trial_n":63,"span":11,"encoder":"73777943400","distractor":"73777943200","target":"absent","response":"present","rt":"3317","correct":false,"confidence":4},{"trial_n":64,"span":10,"encoder":"5713920692","distractor":"5733920692","target":"absent","response":"present","rt":"4653","correct":false,"confidence":3},{"trial_n":65,"span":9,"encoder":"735875150","distractor":"755875150","target":"absent","response":"present","rt":"1710.0000000002","correct":false,"confidence":4},{"trial_n":66,"span":8,"encoder":"41793036","distractor":"41793086","target":"present","response":"present","rt":"2010.9999999998","correct":true,"confidence":5},{"trial_n":67,"span":8,"encoder":"19125884","distractor":"19925884","target":"absent","response":"present","rt":"1651","correct":false,"confidence":4},{"trial_n":68,"span":7,"encoder":"5815878","distractor":"5815888","target":"present","response":"present","rt":"5141","correct":true,"confidence":3},{"trial_n":69,"span":7,"encoder":"6459531","distractor":"6452531","target":"absent","response":"present","rt":"8086","correct":false,"confidence":3},{"trial_n":70,"span":6,"encoder":"657654","distractor":"657664","target":"absent","response":"present","rt":"1517.0000000002","correct":false,"confidence":3},{"trial_n":71,"span":8,"encoder":"80268489","distractor":"80268429","target":"present","response":"absent","rt":"3814.9999999998","correct":false,"confidence":-1},{"trial_n":72,"span":7,"encoder":"2593550","distractor":"9593550","target":"present","response":"absent","rt":"2709.0000000002","correct":false,"confidence":-1},{"trial_n":73,"span":6,"encoder":"959440","distractor":"958440","target":"absent","response":"absent","rt":"2029","correct":true,"confidence":-1},{"trial_n":74,"span":6,"encoder":"950177","distractor":"950777","target":"absent","response":"absent","rt":"1991.9999999998","correct":true,"confidence":-1},{"trial_n":75,"span":7,"encoder":"7524669","distractor":"7524269","target":"present","response":"present","rt":"2292","correct":true,"confidence":-1},{"trial_n":76,"span":7,"encoder":"4953986","distractor":"4954986","target":"present","response":"present","rt":"4137.9999999998","correct":true,"confidence":-1},{"trial_n":77,"span":8,"encoder":"78926090","distractor":"38926090","target":"absent","response":"absent","rt":"972","correct":true,"confidence":-1},{"trial_n":78,"span":8,"encoder":"35000505","distractor":"33000505","target":"present","response":"absent","rt":"766","correct":false,"confidence":-1},{"trial_n":79,"span":7,"encoder":"9258680","distractor":"9758680","target":"present","response":"present","rt":"2201","correct":true,"confidence":-1},{"trial_n":80,"span":7,"encoder":"8802459","distractor":"8872459","target":"present","response":"present","rt":"2722","correct":true,"confidence":-1},{"trial_n":81,"span":8,"encoder":"74976067","distractor":"04976067","target":"present","response":"absent","rt":"1297","correct":false,"confidence":-1},{"trial_n":82,"span":7,"encoder":"6160228","distractor":"5160228","target":"absent","response":"present","rt":"7767.9999999998","correct":false,"confidence":-1},{"trial_n":83,"span":6,"encoder":"976711","distractor":"376711","target":"absent","response":"absent","rt":"6031.9999999998","correct":true,"confidence":-1},{"trial_n":84,"span":6,"encoder":"012418","distractor":"012428","target":"present","response":"present","rt":"2242","correct":true,"confidence":-1},{"trial_n":85,"span":7,"encoder":"4168843","distractor":"4168883","target":"present","response":"absent","rt":"1971","correct":false,"confidence":-1},{"trial_n":86,"span":6,"encoder":"614129","distractor":"664129","target":"absent","response":"present","rt":"1176","correct":false,"confidence":-1},{"trial_n":87,"span":5,"encoder":"05325","distractor":"15325","target":"present","response":"absent","rt":"1503","correct":false,"confidence":-1},{"trial_n":88,"span":4,"encoder":"2319","distractor":"2317","target":"absent","response":"absent","rt":"1368","correct":true,"confidence":-1},{"trial_n":89,"span":4,"encoder":"4839","distractor":"4837","target":"present","response":"present","rt":"2023","correct":true,"confidence":-1},{"trial_n":90,"span":5,"encoder":"10373","distractor":"30373","target":"absent","response":"absent","rt":"1540","correct":true,"confidence":-1},{"trial_n":91,"span":5,"encoder":"91133","distractor":"91103","target":"absent","response":"absent","rt":"2884","correct":true,"confidence":5},{"trial_n":92,"span":6,"encoder":"601444","distractor":"601445","target":"absent","response":"absent","rt":"2277","correct":true,"confidence":5},{"trial_n":93,"span":6,"encoder":"561895","distractor":"561893","target":"present","response":"present","rt":"2418","correct":true,"confidence":5},{"trial_n":94,"span":7,"encoder":"7563644","distractor":"7663644","target":"present","response":"present","rt":"3808","correct":true,"confidence":5},{"trial_n":95,"span":7,"encoder":"7847415","distractor":"7845415","target":"absent","response":"absent","rt":"2504.9999999998","correct":true,"confidence":5},{"trial_n":96,"span":8,"encoder":"83747112","distractor":"83747182","target":"present","response":"present","rt":"2650.9999999998","correct":true,"confidence":5},{"trial_n":97,"span":8,"encoder":"01470954","distractor":"09470954","target":"absent","response":"absent","rt":"2521.9999999998","correct":true,"confidence":4},{"trial_n":98,"span":9,"encoder":"200986451","distractor":"400986451","target":"absent","response":"absent","rt":"4073","correct":true,"confidence":5},{"trial_n":99,"span":9,"encoder":"740931413","distractor":"740931213","target":"present","response":"absent","rt":"3327","correct":false,"confidence":1},{"trial_n":100,"span":8,"encoder":"89015698","distractor":"83015698","target":"present","response":"present","rt":"4878","correct":true,"confidence":3},{"trial_n":101,"span":8,"encoder":"04876314","distractor":"04871314","target":"present","response":"present","rt":"2550.9999999998","correct":true,"confidence":3},{"trial_n":102,"span":9,"encoder":"932669296","distractor":"932667296","target":"present","response":"present","rt":"3873.9999999998","correct":true,"confidence":5},{"trial_n":103,"span":9,"encoder":"446066663","distractor":"446066667","target":"absent","response":"absent","rt":"2394","correct":true,"confidence":5},{"trial_n":104,"span":10,"encoder":"2593944751","distractor":"2593914751","target":"absent","response":"absent","rt":"8983","correct":true,"confidence":3},{"trial_n":105,"span":10,"encoder":"4657626875","distractor":"8657626875","target":"present","response":"present","rt":"1950","correct":true,"confidence":4},{"trial_n":106,"span":11,"encoder":"10959931493","distractor":"10959931423","target":"absent","response":"present","rt":"4611","correct":false,"confidence":3},{"trial_n":107,"span":10,"encoder":"5065689059","distractor":"5055689059","target":"present","response":"absent","rt":"2459.9999999995","correct":false,"confidence":1},{"trial_n":108,"span":9,"encoder":"769141106","distractor":"769441106","target":"absent","response":"present","rt":"4178","correct":false,"confidence":2},{"trial_n":109,"span":8,"encoder":"51505887","distractor":"51505897","target":"absent","response":"absent","rt":"2102.0000000002","correct":true,"confidence":5},{"trial_n":110,"span":8,"encoder":"46202183","distractor":"46204183","target":"present","response":"present","rt":"5806.9999999995","correct":true,"confidence":4},{"trial_n":111,"span":9,"encoder":"741642344","distractor":"741642394","target":"absent","response":"absent","rt":"5575","correct":true,"confidence":5},{"trial_n":112,"span":9,"encoder":"054545422","distractor":"054545452","target":"absent","response":"absent","rt":"2057","correct":true,"confidence":4},{"trial_n":113,"span":10,"encoder":"6188701075","distractor":"6183701075","target":"present","response":"absent","rt":"3995","correct":false,"confidence":1},{"trial_n":114,"span":9,"encoder":"859922512","distractor":"859922502","target":"absent","response":"absent","rt":"6416","correct":true,"confidence":3},{"trial_n":115,"span":9,"encoder":"378941859","distractor":"378941857","target":"absent","response":"absent","rt":"4367","correct":true,"confidence":2},{"trial_n":116,"span":10,"encoder":"0694138789","distractor":"0694108789","target":"present","response":"absent","rt":"3914.9999999995","correct":false,"confidence":3},{"trial_n":117,"span":9,"encoder":"455538179","distractor":"455535179","target":"present","response":"present","rt":"4443","correct":true,"confidence":4},{"trial_n":118,"span":9,"encoder":"205143288","distractor":"275143288","target":"present","response":"absent","rt":"3587","correct":false,"confidence":2},{"trial_n":119,"span":8,"encoder":"34498653","distractor":"34498953","target":"absent","response":"absent","rt":"895","correct":true,"confidence":1},{"trial_n":120,"span":8,"encoder":"02265502","distractor":"02265802","target":"present","response":"absent","rt":"1623","correct":false,"confidence":1},{"trial_n":121,"span":7,"encoder":"7137848","distractor":"7132848","target":"present","response":"present","rt":"2695","correct":true,"confidence":5},{"trial_n":122,"span":7,"encoder":"0476845","distractor":"0475845","target":"absent","response":"absent","rt":"4262","correct":true,"confidence":5},{"trial_n":123,"span":8,"encoder":"61373609","distractor":"61374609","target":"present","response":"absent","rt":"2403","correct":false,"confidence":3},{"trial_n":124,"span":7,"encoder":"3002838","distractor":"8002838","target":"present","response":"present","rt":"3090","correct":true,"confidence":3},{"trial_n":125,"span":7,"encoder":"3802392","distractor":"3832392","target":"present","response":"present","rt":"2515","correct":true,"confidence":2},{"trial_n":126,"span":8,"encoder":"48742204","distractor":"47742204","target":"absent","response":"absent","rt":"3283","correct":true,"confidence":5},{"trial_n":127,"span":8,"encoder":"78239133","distractor":"78239136","target":"present","response":"present","rt":"1985.0000000005","correct":true,"confidence":5},{"trial_n":128,"span":9,"encoder":"893319931","distractor":"823319931","target":"absent","response":"present","rt":"4826","correct":false,"confidence":4},{"trial_n":129,"span":8,"encoder":"21867240","distractor":"20867240","target":"absent","response":"absent","rt":"1347","correct":true,"confidence":2},{"trial_n":130,"span":8,"encoder":"95622794","distractor":"95622797","target":"absent","response":"absent","rt":"2584","correct":true,"confidence":3},{"trial_n":131,"span":9,"encoder":"037020748","distractor":"037020778","target":"present","response":"present","rt":"2265.0000000005","correct":true,"confidence":1},{"trial_n":132,"span":9,"encoder":"657373291","distractor":"657673291","target":"absent","response":"absent","rt":"3529","correct":true,"confidence":3},{"trial_n":133,"span":10,"encoder":"3422929396","distractor":"3422529396","target":"absent","response":"absent","rt":"4374","correct":true,"confidence":3},{"trial_n":134,"span":10,"encoder":"7900645880","distractor":"7900645883","target":"absent","response":"absent","rt":"1625","correct":true,"confidence":3},{"trial_n":135,"span":11,"encoder":"58941748540","distractor":"58951748540","target":"absent","response":"present","rt":"2041.9999999995","correct":false,"confidence":1},{"trial_n":136,"span":10,"encoder":"1293752855","distractor":"1893752855","target":"absent","response":"absent","rt":"3828.0000000005","correct":true,"confidence":2},{"trial_n":137,"span":10,"encoder":"3066395810","distractor":"8066395810","target":"present","response":"absent","rt":"1558","correct":false,"confidence":1},{"trial_n":138,"span":9,"encoder":"933099584","distractor":"933096584","target":"present","response":"present","rt":"2789","correct":true,"confidence":2},{"trial_n":139,"span":9,"encoder":"952529927","distractor":"952527927","target":"absent","response":"absent","rt":"3584","correct":true,"confidence":3},{"trial_n":140,"span":10,"encoder":"7972854413","distractor":"7972854411","target":"present","response":"present","rt":"1873.9999999995","correct":true,"confidence":5}]