[{"trial_n":1,"n_dots":4.25,"target":"right","response":"right","rt":2059.6999999881,"correct":true,"confidence":-1},{"trial_n":2,"n_dots":4.25,"target":"left","response":"left","rt":528.89999997616,"correct":true,"confidence":-1},{"trial_n":3,"n_dots":3.85,"target":"left","response":"left","rt":381.5,"correct":true,"confidence":-1},{"trial_n":4,"n_dots":3.85,"target":"right","response":"right","rt":627.30000001192,"correct":true,"confidence":-1},{"trial_n":5,"n_dots":3.45,"target":"left","response":"left","rt":712.19999998808,"correct":true,"confidence":-1},{"trial_n":6,"n_dots":3.45,"target":"left","response":"left","rt":354.20000004768,"correct":true,"confidence":-1},{"trial_n":7,"n_dots":3.05,"target":"right","response":"right","rt":784.69999998808,"correct":true,"confidence":-1},{"trial_n":8,"n_dots":3.05,"target":"left","response":"left","rt":456.39999997616,"correct":true,"confidence":-1},{"trial_n":9,"n_dots":2.85,"target":"left","response":"right","rt":481.89999997616,"correct":false,"confidence":-1},{"trial_n":10,"n_dots":3.05,"target":"left","response":"right","rt":559,"correct":false,"confidence":-1},{"trial_n":11,"n_dots":3.25,"target":"left","response":"left","rt":227.19999998808,"correct":true,"confidence":-1},{"trial_n":12,"n_dots":3.25,"target":"right","response":"right","rt":477,"correct":true,"confidence":-1},{"trial_n":13,"n_dots":3.15,"target":"right","response":"left","rt":522.19999998808,"correct":false,"confidence":-1},{"trial_n":14,"n_dots":3.25,"target":"right","response":"right","rt":885.19999998808,"correct":true,"confidence":-1},{"trial_n":15,"n_dots":3.25,"target":"right","response":"right","rt":544.5,"correct":true,"confidence":-1},{"trial_n":16,"n_dots":3.15,"target":"right","response":"right","rt":264.90000003576,"correct":true,"confidence":-1},{"trial_n":17,"n_dots":3.15,"target":"right","response":"right","rt":426.09999996424,"correct":true,"confidence":-1},{"trial_n":18,"n_dots":3.05,"target":"right","response":"left","rt":1.6000000238419,"correct":false,"confidence":-1},{"trial_n":19,"n_dots":3.15,"target":"left","response":"left","rt":207.10000002384,"correct":true,"confidence":-1},{"trial_n":20,"n_dots":3.15,"target":"right","response":"right","rt":1941.3000000119,"correct":true,"confidence":-1},{"trial_n":21,"n_dots":3.05,"target":"left","response":"left","rt":714.19999998808,"correct":true,"confidence":3},{"trial_n":22,"n_dots":3.05,"target":"right","response":"right","rt":426.19999998808,"correct":true,"confidence":4},{"trial_n":23,"n_dots":2.95,"target":"left","response":"left","rt":1408.3000000119,"correct":true,"confidence":2},{"trial_n":24,"n_dots":2.95,"target":"right","response":"right","rt":400,"correct":true,"confidence":3},{"trial_n":25,"n_dots":2.85,"target":"right","response":"left","rt":434.20000004768,"correct":false,"confidence":3},{"trial_n":26,"n_dots":2.95,"target":"right","response":"left","rt":527.89999997616,"correct":false,"confidence":3},{"trial_n":27,"n_dots":3.05,"target":"left","response":"right","rt":401.39999997616,"correct":false,"confidence":3},{"trial_n":28,"n_dots":3.15,"target":"left","response":"left","rt":615.60000002384,"correct":true,"confidence":3},{"trial_n":29,"n_dots":3.15,"target":"left","response":"left","rt":507.89999997616,"correct":true,"confidence":4},{"trial_n":30,"n_dots":3.05,"target":"left","response":"left","rt":557.80000001192,"correct":true,"confidence":3},{"trial_n":31,"n_dots":3.05,"target":"left","response":"left","rt":1347.1999999881,"correct":true,"confidence":2},{"trial_n":32,"n_dots":2.95,"target":"right","response":"right","rt":497.80000001192,"correct":true,"confidence":3},{"trial_n":33,"n_dots":2.95,"target":"right","response":"right","rt":332.20000004768,"correct":true,"confidence":3},{"trial_n":34,"n_dots":2.85,"target":"right","response":"left","rt":602.5,"correct":false,"confidence":3},{"trial_n":35,"n_dots":2.95,"target":"left","response":"right","rt":667.60000002384,"correct":false,"confidence":3},{"trial_n":36,"n_dots":3.05,"target":"left","response":"left","rt":249.79999995232,"correct":true,"confidence":4},{"trial_n":37,"n_dots":3.05,"target":"left","response":"right","rt":969.5,"correct":false,"confidence":3},{"trial_n":38,"n_dots":3.15,"target":"right","response":"right","rt":204.60000002384,"correct":true,"confidence":4},{"trial_n":39,"n_dots":3.15,"target":"right","response":"right","rt":387.30000001192,"correct":true,"confidence":4},{"trial_n":40,"n_dots":3.05,"target":"right","response":"right","rt":373.20000004768,"correct":true,"confidence":4},{"trial_n":41,"n_dots":3.05,"target":"left","response":"left","rt":305.80000001192,"correct":true,"confidence":2},{"trial_n":42,"n_dots":2.95,"target":"left","response":"left","rt":1650.5999999642,"correct":true,"confidence":2},{"trial_n":43,"n_dots":2.95,"target":"right","response":"left","rt":683.39999997616,"correct":false,"confidence":4},{"trial_n":44,"n_dots":3.05,"target":"right","response":"left","rt":743.60000002384,"correct":false,"confidence":4},{"trial_n":45,"n_dots":3.15,"target":"left","response":"left","rt":204.10000002384,"correct":true,"confidence":4},{"trial_n":46,"n_dots":3.15,"target":"left","response":"right","rt":602.69999998808,"correct":false,"confidence":2},{"trial_n":47,"n_dots":3.25,"target":"right","response":"right","rt":445.80000001192,"correct":true,"confidence":4},{"trial_n":48,"n_dots":3.25,"target":"left","response":"right","rt":593.39999997616,"correct":false,"confidence":3},{"trial_n":49,"n_dots":3.35,"target":"left","response":"left","rt":434.69999998808,"correct":true,"confidence":4},{"trial_n":50,"n_dots":3.35,"target":"left","response":"left","rt":451.19999998808,"correct":true,"confidence":2},{"trial_n":51,"n_dots":3.25,"target":"left","response":"left","rt":249.69999998808,"correct":true,"confidence":4},{"trial_n":52,"n_dots":3.25,"target":"left","response":"left","rt":424.29999995232,"correct":true,"confidence":4},{"trial_n":53,"n_dots":3.15,"target":"left","response":"left","rt":154.70000004768,"correct":true,"confidence":3},{"trial_n":54,"n_dots":3.15,"target":"right","response":"right","rt":275.89999997616,"correct":true,"confidence":3},{"trial_n":55,"n_dots":3.05,"target":"left","response":"right","rt":484.10000002384,"correct":false,"confidence":4},{"trial_n":56,"n_dots":3.15,"target":"right","response":"right","rt":301.10000002384,"correct":true,"confidence":2},{"trial_n":57,"n_dots":3.15,"target":"right","response":"left","rt":557.40000003576,"correct":false,"confidence":3},{"trial_n":58,"n_dots":3.25,"target":"left","response":"right","rt":963.59999996424,"correct":false,"confidence":3},{"trial_n":59,"n_dots":3.35,"target":"right","response":"right","rt":206.19999998808,"correct":true,"confidence":4},{"trial_n":60,"n_dots":3.35,"target":"left","response":"left","rt":159.19999998808,"correct":true,"confidence":3},{"trial_n":61,"n_dots":3.25,"target":"right","response":"left","rt":1176.5,"correct":false,"confidence":4},{"trial_n":62,"n_dots":3.35,"target":"right","response":"right","rt":648.39999997616,"correct":true,"confidence":3},{"trial_n":63,"n_dots":3.35,"target":"right","response":"right","rt":368.79999995232,"correct":true,"confidence":4},{"trial_n":64,"n_dots":3.25,"target":"left","response":"left","rt":196,"correct":true,"confidence":4},{"trial_n":65,"n_dots":3.25,"target":"right","response":"right","rt":58.100000023842,"correct":true,"confidence":3},{"trial_n":66,"n_dots":3.15,"target":"right","response":"left","rt":539.69999998808,"correct":false,"confidence":3},{"trial_n":67,"n_dots":3.25,"target":"right","response":"right","rt":288,"correct":true,"confidence":4},{"trial_n":68,"n_dots":3.25,"target":"left","response":"right","rt":375.30000001192,"correct":false,"confidence":4},{"trial_n":69,"n_dots":3.35,"target":"right","response":"right","rt":815.30000001192,"correct":true,"confidence":4},{"trial_n":70,"n_dots":3.35,"target":"right","response":"left","rt":1862.2000000477,"correct":false,"confidence":3},{"trial_n":71,"n_dots":3.45,"target":"left","response":"left","rt":320.09999996424,"correct":true,"confidence":3},{"trial_n":72,"n_dots":3.45,"target":"left","response":"right","rt":496,"correct":false,"confidence":3},{"trial_n":73,"n_dots":3.55,"target":"left","response":"left","rt":319,"correct":true,"confidence":4},{"trial_n":74,"n_dots":3.55,"target":"right","response":"right","rt":340.19999998808,"correct":true,"confidence":4},{"trial_n":75,"n_dots":3.45,"target":"left","response":"left","rt":2005.6000000238,"correct":true,"confidence":5},{"trial_n":76,"n_dots":3.45,"target":"left","response":"left","rt":580.80000001192,"correct":true,"confidence":3},{"trial_n":77,"n_dots":3.35,"target":"left","response":"left","rt":162.90000003576,"correct":true,"confidence":3},{"trial_n":78,"n_dots":3.35,"target":"left","response":"right","rt":600.69999998808,"correct":false,"confidence":3},{"trial_n":79,"n_dots":3.45,"target":"left","response":"left","rt":297.69999998808,"correct":true,"confidence":4},{"trial_n":80,"n_dots":3.45,"target":"right","response":"right","rt":749.39999997616,"correct":true,"confidence":4},{"trial_n":81,"n_dots":3.35,"target":"left","response":"left","rt":1899.6000000238,"correct":true,"confidence":1},{"trial_n":82,"n_dots":3.35,"target":"left","response":"right","rt":110.60000002384,"correct":false,"confidence":3},{"trial_n":83,"n_dots":3.45,"target":"right","response":"right","rt":263.69999998808,"correct":true,"confidence":4},{"trial_n":84,"n_dots":3.45,"target":"left","response":"right","rt":326.69999998808,"correct":false,"confidence":3},{"trial_n":85,"n_dots":3.55,"target":"right","response":"right","rt":61,"correct":true,"confidence":3},{"trial_n":86,"n_dots":3.55,"target":"right","response":"right","rt":538.30000001192,"correct":true,"confidence":3},{"trial_n":87,"n_dots":3.45,"target":"right","response":"right","rt":597.30000001192,"correct":true,"confidence":4},{"trial_n":88,"n_dots":3.45,"target":"left","response":"left","rt":732.09999996424,"correct":true,"confidence":4},{"trial_n":89,"n_dots":3.35,"target":"right","response":"right","rt":857.40000003576,"correct":true,"confidence":4},{"trial_n":90,"n_dots":3.35,"target":"right","response":"right","rt":26.099999964237,"correct":true,"confidence":1},{"trial_n":91,"n_dots":3.25,"target":"left","response":"left","rt":972.5,"correct":true,"confidence":3},{"trial_n":92,"n_dots":3.25,"target":"right","response":"right","rt":589.79999995232,"correct":true,"confidence":3},{"trial_n":93,"n_dots":3.15,"target":"left","response":"left","rt":459,"correct":true,"confidence":4},{"trial_n":94,"n_dots":3.15,"target":"right","response":"right","rt":118.40000003576,"correct":true,"confidence":5},{"trial_n":95,"n_dots":3.05,"target":"right","response":"right","rt":969.89999997616,"correct":true,"confidence":5},{"trial_n":96,"n_dots":3.05,"target":"left","response":"left","rt":757.09999996424,"correct":true,"confidence":5},{"trial_n":97,"n_dots":2.95,"target":"right","response":"left","rt":1459.6999999881,"correct":false,"confidence":5},{"trial_n":98,"n_dots":3.05,"target":"right","response":"left","rt":1115.5,"correct":false,"confidence":4},{"trial_n":99,"n_dots":3.15,"target":"right","response":"right","rt":270.40000003576,"correct":true,"confidence":5},{"trial_n":100,"n_dots":3.15,"target":"left","response":"left","rt":486,"correct":true,"confidence":4},{"trial_n":101,"n_dots":3.05,"target":"left","response":"left","rt":330.10000002384,"correct":true,"confidence":4},{"trial_n":102,"n_dots":3.05,"target":"left","response":"left","rt":230.39999997616,"correct":true,"confidence":4},{"trial_n":103,"n_dots":2.95,"target":"right","response":"left","rt":856.60000002384,"correct":false,"confidence":5},{"trial_n":104,"n_dots":3.05,"target":"left","response":"left","rt":464.30000001192,"correct":true,"confidence":4},{"trial_n":105,"n_dots":3.05,"target":"left","response":"left","rt":708.39999997616,"correct":true,"confidence":3},{"trial_n":106,"n_dots":2.95,"target":"right","response":"right","rt":490.80000001192,"correct":true,"confidence":4},{"trial_n":107,"n_dots":2.95,"target":"left","response":"left","rt":928.69999998808,"correct":true,"confidence":3},{"trial_n":108,"n_dots":2.85,"target":"right","response":"right","rt":188.30000001192,"correct":true,"confidence":5},{"trial_n":109,"n_dots":2.85,"target":"right","response":"right","rt":332.5,"correct":true,"confidence":4},{"trial_n":110,"n_dots":2.75,"target":"left","response":"left","rt":562.80000001192,"correct":true,"confidence":3},{"trial_n":111,"n_dots":2.75,"target":"right","response":"right","rt":147.69999998808,"correct":true,"confidence":5},{"trial_n":112,"n_dots":2.65,"target":"right","response":"right","rt":431.90000003576,"correct":true,"confidence":4},{"trial_n":113,"n_dots":2.65,"target":"right","response":"right","rt":580.19999998808,"correct":true,"confidence":4},{"trial_n":114,"n_dots":2.55,"target":"right","response":"right","rt":526.30000001192,"correct":true,"confidence":4},{"trial_n":115,"n_dots":2.55,"target":"left","response":"left","rt":380.69999998808,"correct":true,"confidence":3},{"trial_n":116,"n_dots":2.45,"target":"left","response":"right","rt":692,"correct":false,"confidence":1},{"trial_n":117,"n_dots":2.55,"target":"left","response":"right","rt":471.79999995232,"correct":false,"confidence":3},{"trial_n":118,"n_dots":2.65,"target":"right","response":"left","rt":2579.8000000119,"correct":false,"confidence":2},{"trial_n":119,"n_dots":2.75,"target":"left","response":"left","rt":5.0999999642372,"correct":true,"confidence":4},{"trial_n":120,"n_dots":2.75,"target":"right","response":"left","rt":7.3999999761581,"correct":false,"confidence":5}]