[{"trial_n":1,"min":25,"max":230,"target":"present","response":"present","rt":5892,"correct":true,"confidence":-1},{"trial_n":2,"min":25,"max":230,"target":"present","response":"present","rt":1144,"correct":true,"confidence":-1},{"trial_n":3,"min":41,"max":214,"target":"absent","response":"absent","rt":2070,"correct":true,"confidence":-1},{"trial_n":4,"min":41,"max":214,"target":"absent","response":"absent","rt":1237,"correct":true,"confidence":-1},{"trial_n":5,"min":57,"max":198,"target":"present","response":"present","rt":1099,"correct":true,"confidence":-1},{"trial_n":6,"min":57,"max":198,"target":"present","response":"present","rt":753,"correct":true,"confidence":-1},{"trial_n":7,"min":73,"max":182,"target":"present","response":"present","rt":1389,"correct":true,"confidence":-1},{"trial_n":8,"min":73,"max":182,"target":"present","response":"absent","rt":1060,"correct":false,"confidence":-1},{"trial_n":9,"min":57,"max":198,"target":"present","response":"present","rt":1123,"correct":true,"confidence":-1},{"trial_n":10,"min":57,"max":198,"target":"present","response":"present","rt":1517,"correct":true,"confidence":-1},{"trial_n":11,"min":65,"max":190,"target":"absent","response":"absent","rt":1477,"correct":true,"confidence":-1},{"trial_n":12,"min":65,"max":190,"target":"absent","response":"absent","rt":845,"correct":true,"confidence":-1},{"trial_n":13,"min":73,"max":182,"target":"present","response":"present","rt":1100,"correct":true,"confidence":-1},{"trial_n":14,"min":73,"max":182,"target":"present","response":"present","rt":2181,"correct":true,"confidence":-1},{"trial_n":15,"min":81,"max":174,"target":"present","response":"absent","rt":1099,"correct":false,"confidence":-1},{"trial_n":16,"min":73,"max":182,"target":"absent","response":"absent","rt":1502,"correct":true,"confidence":-1},{"trial_n":17,"min":73,"max":182,"target":"absent","response":"present","rt":1053,"correct":false,"confidence":-1},{"trial_n":18,"min":65,"max":190,"target":"present","response":"absent","rt":1044,"correct":false,"confidence":-1},{"trial_n":19,"min":57,"max":198,"target":"absent","response":"absent","rt":885,"correct":true,"confidence":-1},{"trial_n":20,"min":57,"max":198,"target":"absent","response":"absent","rt":780.99999999999,"correct":true,"confidence":-1},{"trial_n":21,"min":61,"max":194,"target":"absent","response":"absent","rt":1024,"correct":true,"confidence":3},{"trial_n":22,"min":61,"max":194,"target":"absent","response":"absent","rt":1412,"correct":true,"confidence":3},{"trial_n":23,"min":65,"max":190,"target":"present","response":"present","rt":1172,"correct":true,"confidence":5},{"trial_n":24,"min":65,"max":190,"target":"absent","response":"absent","rt":1211,"correct":true,"confidence":4},{"trial_n":25,"min":69,"max":186,"target":"absent","response":"absent","rt":6335,"correct":true,"confidence":3},{"trial_n":26,"min":69,"max":186,"target":"absent","response":"absent","rt":1019,"correct":true,"confidence":4},{"trial_n":27,"min":73,"max":182,"target":"present","response":"present","rt":938.00000000001,"correct":true,"confidence":5},{"trial_n":28,"min":73,"max":182,"target":"present","response":"present","rt":1382,"correct":true,"confidence":5},{"trial_n":29,"min":77,"max":178,"target":"absent","response":"absent","rt":898,"correct":true,"confidence":4},{"trial_n":30,"min":77,"max":178,"target":"absent","response":"absent","rt":955,"correct":true,"confidence":5},{"trial_n":31,"min":79,"max":176,"target":"present","response":"absent","rt":2084,"correct":false,"confidence":1},{"trial_n":32,"min":77,"max":178,"target":"absent","response":"absent","rt":1864,"correct":true,"confidence":4},{"trial_n":33,"min":77,"max":178,"target":"absent","response":"absent","rt":1102,"correct":true,"confidence":4},{"trial_n":34,"min":79,"max":176,"target":"present","response":"absent","rt":2083,"correct":false,"confidence":3},{"trial_n":35,"min":77,"max":178,"target":"absent","response":"absent","rt":1166,"correct":true,"confidence":4},{"trial_n":36,"min":77,"max":178,"target":"present","response":"present","rt":1145,"correct":true,"confidence":2},{"trial_n":37,"min":79,"max":176,"target":"present","response":"absent","rt":1362,"correct":false,"confidence":4},{"trial_n":38,"min":77,"max":178,"target":"absent","response":"absent","rt":1423,"correct":true,"confidence":4},{"trial_n":39,"min":77,"max":178,"target":"present","response":"absent","rt":3332,"correct":false,"confidence":3},{"trial_n":40,"min":75,"max":180,"target":"absent","response":"absent","rt":1382,"correct":true,"confidence":5},{"trial_n":41,"min":75,"max":180,"target":"absent","response":"absent","rt":1159,"correct":true,"confidence":4},{"trial_n":42,"min":76,"max":179,"target":"present","response":"absent","rt":1614,"correct":false,"confidence":4},{"trial_n":43,"min":75,"max":180,"target":"absent","response":"absent","rt":4707,"correct":true,"confidence":2},{"trial_n":44,"min":75,"max":180,"target":"absent","response":"absent","rt":2308,"correct":true,"confidence":5},{"trial_n":45,"min":76,"max":179,"target":"present","response":"absent","rt":2638,"correct":false,"confidence":4},{"trial_n":46,"min":75,"max":180,"target":"present","response":"present","rt":3085,"correct":true,"confidence":4},{"trial_n":47,"min":75,"max":180,"target":"present","response":"present","rt":1526,"correct":true,"confidence":5},{"trial_n":48,"min":76,"max":179,"target":"present","response":"present","rt":1789,"correct":true,"confidence":5},{"trial_n":49,"min":76,"max":179,"target":"present","response":"present","rt":1069,"correct":true,"confidence":5},{"trial_n":50,"min":77,"max":178,"target":"present","response":"present","rt":894,"correct":true,"confidence":3},{"trial_n":51,"min":77,"max":178,"target":"present","response":"absent","rt":2654,"correct":false,"confidence":3},{"trial_n":52,"min":76,"max":179,"target":"present","response":"present","rt":1128,"correct":true,"confidence":5},{"trial_n":53,"min":76,"max":179,"target":"absent","response":"absent","rt":1265.9999999999,"correct":true,"confidence":4},{"trial_n":54,"min":77,"max":178,"target":"absent","response":"absent","rt":1240,"correct":true,"confidence":4},{"trial_n":55,"min":77,"max":178,"target":"present","response":"present","rt":986,"correct":true,"confidence":4},{"trial_n":56,"min":78,"max":177,"target":"absent","response":"absent","rt":1324,"correct":true,"confidence":5},{"trial_n":57,"min":78,"max":177,"target":"absent","response":"absent","rt":1242,"correct":true,"confidence":5},{"trial_n":58,"min":79,"max":176,"target":"absent","response":"absent","rt":934,"correct":true,"confidence":4},{"trial_n":59,"min":79,"max":176,"target":"absent","response":"absent","rt":1199,"correct":true,"confidence":5},{"trial_n":60,"min":80,"max":175,"target":"absent","response":"absent","rt":2067,"correct":true,"confidence":5},{"trial_n":61,"min":80,"max":175,"target":"present","response":"absent","rt":3078,"correct":false,"confidence":1},{"trial_n":62,"min":79,"max":176,"target":"absent","response":"absent","rt":1002,"correct":true,"confidence":4},{"trial_n":63,"min":79,"max":176,"target":"absent","response":"absent","rt":1732.9999999999,"correct":true,"confidence":2},{"trial_n":64,"min":80,"max":175,"target":"absent","response":"absent","rt":1432.9999999999,"correct":true,"confidence":3},{"trial_n":65,"min":80,"max":175,"target":"present","response":"present","rt":1549,"correct":true,"confidence":2},{"trial_n":66,"min":81,"max":174,"target":"present","response":"absent","rt":1198.9999999999,"correct":false,"confidence":2},{"trial_n":67,"min":80,"max":175,"target":"present","response":"present","rt":2124.0000000001,"correct":true,"confidence":5},{"trial_n":68,"min":80,"max":175,"target":"present","response":"present","rt":932,"correct":true,"confidence":5},{"trial_n":69,"min":81,"max":174,"target":"absent","response":"present","rt":2297,"correct":false,"confidence":2},{"trial_n":70,"min":80,"max":175,"target":"present","response":"absent","rt":970,"correct":false,"confidence":3},{"trial_n":71,"min":41,"max":214,"target":"present","response":"present","rt":4500,"correct":true,"confidence":-1},{"trial_n":72,"min":41,"max":214,"target":"present","response":"present","rt":754.00000000012,"correct":true,"confidence":-1},{"trial_n":73,"min":57,"max":198,"target":"absent","response":"absent","rt":1217,"correct":true,"confidence":-1},{"trial_n":74,"min":57,"max":198,"target":"absent","response":"present","rt":677,"correct":false,"confidence":-1},{"trial_n":75,"min":41,"max":214,"target":"present","response":"present","rt":2375,"correct":true,"confidence":-1},{"trial_n":76,"min":41,"max":214,"target":"absent","response":"absent","rt":842,"correct":true,"confidence":-1},{"trial_n":77,"min":57,"max":198,"target":"absent","response":"absent","rt":1579,"correct":true,"confidence":-1},{"trial_n":78,"min":57,"max":198,"target":"present","response":"present","rt":585,"correct":true,"confidence":-1},{"trial_n":79,"min":73,"max":182,"target":"present","response":"present","rt":811,"correct":true,"confidence":-1},{"trial_n":80,"min":73,"max":182,"target":"absent","response":"absent","rt":906,"correct":true,"confidence":-1},{"trial_n":81,"min":81,"max":174,"target":"present","response":"present","rt":993.99999999988,"correct":true,"confidence":-1},{"trial_n":82,"min":81,"max":174,"target":"present","response":"present","rt":957,"correct":true,"confidence":-1},{"trial_n":83,"min":89,"max":166,"target":"absent","response":"absent","rt":1005,"correct":true,"confidence":-1},{"trial_n":84,"min":89,"max":166,"target":"present","response":"absent","rt":1210,"correct":false,"confidence":-1},{"trial_n":85,"min":81,"max":174,"target":"present","response":"present","rt":597,"correct":true,"confidence":-1},{"trial_n":86,"min":81,"max":174,"target":"absent","response":"absent","rt":1068,"correct":true,"confidence":-1},{"trial_n":87,"min":89,"max":166,"target":"absent","response":"present","rt":2331,"correct":false,"confidence":-1},{"trial_n":88,"min":81,"max":174,"target":"present","response":"present","rt":654,"correct":true,"confidence":-1},{"trial_n":89,"min":81,"max":174,"target":"absent","response":"absent","rt":827,"correct":true,"confidence":-1},{"trial_n":90,"min":89,"max":166,"target":"present","response":"present","rt":873,"correct":true,"confidence":-1},{"trial_n":91,"min":89,"max":166,"target":"absent","response":"absent","rt":742,"correct":true,"confidence":5},{"trial_n":92,"min":93,"max":162,"target":"absent","response":"present","rt":1943,"correct":false,"confidence":1},{"trial_n":93,"min":89,"max":166,"target":"absent","response":"absent","rt":923,"correct":true,"confidence":3},{"trial_n":94,"min":89,"max":166,"target":"present","response":"present","rt":940,"correct":true,"confidence":3},{"trial_n":95,"min":93,"max":162,"target":"present","response":"present","rt":2104,"correct":true,"confidence":1},{"trial_n":96,"min":93,"max":162,"target":"present","response":"present","rt":751,"correct":true,"confidence":4},{"trial_n":97,"min":97,"max":158,"target":"present","response":"absent","rt":1609.9999999999,"correct":false,"confidence":1},{"trial_n":98,"min":93,"max":162,"target":"present","response":"present","rt":850,"correct":true,"confidence":2},{"trial_n":99,"min":93,"max":162,"target":"present","response":"present","rt":1308,"correct":true,"confidence":2},{"trial_n":100,"min":97,"max":158,"target":"absent","response":"absent","rt":831,"correct":true,"confidence":3},{"trial_n":101,"min":97,"max":158,"target":"absent","response":"absent","rt":1136,"correct":true,"confidence":3},{"trial_n":102,"min":99,"max":156,"target":"present","response":"present","rt":1060,"correct":true,"confidence":2},{"trial_n":103,"min":99,"max":156,"target":"present","response":"present","rt":1218,"correct":true,"confidence":1},{"trial_n":104,"min":101,"max":154,"target":"absent","response":"absent","rt":1138.0000000001,"correct":true,"confidence":1},{"trial_n":105,"min":101,"max":154,"target":"absent","response":"present","rt":1287,"correct":false,"confidence":2},{"trial_n":106,"min":99,"max":156,"target":"present","response":"present","rt":1313,"correct":true,"confidence":3},{"trial_n":107,"min":99,"max":156,"target":"present","response":"present","rt":1267,"correct":true,"confidence":3},{"trial_n":108,"min":101,"max":154,"target":"present","response":"present","rt":1229,"correct":true,"confidence":3},{"trial_n":109,"min":101,"max":154,"target":"present","response":"present","rt":745.99999999988,"correct":true,"confidence":3},{"trial_n":110,"min":103,"max":152,"target":"absent","response":"absent","rt":7990,"correct":true,"confidence":1},{"trial_n":111,"min":103,"max":152,"target":"absent","response":"present","rt":743.99999999988,"correct":false,"confidence":1},{"trial_n":112,"min":102,"max":153,"target":"absent","response":"present","rt":1011,"correct":false,"confidence":1},{"trial_n":113,"min":101,"max":154,"target":"absent","response":"present","rt":649,"correct":false,"confidence":2},{"trial_n":114,"min":100,"max":155,"target":"absent","response":"present","rt":745,"correct":false,"confidence":3},{"trial_n":115,"min":99,"max":156,"target":"present","response":"present","rt":699,"correct":true,"confidence":5},{"trial_n":116,"min":99,"max":156,"target":"absent","response":"present","rt":714,"correct":false,"confidence":5},{"trial_n":117,"min":98,"max":157,"target":"present","response":"present","rt":859.00000000012,"correct":true,"confidence":5},{"trial_n":118,"min":98,"max":157,"target":"absent","response":"present","rt":1784,"correct":false,"confidence":3},{"trial_n":119,"min":97,"max":158,"target":"absent","response":"present","rt":1071,"correct":false,"confidence":3},{"trial_n":120,"min":96,"max":159,"target":"absent","response":"present","rt":692.99999999988,"correct":false,"confidence":4},{"trial_n":121,"min":95,"max":160,"target":"present","response":"absent","rt":2974,"correct":false,"confidence":3},{"trial_n":122,"min":94,"max":161,"target":"absent","response":"present","rt":1201,"correct":false,"confidence":3},{"trial_n":123,"min":93,"max":162,"target":"present","response":"present","rt":919.99999999988,"correct":true,"confidence":3},{"trial_n":124,"min":93,"max":162,"target":"present","response":"present","rt":771,"correct":true,"confidence":3},{"trial_n":125,"min":94,"max":161,"target":"absent","response":"present","rt":723,"correct":false,"confidence":4},{"trial_n":126,"min":93,"max":162,"target":"present","response":"absent","rt":1059,"correct":false,"confidence":4},{"trial_n":127,"min":92,"max":163,"target":"present","response":"present","rt":1109.9999999999,"correct":true,"confidence":3},{"trial_n":128,"min":92,"max":163,"target":"absent","response":"absent","rt":1089,"correct":true,"confidence":4},{"trial_n":129,"min":93,"max":162,"target":"present","response":"present","rt":713,"correct":true,"confidence":3},{"trial_n":130,"min":93,"max":162,"target":"present","response":"absent","rt":851,"correct":false,"confidence":3},{"trial_n":131,"min":92,"max":163,"target":"absent","response":"present","rt":957,"correct":false,"confidence":1},{"trial_n":132,"min":91,"max":164,"target":"present","response":"present","rt":483,"correct":true,"confidence":3},{"trial_n":133,"min":91,"max":164,"target":"present","response":"present","rt":752,"correct":true,"confidence":2},{"trial_n":134,"min":92,"max":163,"target":"present","response":"present","rt":677,"correct":true,"confidence":4},{"trial_n":135,"min":92,"max":163,"target":"absent","response":"absent","rt":1852,"correct":true,"confidence":1},{"trial_n":136,"min":93,"max":162,"target":"present","response":"present","rt":990,"correct":true,"confidence":2},{"trial_n":137,"min":93,"max":162,"target":"absent","response":"absent","rt":1132.0000000001,"correct":true,"confidence":1},{"trial_n":138,"min":94,"max":161,"target":"absent","response":"absent","rt":1027,"correct":true,"confidence":2},{"trial_n":139,"min":94,"max":161,"target":"absent","response":"present","rt":1769,"correct":false,"confidence":1},{"trial_n":140,"min":93,"max":162,"target":"absent","response":"present","rt":1513.0000000001,"correct":false,"confidence":2}]