[{"trial_n":1,"span":8,"encoder":"55901729","distractor":"55901709","target":"present","response":"absent","rt":"5871","correct":false,"confidence":-1},{"trial_n":2,"span":6,"encoder":"823953","distractor":"923953","target":"present","response":"absent","rt":"2787.5","correct":false,"confidence":-1},{"trial_n":3,"span":4,"encoder":"2953","distractor":"2553","target":"absent","response":"present","rt":"2160.8999999762","correct":false,"confidence":-1},{"trial_n":4,"span":2,"encoder":"02","distractor":"42","target":"absent","response":"absent","rt":"1740","correct":true,"confidence":-1},{"trial_n":5,"span":2,"encoder":"96","distractor":"86","target":"present","response":"absent","rt":"2008.1999999881","correct":false,"confidence":-1},{"trial_n":6,"span":2,"encoder":"17","distractor":"14","target":"present","response":"present","rt":"1171.1999999881","correct":true,"confidence":-1},{"trial_n":7,"span":2,"encoder":"15","distractor":"45","target":"present","response":"present","rt":"625.39999997616","correct":true,"confidence":-1},{"trial_n":8,"span":4,"encoder":"5954","distractor":"5154","target":"present","response":"present","rt":"1226.8000000119","correct":true,"confidence":-1},{"trial_n":9,"span":4,"encoder":"6734","distractor":"7734","target":"present","response":"present","rt":"870.10000002384","correct":true,"confidence":-1},{"trial_n":10,"span":6,"encoder":"415593","distractor":"419593","target":"present","response":"present","rt":"1475","correct":true,"confidence":-1},{"trial_n":11,"span":6,"encoder":"010915","distractor":"310915","target":"present","response":"present","rt":"1516.1000000238","correct":true,"confidence":-1},{"trial_n":12,"span":7,"encoder":"0573076","distractor":"0593076","target":"present","response":"absent","rt":"1756.6999999881","correct":false,"confidence":-1},{"trial_n":13,"span":6,"encoder":"336800","distractor":"136800","target":"present","response":"present","rt":"2212.8000000119","correct":true,"confidence":-1},{"trial_n":14,"span":6,"encoder":"838417","distractor":"832417","target":"absent","response":"absent","rt":"2319.8000000119","correct":true,"confidence":-1},{"trial_n":15,"span":7,"encoder":"6347616","distractor":"6147616","target":"present","response":"absent","rt":"2706.5","correct":false,"confidence":-1},{"trial_n":16,"span":6,"encoder":"952824","distractor":"952894","target":"present","response":"present","rt":"1470.1999999881","correct":true,"confidence":-1},{"trial_n":17,"span":6,"encoder":"912309","distractor":"910309","target":"absent","response":"absent","rt":"1822.5999999642","correct":true,"confidence":-1},{"trial_n":18,"span":7,"encoder":"4353414","distractor":"4353484","target":"absent","response":"absent","rt":"1848.3000000119","correct":true,"confidence":-1},{"trial_n":19,"span":7,"encoder":"7456951","distractor":"7446951","target":"present","response":"present","rt":"2564.5999999642","correct":true,"confidence":-1},{"trial_n":20,"span":8,"encoder":"82972315","distractor":"72972315","target":"absent","response":"present","rt":"1456.8999999762","correct":false,"confidence":-1},{"trial_n":21,"span":7,"encoder":"0456298","distractor":"0476298","target":"present","response":"present","rt":"3011.5","correct":true,"confidence":5},{"trial_n":22,"span":7,"encoder":"9931686","distractor":"9941686","target":"present","response":"present","rt":"2587.6999999881","correct":true,"confidence":5},{"trial_n":23,"span":8,"encoder":"14852655","distractor":"14852055","target":"absent","response":"absent","rt":"1815.1000000238","correct":true,"confidence":5},{"trial_n":24,"span":8,"encoder":"10396370","distractor":"50396370","target":"present","response":"present","rt":"1995.3000000119","correct":true,"confidence":4},{"trial_n":25,"span":9,"encoder":"189753788","distractor":"139753788","target":"absent","response":"present","rt":"1873.5999999642","correct":false,"confidence":5},{"trial_n":26,"span":8,"encoder":"41826849","distractor":"41526849","target":"present","response":"present","rt":"2808.3000000119","correct":true,"confidence":5},{"trial_n":27,"span":8,"encoder":"17676998","distractor":"17376998","target":"present","response":"present","rt":"2809.8000000119","correct":true,"confidence":5},{"trial_n":28,"span":9,"encoder":"512471761","distractor":"512475761","target":"absent","response":"present","rt":"2986.7999999523","correct":false,"confidence":4},{"trial_n":29,"span":8,"encoder":"78797544","distractor":"78796544","target":"absent","response":"absent","rt":"3569.6000000238","correct":true,"confidence":4},{"trial_n":30,"span":8,"encoder":"43166412","distractor":"43466412","target":"absent","response":"absent","rt":"4326.6000000238","correct":true,"confidence":4},{"trial_n":31,"span":9,"encoder":"288784107","distractor":"285784107","target":"absent","response":"absent","rt":"1768.7999999523","correct":true,"confidence":5},{"trial_n":32,"span":9,"encoder":"580749579","distractor":"580749576","target":"absent","response":"absent","rt":"1626.8000000119","correct":true,"confidence":5},{"trial_n":33,"span":10,"encoder":"9900455757","distractor":"1900455757","target":"absent","response":"present","rt":"4915.3000000119","correct":false,"confidence":4},{"trial_n":34,"span":9,"encoder":"766710342","distractor":"766510342","target":"present","response":"present","rt":"3928.5","correct":true,"confidence":4},{"trial_n":35,"span":9,"encoder":"333774641","distractor":"333774341","target":"absent","response":"absent","rt":"2948.5999999642","correct":true,"confidence":5},{"trial_n":36,"span":10,"encoder":"9907620617","distractor":"9907620017","target":"absent","response":"present","rt":"3486","correct":false,"confidence":3},{"trial_n":37,"span":9,"encoder":"262979580","distractor":"264979580","target":"absent","response":"present","rt":"2229.0999999642","correct":false,"confidence":4},{"trial_n":38,"span":8,"encoder":"13901255","distractor":"43901255","target":"present","response":"present","rt":"2396.9000000358","correct":true,"confidence":5},{"trial_n":39,"span":8,"encoder":"59487140","distractor":"59447140","target":"absent","response":"absent","rt":"4697.6999999881","correct":true,"confidence":4},{"trial_n":40,"span":9,"encoder":"967682740","distractor":"367682740","target":"absent","response":"present","rt":"3172","correct":false,"confidence":5},{"trial_n":41,"span":8,"encoder":"11721090","distractor":"71721090","target":"absent","response":"present","rt":"1535.5","correct":false,"confidence":5},{"trial_n":42,"span":7,"encoder":"4345729","distractor":"4345759","target":"absent","response":"absent","rt":"4239.8000000119","correct":true,"confidence":4},{"trial_n":43,"span":7,"encoder":"3130414","distractor":"3130418","target":"absent","response":"absent","rt":"1700.6000000238","correct":true,"confidence":5},{"trial_n":44,"span":8,"encoder":"16826211","distractor":"16827211","target":"absent","response":"absent","rt":"4532.3999999762","correct":true,"confidence":4},{"trial_n":45,"span":8,"encoder":"58124398","distractor":"58124397","target":"present","response":"present","rt":"4009.0999999642","correct":true,"confidence":4},{"trial_n":46,"span":9,"encoder":"727400220","distractor":"723400220","target":"absent","response":"present","rt":"1892.1000000238","correct":false,"confidence":5},{"trial_n":47,"span":8,"encoder":"18656121","distractor":"19656121","target":"present","response":"present","rt":"2883.3999999762","correct":true,"confidence":5},{"trial_n":48,"span":8,"encoder":"76363540","distractor":"76363240","target":"present","response":"present","rt":"4163.9000000358","correct":true,"confidence":5},{"trial_n":49,"span":9,"encoder":"684429568","distractor":"654429568","target":"present","response":"absent","rt":"5924.3000000119","correct":false,"confidence":4},{"trial_n":50,"span":8,"encoder":"60860755","distractor":"10860755","target":"absent","response":"present","rt":"3795.1999999881","correct":false,"confidence":4},{"trial_n":51,"span":7,"encoder":"8070365","distractor":"8075365","target":"absent","response":"absent","rt":"3512.5","correct":true,"confidence":4},{"trial_n":52,"span":7,"encoder":"9040894","distractor":"9040194","target":"present","response":"present","rt":"3031.1000000238","correct":true,"confidence":5},{"trial_n":53,"span":8,"encoder":"42690007","distractor":"42690000","target":"present","response":"absent","rt":"1699","correct":false,"confidence":5},{"trial_n":54,"span":7,"encoder":"0497933","distractor":"0499933","target":"present","response":"present","rt":"1870.1999999881","correct":true,"confidence":4},{"trial_n":55,"span":7,"encoder":"1765031","distractor":"1769031","target":"present","response":"present","rt":"2564.0999999642","correct":true,"confidence":5},{"trial_n":56,"span":8,"encoder":"40414545","distractor":"40414145","target":"absent","response":"present","rt":"1737.3999999762","correct":false,"confidence":4},{"trial_n":57,"span":7,"encoder":"7850622","distractor":"7830622","target":"present","response":"present","rt":"1167.5","correct":true,"confidence":5},{"trial_n":58,"span":7,"encoder":"7028026","distractor":"7028066","target":"present","response":"present","rt":"2753.0999999642","correct":true,"confidence":5},{"trial_n":59,"span":8,"encoder":"57749275","distractor":"57769275","target":"present","response":"present","rt":"1573.8999999762","correct":true,"confidence":5},{"trial_n":60,"span":8,"encoder":"81631384","distractor":"81631314","target":"present","response":"present","rt":"3488.1000000238","correct":true,"confidence":5},{"trial_n":61,"span":9,"encoder":"677548669","distractor":"677548629","target":"absent","response":"absent","rt":"1891.8000000119","correct":true,"confidence":5},{"trial_n":62,"span":9,"encoder":"991780647","distractor":"791780647","target":"absent","response":"absent","rt":"3134.4000000358","correct":true,"confidence":5},{"trial_n":63,"span":10,"encoder":"0439585949","distractor":"0419585949","target":"absent","response":"present","rt":"2660.7000000477","correct":false,"confidence":4},{"trial_n":64,"span":9,"encoder":"937527749","distractor":"937227749","target":"present","response":"present","rt":"2279.1999999881","correct":true,"confidence":4},{"trial_n":65,"span":9,"encoder":"319635299","distractor":"419635299","target":"absent","response":"present","rt":"2521.1000000238","correct":false,"confidence":4},{"trial_n":66,"span":8,"encoder":"86662426","distractor":"86662423","target":"absent","response":"absent","rt":"1519.3000000119","correct":true,"confidence":5},{"trial_n":67,"span":8,"encoder":"90047698","distractor":"80047698","target":"absent","response":"present","rt":"1548.7000000477","correct":false,"confidence":4},{"trial_n":68,"span":7,"encoder":"9924896","distractor":"9924796","target":"present","response":"present","rt":"1878.6999999881","correct":true,"confidence":5},{"trial_n":69,"span":7,"encoder":"1047144","distractor":"1041144","target":"present","response":"absent","rt":"2882","correct":false,"confidence":4},{"trial_n":70,"span":6,"encoder":"254050","distractor":"254052","target":"absent","response":"absent","rt":"1449.3000000119","correct":true,"confidence":5},{"trial_n":71,"span":8,"encoder":"73840009","distractor":"73840004","target":"present","response":"present","rt":"4209.3999999762","correct":true,"confidence":-1},{"trial_n":72,"span":8,"encoder":"07867154","distractor":"07807154","target":"present","response":"present","rt":"3711.9000000358","correct":true,"confidence":-1},{"trial_n":73,"span":9,"encoder":"145422973","distractor":"125422973","target":"absent","response":"present","rt":"4963.6999999881","correct":false,"confidence":-1},{"trial_n":74,"span":8,"encoder":"12284758","distractor":"52284758","target":"absent","response":"absent","rt":"3103.5","correct":true,"confidence":-1},{"trial_n":75,"span":8,"encoder":"19273924","distractor":"19273920","target":"present","response":"present","rt":"3335.7000000477","correct":true,"confidence":-1},{"trial_n":76,"span":9,"encoder":"810684754","distractor":"310684754","target":"present","response":"present","rt":"2260.1000000238","correct":true,"confidence":-1},{"trial_n":77,"span":9,"encoder":"688353197","distractor":"618353197","target":"present","response":"absent","rt":"4167.1000000238","correct":false,"confidence":-1},{"trial_n":78,"span":8,"encoder":"00731666","distractor":"00731664","target":"present","response":"present","rt":"3113.7999999523","correct":true,"confidence":-1},{"trial_n":79,"span":8,"encoder":"27900254","distractor":"27900274","target":"present","response":"present","rt":"3870.4000000358","correct":true,"confidence":-1},{"trial_n":80,"span":9,"encoder":"445741342","distractor":"442741342","target":"present","response":"absent","rt":"5839.1999999881","correct":false,"confidence":-1},{"trial_n":81,"span":8,"encoder":"06015925","distractor":"06915925","target":"absent","response":"present","rt":"4918.3999999762","correct":false,"confidence":-1},{"trial_n":82,"span":7,"encoder":"8787995","distractor":"8788995","target":"present","response":"absent","rt":"8823.8000000119","correct":false,"confidence":-1},{"trial_n":83,"span":6,"encoder":"387511","distractor":"386511","target":"absent","response":"absent","rt":"2657.0999999642","correct":true,"confidence":-1},{"trial_n":84,"span":6,"encoder":"222389","distractor":"272389","target":"absent","response":"absent","rt":"2540","correct":true,"confidence":-1},{"trial_n":85,"span":7,"encoder":"2157094","distractor":"2157594","target":"present","response":"present","rt":"2164.6999999881","correct":true,"confidence":-1},{"trial_n":86,"span":7,"encoder":"1789965","distractor":"1789935","target":"present","response":"present","rt":"2314.6000000238","correct":true,"confidence":-1},{"trial_n":87,"span":8,"encoder":"85716034","distractor":"85717034","target":"absent","response":"absent","rt":"3736.8000000119","correct":true,"confidence":-1},{"trial_n":88,"span":8,"encoder":"41111275","distractor":"41101275","target":"absent","response":"absent","rt":"2896.6000000238","correct":true,"confidence":-1},{"trial_n":89,"span":9,"encoder":"100934136","distractor":"100934137","target":"absent","response":"absent","rt":"1981.3000000119","correct":true,"confidence":-1},{"trial_n":90,"span":9,"encoder":"713042197","distractor":"713045197","target":"absent","response":"absent","rt":"2968.4000000358","correct":true,"confidence":-1},{"trial_n":91,"span":10,"encoder":"3544695270","distractor":"3544695278","target":"present","response":"present","rt":"1802.3000000119","correct":true,"confidence":5},{"trial_n":92,"span":10,"encoder":"3699954735","distractor":"2699954735","target":"absent","response":"present","rt":"4310.6999999881","correct":false,"confidence":4},{"trial_n":93,"span":9,"encoder":"318507040","distractor":"318537040","target":"absent","response":"absent","rt":"3579.8999999762","correct":true,"confidence":5},{"trial_n":94,"span":9,"encoder":"881944508","distractor":"861944508","target":"absent","response":"present","rt":"5120.5","correct":false,"confidence":1},{"trial_n":95,"span":8,"encoder":"10890214","distractor":"70890214","target":"absent","response":"present","rt":"3428.8000000119","correct":false,"confidence":3},{"trial_n":96,"span":7,"encoder":"4344626","distractor":"9344626","target":"present","response":"present","rt":"2568.6999999881","correct":true,"confidence":5},{"trial_n":97,"span":7,"encoder":"9267020","distractor":"9277020","target":"absent","response":"absent","rt":"2975.5","correct":true,"confidence":5},{"trial_n":98,"span":8,"encoder":"62660616","distractor":"62668616","target":"present","response":"present","rt":"2851.6000000238","correct":true,"confidence":5},{"trial_n":99,"span":8,"encoder":"17094268","distractor":"17092268","target":"absent","response":"absent","rt":"3906.1000000238","correct":true,"confidence":5},{"trial_n":100,"span":9,"encoder":"663322810","distractor":"663322840","target":"absent","response":"absent","rt":"2137.1000000238","correct":true,"confidence":5},{"trial_n":101,"span":9,"encoder":"292135653","distractor":"292135603","target":"absent","response":"absent","rt":"2354.7000000477","correct":true,"confidence":5},{"trial_n":102,"span":10,"encoder":"3627788011","distractor":"3627780011","target":"present","response":"present","rt":"5333.7000000477","correct":true,"confidence":5},{"trial_n":103,"span":10,"encoder":"6841971581","distractor":"6841978581","target":"absent","response":"present","rt":"4631.8000000119","correct":false,"confidence":4},{"trial_n":104,"span":9,"encoder":"119815368","distractor":"189815368","target":"present","response":"present","rt":"5882.1000000238","correct":true,"confidence":4},{"trial_n":105,"span":9,"encoder":"945866830","distractor":"945866890","target":"absent","response":"absent","rt":"2931.3999999762","correct":true,"confidence":5},{"trial_n":106,"span":10,"encoder":"4516943055","distractor":"4516923055","target":"absent","response":"absent","rt":"5980.4000000358","correct":true,"confidence":4},{"trial_n":107,"span":10,"encoder":"9674388360","distractor":"9674388380","target":"absent","response":"absent","rt":"3661.5","correct":true,"confidence":5},{"trial_n":108,"span":11,"encoder":"50443505724","distractor":"53443505724","target":"absent","response":"absent","rt":"3627","correct":true,"confidence":3},{"trial_n":109,"span":11,"encoder":"61121527664","distractor":"61121527564","target":"absent","response":"absent","rt":"3044.5","correct":true,"confidence":5},{"trial_n":110,"span":12,"encoder":"474391837834","distractor":"474391837835","target":"present","response":"present","rt":"4398.8000000119","correct":true,"confidence":4},{"trial_n":111,"span":12,"encoder":"802149642122","distractor":"802149622122","target":"absent","response":"absent","rt":"5441.3999999762","correct":true,"confidence":4},{"trial_n":112,"span":13,"encoder":"5306929171125","distractor":"5306927171125","target":"present","response":"present","rt":"4600.5999999642","correct":true,"confidence":2},{"trial_n":113,"span":13,"encoder":"7539796495830","distractor":"7939796495830","target":"present","response":"absent","rt":"8928.3999999762","correct":false,"confidence":2},{"trial_n":114,"span":12,"encoder":"734655363191","distractor":"734655363691","target":"absent","response":"absent","rt":"3359.3000000119","correct":true,"confidence":5},{"trial_n":115,"span":12,"encoder":"059224795657","distractor":"159224795657","target":"absent","response":"present","rt":"5715.5999999642","correct":false,"confidence":3},{"trial_n":116,"span":11,"encoder":"05720454003","distractor":"05725454003","target":"present","response":"absent","rt":"3946.3000000119","correct":false,"confidence":3},{"trial_n":117,"span":10,"encoder":"1724942920","distractor":"1724922920","target":"present","response":"present","rt":"5706.5999999642","correct":true,"confidence":4},{"trial_n":118,"span":10,"encoder":"7124368190","distractor":"7123368190","target":"present","response":"present","rt":"2855","correct":true,"confidence":3},{"trial_n":119,"span":11,"encoder":"55280057551","distractor":"55280007551","target":"absent","response":"absent","rt":"10259.700000048","correct":true,"confidence":3},{"trial_n":120,"span":11,"encoder":"58926424930","distractor":"56926424930","target":"absent","response":"present","rt":"2985.5","correct":false,"confidence":3},{"trial_n":121,"span":10,"encoder":"7019752171","distractor":"7119752171","target":"present","response":"present","rt":"1855.1000000238","correct":true,"confidence":5},{"trial_n":122,"span":10,"encoder":"7762146215","distractor":"7762146219","target":"absent","response":"absent","rt":"4448.1999999881","correct":true,"confidence":5},{"trial_n":123,"span":11,"encoder":"01326414015","distractor":"21326414015","target":"present","response":"present","rt":"6074","correct":true,"confidence":2},{"trial_n":124,"span":11,"encoder":"33358827219","distractor":"33358821219","target":"absent","response":"absent","rt":"5107.8000000119","correct":true,"confidence":2},{"trial_n":125,"span":12,"encoder":"244567139652","distractor":"244567139752","target":"present","response":"present","rt":"2721.1000000238","correct":true,"confidence":5},{"trial_n":126,"span":12,"encoder":"563071769705","distractor":"163071769705","target":"present","response":"absent","rt":"4662.9000000358","correct":false,"confidence":2},{"trial_n":127,"span":11,"encoder":"98711596420","distractor":"98711096420","target":"absent","response":"present","rt":"5719.8999999762","correct":false,"confidence":1},{"trial_n":128,"span":10,"encoder":"1839891886","distractor":"1838891886","target":"present","response":"present","rt":"7719.1000000238","correct":true,"confidence":2},{"trial_n":129,"span":10,"encoder":"7354695104","distractor":"7374695104","target":"absent","response":"absent","rt":"4986.5999999642","correct":true,"confidence":3},{"trial_n":130,"span":11,"encoder":"34484817426","distractor":"34484817926","target":"present","response":"present","rt":"4283.3000000119","correct":true,"confidence":4},{"trial_n":131,"span":11,"encoder":"32345555189","distractor":"32345515189","target":"present","response":"present","rt":"3760.4000000358","correct":true,"confidence":5},{"trial_n":132,"span":12,"encoder":"496558465212","distractor":"496558475212","target":"present","response":"present","rt":"5604.9000000358","correct":true,"confidence":2},{"trial_n":133,"span":12,"encoder":"134918012027","distractor":"134918412027","target":"present","response":"absent","rt":"5756.1999999881","correct":false,"confidence":3},{"trial_n":134,"span":11,"encoder":"56227842858","distractor":"54227842858","target":"present","response":"present","rt":"4234.1999999881","correct":true,"confidence":3},{"trial_n":135,"span":11,"encoder":"93832417616","distractor":"93832417656","target":"present","response":"present","rt":"2092","correct":true,"confidence":5},{"trial_n":136,"span":12,"encoder":"789034187659","distractor":"739034187659","target":"present","response":"present","rt":"5485.1999999881","correct":true,"confidence":2},{"trial_n":137,"span":12,"encoder":"732404105513","distractor":"732404105503","target":"absent","response":"absent","rt":"10188.200000048","correct":true,"confidence":3},{"trial_n":138,"span":13,"encoder":"2504970351377","distractor":"2534970351377","target":"present","response":"absent","rt":"4837.1000000238","correct":false,"confidence":2},{"trial_n":139,"span":12,"encoder":"904910877949","distractor":"904910877946","target":"present","response":"present","rt":"2073.1999999881","correct":true,"confidence":5},{"trial_n":140,"span":12,"encoder":"722936154351","distractor":"742936154351","target":"absent","response":"absent","rt":"4633.8999999762","correct":true,"confidence":3}]