[{"trial_n":1,"n_dots":4.25,"target":"right","response":"left","rt":4047.0000000002,"correct":false,"confidence":-1},{"trial_n":2,"n_dots":4.25,"target":"right","response":"left","rt":2298.9999999998,"correct":false,"confidence":-1},{"trial_n":3,"n_dots":4.65,"target":"right","response":"right","rt":2162,"correct":true,"confidence":-1},{"trial_n":4,"n_dots":4.65,"target":"left","response":"right","rt":667,"correct":false,"confidence":-1},{"trial_n":5,"n_dots":5.05,"target":"left","response":"right","rt":2285,"correct":false,"confidence":-1},{"trial_n":6,"n_dots":5.45,"target":"right","response":"right","rt":539,"correct":true,"confidence":-1},{"trial_n":7,"n_dots":5.45,"target":"left","response":"left","rt":320,"correct":true,"confidence":-1},{"trial_n":8,"n_dots":5.25,"target":"left","response":"left","rt":384,"correct":true,"confidence":-1},{"trial_n":9,"n_dots":5.25,"target":"left","response":"left","rt":480,"correct":true,"confidence":-1},{"trial_n":10,"n_dots":5.05,"target":"left","response":"left","rt":200,"correct":true,"confidence":-1},{"trial_n":11,"n_dots":5.05,"target":"right","response":"right","rt":487.99999999977,"correct":true,"confidence":-1},{"trial_n":12,"n_dots":4.85,"target":"left","response":"left","rt":871,"correct":true,"confidence":-1},{"trial_n":13,"n_dots":4.85,"target":"right","response":"right","rt":1073,"correct":true,"confidence":-1},{"trial_n":14,"n_dots":4.75,"target":"right","response":"right","rt":4438,"correct":true,"confidence":-1},{"trial_n":15,"n_dots":4.75,"target":"left","response":"right","rt":2650,"correct":false,"confidence":-1},{"trial_n":16,"n_dots":4.85,"target":"left","response":"left","rt":272.99999999977,"correct":true,"confidence":-1},{"trial_n":17,"n_dots":4.85,"target":"left","response":"left","rt":627.00000000023,"correct":true,"confidence":-1},{"trial_n":18,"n_dots":4.75,"target":"right","response":"right","rt":810,"correct":true,"confidence":-1},{"trial_n":19,"n_dots":4.75,"target":"left","response":"left","rt":375,"correct":true,"confidence":-1},{"trial_n":20,"n_dots":4.65,"target":"right","response":"right","rt":130,"correct":true,"confidence":-1},{"trial_n":21,"n_dots":4.65,"target":"right","response":"right","rt":458.00000000023,"correct":true,"confidence":4},{"trial_n":22,"n_dots":4.55,"target":"left","response":"left","rt":525,"correct":true,"confidence":3},{"trial_n":23,"n_dots":4.55,"target":"right","response":"right","rt":612,"correct":true,"confidence":3},{"trial_n":24,"n_dots":4.45,"target":"right","response":"right","rt":482,"correct":true,"confidence":4},{"trial_n":25,"n_dots":4.45,"target":"right","response":"right","rt":399,"correct":true,"confidence":4},{"trial_n":26,"n_dots":4.35,"target":"left","response":"left","rt":1190.9999999998,"correct":true,"confidence":3},{"trial_n":27,"n_dots":4.35,"target":"right","response":"left","rt":712,"correct":false,"confidence":3},{"trial_n":28,"n_dots":4.45,"target":"right","response":"right","rt":399,"correct":true,"confidence":4},{"trial_n":29,"n_dots":4.45,"target":"right","response":"right","rt":456.99999999977,"correct":true,"confidence":3},{"trial_n":30,"n_dots":4.35,"target":"left","response":"left","rt":422.00000000023,"correct":true,"confidence":3},{"trial_n":31,"n_dots":4.35,"target":"left","response":"left","rt":424.00000000047,"correct":true,"confidence":4},{"trial_n":32,"n_dots":4.25,"target":"left","response":"left","rt":359,"correct":true,"confidence":4},{"trial_n":33,"n_dots":4.25,"target":"left","response":"left","rt":713,"correct":true,"confidence":3},{"trial_n":34,"n_dots":4.15,"target":"left","response":"left","rt":2071,"correct":true,"confidence":2},{"trial_n":35,"n_dots":4.15,"target":"right","response":"left","rt":1656,"correct":false,"confidence":3},{"trial_n":36,"n_dots":4.25,"target":"right","response":"right","rt":654,"correct":true,"confidence":3},{"trial_n":37,"n_dots":4.25,"target":"right","response":"left","rt":1628,"correct":false,"confidence":3},{"trial_n":38,"n_dots":4.35,"target":"right","response":"right","rt":247,"correct":true,"confidence":4},{"trial_n":39,"n_dots":4.35,"target":"left","response":"left","rt":1015,"correct":true,"confidence":3},{"trial_n":40,"n_dots":4.25,"target":"right","response":"right","rt":680,"correct":true,"confidence":3},{"trial_n":41,"n_dots":4.25,"target":"left","response":"left","rt":1558,"correct":true,"confidence":3},{"trial_n":42,"n_dots":4.15,"target":"left","response":"left","rt":688,"correct":true,"confidence":3},{"trial_n":43,"n_dots":4.15,"target":"right","response":"right","rt":2237,"correct":true,"confidence":1},{"trial_n":44,"n_dots":4.05,"target":"left","response":"left","rt":1399,"correct":true,"confidence":3},{"trial_n":45,"n_dots":4.05,"target":"left","response":"left","rt":533,"correct":true,"confidence":3},{"trial_n":46,"n_dots":3.95,"target":"left","response":"left","rt":535,"correct":true,"confidence":2},{"trial_n":47,"n_dots":3.95,"target":"right","response":"right","rt":481,"correct":true,"confidence":3},{"trial_n":48,"n_dots":3.85,"target":"right","response":"right","rt":448,"correct":true,"confidence":4},{"trial_n":49,"n_dots":3.85,"target":"left","response":"left","rt":528,"correct":true,"confidence":5},{"trial_n":50,"n_dots":3.75,"target":"left","response":"left","rt":1763,"correct":true,"confidence":3},{"trial_n":51,"n_dots":3.75,"target":"right","response":"right","rt":391,"correct":true,"confidence":4},{"trial_n":52,"n_dots":3.65,"target":"right","response":"right","rt":366,"correct":true,"confidence":4},{"trial_n":53,"n_dots":3.65,"target":"left","response":"left","rt":489.99999999953,"correct":true,"confidence":4},{"trial_n":54,"n_dots":3.55,"target":"left","response":"left","rt":413.99999999953,"correct":true,"confidence":3},{"trial_n":55,"n_dots":3.55,"target":"left","response":"left","rt":280,"correct":true,"confidence":4},{"trial_n":56,"n_dots":3.45,"target":"right","response":"right","rt":528,"correct":true,"confidence":3},{"trial_n":57,"n_dots":3.45,"target":"left","response":"left","rt":431,"correct":true,"confidence":3},{"trial_n":58,"n_dots":3.35,"target":"left","response":"left","rt":490,"correct":true,"confidence":3},{"trial_n":59,"n_dots":3.35,"target":"right","response":"right","rt":495.00000000047,"correct":true,"confidence":3},{"trial_n":60,"n_dots":3.25,"target":"right","response":"right","rt":394,"correct":true,"confidence":3},{"trial_n":61,"n_dots":3.25,"target":"right","response":"left","rt":1300,"correct":false,"confidence":2},{"trial_n":62,"n_dots":3.35,"target":"right","response":"right","rt":2975,"correct":true,"confidence":2},{"trial_n":63,"n_dots":3.35,"target":"left","response":"left","rt":1233.0000000005,"correct":true,"confidence":2},{"trial_n":64,"n_dots":3.25,"target":"right","response":"right","rt":769,"correct":true,"confidence":2},{"trial_n":65,"n_dots":3.25,"target":"right","response":"left","rt":632,"correct":false,"confidence":2},{"trial_n":66,"n_dots":3.35,"target":"left","response":"left","rt":432,"correct":true,"confidence":2},{"trial_n":67,"n_dots":3.35,"target":"left","response":"left","rt":545,"correct":true,"confidence":2},{"trial_n":68,"n_dots":3.25,"target":"right","response":"right","rt":704,"correct":true,"confidence":2},{"trial_n":69,"n_dots":3.25,"target":"left","response":"left","rt":505,"correct":true,"confidence":2},{"trial_n":70,"n_dots":3.15,"target":"right","response":"left","rt":505,"correct":false,"confidence":2},{"trial_n":71,"n_dots":3.25,"target":"left","response":"left","rt":377.99999999953,"correct":true,"confidence":2},{"trial_n":72,"n_dots":3.25,"target":"left","response":"left","rt":337.99999999953,"correct":true,"confidence":2},{"trial_n":73,"n_dots":3.15,"target":"right","response":"right","rt":410,"correct":true,"confidence":2},{"trial_n":74,"n_dots":3.15,"target":"right","response":"left","rt":505,"correct":false,"confidence":2},{"trial_n":75,"n_dots":3.25,"target":"right","response":"left","rt":481,"correct":false,"confidence":2},{"trial_n":76,"n_dots":3.35,"target":"left","response":"left","rt":418,"correct":true,"confidence":2},{"trial_n":77,"n_dots":3.35,"target":"right","response":"left","rt":561,"correct":false,"confidence":2},{"trial_n":78,"n_dots":3.45,"target":"left","response":"left","rt":431.99999999953,"correct":true,"confidence":2},{"trial_n":79,"n_dots":3.45,"target":"left","response":"left","rt":361,"correct":true,"confidence":2},{"trial_n":80,"n_dots":3.35,"target":"right","response":"right","rt":420,"correct":true,"confidence":2},{"trial_n":81,"n_dots":3.35,"target":"left","response":"left","rt":896,"correct":true,"confidence":1},{"trial_n":82,"n_dots":3.25,"target":"right","response":"left","rt":1245.0000000005,"correct":false,"confidence":1},{"trial_n":83,"n_dots":3.35,"target":"left","response":"left","rt":1140,"correct":true,"confidence":1},{"trial_n":84,"n_dots":3.35,"target":"right","response":"left","rt":1442.0000000005,"correct":false,"confidence":1},{"trial_n":85,"n_dots":3.45,"target":"left","response":"left","rt":722.99999999953,"correct":true,"confidence":2},{"trial_n":86,"n_dots":3.45,"target":"left","response":"left","rt":748,"correct":true,"confidence":2},{"trial_n":87,"n_dots":3.35,"target":"right","response":"right","rt":1181,"correct":true,"confidence":2},{"trial_n":88,"n_dots":3.35,"target":"left","response":"left","rt":1398,"correct":true,"confidence":2},{"trial_n":89,"n_dots":3.25,"target":"left","response":"left","rt":787,"correct":true,"confidence":3},{"trial_n":90,"n_dots":3.25,"target":"right","response":"right","rt":690,"correct":true,"confidence":3},{"trial_n":91,"n_dots":3.15,"target":"left","response":"left","rt":1478.0000000005,"correct":true,"confidence":3},{"trial_n":92,"n_dots":3.15,"target":"right","response":"right","rt":1790,"correct":true,"confidence":3},{"trial_n":93,"n_dots":3.05,"target":"left","response":"left","rt":683,"correct":true,"confidence":3},{"trial_n":94,"n_dots":3.05,"target":"left","response":"left","rt":1172,"correct":true,"confidence":2},{"trial_n":95,"n_dots":2.95,"target":"left","response":"left","rt":338,"correct":true,"confidence":3},{"trial_n":96,"n_dots":2.95,"target":"left","response":"right","rt":306,"correct":false,"confidence":3},{"trial_n":97,"n_dots":3.05,"target":"left","response":"left","rt":387,"correct":true,"confidence":3},{"trial_n":98,"n_dots":3.05,"target":"right","response":"right","rt":418,"correct":true,"confidence":3},{"trial_n":99,"n_dots":2.95,"target":"right","response":"left","rt":394,"correct":false,"confidence":3},{"trial_n":100,"n_dots":3.05,"target":"left","response":"right","rt":380,"correct":false,"confidence":3},{"trial_n":101,"n_dots":3.15,"target":"right","response":"right","rt":429,"correct":true,"confidence":3},{"trial_n":102,"n_dots":3.15,"target":"right","response":"right","rt":331,"correct":true,"confidence":3},{"trial_n":103,"n_dots":3.05,"target":"left","response":"right","rt":404,"correct":false,"confidence":2},{"trial_n":104,"n_dots":3.15,"target":"right","response":"right","rt":798,"correct":true,"confidence":2},{"trial_n":105,"n_dots":3.15,"target":"right","response":"right","rt":509,"correct":true,"confidence":3},{"trial_n":106,"n_dots":3.05,"target":"right","response":"right","rt":493,"correct":true,"confidence":3},{"trial_n":107,"n_dots":3.05,"target":"left","response":"left","rt":548,"correct":true,"confidence":3},{"trial_n":108,"n_dots":2.95,"target":"right","response":"right","rt":395,"correct":true,"confidence":4},{"trial_n":109,"n_dots":2.95,"target":"right","response":"right","rt":414,"correct":true,"confidence":3},{"trial_n":110,"n_dots":2.85,"target":"left","response":"right","rt":516.00000000047,"correct":false,"confidence":3},{"trial_n":111,"n_dots":2.95,"target":"right","response":"right","rt":3062,"correct":true,"confidence":1},{"trial_n":112,"n_dots":2.95,"target":"left","response":"left","rt":387,"correct":true,"confidence":3},{"trial_n":113,"n_dots":2.85,"target":"left","response":"left","rt":461,"correct":true,"confidence":3},{"trial_n":114,"n_dots":2.85,"target":"right","response":"left","rt":414,"correct":false,"confidence":3},{"trial_n":115,"n_dots":2.95,"target":"left","response":"left","rt":638,"correct":true,"confidence":3},{"trial_n":116,"n_dots":2.95,"target":"right","response":"right","rt":711,"correct":true,"confidence":3},{"trial_n":117,"n_dots":2.85,"target":"right","response":"right","rt":307,"correct":true,"confidence":4},{"trial_n":118,"n_dots":2.85,"target":"left","response":"left","rt":623,"correct":true,"confidence":4},{"trial_n":119,"n_dots":2.75,"target":"right","response":"right","rt":453,"correct":true,"confidence":4},{"trial_n":120,"n_dots":2.75,"target":"right","response":"right","rt":483,"correct":true,"confidence":4}]