[{"trial_n":1,"min":25,"max":230,"target":"present","response":"present","rt":17030.699999988,"correct":true,"confidence":-1},{"trial_n":2,"min":25,"max":230,"target":"present","response":"present","rt":2337.6999999881,"correct":true,"confidence":-1},{"trial_n":3,"min":41,"max":214,"target":"absent","response":"absent","rt":3142.3999999762,"correct":true,"confidence":-1},{"trial_n":4,"min":41,"max":214,"target":"absent","response":"present","rt":2192.5,"correct":false,"confidence":-1},{"trial_n":5,"min":25,"max":230,"target":"present","response":"present","rt":1389.3000000119,"correct":true,"confidence":-1},{"trial_n":6,"min":25,"max":230,"target":"present","response":"present","rt":1117.6999999881,"correct":true,"confidence":-1},{"trial_n":7,"min":41,"max":214,"target":"absent","response":"absent","rt":1415.8000000119,"correct":true,"confidence":-1},{"trial_n":8,"min":41,"max":214,"target":"present","response":"present","rt":1217.4000000358,"correct":true,"confidence":-1},{"trial_n":9,"min":57,"max":198,"target":"present","response":"present","rt":1427.0999999642,"correct":true,"confidence":-1},{"trial_n":10,"min":57,"max":198,"target":"absent","response":"absent","rt":1484.8999999762,"correct":true,"confidence":-1},{"trial_n":11,"min":65,"max":190,"target":"absent","response":"absent","rt":1101.9000000358,"correct":true,"confidence":-1},{"trial_n":12,"min":65,"max":190,"target":"absent","response":"absent","rt":1242.3000000119,"correct":true,"confidence":-1},{"trial_n":13,"min":73,"max":182,"target":"present","response":"present","rt":1096.6999999881,"correct":true,"confidence":-1},{"trial_n":14,"min":73,"max":182,"target":"present","response":"present","rt":1052.8999999762,"correct":true,"confidence":-1},{"trial_n":15,"min":81,"max":174,"target":"absent","response":"absent","rt":1232.1999999881,"correct":true,"confidence":-1},{"trial_n":16,"min":81,"max":174,"target":"absent","response":"absent","rt":1045.3000000119,"correct":true,"confidence":-1},{"trial_n":17,"min":89,"max":166,"target":"absent","response":"absent","rt":1214.3000000119,"correct":true,"confidence":-1},{"trial_n":18,"min":89,"max":166,"target":"present","response":"absent","rt":1084.2000000477,"correct":false,"confidence":-1},{"trial_n":19,"min":81,"max":174,"target":"absent","response":"present","rt":1538,"correct":false,"confidence":-1},{"trial_n":20,"min":73,"max":182,"target":"absent","response":"present","rt":1125.3000000119,"correct":false,"confidence":-1},{"trial_n":21,"min":69,"max":186,"target":"present","response":"present","rt":1524.3999999762,"correct":true,"confidence":4},{"trial_n":22,"min":69,"max":186,"target":"present","response":"absent","rt":2101.8000000119,"correct":false,"confidence":5},{"trial_n":23,"min":65,"max":190,"target":"present","response":"present","rt":1311.5999999642,"correct":true,"confidence":5},{"trial_n":24,"min":65,"max":190,"target":"present","response":"present","rt":1602.5999999642,"correct":true,"confidence":5},{"trial_n":25,"min":69,"max":186,"target":"absent","response":"absent","rt":1277.5,"correct":true,"confidence":5},{"trial_n":26,"min":69,"max":186,"target":"present","response":"present","rt":3509.6000000238,"correct":true,"confidence":3},{"trial_n":27,"min":73,"max":182,"target":"absent","response":"absent","rt":1338.7999999523,"correct":true,"confidence":4},{"trial_n":28,"min":73,"max":182,"target":"absent","response":"absent","rt":1306.1999999881,"correct":true,"confidence":5},{"trial_n":29,"min":77,"max":178,"target":"absent","response":"absent","rt":2496.5,"correct":true,"confidence":3},{"trial_n":30,"min":77,"max":178,"target":"absent","response":"absent","rt":1294.2000000477,"correct":true,"confidence":5},{"trial_n":31,"min":79,"max":176,"target":"present","response":"present","rt":1497.1000000238,"correct":true,"confidence":4},{"trial_n":32,"min":79,"max":176,"target":"present","response":"absent","rt":2283.0999999046,"correct":false,"confidence":3},{"trial_n":33,"min":77,"max":178,"target":"absent","response":"present","rt":2036.5,"correct":false,"confidence":2},{"trial_n":34,"min":75,"max":180,"target":"absent","response":"absent","rt":3212.3999999762,"correct":true,"confidence":2},{"trial_n":35,"min":75,"max":180,"target":"absent","response":"present","rt":5182.8999999762,"correct":false,"confidence":2},{"trial_n":36,"min":73,"max":182,"target":"absent","response":"absent","rt":4751.7999999523,"correct":true,"confidence":3},{"trial_n":37,"min":73,"max":182,"target":"present","response":"present","rt":1346,"correct":true,"confidence":5},{"trial_n":38,"min":75,"max":180,"target":"absent","response":"absent","rt":2362,"correct":true,"confidence":3},{"trial_n":39,"min":75,"max":180,"target":"present","response":"present","rt":1356.4000000954,"correct":true,"confidence":5},{"trial_n":40,"min":77,"max":178,"target":"present","response":"present","rt":1237.1999999285,"correct":true,"confidence":4},{"trial_n":41,"min":77,"max":178,"target":"present","response":"present","rt":1514.3000000715,"correct":true,"confidence":5},{"trial_n":42,"min":78,"max":177,"target":"present","response":"present","rt":1316.1999999285,"correct":true,"confidence":5},{"trial_n":43,"min":78,"max":177,"target":"present","response":"present","rt":3637.8999999762,"correct":true,"confidence":3},{"trial_n":44,"min":79,"max":176,"target":"absent","response":"absent","rt":1404.5,"correct":true,"confidence":2},{"trial_n":45,"min":79,"max":176,"target":"present","response":"present","rt":3064.2999999523,"correct":true,"confidence":2},{"trial_n":46,"min":80,"max":175,"target":"present","response":"present","rt":1706,"correct":true,"confidence":4},{"trial_n":47,"min":80,"max":175,"target":"absent","response":"absent","rt":1821.3999999762,"correct":true,"confidence":3},{"trial_n":48,"min":81,"max":174,"target":"present","response":"absent","rt":1249.6999999285,"correct":false,"confidence":5},{"trial_n":49,"min":80,"max":175,"target":"present","response":"absent","rt":1481.3999999762,"correct":false,"confidence":5},{"trial_n":50,"min":79,"max":176,"target":"absent","response":"absent","rt":3635.6000000238,"correct":true,"confidence":2},{"trial_n":51,"min":79,"max":176,"target":"present","response":"present","rt":3036.3999999762,"correct":true,"confidence":3},{"trial_n":52,"min":80,"max":175,"target":"absent","response":"present","rt":6770.6999999285,"correct":false,"confidence":2},{"trial_n":53,"min":79,"max":176,"target":"absent","response":"present","rt":3775.3999999762,"correct":false,"confidence":3},{"trial_n":54,"min":78,"max":177,"target":"absent","response":"absent","rt":1324.7000000477,"correct":true,"confidence":4},{"trial_n":55,"min":78,"max":177,"target":"present","response":"present","rt":1187.1000000238,"correct":true,"confidence":5},{"trial_n":56,"min":79,"max":176,"target":"present","response":"present","rt":1311.5999999046,"correct":true,"confidence":4},{"trial_n":57,"min":79,"max":176,"target":"absent","response":"absent","rt":1498.2999999523,"correct":true,"confidence":4},{"trial_n":58,"min":80,"max":175,"target":"present","response":"present","rt":1127,"correct":true,"confidence":5},{"trial_n":59,"min":80,"max":175,"target":"present","response":"present","rt":4178,"correct":true,"confidence":2},{"trial_n":60,"min":81,"max":174,"target":"absent","response":"absent","rt":1263.8999999762,"correct":true,"confidence":3},{"trial_n":61,"min":81,"max":174,"target":"absent","response":"absent","rt":1230.6000000238,"correct":true,"confidence":5},{"trial_n":62,"min":82,"max":173,"target":"present","response":"absent","rt":2294.0999999046,"correct":false,"confidence":4},{"trial_n":63,"min":81,"max":174,"target":"present","response":"absent","rt":1892.3000000715,"correct":false,"confidence":3},{"trial_n":64,"min":80,"max":175,"target":"present","response":"present","rt":1577.6999999285,"correct":true,"confidence":3},{"trial_n":65,"min":80,"max":175,"target":"present","response":"present","rt":2481.6000000238,"correct":true,"confidence":3},{"trial_n":66,"min":81,"max":174,"target":"absent","response":"present","rt":3050.2000000477,"correct":false,"confidence":2},{"trial_n":67,"min":80,"max":175,"target":"absent","response":"present","rt":2439.3000000715,"correct":false,"confidence":3},{"trial_n":68,"min":79,"max":176,"target":"absent","response":"absent","rt":1275.8999999762,"correct":true,"confidence":4},{"trial_n":69,"min":79,"max":176,"target":"absent","response":"absent","rt":1592.6000000238,"correct":true,"confidence":4},{"trial_n":70,"min":80,"max":175,"target":"present","response":"absent","rt":1390.3000000715,"correct":false,"confidence":3},{"trial_n":71,"min":41,"max":214,"target":"present","response":"present","rt":3772.7999999523,"correct":true,"confidence":-1},{"trial_n":72,"min":41,"max":214,"target":"present","response":"present","rt":2504.5,"correct":true,"confidence":-1},{"trial_n":73,"min":57,"max":198,"target":"absent","response":"absent","rt":1405.2000000477,"correct":true,"confidence":-1},{"trial_n":74,"min":57,"max":198,"target":"absent","response":"absent","rt":1045.4000000954,"correct":true,"confidence":-1},{"trial_n":75,"min":73,"max":182,"target":"present","response":"present","rt":1213.8999999762,"correct":true,"confidence":-1},{"trial_n":76,"min":73,"max":182,"target":"present","response":"present","rt":1106.7999999523,"correct":true,"confidence":-1},{"trial_n":77,"min":89,"max":166,"target":"present","response":"present","rt":1422.9000000954,"correct":true,"confidence":-1},{"trial_n":78,"min":89,"max":166,"target":"present","response":"present","rt":1205.2999999523,"correct":true,"confidence":-1},{"trial_n":79,"min":105,"max":150,"target":"absent","response":"present","rt":1469.3999999762,"correct":false,"confidence":-1},{"trial_n":80,"min":89,"max":166,"target":"absent","response":"present","rt":1641.6000000238,"correct":false,"confidence":-1},{"trial_n":81,"min":81,"max":174,"target":"absent","response":"absent","rt":1262,"correct":true,"confidence":-1},{"trial_n":82,"min":81,"max":174,"target":"absent","response":"present","rt":1437.7000000477,"correct":false,"confidence":-1},{"trial_n":83,"min":73,"max":182,"target":"present","response":"present","rt":1251,"correct":true,"confidence":-1},{"trial_n":84,"min":73,"max":182,"target":"present","response":"present","rt":1078.6999999285,"correct":true,"confidence":-1},{"trial_n":85,"min":81,"max":174,"target":"absent","response":"absent","rt":1711,"correct":true,"confidence":-1},{"trial_n":86,"min":81,"max":174,"target":"present","response":"present","rt":1123.5,"correct":true,"confidence":-1},{"trial_n":87,"min":89,"max":166,"target":"absent","response":"absent","rt":1359.5,"correct":true,"confidence":-1},{"trial_n":88,"min":89,"max":166,"target":"present","response":"present","rt":1326.6000000238,"correct":true,"confidence":-1},{"trial_n":89,"min":97,"max":158,"target":"absent","response":"present","rt":952.70000004768,"correct":false,"confidence":-1},{"trial_n":90,"min":89,"max":166,"target":"absent","response":"present","rt":1109.6000000238,"correct":false,"confidence":-1},{"trial_n":91,"min":85,"max":170,"target":"present","response":"present","rt":1437.7000000477,"correct":true,"confidence":3},{"trial_n":92,"min":85,"max":170,"target":"present","response":"present","rt":1449.1000000238,"correct":true,"confidence":5},{"trial_n":93,"min":89,"max":166,"target":"absent","response":"present","rt":1402.2000000477,"correct":false,"confidence":3},{"trial_n":94,"min":85,"max":170,"target":"absent","response":"absent","rt":1493.8000000715,"correct":true,"confidence":5},{"trial_n":95,"min":85,"max":170,"target":"absent","response":"absent","rt":2723.3999999762,"correct":true,"confidence":2},{"trial_n":96,"min":89,"max":166,"target":"present","response":"present","rt":1313.2000000477,"correct":true,"confidence":4},{"trial_n":97,"min":89,"max":166,"target":"present","response":"present","rt":1082.5,"correct":true,"confidence":5},{"trial_n":98,"min":93,"max":162,"target":"present","response":"absent","rt":4014.3000000715,"correct":false,"confidence":3},{"trial_n":99,"min":89,"max":166,"target":"absent","response":"absent","rt":1573.6000000238,"correct":true,"confidence":5},{"trial_n":100,"min":89,"max":166,"target":"absent","response":"present","rt":3660.3999999762,"correct":false,"confidence":2},{"trial_n":101,"min":87,"max":168,"target":"present","response":"present","rt":3065.6000000238,"correct":true,"confidence":2},{"trial_n":102,"min":87,"max":168,"target":"present","response":"present","rt":1055.4000000954,"correct":true,"confidence":5},{"trial_n":103,"min":89,"max":166,"target":"present","response":"present","rt":1448.3999999762,"correct":true,"confidence":3},{"trial_n":104,"min":89,"max":166,"target":"absent","response":"present","rt":3667.6999999285,"correct":false,"confidence":2},{"trial_n":105,"min":87,"max":168,"target":"absent","response":"present","rt":2630.3999999762,"correct":false,"confidence":2},{"trial_n":106,"min":85,"max":170,"target":"absent","response":"absent","rt":3690.7000000477,"correct":true,"confidence":1},{"trial_n":107,"min":85,"max":170,"target":"absent","response":"present","rt":2943.6000000238,"correct":false,"confidence":2},{"trial_n":108,"min":83,"max":172,"target":"present","response":"absent","rt":3151,"correct":false,"confidence":1},{"trial_n":109,"min":81,"max":174,"target":"present","response":"present","rt":1589.0999999046,"correct":true,"confidence":2},{"trial_n":110,"min":81,"max":174,"target":"present","response":"present","rt":3470.6000000238,"correct":true,"confidence":2},{"trial_n":111,"min":82,"max":173,"target":"absent","response":"absent","rt":1610.2000000477,"correct":true,"confidence":4},{"trial_n":112,"min":82,"max":173,"target":"present","response":"present","rt":1245.3000000715,"correct":true,"confidence":3},{"trial_n":113,"min":83,"max":172,"target":"absent","response":"absent","rt":1245.7000000477,"correct":true,"confidence":4},{"trial_n":114,"min":83,"max":172,"target":"absent","response":"present","rt":2249.7000000477,"correct":false,"confidence":3},{"trial_n":115,"min":82,"max":173,"target":"absent","response":"absent","rt":1721.5,"correct":true,"confidence":4},{"trial_n":116,"min":82,"max":173,"target":"present","response":"present","rt":1589.6000000238,"correct":true,"confidence":3},{"trial_n":117,"min":83,"max":172,"target":"absent","response":"absent","rt":2119.3000000715,"correct":true,"confidence":1},{"trial_n":118,"min":83,"max":172,"target":"present","response":"present","rt":1139.1000000238,"correct":true,"confidence":3},{"trial_n":119,"min":84,"max":171,"target":"absent","response":"present","rt":1973.3000000715,"correct":false,"confidence":2},{"trial_n":120,"min":83,"max":172,"target":"present","response":"present","rt":1946.7000000477,"correct":true,"confidence":4},{"trial_n":121,"min":83,"max":172,"target":"absent","response":"absent","rt":2201.5999999046,"correct":true,"confidence":2},{"trial_n":122,"min":84,"max":171,"target":"absent","response":"present","rt":1335.5,"correct":false,"confidence":2},{"trial_n":123,"min":83,"max":172,"target":"present","response":"absent","rt":5352.1000000238,"correct":false,"confidence":2},{"trial_n":124,"min":82,"max":173,"target":"present","response":"present","rt":1401.3999999762,"correct":true,"confidence":3},{"trial_n":125,"min":82,"max":173,"target":"absent","response":"present","rt":1343.6000000238,"correct":false,"confidence":3},{"trial_n":126,"min":81,"max":174,"target":"present","response":"present","rt":1638.8999999762,"correct":true,"confidence":3},{"trial_n":127,"min":81,"max":174,"target":"absent","response":"absent","rt":2445.7999999523,"correct":true,"confidence":2},{"trial_n":128,"min":82,"max":173,"target":"absent","response":"present","rt":2930.5999999046,"correct":false,"confidence":1},{"trial_n":129,"min":81,"max":174,"target":"present","response":"present","rt":1216.6000000238,"correct":true,"confidence":5},{"trial_n":130,"min":81,"max":174,"target":"present","response":"present","rt":1852.6000000238,"correct":true,"confidence":5},{"trial_n":131,"min":82,"max":173,"target":"present","response":"present","rt":1173.6999999285,"correct":true,"confidence":5},{"trial_n":132,"min":82,"max":173,"target":"present","response":"present","rt":1125.1999999285,"correct":true,"confidence":5},{"trial_n":133,"min":83,"max":172,"target":"present","response":"present","rt":1107.3000000715,"correct":true,"confidence":5},{"trial_n":134,"min":83,"max":172,"target":"present","response":"present","rt":1057.6999999285,"correct":true,"confidence":5},{"trial_n":135,"min":84,"max":171,"target":"absent","response":"absent","rt":1671.7000000477,"correct":true,"confidence":5},{"trial_n":136,"min":84,"max":171,"target":"present","response":"present","rt":1903.5,"correct":true,"confidence":4},{"trial_n":137,"min":85,"max":170,"target":"absent","response":"present","rt":1527,"correct":false,"confidence":3},{"trial_n":138,"min":84,"max":171,"target":"present","response":"absent","rt":1990.2999999523,"correct":false,"confidence":3},{"trial_n":139,"min":83,"max":172,"target":"absent","response":"present","rt":1558.6000000238,"correct":false,"confidence":2},{"trial_n":140,"min":82,"max":173,"target":"absent","response":"present","rt":2177.8000000715,"correct":false,"confidence":2}]