[{"trial_n":1,"min":25,"max":230,"target":"present","response":"present","rt":3542.6999999881,"correct":true,"confidence":-1},{"trial_n":2,"min":25,"max":230,"target":"present","response":"absent","rt":7174.5,"correct":false,"confidence":-1},{"trial_n":3,"min":9,"max":246,"target":"absent","response":"present","rt":630.10000002384,"correct":false,"confidence":-1},{"trial_n":4,"min":0,"max":255,"target":"absent","response":"present","rt":1802.5,"correct":false,"confidence":-1},{"trial_n":5,"min":0,"max":255,"target":"present","response":"present","rt":634.19999998808,"correct":true,"confidence":-1},{"trial_n":6,"min":0,"max":255,"target":"present","response":"present","rt":460.5,"correct":true,"confidence":-1},{"trial_n":7,"min":16,"max":239,"target":"present","response":"present","rt":509.69999998808,"correct":true,"confidence":-1},{"trial_n":8,"min":16,"max":239,"target":"absent","response":"absent","rt":425.5,"correct":true,"confidence":-1},{"trial_n":9,"min":32,"max":223,"target":"absent","response":"absent","rt":503.10000002384,"correct":true,"confidence":-1},{"trial_n":10,"min":32,"max":223,"target":"present","response":"present","rt":471.20000004768,"correct":true,"confidence":-1},{"trial_n":11,"min":40,"max":215,"target":"absent","response":"absent","rt":505.60000002384,"correct":true,"confidence":-1},{"trial_n":12,"min":40,"max":215,"target":"absent","response":"absent","rt":566.59999996424,"correct":true,"confidence":-1},{"trial_n":13,"min":48,"max":207,"target":"absent","response":"absent","rt":578.70000004768,"correct":true,"confidence":-1},{"trial_n":14,"min":48,"max":207,"target":"present","response":"present","rt":512.20000004768,"correct":true,"confidence":-1},{"trial_n":15,"min":56,"max":199,"target":"absent","response":"absent","rt":551.20000004768,"correct":true,"confidence":-1},{"trial_n":16,"min":56,"max":199,"target":"present","response":"present","rt":490.59999996424,"correct":true,"confidence":-1},{"trial_n":17,"min":64,"max":191,"target":"present","response":"present","rt":669.19999998808,"correct":true,"confidence":-1},{"trial_n":18,"min":64,"max":191,"target":"present","response":"present","rt":414.59999996424,"correct":true,"confidence":-1},{"trial_n":19,"min":72,"max":183,"target":"absent","response":"absent","rt":300,"correct":true,"confidence":-1},{"trial_n":20,"min":72,"max":183,"target":"present","response":"present","rt":475.19999998808,"correct":true,"confidence":-1},{"trial_n":21,"min":76,"max":179,"target":"absent","response":"absent","rt":388.80000001192,"correct":true,"confidence":5},{"trial_n":22,"min":76,"max":179,"target":"present","response":"present","rt":874.69999998808,"correct":true,"confidence":5},{"trial_n":23,"min":80,"max":175,"target":"absent","response":"absent","rt":374.89999997616,"correct":true,"confidence":5},{"trial_n":24,"min":80,"max":175,"target":"present","response":"present","rt":1242.1999999881,"correct":true,"confidence":4},{"trial_n":25,"min":84,"max":171,"target":"absent","response":"absent","rt":394.39999997616,"correct":true,"confidence":5},{"trial_n":26,"min":84,"max":171,"target":"absent","response":"absent","rt":361.30000001192,"correct":true,"confidence":5},{"trial_n":27,"min":88,"max":167,"target":"present","response":"absent","rt":678.40000003576,"correct":false,"confidence":5},{"trial_n":28,"min":84,"max":171,"target":"present","response":"absent","rt":565,"correct":false,"confidence":5},{"trial_n":29,"min":80,"max":175,"target":"present","response":"present","rt":1503.6999999881,"correct":true,"confidence":3},{"trial_n":30,"min":80,"max":175,"target":"present","response":"absent","rt":1852.8000000119,"correct":false,"confidence":5},{"trial_n":31,"min":78,"max":177,"target":"present","response":"present","rt":1596.6999999881,"correct":true,"confidence":4},{"trial_n":32,"min":78,"max":177,"target":"absent","response":"present","rt":520.10000002384,"correct":false,"confidence":4},{"trial_n":33,"min":76,"max":179,"target":"absent","response":"absent","rt":1198.8000000119,"correct":true,"confidence":3},{"trial_n":34,"min":76,"max":179,"target":"absent","response":"absent","rt":1061.5,"correct":true,"confidence":4},{"trial_n":35,"min":78,"max":177,"target":"present","response":"present","rt":586.09999996424,"correct":true,"confidence":4},{"trial_n":36,"min":78,"max":177,"target":"absent","response":"absent","rt":783.5,"correct":true,"confidence":5},{"trial_n":37,"min":80,"max":175,"target":"absent","response":"absent","rt":2121.7999999523,"correct":true,"confidence":5},{"trial_n":38,"min":80,"max":175,"target":"absent","response":"present","rt":1636.1999999881,"correct":false,"confidence":3},{"trial_n":39,"min":78,"max":177,"target":"present","response":"present","rt":1165.5999999642,"correct":true,"confidence":1},{"trial_n":40,"min":78,"max":177,"target":"absent","response":"present","rt":2202.3000000119,"correct":false,"confidence":2},{"trial_n":41,"min":77,"max":178,"target":"present","response":"present","rt":1708.6999999881,"correct":true,"confidence":3},{"trial_n":42,"min":77,"max":178,"target":"present","response":"present","rt":588.69999998808,"correct":true,"confidence":4},{"trial_n":43,"min":78,"max":177,"target":"absent","response":"absent","rt":759.29999995232,"correct":true,"confidence":4},{"trial_n":44,"min":78,"max":177,"target":"present","response":"present","rt":665.19999998808,"correct":true,"confidence":4},{"trial_n":45,"min":79,"max":176,"target":"absent","response":"absent","rt":715.29999995232,"correct":true,"confidence":1},{"trial_n":46,"min":79,"max":176,"target":"present","response":"present","rt":3526.8000000119,"correct":true,"confidence":3},{"trial_n":47,"min":80,"max":175,"target":"present","response":"present","rt":1519.5999999642,"correct":true,"confidence":4},{"trial_n":48,"min":80,"max":175,"target":"present","response":"present","rt":1365.6999999881,"correct":true,"confidence":4},{"trial_n":49,"min":81,"max":174,"target":"absent","response":"absent","rt":578.69999998808,"correct":true,"confidence":5},{"trial_n":50,"min":81,"max":174,"target":"present","response":"present","rt":1122.9000000358,"correct":true,"confidence":5},{"trial_n":51,"min":82,"max":173,"target":"absent","response":"absent","rt":873.39999997616,"correct":true,"confidence":4},{"trial_n":52,"min":82,"max":173,"target":"absent","response":"absent","rt":696.69999998808,"correct":true,"confidence":4},{"trial_n":53,"min":83,"max":172,"target":"present","response":"present","rt":1127.1000000238,"correct":true,"confidence":5},{"trial_n":54,"min":83,"max":172,"target":"absent","response":"absent","rt":1509.5,"correct":true,"confidence":4},{"trial_n":55,"min":84,"max":171,"target":"absent","response":"present","rt":2544.3999999762,"correct":false,"confidence":3},{"trial_n":56,"min":83,"max":172,"target":"present","response":"present","rt":1552.1999999881,"correct":true,"confidence":4},{"trial_n":57,"min":83,"max":172,"target":"absent","response":"absent","rt":630.80000001192,"correct":true,"confidence":5},{"trial_n":58,"min":84,"max":171,"target":"absent","response":"absent","rt":651.40000003576,"correct":true,"confidence":5},{"trial_n":59,"min":84,"max":171,"target":"absent","response":"absent","rt":573.19999998808,"correct":true,"confidence":5},{"trial_n":60,"min":85,"max":170,"target":"present","response":"present","rt":963.09999996424,"correct":true,"confidence":4},{"trial_n":61,"min":85,"max":170,"target":"absent","response":"absent","rt":618.39999997616,"correct":true,"confidence":4},{"trial_n":62,"min":86,"max":169,"target":"absent","response":"absent","rt":514.39999997616,"correct":true,"confidence":5},{"trial_n":63,"min":86,"max":169,"target":"present","response":"present","rt":738.39999997616,"correct":true,"confidence":5},{"trial_n":64,"min":87,"max":168,"target":"present","response":"absent","rt":1172.1999999881,"correct":false,"confidence":4},{"trial_n":65,"min":86,"max":169,"target":"present","response":"absent","rt":1267.1999999881,"correct":false,"confidence":4},{"trial_n":66,"min":85,"max":170,"target":"absent","response":"absent","rt":867.40000003576,"correct":true,"confidence":4},{"trial_n":67,"min":85,"max":170,"target":"present","response":"present","rt":926.39999997616,"correct":true,"confidence":3},{"trial_n":68,"min":86,"max":169,"target":"present","response":"absent","rt":1403.5999999642,"correct":false,"confidence":4},{"trial_n":69,"min":85,"max":170,"target":"absent","response":"absent","rt":1115.3000000119,"correct":true,"confidence":4},{"trial_n":70,"min":85,"max":170,"target":"present","response":"present","rt":854.30000001192,"correct":true,"confidence":5},{"trial_n":71,"min":41,"max":214,"target":"present","response":"present","rt":3146.6999999881,"correct":true,"confidence":-1},{"trial_n":72,"min":41,"max":214,"target":"present","response":"present","rt":438.69999998808,"correct":true,"confidence":-1},{"trial_n":73,"min":57,"max":198,"target":"absent","response":"absent","rt":204,"correct":true,"confidence":-1},{"trial_n":74,"min":57,"max":198,"target":"absent","response":"absent","rt":455.39999997616,"correct":true,"confidence":-1},{"trial_n":75,"min":73,"max":182,"target":"present","response":"present","rt":528.59999996424,"correct":true,"confidence":-1},{"trial_n":76,"min":73,"max":182,"target":"present","response":"present","rt":443.5,"correct":true,"confidence":-1},{"trial_n":77,"min":89,"max":166,"target":"absent","response":"absent","rt":472.80000001192,"correct":true,"confidence":-1},{"trial_n":78,"min":89,"max":166,"target":"present","response":"present","rt":1019.5,"correct":true,"confidence":-1},{"trial_n":79,"min":105,"max":150,"target":"absent","response":"present","rt":774.5,"correct":false,"confidence":-1},{"trial_n":80,"min":89,"max":166,"target":"present","response":"absent","rt":665.30000001192,"correct":false,"confidence":-1},{"trial_n":81,"min":81,"max":174,"target":"absent","response":"absent","rt":618.59999996424,"correct":true,"confidence":-1},{"trial_n":82,"min":81,"max":174,"target":"absent","response":"absent","rt":744.70000004768,"correct":true,"confidence":-1},{"trial_n":83,"min":89,"max":166,"target":"present","response":"present","rt":322.80000001192,"correct":true,"confidence":-1},{"trial_n":84,"min":89,"max":166,"target":"present","response":"present","rt":941.39999997616,"correct":true,"confidence":-1},{"trial_n":85,"min":97,"max":158,"target":"absent","response":"present","rt":627.60000002384,"correct":false,"confidence":-1},{"trial_n":86,"min":89,"max":166,"target":"present","response":"absent","rt":492.5,"correct":false,"confidence":-1},{"trial_n":87,"min":81,"max":174,"target":"absent","response":"present","rt":576.30000001192,"correct":false,"confidence":-1},{"trial_n":88,"min":73,"max":182,"target":"absent","response":"absent","rt":701.09999996424,"correct":true,"confidence":-1},{"trial_n":89,"min":73,"max":182,"target":"absent","response":"absent","rt":496.5,"correct":true,"confidence":-1},{"trial_n":90,"min":81,"max":174,"target":"absent","response":"absent","rt":538,"correct":true,"confidence":-1},{"trial_n":91,"min":81,"max":174,"target":"present","response":"present","rt":558.09999996424,"correct":true,"confidence":3},{"trial_n":92,"min":85,"max":170,"target":"present","response":"present","rt":230.39999997616,"correct":true,"confidence":5},{"trial_n":93,"min":85,"max":170,"target":"present","response":"present","rt":428.30000001192,"correct":true,"confidence":5},{"trial_n":94,"min":89,"max":166,"target":"absent","response":"absent","rt":1115.5999999642,"correct":true,"confidence":2},{"trial_n":95,"min":89,"max":166,"target":"present","response":"present","rt":749.60000002384,"correct":true,"confidence":3},{"trial_n":96,"min":93,"max":162,"target":"present","response":"present","rt":941.09999996424,"correct":true,"confidence":2},{"trial_n":97,"min":93,"max":162,"target":"present","response":"present","rt":572.10000002384,"correct":true,"confidence":3},{"trial_n":98,"min":97,"max":158,"target":"present","response":"present","rt":633,"correct":true,"confidence":3},{"trial_n":99,"min":97,"max":158,"target":"present","response":"present","rt":1438,"correct":true,"confidence":3},{"trial_n":100,"min":101,"max":154,"target":"absent","response":"present","rt":751.30000001192,"correct":false,"confidence":2},{"trial_n":101,"min":99,"max":156,"target":"present","response":"absent","rt":574.5,"correct":false,"confidence":3},{"trial_n":102,"min":97,"max":158,"target":"absent","response":"absent","rt":540,"correct":true,"confidence":3},{"trial_n":103,"min":97,"max":158,"target":"present","response":"present","rt":1828.1000000238,"correct":true,"confidence":2},{"trial_n":104,"min":99,"max":156,"target":"present","response":"present","rt":651,"correct":true,"confidence":1},{"trial_n":105,"min":99,"max":156,"target":"present","response":"present","rt":658,"correct":true,"confidence":1},{"trial_n":106,"min":101,"max":154,"target":"present","response":"absent","rt":951.59999996424,"correct":false,"confidence":1},{"trial_n":107,"min":99,"max":156,"target":"absent","response":"absent","rt":664.30000001192,"correct":true,"confidence":1},{"trial_n":108,"min":99,"max":156,"target":"present","response":"absent","rt":1194.2000000477,"correct":false,"confidence":3},{"trial_n":109,"min":97,"max":158,"target":"present","response":"absent","rt":749.10000002384,"correct":false,"confidence":2},{"trial_n":110,"min":95,"max":160,"target":"absent","response":"absent","rt":1058.3000000119,"correct":true,"confidence":2},{"trial_n":111,"min":95,"max":160,"target":"present","response":"present","rt":829.80000001192,"correct":true,"confidence":2},{"trial_n":112,"min":96,"max":159,"target":"absent","response":"absent","rt":941,"correct":true,"confidence":2},{"trial_n":113,"min":96,"max":159,"target":"absent","response":"present","rt":710.89999997616,"correct":false,"confidence":1},{"trial_n":114,"min":95,"max":160,"target":"absent","response":"absent","rt":678,"correct":true,"confidence":3},{"trial_n":115,"min":95,"max":160,"target":"absent","response":"absent","rt":720.80000001192,"correct":true,"confidence":1},{"trial_n":116,"min":96,"max":159,"target":"absent","response":"present","rt":756.30000001192,"correct":false,"confidence":1},{"trial_n":117,"min":95,"max":160,"target":"present","response":"present","rt":595.40000003576,"correct":true,"confidence":1},{"trial_n":118,"min":95,"max":160,"target":"present","response":"absent","rt":741.69999998808,"correct":false,"confidence":1},{"trial_n":119,"min":94,"max":161,"target":"present","response":"present","rt":1397.5999999642,"correct":true,"confidence":1},{"trial_n":120,"min":94,"max":161,"target":"absent","response":"absent","rt":2065.5999999642,"correct":true,"confidence":1},{"trial_n":121,"min":95,"max":160,"target":"absent","response":"present","rt":272.30000001192,"correct":false,"confidence":3},{"trial_n":122,"min":94,"max":161,"target":"absent","response":"absent","rt":576.5,"correct":true,"confidence":3},{"trial_n":123,"min":94,"max":161,"target":"present","response":"absent","rt":821,"correct":false,"confidence":2},{"trial_n":124,"min":93,"max":162,"target":"absent","response":"present","rt":1266.5,"correct":false,"confidence":2},{"trial_n":125,"min":92,"max":163,"target":"absent","response":"absent","rt":720.30000001192,"correct":true,"confidence":2},{"trial_n":126,"min":92,"max":163,"target":"absent","response":"absent","rt":779.69999998808,"correct":true,"confidence":2},{"trial_n":127,"min":93,"max":162,"target":"absent","response":"absent","rt":625.40000003576,"correct":true,"confidence":3},{"trial_n":128,"min":93,"max":162,"target":"present","response":"present","rt":744.20000004768,"correct":true,"confidence":3},{"trial_n":129,"min":94,"max":161,"target":"absent","response":"present","rt":1216.5999999642,"correct":false,"confidence":3},{"trial_n":130,"min":93,"max":162,"target":"absent","response":"absent","rt":871.19999998808,"correct":true,"confidence":2},{"trial_n":131,"min":93,"max":162,"target":"absent","response":"absent","rt":425.10000002384,"correct":true,"confidence":4},{"trial_n":132,"min":94,"max":161,"target":"present","response":"absent","rt":722.90000003576,"correct":false,"confidence":3},{"trial_n":133,"min":93,"max":162,"target":"present","response":"present","rt":1348.2999999523,"correct":true,"confidence":1},{"trial_n":134,"min":93,"max":162,"target":"present","response":"absent","rt":526.80000001192,"correct":false,"confidence":1},{"trial_n":135,"min":92,"max":163,"target":"absent","response":"present","rt":1030.5,"correct":false,"confidence":1},{"trial_n":136,"min":91,"max":164,"target":"absent","response":"present","rt":529.40000003576,"correct":false,"confidence":1},{"trial_n":137,"min":90,"max":165,"target":"present","response":"present","rt":503.89999997616,"correct":true,"confidence":1},{"trial_n":138,"min":90,"max":165,"target":"absent","response":"present","rt":1321.1999999881,"correct":false,"confidence":1},{"trial_n":139,"min":89,"max":166,"target":"present","response":"absent","rt":855.09999996424,"correct":false,"confidence":2},{"trial_n":140,"min":88,"max":167,"target":"present","response":"present","rt":808.60000002384,"correct":true,"confidence":3}]