[{"trial_n":1,"n_dots":4.25,"target":"right","response":"right","rt":5340.8999999762,"correct":true,"confidence":-1},{"trial_n":2,"n_dots":4.25,"target":"right","response":"right","rt":1579.1000000238,"correct":true,"confidence":-1},{"trial_n":3,"n_dots":3.85,"target":"left","response":"left","rt":1163.2999999523,"correct":true,"confidence":-1},{"trial_n":4,"n_dots":3.85,"target":"right","response":"left","rt":906.10000002384,"correct":false,"confidence":-1},{"trial_n":5,"n_dots":4.25,"target":"right","response":"right","rt":501.20000004768,"correct":true,"confidence":-1},{"trial_n":6,"n_dots":4.25,"target":"right","response":"right","rt":623,"correct":true,"confidence":-1},{"trial_n":7,"n_dots":3.85,"target":"right","response":"right","rt":621.89999997616,"correct":true,"confidence":-1},{"trial_n":8,"n_dots":3.85,"target":"right","response":"right","rt":390.10000002384,"correct":true,"confidence":-1},{"trial_n":9,"n_dots":3.65,"target":"right","response":"left","rt":373.10000002384,"correct":false,"confidence":-1},{"trial_n":10,"n_dots":3.85,"target":"right","response":"right","rt":185.70000004768,"correct":true,"confidence":-1},{"trial_n":11,"n_dots":3.85,"target":"left","response":"left","rt":92.600000023842,"correct":true,"confidence":-1},{"trial_n":12,"n_dots":3.65,"target":"right","response":"left","rt":1484.7000000477,"correct":false,"confidence":-1},{"trial_n":13,"n_dots":3.75,"target":"right","response":"right","rt":279.89999997616,"correct":true,"confidence":-1},{"trial_n":14,"n_dots":3.75,"target":"left","response":"left","rt":555.79999995232,"correct":true,"confidence":-1},{"trial_n":15,"n_dots":3.65,"target":"left","response":"left","rt":381.5,"correct":true,"confidence":-1},{"trial_n":16,"n_dots":3.65,"target":"left","response":"right","rt":1105,"correct":false,"confidence":-1},{"trial_n":17,"n_dots":3.75,"target":"right","response":"right","rt":372.79999995232,"correct":true,"confidence":-1},{"trial_n":18,"n_dots":3.75,"target":"left","response":"left","rt":737.60000002384,"correct":true,"confidence":-1},{"trial_n":19,"n_dots":3.65,"target":"left","response":"left","rt":288.30000007153,"correct":true,"confidence":-1},{"trial_n":20,"n_dots":3.65,"target":"left","response":"right","rt":61.299999952316,"correct":false,"confidence":-1},{"trial_n":21,"n_dots":3.75,"target":"right","response":"left","rt":592.89999997616,"correct":false,"confidence":3},{"trial_n":22,"n_dots":3.85,"target":"right","response":"right","rt":1429.7999999523,"correct":true,"confidence":3},{"trial_n":23,"n_dots":3.85,"target":"right","response":"right","rt":830.60000002384,"correct":true,"confidence":4},{"trial_n":24,"n_dots":3.75,"target":"left","response":"left","rt":785.80000007153,"correct":true,"confidence":5},{"trial_n":25,"n_dots":3.75,"target":"right","response":"right","rt":305.5,"correct":true,"confidence":4},{"trial_n":26,"n_dots":3.65,"target":"left","response":"left","rt":285.29999995232,"correct":true,"confidence":5},{"trial_n":27,"n_dots":3.65,"target":"right","response":"left","rt":885.60000002384,"correct":false,"confidence":4},{"trial_n":28,"n_dots":3.75,"target":"left","response":"left","rt":515.70000004768,"correct":true,"confidence":5},{"trial_n":29,"n_dots":3.75,"target":"left","response":"left","rt":344.5,"correct":true,"confidence":3},{"trial_n":30,"n_dots":3.65,"target":"right","response":"left","rt":430.70000004768,"correct":false,"confidence":4},{"trial_n":31,"n_dots":3.75,"target":"left","response":"left","rt":279.69999992847,"correct":true,"confidence":5},{"trial_n":32,"n_dots":3.75,"target":"right","response":"left","rt":475.10000002384,"correct":false,"confidence":4},{"trial_n":33,"n_dots":3.85,"target":"right","response":"right","rt":62.399999976158,"correct":true,"confidence":4},{"trial_n":34,"n_dots":3.85,"target":"left","response":"left","rt":82.199999928474,"correct":true,"confidence":5},{"trial_n":35,"n_dots":3.75,"target":"left","response":"left","rt":2555.7000000477,"correct":true,"confidence":5},{"trial_n":36,"n_dots":3.75,"target":"right","response":"left","rt":498.80000007153,"correct":false,"confidence":5},{"trial_n":37,"n_dots":3.85,"target":"left","response":"left","rt":11.399999976158,"correct":true,"confidence":5},{"trial_n":38,"n_dots":3.85,"target":"right","response":"right","rt":1311.1000000238,"correct":true,"confidence":5},{"trial_n":39,"n_dots":3.75,"target":"left","response":"left","rt":225.89999997616,"correct":true,"confidence":5},{"trial_n":40,"n_dots":3.75,"target":"right","response":"left","rt":208,"correct":false,"confidence":5},{"trial_n":41,"n_dots":3.85,"target":"right","response":"right","rt":1297.3999999762,"correct":true,"confidence":4},{"trial_n":42,"n_dots":3.85,"target":"left","response":"left","rt":304.39999997616,"correct":true,"confidence":3},{"trial_n":43,"n_dots":3.75,"target":"left","response":"left","rt":293.30000007153,"correct":true,"confidence":5},{"trial_n":44,"n_dots":3.75,"target":"right","response":"right","rt":408.30000007153,"correct":true,"confidence":4},{"trial_n":45,"n_dots":3.65,"target":"left","response":"left","rt":943.60000002384,"correct":true,"confidence":4},{"trial_n":46,"n_dots":3.65,"target":"right","response":"right","rt":309.5,"correct":true,"confidence":3},{"trial_n":47,"n_dots":3.55,"target":"right","response":"right","rt":546.5,"correct":true,"confidence":4},{"trial_n":48,"n_dots":3.55,"target":"right","response":"right","rt":2737.2999999523,"correct":true,"confidence":3},{"trial_n":49,"n_dots":3.45,"target":"left","response":"left","rt":588,"correct":true,"confidence":3},{"trial_n":50,"n_dots":3.45,"target":"right","response":"right","rt":876.60000002384,"correct":true,"confidence":4},{"trial_n":51,"n_dots":3.35,"target":"left","response":"left","rt":633.89999997616,"correct":true,"confidence":4},{"trial_n":52,"n_dots":3.35,"target":"left","response":"left","rt":341.5,"correct":true,"confidence":5},{"trial_n":53,"n_dots":3.25,"target":"left","response":"left","rt":343.30000007153,"correct":true,"confidence":4},{"trial_n":54,"n_dots":3.25,"target":"left","response":"left","rt":550.09999990463,"correct":true,"confidence":4},{"trial_n":55,"n_dots":3.15,"target":"right","response":"right","rt":476.29999995232,"correct":true,"confidence":3},{"trial_n":56,"n_dots":3.15,"target":"left","response":"left","rt":370.10000002384,"correct":true,"confidence":5},{"trial_n":57,"n_dots":3.05,"target":"right","response":"left","rt":1837.5,"correct":false,"confidence":2},{"trial_n":58,"n_dots":3.15,"target":"left","response":"right","rt":409.89999997616,"correct":false,"confidence":4},{"trial_n":59,"n_dots":3.25,"target":"left","response":"right","rt":606.39999997616,"correct":false,"confidence":2},{"trial_n":60,"n_dots":3.35,"target":"right","response":"right","rt":1088.7000000477,"correct":true,"confidence":3},{"trial_n":61,"n_dots":3.35,"target":"left","response":"left","rt":438.40000009537,"correct":true,"confidence":3},{"trial_n":62,"n_dots":3.25,"target":"left","response":"left","rt":325.19999992847,"correct":true,"confidence":4},{"trial_n":63,"n_dots":3.25,"target":"left","response":"left","rt":1266.2999999523,"correct":true,"confidence":2},{"trial_n":64,"n_dots":3.15,"target":"right","response":"right","rt":547.10000002384,"correct":true,"confidence":3},{"trial_n":65,"n_dots":3.15,"target":"left","response":"left","rt":5758,"correct":true,"confidence":1},{"trial_n":66,"n_dots":3.05,"target":"right","response":"right","rt":159.39999997616,"correct":true,"confidence":3},{"trial_n":67,"n_dots":3.05,"target":"left","response":"left","rt":350.5,"correct":true,"confidence":5},{"trial_n":68,"n_dots":2.95,"target":"right","response":"right","rt":1055.8000000715,"correct":true,"confidence":3},{"trial_n":69,"n_dots":2.95,"target":"right","response":"right","rt":881.80000007153,"correct":true,"confidence":3},{"trial_n":70,"n_dots":2.85,"target":"left","response":"right","rt":1227.2000000477,"correct":false,"confidence":2},{"trial_n":71,"n_dots":2.95,"target":"left","response":"left","rt":279.80000007153,"correct":true,"confidence":4},{"trial_n":72,"n_dots":2.95,"target":"right","response":"right","rt":487.10000002384,"correct":true,"confidence":3},{"trial_n":73,"n_dots":2.85,"target":"left","response":"right","rt":833.60000002384,"correct":false,"confidence":4},{"trial_n":74,"n_dots":2.95,"target":"left","response":"right","rt":1677.8999999762,"correct":false,"confidence":3},{"trial_n":75,"n_dots":3.05,"target":"left","response":"right","rt":1205.2999999523,"correct":false,"confidence":3},{"trial_n":76,"n_dots":3.15,"target":"left","response":"right","rt":2320.4000000954,"correct":false,"confidence":3},{"trial_n":77,"n_dots":3.25,"target":"right","response":"right","rt":361.10000002384,"correct":true,"confidence":5},{"trial_n":78,"n_dots":3.25,"target":"left","response":"right","rt":1501.5,"correct":false,"confidence":3},{"trial_n":79,"n_dots":3.35,"target":"left","response":"left","rt":350.60000002384,"correct":true,"confidence":5},{"trial_n":80,"n_dots":3.35,"target":"left","response":"left","rt":535.79999995232,"correct":true,"confidence":3},{"trial_n":81,"n_dots":3.25,"target":"left","response":"left","rt":1674.9000000954,"correct":true,"confidence":3},{"trial_n":82,"n_dots":3.25,"target":"left","response":"left","rt":482.20000004768,"correct":true,"confidence":5},{"trial_n":83,"n_dots":3.15,"target":"right","response":"left","rt":1932.1000000238,"correct":false,"confidence":3},{"trial_n":84,"n_dots":3.25,"target":"left","response":"left","rt":1151,"correct":true,"confidence":3},{"trial_n":85,"n_dots":3.25,"target":"right","response":"right","rt":2708.2000000477,"correct":true,"confidence":3},{"trial_n":86,"n_dots":3.15,"target":"right","response":"right","rt":585.29999995232,"correct":true,"confidence":5},{"trial_n":87,"n_dots":3.15,"target":"right","response":"right","rt":300.89999997616,"correct":true,"confidence":4},{"trial_n":88,"n_dots":3.05,"target":"left","response":"left","rt":353.39999997616,"correct":true,"confidence":5},{"trial_n":89,"n_dots":3.05,"target":"right","response":"left","rt":846.79999995232,"correct":false,"confidence":3},{"trial_n":90,"n_dots":3.15,"target":"left","response":"left","rt":1710,"correct":true,"confidence":2},{"trial_n":91,"n_dots":3.15,"target":"right","response":"right","rt":381.89999997616,"correct":true,"confidence":4},{"trial_n":92,"n_dots":3.05,"target":"right","response":"right","rt":3893.8999999762,"correct":true,"confidence":2},{"trial_n":93,"n_dots":3.05,"target":"right","response":"left","rt":482.30000007153,"correct":false,"confidence":4},{"trial_n":94,"n_dots":3.15,"target":"right","response":"right","rt":397.29999995232,"correct":true,"confidence":3},{"trial_n":95,"n_dots":3.15,"target":"right","response":"left","rt":327.19999992847,"correct":false,"confidence":2},{"trial_n":96,"n_dots":3.25,"target":"left","response":"left","rt":253.10000002384,"correct":true,"confidence":4},{"trial_n":97,"n_dots":3.25,"target":"left","response":"left","rt":270.19999992847,"correct":true,"confidence":5},{"trial_n":98,"n_dots":3.15,"target":"right","response":"left","rt":377.39999997616,"correct":false,"confidence":4},{"trial_n":99,"n_dots":3.25,"target":"right","response":"right","rt":1694.9000000954,"correct":true,"confidence":3},{"trial_n":100,"n_dots":3.25,"target":"right","response":"left","rt":770.89999997616,"correct":false,"confidence":3},{"trial_n":101,"n_dots":3.35,"target":"right","response":"right","rt":647.69999992847,"correct":true,"confidence":3},{"trial_n":102,"n_dots":3.35,"target":"right","response":"left","rt":248.39999997616,"correct":false,"confidence":3},{"trial_n":103,"n_dots":3.45,"target":"left","response":"left","rt":174.5,"correct":true,"confidence":5},{"trial_n":104,"n_dots":3.45,"target":"left","response":"left","rt":246.29999995232,"correct":true,"confidence":4},{"trial_n":105,"n_dots":3.35,"target":"left","response":"left","rt":252.39999997616,"correct":true,"confidence":3},{"trial_n":106,"n_dots":3.35,"target":"left","response":"left","rt":319.70000004768,"correct":true,"confidence":4},{"trial_n":107,"n_dots":3.25,"target":"right","response":"left","rt":1573.5,"correct":false,"confidence":2},{"trial_n":108,"n_dots":3.35,"target":"left","response":"left","rt":252.60000002384,"correct":true,"confidence":4},{"trial_n":109,"n_dots":3.35,"target":"right","response":"left","rt":665.5,"correct":false,"confidence":3},{"trial_n":110,"n_dots":3.45,"target":"left","response":"left","rt":893.59999990463,"correct":true,"confidence":4},{"trial_n":111,"n_dots":3.45,"target":"left","response":"left","rt":117.89999997616,"correct":true,"confidence":5},{"trial_n":112,"n_dots":3.35,"target":"left","response":"left","rt":56.899999976158,"correct":true,"confidence":5},{"trial_n":113,"n_dots":3.35,"target":"left","response":"left","rt":289.29999995232,"correct":true,"confidence":4},{"trial_n":114,"n_dots":3.25,"target":"right","response":"right","rt":348.19999992847,"correct":true,"confidence":4},{"trial_n":115,"n_dots":3.25,"target":"left","response":"left","rt":127.29999995232,"correct":true,"confidence":1},{"trial_n":116,"n_dots":3.15,"target":"right","response":"right","rt":391.89999997616,"correct":true,"confidence":3},{"trial_n":117,"n_dots":3.15,"target":"right","response":"left","rt":662,"correct":false,"confidence":3},{"trial_n":118,"n_dots":3.25,"target":"right","response":"right","rt":9.8999999761581,"correct":true,"confidence":4},{"trial_n":119,"n_dots":3.25,"target":"right","response":"right","rt":267.89999997616,"correct":true,"confidence":3},{"trial_n":120,"n_dots":3.15,"target":"left","response":"right","rt":387.20000004768,"correct":false,"confidence":3}]