[{"trial_n":1,"span":8,"encoder":"89601102","distractor":"89602102","target":"present","response":"absent","rt":"4083","correct":false,"confidence":-1},{"trial_n":2,"span":6,"encoder":"428078","distractor":"428048","target":"present","response":"present","rt":"2501.3999999762","correct":true,"confidence":-1},{"trial_n":3,"span":6,"encoder":"897456","distractor":"897426","target":"absent","response":"absent","rt":"3608.2000000477","correct":true,"confidence":-1},{"trial_n":4,"span":8,"encoder":"46934271","distractor":"46954271","target":"absent","response":"absent","rt":"3279.1999999285","correct":true,"confidence":-1},{"trial_n":5,"span":8,"encoder":"71075589","distractor":"75075589","target":"present","response":"present","rt":"2934.6000000238","correct":true,"confidence":-1},{"trial_n":6,"span":10,"encoder":"8308242089","distractor":"8302242089","target":"present","response":"present","rt":"3619.7999999523","correct":true,"confidence":-1},{"trial_n":7,"span":10,"encoder":"2279232212","distractor":"2279232242","target":"present","response":"absent","rt":"3201.8999999762","correct":false,"confidence":-1},{"trial_n":8,"span":8,"encoder":"11825286","distractor":"11824286","target":"absent","response":"absent","rt":"4932.1999999285","correct":true,"confidence":-1},{"trial_n":9,"span":8,"encoder":"31824513","distractor":"31824512","target":"present","response":"present","rt":"2291.3999999762","correct":true,"confidence":-1},{"trial_n":10,"span":10,"encoder":"8549612223","distractor":"7549612223","target":"absent","response":"absent","rt":"2781.6999999285","correct":true,"confidence":-1},{"trial_n":11,"span":10,"encoder":"7014843446","distractor":"7054843446","target":"present","response":"present","rt":"2172.7999999523","correct":true,"confidence":-1},{"trial_n":12,"span":11,"encoder":"50263604879","distractor":"70263604879","target":"present","response":"present","rt":"2247.1000000238","correct":true,"confidence":-1},{"trial_n":13,"span":11,"encoder":"92958819896","distractor":"92958812896","target":"absent","response":"present","rt":"3637.1000000238","correct":false,"confidence":-1},{"trial_n":14,"span":10,"encoder":"9295522643","distractor":"9299522643","target":"absent","response":"absent","rt":"3706.1999999285","correct":true,"confidence":-1},{"trial_n":15,"span":10,"encoder":"0235335671","distractor":"7235335671","target":"present","response":"present","rt":"2120.8999999762","correct":true,"confidence":-1},{"trial_n":16,"span":11,"encoder":"15473263562","distractor":"15473663562","target":"absent","response":"present","rt":"3885.2000000477","correct":false,"confidence":-1},{"trial_n":17,"span":10,"encoder":"4151782816","distractor":"5151782816","target":"absent","response":"present","rt":"1929.3000000715","correct":false,"confidence":-1},{"trial_n":18,"span":9,"encoder":"786950665","distractor":"786150665","target":"present","response":"present","rt":"2221.5","correct":true,"confidence":-1},{"trial_n":19,"span":9,"encoder":"930875997","distractor":"930175997","target":"present","response":"present","rt":"3056.6999999285","correct":true,"confidence":-1},{"trial_n":20,"span":10,"encoder":"1904195259","distractor":"1304195259","target":"absent","response":"absent","rt":"2577.3999999762","correct":true,"confidence":-1},{"trial_n":21,"span":10,"encoder":"6521712698","distractor":"2521712698","target":"absent","response":"present","rt":"2508","correct":false,"confidence":3},{"trial_n":22,"span":9,"encoder":"205518865","distractor":"203518865","target":"present","response":"present","rt":"4816.3000000715","correct":true,"confidence":3},{"trial_n":23,"span":9,"encoder":"843824401","distractor":"873824401","target":"present","response":"present","rt":"3797.7999999523","correct":true,"confidence":4},{"trial_n":24,"span":10,"encoder":"9398981479","distractor":"8398981479","target":"absent","response":"present","rt":"6714.8999999762","correct":false,"confidence":4},{"trial_n":25,"span":9,"encoder":"600692157","distractor":"600692158","target":"absent","response":"present","rt":"3660.8999999762","correct":false,"confidence":5},{"trial_n":26,"span":8,"encoder":"54744565","distractor":"50744565","target":"absent","response":"absent","rt":"2556.8999999762","correct":true,"confidence":5},{"trial_n":27,"span":8,"encoder":"16279744","distractor":"56279744","target":"present","response":"present","rt":"3092.7000000477","correct":true,"confidence":5},{"trial_n":28,"span":9,"encoder":"749830988","distractor":"749830968","target":"present","response":"present","rt":"3807.6000000238","correct":true,"confidence":5},{"trial_n":29,"span":9,"encoder":"718083627","distractor":"748083627","target":"present","response":"present","rt":"4580","correct":true,"confidence":5},{"trial_n":30,"span":10,"encoder":"5544144159","distractor":"5549144159","target":"present","response":"absent","rt":"5204.9000000954","correct":false,"confidence":4},{"trial_n":31,"span":9,"encoder":"929246894","distractor":"928246894","target":"absent","response":"absent","rt":"6539.3999999762","correct":true,"confidence":3},{"trial_n":32,"span":9,"encoder":"908991930","distractor":"905991930","target":"present","response":"present","rt":"3216.3999999762","correct":true,"confidence":4},{"trial_n":33,"span":10,"encoder":"0264733027","distractor":"0964733027","target":"present","response":"present","rt":"4796.5","correct":true,"confidence":3},{"trial_n":34,"span":10,"encoder":"5419378637","distractor":"5419371637","target":"absent","response":"absent","rt":"4635.2999999523","correct":true,"confidence":3},{"trial_n":35,"span":11,"encoder":"69167270722","distractor":"39167270722","target":"absent","response":"present","rt":"6303.4000000954","correct":false,"confidence":2},{"trial_n":36,"span":10,"encoder":"2288252874","distractor":"2288252854","target":"absent","response":"absent","rt":"2796.3999999762","correct":true,"confidence":5},{"trial_n":37,"span":10,"encoder":"2226207631","distractor":"2226607631","target":"present","response":"present","rt":"3616.1999999285","correct":true,"confidence":3},{"trial_n":38,"span":11,"encoder":"27472010685","distractor":"27472010684","target":"present","response":"present","rt":"2044.7999999523","correct":true,"confidence":3},{"trial_n":39,"span":11,"encoder":"07872185587","distractor":"07872185577","target":"present","response":"present","rt":"3739.7999999523","correct":true,"confidence":3},{"trial_n":40,"span":12,"encoder":"155397521552","distractor":"153397521552","target":"absent","response":"absent","rt":"2926.1000000238","correct":true,"confidence":2},{"trial_n":41,"span":12,"encoder":"540290243000","distractor":"540260243000","target":"present","response":"present","rt":"3774.6000000238","correct":true,"confidence":3},{"trial_n":42,"span":13,"encoder":"7733757045570","distractor":"7733757045470","target":"present","response":"present","rt":"4817.8000000715","correct":true,"confidence":3},{"trial_n":43,"span":13,"encoder":"0371990639064","distractor":"0371990669064","target":"present","response":"present","rt":"6846","correct":true,"confidence":2},{"trial_n":44,"span":14,"encoder":"67476182656325","distractor":"67876182656325","target":"present","response":"absent","rt":"4950","correct":false,"confidence":2},{"trial_n":45,"span":13,"encoder":"3922902120224","distractor":"3982902120224","target":"absent","response":"present","rt":"6346.1999999285","correct":false,"confidence":3},{"trial_n":46,"span":12,"encoder":"223285185552","distractor":"223285985552","target":"present","response":"present","rt":"4927.6000000238","correct":true,"confidence":4},{"trial_n":47,"span":12,"encoder":"669946516448","distractor":"669946516441","target":"absent","response":"present","rt":"9112.8999999762","correct":false,"confidence":3},{"trial_n":48,"span":11,"encoder":"88763528280","distractor":"88763525280","target":"absent","response":"absent","rt":"8353.2999999523","correct":true,"confidence":2},{"trial_n":49,"span":11,"encoder":"94137134779","distractor":"94134134779","target":"present","response":"present","rt":"3846.1000000238","correct":true,"confidence":5},{"trial_n":50,"span":12,"encoder":"714960077342","distractor":"714660077342","target":"present","response":"present","rt":"4786.8999999762","correct":true,"confidence":3},{"trial_n":51,"span":12,"encoder":"225630221406","distractor":"225030221406","target":"absent","response":"present","rt":"5811.8000000715","correct":false,"confidence":3},{"trial_n":52,"span":11,"encoder":"76905358955","distractor":"76505358955","target":"absent","response":"present","rt":"6279.2000000477","correct":false,"confidence":3},{"trial_n":53,"span":10,"encoder":"2842278692","distractor":"2842278092","target":"absent","response":"absent","rt":"3181.5","correct":true,"confidence":5},{"trial_n":54,"span":10,"encoder":"7616616789","distractor":"7618616789","target":"present","response":"absent","rt":"4568.6999999285","correct":false,"confidence":4},{"trial_n":55,"span":9,"encoder":"556755994","distractor":"526755994","target":"absent","response":"absent","rt":"4953.4000000954","correct":true,"confidence":3},{"trial_n":56,"span":9,"encoder":"033150775","distractor":"033158775","target":"absent","response":"present","rt":"2759.3999999762","correct":false,"confidence":3},{"trial_n":57,"span":8,"encoder":"33845415","distractor":"33345415","target":"absent","response":"absent","rt":"4902.5","correct":true,"confidence":3},{"trial_n":58,"span":8,"encoder":"37935137","distractor":"37935437","target":"present","response":"present","rt":"4939.3999999762","correct":true,"confidence":2},{"trial_n":59,"span":9,"encoder":"523760995","distractor":"523760905","target":"present","response":"present","rt":"3720.3000000715","correct":true,"confidence":4},{"trial_n":60,"span":9,"encoder":"912118212","distractor":"952118212","target":"present","response":"present","rt":"6855.3999999762","correct":true,"confidence":4},{"trial_n":61,"span":10,"encoder":"3969886553","distractor":"3469886553","target":"present","response":"absent","rt":"3572.6000000238","correct":false,"confidence":3},{"trial_n":62,"span":9,"encoder":"148375513","distractor":"149375513","target":"absent","response":"absent","rt":"8207.1999999285","correct":true,"confidence":3},{"trial_n":63,"span":9,"encoder":"535509057","distractor":"535509857","target":"present","response":"present","rt":"3326.2000000477","correct":true,"confidence":5},{"trial_n":64,"span":10,"encoder":"2135301964","distractor":"2135901964","target":"absent","response":"present","rt":"6807.7000000477","correct":false,"confidence":1},{"trial_n":65,"span":9,"encoder":"740241284","distractor":"740243284","target":"absent","response":"present","rt":"6184.3000000715","correct":false,"confidence":2},{"trial_n":66,"span":8,"encoder":"64733806","distractor":"64733886","target":"absent","response":"absent","rt":"6280.2000000477","correct":true,"confidence":5},{"trial_n":67,"span":8,"encoder":"80461696","distractor":"80468696","target":"absent","response":"absent","rt":"4725.3999999762","correct":true,"confidence":5},{"trial_n":68,"span":9,"encoder":"209016307","distractor":"209916307","target":"absent","response":"absent","rt":"3821","correct":true,"confidence":4},{"trial_n":69,"span":9,"encoder":"406019882","distractor":"406019832","target":"absent","response":"absent","rt":"4742","correct":true,"confidence":5},{"trial_n":70,"span":10,"encoder":"7290903647","distractor":"7290903697","target":"present","response":"present","rt":"5278.3999999762","correct":true,"confidence":4},{"trial_n":71,"span":8,"encoder":"82093192","distractor":"82033192","target":"present","response":"present","rt":"4344.3999999762","correct":true,"confidence":-1},{"trial_n":72,"span":8,"encoder":"18697585","distractor":"18677585","target":"present","response":"present","rt":"3913.1999999285","correct":true,"confidence":-1},{"trial_n":73,"span":9,"encoder":"833119412","distractor":"883119412","target":"absent","response":"absent","rt":"2116.7000000477","correct":true,"confidence":-1},{"trial_n":74,"span":9,"encoder":"369247758","distractor":"359247758","target":"absent","response":"present","rt":"7130.6000000238","correct":false,"confidence":-1},{"trial_n":75,"span":8,"encoder":"19994838","distractor":"10994838","target":"present","response":"present","rt":"2183.8999999762","correct":true,"confidence":-1},{"trial_n":76,"span":8,"encoder":"23459013","distractor":"63459013","target":"present","response":"present","rt":"1923.1000000238","correct":true,"confidence":-1},{"trial_n":77,"span":9,"encoder":"872303613","distractor":"872703613","target":"present","response":"present","rt":"3047.7999999523","correct":true,"confidence":-1},{"trial_n":78,"span":9,"encoder":"721422232","distractor":"921422232","target":"present","response":"present","rt":"3099.2000000477","correct":true,"confidence":-1},{"trial_n":79,"span":10,"encoder":"4768093117","distractor":"4768093157","target":"absent","response":"absent","rt":"1662.7000000477","correct":true,"confidence":-1},{"trial_n":80,"span":10,"encoder":"9141091195","distractor":"9141091125","target":"present","response":"present","rt":"1912","correct":true,"confidence":-1},{"trial_n":81,"span":11,"encoder":"01047814433","distractor":"01047814133","target":"present","response":"present","rt":"1342.7000000477","correct":true,"confidence":-1},{"trial_n":82,"span":11,"encoder":"59783400384","distractor":"49783400384","target":"absent","response":"absent","rt":"4148.2999999523","correct":true,"confidence":-1},{"trial_n":83,"span":12,"encoder":"683551671949","distractor":"083551671949","target":"absent","response":"absent","rt":"1237.1000000238","correct":true,"confidence":-1},{"trial_n":84,"span":12,"encoder":"782017399348","distractor":"782014399348","target":"present","response":"present","rt":"5280.5","correct":true,"confidence":-1},{"trial_n":85,"span":13,"encoder":"2709032304665","distractor":"2709032354665","target":"absent","response":"absent","rt":"3412.2999999523","correct":true,"confidence":-1},{"trial_n":86,"span":13,"encoder":"1759782088692","distractor":"1759732088692","target":"present","response":"present","rt":"2365.8000000715","correct":true,"confidence":-1},{"trial_n":87,"span":14,"encoder":"75010026350343","distractor":"73010026350343","target":"absent","response":"present","rt":"3338.8000000715","correct":false,"confidence":-1},{"trial_n":88,"span":13,"encoder":"7040621052344","distractor":"7040621052374","target":"absent","response":"absent","rt":"1222.5","correct":true,"confidence":-1},{"trial_n":89,"span":13,"encoder":"5772256254587","distractor":"5772255254587","target":"absent","response":"absent","rt":"3417.6000000238","correct":true,"confidence":-1},{"trial_n":90,"span":14,"encoder":"66627485050857","distractor":"66627484050857","target":"absent","response":"present","rt":"4147.3999999762","correct":false,"confidence":-1},{"trial_n":91,"span":13,"encoder":"8972625824226","distractor":"8972625823226","target":"present","response":"present","rt":"6586.1000000238","correct":true,"confidence":5},{"trial_n":92,"span":13,"encoder":"4684850937189","distractor":"4984850937189","target":"present","response":"absent","rt":"12186.399999976","correct":false,"confidence":3},{"trial_n":93,"span":12,"encoder":"917196742720","distractor":"917190742720","target":"present","response":"present","rt":"4375.3000000715","correct":true,"confidence":5},{"trial_n":94,"span":12,"encoder":"038501622770","distractor":"038501622772","target":"absent","response":"absent","rt":"30347.699999928","correct":true,"confidence":4},{"trial_n":95,"span":13,"encoder":"8966190582155","distractor":"8916190582155","target":"present","response":"present","rt":"9467.2000000477","correct":true,"confidence":3},{"trial_n":96,"span":13,"encoder":"3285623378818","distractor":"3285623379818","target":"present","response":"present","rt":"5781.1000000238","correct":true,"confidence":5},{"trial_n":97,"span":14,"encoder":"16555016605160","distractor":"16551016605160","target":"absent","response":"absent","rt":"8708.8999999762","correct":true,"confidence":3},{"trial_n":98,"span":14,"encoder":"72571491073146","distractor":"72571491073141","target":"absent","response":"absent","rt":"3782.5","correct":true,"confidence":3},{"trial_n":99,"span":15,"encoder":"796799338659146","distractor":"796799338659446","target":"present","response":"present","rt":"13016.300000072","correct":true,"confidence":2},{"trial_n":100,"span":15,"encoder":"425896522133407","distractor":"425826522133407","target":"absent","response":"present","rt":"16653.200000048","correct":false,"confidence":3},{"trial_n":101,"span":14,"encoder":"17929249702193","distractor":"17929249702198","target":"present","response":"absent","rt":"5421.8000000715","correct":false,"confidence":3},{"trial_n":102,"span":13,"encoder":"5669886518838","distractor":"5669086518838","target":"present","response":"present","rt":"6981.6999999285","correct":true,"confidence":2},{"trial_n":103,"span":13,"encoder":"1906262971402","distractor":"1906262471402","target":"absent","response":"present","rt":"55250.799999952","correct":false,"confidence":1},{"trial_n":104,"span":12,"encoder":"537264809432","distractor":"537264839432","target":"present","response":"absent","rt":"12279","correct":false,"confidence":2},{"trial_n":105,"span":11,"encoder":"34186051246","distractor":"24186051246","target":"present","response":"present","rt":"7745.7999999523","correct":true,"confidence":5},{"trial_n":106,"span":11,"encoder":"95874048410","distractor":"95804048410","target":"absent","response":"absent","rt":"10709.200000048","correct":true,"confidence":4},{"trial_n":107,"span":12,"encoder":"183265492046","distractor":"183265498046","target":"absent","response":"absent","rt":"6048.6000000238","correct":true,"confidence":3},{"trial_n":108,"span":12,"encoder":"871874161989","distractor":"871874111989","target":"present","response":"present","rt":"8384.5","correct":true,"confidence":5},{"trial_n":109,"span":13,"encoder":"3294064606632","distractor":"3294064606732","target":"absent","response":"absent","rt":"3235","correct":true,"confidence":5},{"trial_n":110,"span":13,"encoder":"2118350326324","distractor":"2518350326324","target":"present","response":"present","rt":"6447.5","correct":true,"confidence":4},{"trial_n":111,"span":14,"encoder":"19886296957312","distractor":"19888296957312","target":"present","response":"present","rt":"13389.700000048","correct":true,"confidence":3},{"trial_n":112,"span":14,"encoder":"85816697947837","distractor":"85816697947807","target":"absent","response":"present","rt":"2922.3999999762","correct":false,"confidence":4},{"trial_n":113,"span":13,"encoder":"3536118827803","distractor":"3536118827823","target":"present","response":"present","rt":"18821.600000024","correct":true,"confidence":3},{"trial_n":114,"span":13,"encoder":"9459305729413","distractor":"9459305229413","target":"present","response":"present","rt":"7960.7999999523","correct":true,"confidence":4},{"trial_n":115,"span":14,"encoder":"08382870714295","distractor":"08382870714395","target":"absent","response":"present","rt":"6844.8999999762","correct":false,"confidence":3},{"trial_n":116,"span":13,"encoder":"8067823722756","distractor":"8067823422756","target":"present","response":"absent","rt":"15537.299999952","correct":false,"confidence":2},{"trial_n":117,"span":12,"encoder":"847599312887","distractor":"547599312887","target":"absent","response":"absent","rt":"6905.4000000954","correct":true,"confidence":3},{"trial_n":118,"span":12,"encoder":"760860780268","distractor":"760960780268","target":"absent","response":"present","rt":"8181.2999999523","correct":false,"confidence":3},{"trial_n":119,"span":11,"encoder":"94510597182","distractor":"74510597182","target":"absent","response":"present","rt":"6085.8999999762","correct":false,"confidence":4},{"trial_n":120,"span":10,"encoder":"8930380052","distractor":"8930380050","target":"present","response":"present","rt":"8233.7999999523","correct":true,"confidence":4},{"trial_n":121,"span":10,"encoder":"7935410125","distractor":"7939410125","target":"absent","response":"present","rt":"7732.5999999046","correct":false,"confidence":3},{"trial_n":122,"span":9,"encoder":"676843767","distractor":"676843757","target":"absent","response":"absent","rt":"2353.3999999762","correct":true,"confidence":3},{"trial_n":123,"span":9,"encoder":"259504423","distractor":"259004423","target":"absent","response":"absent","rt":"5189","correct":true,"confidence":5},{"trial_n":124,"span":10,"encoder":"6133452778","distractor":"6133452768","target":"present","response":"present","rt":"3892.7999999523","correct":true,"confidence":5},{"trial_n":125,"span":10,"encoder":"7205366286","distractor":"7205362286","target":"present","response":"absent","rt":"3616","correct":false,"confidence":5},{"trial_n":126,"span":9,"encoder":"672249963","distractor":"632249963","target":"present","response":"present","rt":"4865.1000000238","correct":true,"confidence":4},{"trial_n":127,"span":9,"encoder":"685509591","distractor":"685509595","target":"absent","response":"absent","rt":"1773.1000000238","correct":true,"confidence":5},{"trial_n":128,"span":10,"encoder":"4991219939","distractor":"4991210939","target":"present","response":"present","rt":"2159.5","correct":true,"confidence":5},{"trial_n":129,"span":10,"encoder":"2385748664","distractor":"2385748624","target":"present","response":"present","rt":"7530.7000000477","correct":true,"confidence":3},{"trial_n":130,"span":11,"encoder":"07906861945","distractor":"07606861945","target":"present","response":"present","rt":"4143","correct":true,"confidence":5},{"trial_n":131,"span":11,"encoder":"41284163239","distractor":"41281163239","target":"absent","response":"present","rt":"5345.5","correct":false,"confidence":1},{"trial_n":132,"span":10,"encoder":"3524145843","distractor":"3524145842","target":"present","response":"present","rt":"3831","correct":true,"confidence":5},{"trial_n":133,"span":10,"encoder":"9016299186","distractor":"9616299186","target":"present","response":"present","rt":"5121.7000000477","correct":true,"confidence":5},{"trial_n":134,"span":11,"encoder":"99207217037","distractor":"99287217037","target":"present","response":"present","rt":"5822.7000000477","correct":true,"confidence":4},{"trial_n":135,"span":11,"encoder":"80018067922","distractor":"80038067922","target":"absent","response":"absent","rt":"5038.5","correct":true,"confidence":4},{"trial_n":136,"span":12,"encoder":"292016089761","distractor":"292056089761","target":"absent","response":"absent","rt":"7872","correct":true,"confidence":4},{"trial_n":137,"span":12,"encoder":"952194065729","distractor":"942194065729","target":"absent","response":"absent","rt":"3310.5","correct":true,"confidence":5},{"trial_n":138,"span":13,"encoder":"3257751897835","distractor":"3257751891835","target":"absent","response":"present","rt":"18771.899999976","correct":false,"confidence":2},{"trial_n":139,"span":12,"encoder":"699768214307","distractor":"691768214307","target":"absent","response":"absent","rt":"6881.7999999523","correct":true,"confidence":4},{"trial_n":140,"span":12,"encoder":"190767518898","distractor":"194767518898","target":"absent","response":"absent","rt":"4016.8000000715","correct":true,"confidence":5}]