[{"trial_n":1,"span":8,"encoder":"18098905","distractor":"48098905","target":"present","response":"present","rt":"5647.400000006","correct":true,"confidence":-1},{"trial_n":2,"span":8,"encoder":"22652815","distractor":"22652615","target":"present","response":"absent","rt":"3084.400000006","correct":false,"confidence":-1},{"trial_n":3,"span":6,"encoder":"107734","distractor":"108734","target":"absent","response":"absent","rt":"2478.900000006","correct":true,"confidence":-1},{"trial_n":4,"span":6,"encoder":"815568","distractor":"815558","target":"absent","response":"absent","rt":"2232.900000006","correct":true,"confidence":-1},{"trial_n":5,"span":8,"encoder":"55672276","distractor":"05672276","target":"present","response":"present","rt":"3889.7999999821","correct":true,"confidence":-1},{"trial_n":6,"span":8,"encoder":"76962774","distractor":"76982774","target":"absent","response":"present","rt":"2710.8000000119","correct":false,"confidence":-1},{"trial_n":7,"span":6,"encoder":"198327","distractor":"198347","target":"absent","response":"absent","rt":"3269.6000000238","correct":true,"confidence":-1},{"trial_n":8,"span":6,"encoder":"533507","distractor":"533207","target":"present","response":"present","rt":"1881.1999999881","correct":true,"confidence":-1},{"trial_n":9,"span":8,"encoder":"82930580","distractor":"82030580","target":"present","response":"present","rt":"2545.6999999881","correct":true,"confidence":-1},{"trial_n":10,"span":8,"encoder":"47930730","distractor":"47030730","target":"absent","response":"present","rt":"2860.1999999881","correct":false,"confidence":-1},{"trial_n":11,"span":6,"encoder":"513994","distractor":"513794","target":"absent","response":"absent","rt":"2960","correct":true,"confidence":-1},{"trial_n":12,"span":6,"encoder":"652263","distractor":"652273","target":"absent","response":"present","rt":"2926.8999999762","correct":false,"confidence":-1},{"trial_n":13,"span":5,"encoder":"09184","distractor":"19184","target":"absent","response":"absent","rt":"4289","correct":true,"confidence":-1},{"trial_n":14,"span":5,"encoder":"31114","distractor":"41114","target":"present","response":"present","rt":"2224.7999999821","correct":true,"confidence":-1},{"trial_n":15,"span":6,"encoder":"708060","distractor":"508060","target":"absent","response":"present","rt":"3469.7999999821","correct":false,"confidence":-1},{"trial_n":16,"span":5,"encoder":"80111","distractor":"40111","target":"present","response":"present","rt":"1733.8000000119","correct":true,"confidence":-1},{"trial_n":17,"span":5,"encoder":"41893","distractor":"41393","target":"present","response":"present","rt":"2368.1999999881","correct":true,"confidence":-1},{"trial_n":18,"span":6,"encoder":"527924","distractor":"127924","target":"absent","response":"absent","rt":"2472.599999994","correct":true,"confidence":-1},{"trial_n":19,"span":6,"encoder":"138117","distractor":"136117","target":"absent","response":"absent","rt":"2284.6999999881","correct":true,"confidence":-1},{"trial_n":20,"span":7,"encoder":"7396713","distractor":"7096713","target":"absent","response":"absent","rt":"1856.599999994","correct":true,"confidence":-1},{"trial_n":21,"span":7,"encoder":"3298388","distractor":"3298338","target":"present","response":"present","rt":"4323","correct":true,"confidence":2},{"trial_n":22,"span":8,"encoder":"34636221","distractor":"34638221","target":"present","response":"present","rt":"2885.1999999881","correct":true,"confidence":3},{"trial_n":23,"span":8,"encoder":"36914852","distractor":"36914853","target":"present","response":"absent","rt":"3674.1000000238","correct":false,"confidence":3},{"trial_n":24,"span":7,"encoder":"6364485","distractor":"6364085","target":"present","response":"present","rt":"3429.1000000238","correct":true,"confidence":5},{"trial_n":25,"span":7,"encoder":"4635173","distractor":"4633173","target":"absent","response":"absent","rt":"2688.5","correct":true,"confidence":4},{"trial_n":26,"span":8,"encoder":"87855819","distractor":"82855819","target":"present","response":"present","rt":"4104.3000000119","correct":true,"confidence":5},{"trial_n":27,"span":8,"encoder":"80337206","distractor":"80335206","target":"absent","response":"absent","rt":"4999.400000006","correct":true,"confidence":3},{"trial_n":28,"span":9,"encoder":"206626709","distractor":"106626709","target":"present","response":"present","rt":"4145.5","correct":true,"confidence":2},{"trial_n":29,"span":9,"encoder":"572089086","distractor":"572089006","target":"absent","response":"absent","rt":"2313.6999999881","correct":true,"confidence":3},{"trial_n":30,"span":10,"encoder":"1305496945","distractor":"1305491945","target":"absent","response":"absent","rt":"1613.3000000119","correct":true,"confidence":2},{"trial_n":31,"span":10,"encoder":"7941991082","distractor":"7941991982","target":"absent","response":"absent","rt":"2130.8000000119","correct":true,"confidence":4},{"trial_n":32,"span":11,"encoder":"24051055583","distractor":"24251055583","target":"present","response":"present","rt":"3705.6999999881","correct":true,"confidence":3},{"trial_n":33,"span":11,"encoder":"21325942572","distractor":"21321942572","target":"present","response":"absent","rt":"3027.1000000238","correct":false,"confidence":2},{"trial_n":34,"span":10,"encoder":"9731289702","distractor":"9731282702","target":"absent","response":"absent","rt":"5144.8000000119","correct":true,"confidence":3},{"trial_n":35,"span":10,"encoder":"1298390828","distractor":"1298390868","target":"absent","response":"present","rt":"3827.3999999762","correct":false,"confidence":2},{"trial_n":36,"span":9,"encoder":"570544724","distractor":"570564724","target":"present","response":"present","rt":"3823.8000000119","correct":true,"confidence":4},{"trial_n":37,"span":9,"encoder":"319877201","distractor":"319277201","target":"absent","response":"present","rt":"3026.6999999881","correct":false,"confidence":3},{"trial_n":38,"span":8,"encoder":"64865161","distractor":"64845161","target":"present","response":"present","rt":"3438.6999999881","correct":true,"confidence":3},{"trial_n":39,"span":8,"encoder":"41371074","distractor":"41371034","target":"present","response":"present","rt":"6406.9000000358","correct":true,"confidence":4},{"trial_n":40,"span":9,"encoder":"378536973","distractor":"378536673","target":"absent","response":"absent","rt":"2808.1000000238","correct":true,"confidence":2},{"trial_n":41,"span":9,"encoder":"848876860","distractor":"818876860","target":"present","response":"present","rt":"2423.6999999881","correct":true,"confidence":3},{"trial_n":42,"span":10,"encoder":"7523970857","distractor":"7523920857","target":"absent","response":"present","rt":"7349.6999999881","correct":false,"confidence":2},{"trial_n":43,"span":9,"encoder":"824139775","distractor":"884139775","target":"absent","response":"present","rt":"2358.4000000358","correct":false,"confidence":2},{"trial_n":44,"span":8,"encoder":"07820836","distractor":"05820836","target":"present","response":"present","rt":"7794.6999999881","correct":true,"confidence":1},{"trial_n":45,"span":8,"encoder":"30819193","distractor":"30819893","target":"present","response":"present","rt":"2405.4000000358","correct":true,"confidence":3},{"trial_n":46,"span":9,"encoder":"542866576","distractor":"542863576","target":"absent","response":"absent","rt":"2414.7000000477","correct":true,"confidence":5},{"trial_n":47,"span":9,"encoder":"668536570","distractor":"168536570","target":"absent","response":"absent","rt":"1605.8999999762","correct":true,"confidence":5},{"trial_n":48,"span":10,"encoder":"3693013772","distractor":"3693013778","target":"absent","response":"absent","rt":"2318.1000000238","correct":true,"confidence":5},{"trial_n":49,"span":10,"encoder":"6909762778","distractor":"6909752778","target":"present","response":"present","rt":"3913","correct":true,"confidence":4},{"trial_n":50,"span":11,"encoder":"64558605116","distractor":"64558305116","target":"absent","response":"present","rt":"2938.1999999881","correct":false,"confidence":3},{"trial_n":51,"span":10,"encoder":"1434010834","distractor":"9434010834","target":"absent","response":"absent","rt":"2249.7000000477","correct":true,"confidence":3},{"trial_n":52,"span":10,"encoder":"1368854668","distractor":"1368854638","target":"absent","response":"present","rt":"2245.6999999881","correct":false,"confidence":2},{"trial_n":53,"span":9,"encoder":"820674848","distractor":"820674898","target":"absent","response":"absent","rt":"3338","correct":true,"confidence":4},{"trial_n":54,"span":9,"encoder":"824133779","distractor":"824133774","target":"absent","response":"present","rt":"5911.3999999762","correct":false,"confidence":3},{"trial_n":55,"span":8,"encoder":"85072334","distractor":"85272334","target":"absent","response":"present","rt":"2761.6999999881","correct":false,"confidence":3},{"trial_n":56,"span":7,"encoder":"8688255","distractor":"8688235","target":"present","response":"present","rt":"2640.4000000358","correct":true,"confidence":5},{"trial_n":57,"span":7,"encoder":"8095708","distractor":"8095748","target":"present","response":"present","rt":"2482","correct":true,"confidence":4},{"trial_n":58,"span":8,"encoder":"23270016","distractor":"27270016","target":"absent","response":"absent","rt":"3108.6999999881","correct":true,"confidence":3},{"trial_n":59,"span":8,"encoder":"26081322","distractor":"26181322","target":"present","response":"present","rt":"2835.4000000358","correct":true,"confidence":4},{"trial_n":60,"span":9,"encoder":"586278009","distractor":"586278909","target":"present","response":"present","rt":"3334.3999999762","correct":true,"confidence":3},{"trial_n":61,"span":9,"encoder":"111498160","distractor":"111498162","target":"absent","response":"present","rt":"4098.8999999762","correct":false,"confidence":3},{"trial_n":62,"span":8,"encoder":"97196994","distractor":"97196954","target":"present","response":"present","rt":"4067.3000000119","correct":true,"confidence":3},{"trial_n":63,"span":8,"encoder":"70875710","distractor":"70875713","target":"present","response":"present","rt":"3914","correct":true,"confidence":4},{"trial_n":64,"span":9,"encoder":"302725212","distractor":"302728212","target":"present","response":"present","rt":"2151.3999999762","correct":true,"confidence":3},{"trial_n":65,"span":9,"encoder":"624241122","distractor":"644241122","target":"present","response":"present","rt":"2492.6999999881","correct":true,"confidence":4},{"trial_n":66,"span":10,"encoder":"6927916531","distractor":"6967916531","target":"present","response":"present","rt":"2553.5999999642","correct":true,"confidence":3},{"trial_n":67,"span":10,"encoder":"7614606484","distractor":"7614606424","target":"present","response":"present","rt":"3141.4000000358","correct":true,"confidence":3},{"trial_n":68,"span":11,"encoder":"89507855862","distractor":"89507858862","target":"present","response":"present","rt":"2981.1999999881","correct":true,"confidence":2},{"trial_n":69,"span":11,"encoder":"50450996689","distractor":"50450396689","target":"present","response":"absent","rt":"3243.8999999762","correct":false,"confidence":4},{"trial_n":70,"span":10,"encoder":"6160622805","distractor":"6170622805","target":"present","response":"present","rt":"6528.6000000238","correct":true,"confidence":2},{"trial_n":71,"span":8,"encoder":"43256059","distractor":"43253059","target":"present","response":"absent","rt":"18234.599999964","correct":false,"confidence":-1},{"trial_n":72,"span":7,"encoder":"4079908","distractor":"4879908","target":"present","response":"present","rt":"7719.9000000358","correct":true,"confidence":-1},{"trial_n":73,"span":7,"encoder":"5407009","distractor":"5487009","target":"absent","response":"present","rt":"5018","correct":false,"confidence":-1},{"trial_n":74,"span":6,"encoder":"707714","distractor":"777714","target":"absent","response":"absent","rt":"2590.4000000358","correct":true,"confidence":-1},{"trial_n":75,"span":6,"encoder":"910151","distractor":"710151","target":"present","response":"present","rt":"3374.1999999881","correct":true,"confidence":-1},{"trial_n":76,"span":7,"encoder":"1384233","distractor":"1384283","target":"present","response":"present","rt":"4401.1999999881","correct":true,"confidence":-1},{"trial_n":77,"span":7,"encoder":"8137233","distractor":"8136233","target":"absent","response":"present","rt":"2267.4000000358","correct":false,"confidence":-1},{"trial_n":78,"span":6,"encoder":"549253","distractor":"549953","target":"absent","response":"absent","rt":"2879.8000000119","correct":true,"confidence":-1},{"trial_n":79,"span":6,"encoder":"399886","distractor":"349886","target":"present","response":"present","rt":"3898.8000000119","correct":true,"confidence":-1},{"trial_n":80,"span":7,"encoder":"0221282","distractor":"0221242","target":"absent","response":"absent","rt":"3418.5","correct":true,"confidence":-1},{"trial_n":81,"span":7,"encoder":"4203828","distractor":"4203820","target":"present","response":"absent","rt":"5571","correct":false,"confidence":-1},{"trial_n":82,"span":6,"encoder":"991609","distractor":"391609","target":"absent","response":"absent","rt":"2221.6000000238","correct":true,"confidence":-1},{"trial_n":83,"span":6,"encoder":"385719","distractor":"385419","target":"absent","response":"absent","rt":"2876.5","correct":true,"confidence":-1},{"trial_n":84,"span":7,"encoder":"8999185","distractor":"5999185","target":"present","response":"present","rt":"2405.3000000119","correct":true,"confidence":-1},{"trial_n":85,"span":7,"encoder":"6847596","distractor":"6847576","target":"absent","response":"absent","rt":"2877.6000000238","correct":true,"confidence":-1},{"trial_n":86,"span":8,"encoder":"12662894","distractor":"12642894","target":"absent","response":"absent","rt":"3298.3000000119","correct":true,"confidence":-1},{"trial_n":87,"span":8,"encoder":"28599995","distractor":"28599905","target":"present","response":"absent","rt":"3475.8000000119","correct":false,"confidence":-1},{"trial_n":88,"span":7,"encoder":"6105328","distractor":"6105728","target":"absent","response":"absent","rt":"3009","correct":true,"confidence":-1},{"trial_n":89,"span":7,"encoder":"9014052","distractor":"9014652","target":"present","response":"present","rt":"3703.5","correct":true,"confidence":-1},{"trial_n":90,"span":8,"encoder":"28059163","distractor":"21059163","target":"present","response":"present","rt":"4779.4000000358","correct":true,"confidence":-1},{"trial_n":91,"span":8,"encoder":"28506231","distractor":"21506231","target":"absent","response":"absent","rt":"2400.4000000358","correct":true,"confidence":3},{"trial_n":92,"span":9,"encoder":"980734800","distractor":"980734803","target":"absent","response":"absent","rt":"3107.1999999881","correct":true,"confidence":4},{"trial_n":93,"span":9,"encoder":"533437275","distractor":"593437275","target":"present","response":"present","rt":"5898.3000000119","correct":true,"confidence":3},{"trial_n":94,"span":10,"encoder":"4864417435","distractor":"4866417435","target":"present","response":"present","rt":"9801.6999999881","correct":true,"confidence":2},{"trial_n":95,"span":10,"encoder":"5469759224","distractor":"7469759224","target":"present","response":"present","rt":"3184.6000000238","correct":true,"confidence":3},{"trial_n":96,"span":11,"encoder":"06845880598","distractor":"06845880558","target":"absent","response":"absent","rt":"6045.3000000119","correct":true,"confidence":2},{"trial_n":97,"span":11,"encoder":"77725787386","distractor":"77725087386","target":"present","response":"present","rt":"6375.9000000358","correct":true,"confidence":2},{"trial_n":98,"span":12,"encoder":"687898245329","distractor":"667898245329","target":"present","response":"absent","rt":"6674.8000000119","correct":false,"confidence":3},{"trial_n":99,"span":11,"encoder":"08818315868","distractor":"02818315868","target":"present","response":"present","rt":"3590","correct":true,"confidence":4},{"trial_n":100,"span":11,"encoder":"93115595738","distractor":"93115585738","target":"present","response":"present","rt":"6944.5","correct":true,"confidence":2},{"trial_n":101,"span":12,"encoder":"721530816362","distractor":"721530816562","target":"present","response":"absent","rt":"7430.1999999881","correct":false,"confidence":3},{"trial_n":102,"span":11,"encoder":"82257494157","distractor":"82257494158","target":"absent","response":"absent","rt":"6564.5","correct":true,"confidence":3},{"trial_n":103,"span":11,"encoder":"31487030747","distractor":"21487030747","target":"absent","response":"absent","rt":"4484.5","correct":true,"confidence":3},{"trial_n":104,"span":12,"encoder":"043043133239","distractor":"043043173239","target":"absent","response":"absent","rt":"2767.8000000119","correct":true,"confidence":4},{"trial_n":105,"span":12,"encoder":"169652540104","distractor":"129652540104","target":"absent","response":"present","rt":"4855.7999999523","correct":false,"confidence":3},{"trial_n":106,"span":11,"encoder":"64633511004","distractor":"64833511004","target":"absent","response":"present","rt":"8584.9000000358","correct":false,"confidence":2},{"trial_n":107,"span":10,"encoder":"7113831460","distractor":"7193831460","target":"absent","response":"absent","rt":"5063.8000000119","correct":true,"confidence":4},{"trial_n":108,"span":10,"encoder":"1037835764","distractor":"1039835764","target":"present","response":"absent","rt":"3680.5","correct":false,"confidence":1},{"trial_n":109,"span":9,"encoder":"162322895","distractor":"162822895","target":"present","response":"absent","rt":"6887.0999999642","correct":false,"confidence":1},{"trial_n":110,"span":8,"encoder":"08362971","distractor":"28362971","target":"absent","response":"absent","rt":"4670.8999999762","correct":true,"confidence":3},{"trial_n":111,"span":8,"encoder":"61449169","distractor":"61449149","target":"absent","response":"absent","rt":"3782.2000000477","correct":true,"confidence":4},{"trial_n":112,"span":9,"encoder":"607270445","distractor":"607270455","target":"present","response":"present","rt":"3121.6999999881","correct":true,"confidence":4},{"trial_n":113,"span":9,"encoder":"928291737","distractor":"928281737","target":"absent","response":"absent","rt":"10035.299999952","correct":true,"confidence":3},{"trial_n":114,"span":10,"encoder":"9085453583","distractor":"9085453513","target":"absent","response":"present","rt":"2367.6999999881","correct":false,"confidence":1},{"trial_n":115,"span":9,"encoder":"572623485","distractor":"572629485","target":"absent","response":"absent","rt":"4771.6999999881","correct":true,"confidence":3},{"trial_n":116,"span":9,"encoder":"203489562","distractor":"203489567","target":"present","response":"absent","rt":"7371.3999999762","correct":false,"confidence":2},{"trial_n":117,"span":8,"encoder":"18143709","distractor":"18143779","target":"present","response":"present","rt":"3961.5","correct":true,"confidence":1},{"trial_n":118,"span":8,"encoder":"00497306","distractor":"80497306","target":"present","response":"absent","rt":"4370.8000000119","correct":false,"confidence":2},{"trial_n":119,"span":7,"encoder":"8147710","distractor":"8047710","target":"absent","response":"absent","rt":"2848.6999999881","correct":true,"confidence":4},{"trial_n":120,"span":7,"encoder":"1381725","distractor":"1381728","target":"absent","response":"absent","rt":"5547.7999999523","correct":true,"confidence":2},{"trial_n":121,"span":8,"encoder":"84287090","distractor":"84287050","target":"absent","response":"absent","rt":"3770.8000000119","correct":true,"confidence":4},{"trial_n":122,"span":8,"encoder":"33035619","distractor":"83035619","target":"present","response":"present","rt":"4286.3999999762","correct":true,"confidence":4},{"trial_n":123,"span":9,"encoder":"559280310","distractor":"559680310","target":"present","response":"present","rt":"4470.6000000238","correct":true,"confidence":3},{"trial_n":124,"span":9,"encoder":"932220792","distractor":"932220722","target":"absent","response":"absent","rt":"4336.6999999881","correct":true,"confidence":2},{"trial_n":125,"span":10,"encoder":"3669597512","distractor":"3649597512","target":"present","response":"absent","rt":"2900.8999999762","correct":false,"confidence":2},{"trial_n":126,"span":9,"encoder":"304989757","distractor":"104989757","target":"absent","response":"absent","rt":"1951","correct":true,"confidence":5},{"trial_n":127,"span":9,"encoder":"209027085","distractor":"209047085","target":"present","response":"present","rt":"6987.5","correct":true,"confidence":2},{"trial_n":128,"span":10,"encoder":"5634055629","distractor":"5664055629","target":"present","response":"present","rt":"4602.1999999881","correct":true,"confidence":4},{"trial_n":129,"span":10,"encoder":"1746276170","distractor":"1746276270","target":"present","response":"present","rt":"3097.1999999881","correct":true,"confidence":4},{"trial_n":130,"span":11,"encoder":"28962924132","distractor":"28962524132","target":"present","response":"present","rt":"7742.6999999881","correct":true,"confidence":2},{"trial_n":131,"span":11,"encoder":"15677485699","distractor":"15677085699","target":"present","response":"present","rt":"4370.8999999762","correct":true,"confidence":2},{"trial_n":132,"span":12,"encoder":"210912481550","distractor":"210912485550","target":"absent","response":"absent","rt":"3842.4000000358","correct":true,"confidence":4},{"trial_n":133,"span":12,"encoder":"634902854293","distractor":"234902854293","target":"absent","response":"present","rt":"4551.5","correct":false,"confidence":3},{"trial_n":134,"span":11,"encoder":"01155020414","distractor":"01855020414","target":"absent","response":"absent","rt":"4881.3999999762","correct":true,"confidence":4},{"trial_n":135,"span":11,"encoder":"09816003768","distractor":"09816003766","target":"present","response":"present","rt":"3717.3000000119","correct":true,"confidence":4},{"trial_n":136,"span":12,"encoder":"566731861596","distractor":"586731861596","target":"absent","response":"absent","rt":"3180.2999999523","correct":true,"confidence":4},{"trial_n":137,"span":12,"encoder":"996446151294","distractor":"996446651294","target":"present","response":"present","rt":"7161.5","correct":true,"confidence":4},{"trial_n":138,"span":13,"encoder":"4090440230041","distractor":"4090440290041","target":"absent","response":"present","rt":"7098.2999999523","correct":false,"confidence":4},{"trial_n":139,"span":12,"encoder":"736401283306","distractor":"736901283306","target":"present","response":"absent","rt":"4219.6999999881","correct":false,"confidence":3},{"trial_n":140,"span":11,"encoder":"41818369310","distractor":"41818169310","target":"present","response":"present","rt":"4316.8000000119","correct":true,"confidence":2}]