[{"trial_n":1,"min":25,"max":230,"target":"present","response":"present","rt":7856,"correct":true,"confidence":-1},{"trial_n":2,"min":25,"max":230,"target":"present","response":"present","rt":1230,"correct":true,"confidence":-1},{"trial_n":3,"min":41,"max":214,"target":"absent","response":"absent","rt":1147.400000006,"correct":true,"confidence":-1},{"trial_n":4,"min":41,"max":214,"target":"absent","response":"absent","rt":1104.8000000119,"correct":true,"confidence":-1},{"trial_n":5,"min":57,"max":198,"target":"present","response":"present","rt":911.5,"correct":true,"confidence":-1},{"trial_n":6,"min":57,"max":198,"target":"present","response":"present","rt":667.69999998808,"correct":true,"confidence":-1},{"trial_n":7,"min":73,"max":182,"target":"present","response":"absent","rt":4385,"correct":false,"confidence":-1},{"trial_n":8,"min":57,"max":198,"target":"present","response":"present","rt":1081.400000006,"correct":true,"confidence":-1},{"trial_n":9,"min":57,"max":198,"target":"absent","response":"present","rt":546.90000000596,"correct":false,"confidence":-1},{"trial_n":10,"min":41,"max":214,"target":"present","response":"present","rt":626.30000001192,"correct":true,"confidence":-1},{"trial_n":11,"min":41,"max":214,"target":"absent","response":"absent","rt":1543.099999994,"correct":true,"confidence":-1},{"trial_n":12,"min":49,"max":206,"target":"present","response":"present","rt":634.39999997616,"correct":true,"confidence":-1},{"trial_n":13,"min":49,"max":206,"target":"absent","response":"absent","rt":571,"correct":true,"confidence":-1},{"trial_n":14,"min":57,"max":198,"target":"absent","response":"absent","rt":537.80000001192,"correct":true,"confidence":-1},{"trial_n":15,"min":57,"max":198,"target":"absent","response":"absent","rt":498.09999999404,"correct":true,"confidence":-1},{"trial_n":16,"min":65,"max":190,"target":"present","response":"present","rt":827.40000000596,"correct":true,"confidence":-1},{"trial_n":17,"min":65,"max":190,"target":"present","response":"present","rt":528.5,"correct":true,"confidence":-1},{"trial_n":18,"min":73,"max":182,"target":"present","response":"present","rt":424.39999997616,"correct":true,"confidence":-1},{"trial_n":19,"min":73,"max":182,"target":"present","response":"absent","rt":652.90000000596,"correct":false,"confidence":-1},{"trial_n":20,"min":65,"max":190,"target":"present","response":"present","rt":4284,"correct":true,"confidence":-1},{"trial_n":21,"min":65,"max":190,"target":"present","response":"present","rt":810,"correct":true,"confidence":4},{"trial_n":22,"min":69,"max":186,"target":"present","response":"present","rt":1108.900000006,"correct":true,"confidence":3},{"trial_n":23,"min":69,"max":186,"target":"present","response":"absent","rt":893.69999998808,"correct":false,"confidence":2},{"trial_n":24,"min":65,"max":190,"target":"present","response":"present","rt":842.79999998212,"correct":true,"confidence":4},{"trial_n":25,"min":65,"max":190,"target":"present","response":"present","rt":970.70000001788,"correct":true,"confidence":3},{"trial_n":26,"min":69,"max":186,"target":"absent","response":"absent","rt":634.59999999404,"correct":true,"confidence":5},{"trial_n":27,"min":69,"max":186,"target":"absent","response":"absent","rt":1510.5,"correct":true,"confidence":1},{"trial_n":28,"min":73,"max":182,"target":"absent","response":"absent","rt":1717.7999999821,"correct":true,"confidence":1},{"trial_n":29,"min":73,"max":182,"target":"present","response":"present","rt":912.90000000596,"correct":true,"confidence":3},{"trial_n":30,"min":77,"max":178,"target":"absent","response":"absent","rt":1284.400000006,"correct":true,"confidence":5},{"trial_n":31,"min":77,"max":178,"target":"present","response":"absent","rt":1541.7000000179,"correct":false,"confidence":5},{"trial_n":32,"min":75,"max":180,"target":"present","response":"present","rt":1203.6999999881,"correct":true,"confidence":3},{"trial_n":33,"min":75,"max":180,"target":"present","response":"absent","rt":1803.8000000119,"correct":false,"confidence":2},{"trial_n":34,"min":73,"max":182,"target":"absent","response":"absent","rt":1118.5,"correct":true,"confidence":2},{"trial_n":35,"min":73,"max":182,"target":"absent","response":"absent","rt":4347.900000006,"correct":true,"confidence":3},{"trial_n":36,"min":75,"max":180,"target":"present","response":"present","rt":1778.2999999821,"correct":true,"confidence":3},{"trial_n":37,"min":75,"max":180,"target":"absent","response":"absent","rt":1360.3000000119,"correct":true,"confidence":4},{"trial_n":38,"min":77,"max":178,"target":"absent","response":"present","rt":1624.8999999762,"correct":false,"confidence":2},{"trial_n":39,"min":75,"max":180,"target":"absent","response":"absent","rt":1390.3999999762,"correct":true,"confidence":3},{"trial_n":40,"min":75,"max":180,"target":"present","response":"present","rt":1763.599999994,"correct":true,"confidence":4},{"trial_n":41,"min":76,"max":179,"target":"absent","response":"absent","rt":1759.900000006,"correct":true,"confidence":1},{"trial_n":42,"min":76,"max":179,"target":"present","response":"present","rt":1325.1999999881,"correct":true,"confidence":2},{"trial_n":43,"min":77,"max":178,"target":"absent","response":"absent","rt":1724.2999999821,"correct":true,"confidence":3},{"trial_n":44,"min":77,"max":178,"target":"absent","response":"absent","rt":1220.1000000238,"correct":true,"confidence":4},{"trial_n":45,"min":78,"max":177,"target":"present","response":"present","rt":1328.5,"correct":true,"confidence":4},{"trial_n":46,"min":78,"max":177,"target":"absent","response":"absent","rt":901.30000001192,"correct":true,"confidence":3},{"trial_n":47,"min":79,"max":176,"target":"present","response":"present","rt":1636.8000000119,"correct":true,"confidence":4},{"trial_n":48,"min":79,"max":176,"target":"present","response":"absent","rt":1222.1999999881,"correct":false,"confidence":4},{"trial_n":49,"min":78,"max":177,"target":"absent","response":"absent","rt":2097.6000000238,"correct":true,"confidence":4},{"trial_n":50,"min":78,"max":177,"target":"present","response":"present","rt":1341.6999999881,"correct":true,"confidence":1},{"trial_n":51,"min":79,"max":176,"target":"present","response":"absent","rt":1579.1999999881,"correct":false,"confidence":3},{"trial_n":52,"min":78,"max":177,"target":"present","response":"present","rt":1005.099999994,"correct":true,"confidence":4},{"trial_n":53,"min":78,"max":177,"target":"present","response":"absent","rt":1137.2000000179,"correct":false,"confidence":3},{"trial_n":54,"min":77,"max":178,"target":"absent","response":"present","rt":1078.6999999881,"correct":false,"confidence":4},{"trial_n":55,"min":76,"max":179,"target":"absent","response":"absent","rt":1376.7000000179,"correct":true,"confidence":3},{"trial_n":56,"min":76,"max":179,"target":"absent","response":"present","rt":1574,"correct":false,"confidence":4},{"trial_n":57,"min":75,"max":180,"target":"present","response":"absent","rt":1771.6999999881,"correct":false,"confidence":1},{"trial_n":58,"min":74,"max":181,"target":"absent","response":"present","rt":1299.1999999881,"correct":false,"confidence":1},{"trial_n":59,"min":73,"max":182,"target":"present","response":"present","rt":900.30000001192,"correct":true,"confidence":4},{"trial_n":60,"min":73,"max":182,"target":"absent","response":"absent","rt":2624.6999999881,"correct":true,"confidence":1},{"trial_n":61,"min":74,"max":181,"target":"absent","response":"absent","rt":1466,"correct":true,"confidence":4},{"trial_n":62,"min":74,"max":181,"target":"present","response":"present","rt":1240.5,"correct":true,"confidence":3},{"trial_n":63,"min":75,"max":180,"target":"absent","response":"absent","rt":1536.5,"correct":true,"confidence":3},{"trial_n":64,"min":75,"max":180,"target":"absent","response":"absent","rt":1155.1999999881,"correct":true,"confidence":5},{"trial_n":65,"min":76,"max":179,"target":"absent","response":"absent","rt":1118.400000006,"correct":true,"confidence":5},{"trial_n":66,"min":76,"max":179,"target":"absent","response":"absent","rt":895,"correct":true,"confidence":5},{"trial_n":67,"min":77,"max":178,"target":"absent","response":"absent","rt":1068.099999994,"correct":true,"confidence":5},{"trial_n":68,"min":77,"max":178,"target":"present","response":"present","rt":1149.8000000119,"correct":true,"confidence":4},{"trial_n":69,"min":78,"max":177,"target":"absent","response":"absent","rt":1726.7999999821,"correct":true,"confidence":4},{"trial_n":70,"min":78,"max":177,"target":"absent","response":"absent","rt":1391.599999994,"correct":true,"confidence":4},{"trial_n":71,"min":41,"max":214,"target":"present","response":"present","rt":3848.2000000179,"correct":true,"confidence":-1},{"trial_n":72,"min":41,"max":214,"target":"present","response":"present","rt":656.70000001788,"correct":true,"confidence":-1},{"trial_n":73,"min":57,"max":198,"target":"absent","response":"absent","rt":421.40000000596,"correct":true,"confidence":-1},{"trial_n":74,"min":57,"max":198,"target":"absent","response":"absent","rt":672.09999999404,"correct":true,"confidence":-1},{"trial_n":75,"min":73,"max":182,"target":"present","response":"absent","rt":706.90000000596,"correct":false,"confidence":-1},{"trial_n":76,"min":57,"max":198,"target":"absent","response":"absent","rt":617.90000000596,"correct":true,"confidence":-1},{"trial_n":77,"min":57,"max":198,"target":"absent","response":"absent","rt":713.79999998212,"correct":true,"confidence":-1},{"trial_n":78,"min":73,"max":182,"target":"absent","response":"absent","rt":511,"correct":true,"confidence":-1},{"trial_n":79,"min":73,"max":182,"target":"present","response":"present","rt":536.40000000596,"correct":true,"confidence":-1},{"trial_n":80,"min":89,"max":166,"target":"absent","response":"absent","rt":694.80000001192,"correct":true,"confidence":-1},{"trial_n":81,"min":89,"max":166,"target":"present","response":"present","rt":401.69999998808,"correct":true,"confidence":-1},{"trial_n":82,"min":97,"max":158,"target":"absent","response":"absent","rt":960.59999999404,"correct":true,"confidence":-1},{"trial_n":83,"min":97,"max":158,"target":"present","response":"present","rt":446.19999998808,"correct":true,"confidence":-1},{"trial_n":84,"min":105,"max":150,"target":"present","response":"absent","rt":952.5,"correct":false,"confidence":-1},{"trial_n":85,"min":97,"max":158,"target":"present","response":"present","rt":2161.7000000179,"correct":true,"confidence":-1},{"trial_n":86,"min":97,"max":158,"target":"present","response":"present","rt":541.5,"correct":true,"confidence":-1},{"trial_n":87,"min":105,"max":150,"target":"present","response":"absent","rt":671.30000001192,"correct":false,"confidence":-1},{"trial_n":88,"min":97,"max":158,"target":"absent","response":"absent","rt":1029.599999994,"correct":true,"confidence":-1},{"trial_n":89,"min":97,"max":158,"target":"present","response":"absent","rt":796.80000001192,"correct":false,"confidence":-1},{"trial_n":90,"min":89,"max":166,"target":"absent","response":"present","rt":736.19999998808,"correct":false,"confidence":-1},{"trial_n":91,"min":85,"max":170,"target":"absent","response":"absent","rt":929.69999998808,"correct":true,"confidence":1},{"trial_n":92,"min":85,"max":170,"target":"absent","response":"absent","rt":1297.400000006,"correct":true,"confidence":2},{"trial_n":93,"min":89,"max":166,"target":"present","response":"present","rt":677.79999998212,"correct":true,"confidence":1},{"trial_n":94,"min":89,"max":166,"target":"absent","response":"absent","rt":1225,"correct":true,"confidence":3},{"trial_n":95,"min":93,"max":162,"target":"absent","response":"present","rt":1257.099999994,"correct":false,"confidence":3},{"trial_n":96,"min":89,"max":166,"target":"present","response":"present","rt":655.60000002384,"correct":true,"confidence":4},{"trial_n":97,"min":89,"max":166,"target":"present","response":"present","rt":655.20000001788,"correct":true,"confidence":4},{"trial_n":98,"min":93,"max":162,"target":"absent","response":"present","rt":551.09999999404,"correct":false,"confidence":4},{"trial_n":99,"min":89,"max":166,"target":"absent","response":"absent","rt":563.90000000596,"correct":true,"confidence":3},{"trial_n":100,"min":89,"max":166,"target":"absent","response":"present","rt":537.09999999404,"correct":false,"confidence":3},{"trial_n":101,"min":87,"max":168,"target":"absent","response":"present","rt":601.69999998808,"correct":false,"confidence":2},{"trial_n":102,"min":85,"max":170,"target":"absent","response":"absent","rt":695.80000001192,"correct":true,"confidence":3},{"trial_n":103,"min":85,"max":170,"target":"absent","response":"present","rt":589.70000001788,"correct":false,"confidence":3},{"trial_n":104,"min":83,"max":172,"target":"absent","response":"absent","rt":632.5,"correct":true,"confidence":4},{"trial_n":105,"min":83,"max":172,"target":"present","response":"present","rt":588.19999998808,"correct":true,"confidence":4},{"trial_n":106,"min":85,"max":170,"target":"absent","response":"absent","rt":1284.8999999762,"correct":true,"confidence":1},{"trial_n":107,"min":85,"max":170,"target":"present","response":"present","rt":583.90000000596,"correct":true,"confidence":4},{"trial_n":108,"min":87,"max":168,"target":"present","response":"present","rt":505,"correct":true,"confidence":4},{"trial_n":109,"min":87,"max":168,"target":"absent","response":"absent","rt":1282.1999999881,"correct":true,"confidence":4},{"trial_n":110,"min":89,"max":166,"target":"present","response":"present","rt":1015,"correct":true,"confidence":4},{"trial_n":111,"min":89,"max":166,"target":"present","response":"present","rt":453,"correct":true,"confidence":4},{"trial_n":112,"min":90,"max":165,"target":"absent","response":"present","rt":1501.5,"correct":false,"confidence":1},{"trial_n":113,"min":89,"max":166,"target":"present","response":"present","rt":435.40000000596,"correct":true,"confidence":4},{"trial_n":114,"min":89,"max":166,"target":"present","response":"absent","rt":631.90000000596,"correct":false,"confidence":4},{"trial_n":115,"min":88,"max":167,"target":"present","response":"present","rt":1368.5,"correct":true,"confidence":3},{"trial_n":116,"min":88,"max":167,"target":"present","response":"present","rt":867.90000000596,"correct":true,"confidence":3},{"trial_n":117,"min":89,"max":166,"target":"absent","response":"present","rt":930.19999998808,"correct":false,"confidence":2},{"trial_n":118,"min":88,"max":167,"target":"absent","response":"present","rt":1027.2000000179,"correct":false,"confidence":2},{"trial_n":119,"min":87,"max":168,"target":"absent","response":"absent","rt":1993.099999994,"correct":true,"confidence":1},{"trial_n":120,"min":87,"max":168,"target":"present","response":"present","rt":1385.7999999821,"correct":true,"confidence":3},{"trial_n":121,"min":88,"max":167,"target":"absent","response":"present","rt":1707,"correct":false,"confidence":2},{"trial_n":122,"min":87,"max":168,"target":"present","response":"present","rt":1213.599999994,"correct":true,"confidence":4},{"trial_n":123,"min":87,"max":168,"target":"absent","response":"present","rt":1549.3000000119,"correct":false,"confidence":1},{"trial_n":124,"min":86,"max":169,"target":"absent","response":"present","rt":1191.3000000119,"correct":false,"confidence":1},{"trial_n":125,"min":85,"max":170,"target":"present","response":"present","rt":2141.099999994,"correct":true,"confidence":3},{"trial_n":126,"min":85,"max":170,"target":"absent","response":"absent","rt":2305.099999994,"correct":true,"confidence":1},{"trial_n":127,"min":86,"max":169,"target":"absent","response":"absent","rt":920.29999998212,"correct":true,"confidence":4},{"trial_n":128,"min":86,"max":169,"target":"present","response":"present","rt":1583.8999999762,"correct":true,"confidence":4},{"trial_n":129,"min":87,"max":168,"target":"present","response":"present","rt":1813.599999994,"correct":true,"confidence":1},{"trial_n":130,"min":87,"max":168,"target":"present","response":"present","rt":1218.6999999881,"correct":true,"confidence":4},{"trial_n":131,"min":88,"max":167,"target":"present","response":"present","rt":842.39999997616,"correct":true,"confidence":4},{"trial_n":132,"min":88,"max":167,"target":"present","response":"present","rt":584.30000001192,"correct":true,"confidence":4},{"trial_n":133,"min":89,"max":166,"target":"absent","response":"present","rt":1447.7999999821,"correct":false,"confidence":2},{"trial_n":134,"min":88,"max":167,"target":"present","response":"present","rt":1490,"correct":true,"confidence":4},{"trial_n":135,"min":88,"max":167,"target":"present","response":"present","rt":2408,"correct":true,"confidence":1},{"trial_n":136,"min":89,"max":166,"target":"absent","response":"absent","rt":1117.900000006,"correct":true,"confidence":1},{"trial_n":137,"min":89,"max":166,"target":"absent","response":"absent","rt":834.30000001192,"correct":true,"confidence":3},{"trial_n":138,"min":90,"max":165,"target":"present","response":"present","rt":954.90000000596,"correct":true,"confidence":3},{"trial_n":139,"min":90,"max":165,"target":"present","response":"present","rt":1634.6999999881,"correct":true,"confidence":3},{"trial_n":140,"min":91,"max":164,"target":"present","response":"present","rt":1084.5,"correct":true,"confidence":2}]