[{"trial_n":1,"n_dots":4.25,"target":"left","response":"right","rt":6461.599999994,"correct":false,"confidence":-1},{"trial_n":2,"n_dots":4.25,"target":"left","response":"left","rt":1284.2999999821,"correct":true,"confidence":-1},{"trial_n":3,"n_dots":4.25,"target":"left","response":"left","rt":641.29999998212,"correct":true,"confidence":-1},{"trial_n":4,"n_dots":3.85,"target":"left","response":"left","rt":481.30000001192,"correct":true,"confidence":-1},{"trial_n":5,"n_dots":3.85,"target":"right","response":"right","rt":509.40000000596,"correct":true,"confidence":-1},{"trial_n":6,"n_dots":3.45,"target":"right","response":"right","rt":942.29999998212,"correct":true,"confidence":-1},{"trial_n":7,"n_dots":3.45,"target":"left","response":"left","rt":466.70000001788,"correct":true,"confidence":-1},{"trial_n":8,"n_dots":3.25,"target":"left","response":"left","rt":430.19999998808,"correct":true,"confidence":-1},{"trial_n":9,"n_dots":3.25,"target":"left","response":"left","rt":461.29999998212,"correct":true,"confidence":-1},{"trial_n":10,"n_dots":3.05,"target":"left","response":"left","rt":477.40000000596,"correct":true,"confidence":-1},{"trial_n":11,"n_dots":3.05,"target":"right","response":"left","rt":302.30000001192,"correct":false,"confidence":-1},{"trial_n":12,"n_dots":3.25,"target":"left","response":"left","rt":136.09999999404,"correct":true,"confidence":-1},{"trial_n":13,"n_dots":3.25,"target":"left","response":"left","rt":398.80000001192,"correct":true,"confidence":-1},{"trial_n":14,"n_dots":3.15,"target":"right","response":"right","rt":454.80000001192,"correct":true,"confidence":-1},{"trial_n":15,"n_dots":3.15,"target":"right","response":"left","rt":702.90000000596,"correct":false,"confidence":-1},{"trial_n":16,"n_dots":3.25,"target":"left","response":"left","rt":561.90000000596,"correct":true,"confidence":-1},{"trial_n":17,"n_dots":3.25,"target":"right","response":"left","rt":637.90000000596,"correct":false,"confidence":-1},{"trial_n":18,"n_dots":3.35,"target":"left","response":"right","rt":859.29999998212,"correct":false,"confidence":-1},{"trial_n":19,"n_dots":3.45,"target":"right","response":"left","rt":796.09999999404,"correct":false,"confidence":-1},{"trial_n":20,"n_dots":3.55,"target":"right","response":"right","rt":506.5,"correct":true,"confidence":-1},{"trial_n":21,"n_dots":3.55,"target":"left","response":"left","rt":481.70000001788,"correct":true,"confidence":3},{"trial_n":22,"n_dots":3.45,"target":"left","response":"left","rt":1163,"correct":true,"confidence":4},{"trial_n":23,"n_dots":3.45,"target":"right","response":"left","rt":1242.7000000179,"correct":false,"confidence":3},{"trial_n":24,"n_dots":3.55,"target":"right","response":"left","rt":815.20000001788,"correct":false,"confidence":2},{"trial_n":25,"n_dots":3.65,"target":"left","response":"left","rt":1721.6999999881,"correct":true,"confidence":4},{"trial_n":26,"n_dots":3.65,"target":"left","response":"left","rt":1045,"correct":true,"confidence":3},{"trial_n":27,"n_dots":3.55,"target":"right","response":"right","rt":889.09999999404,"correct":true,"confidence":3},{"trial_n":28,"n_dots":3.55,"target":"left","response":"left","rt":1452.2000000179,"correct":true,"confidence":2},{"trial_n":29,"n_dots":3.45,"target":"right","response":"right","rt":1059.6999999881,"correct":true,"confidence":3},{"trial_n":30,"n_dots":3.45,"target":"right","response":"right","rt":1008.7999999821,"correct":true,"confidence":3},{"trial_n":31,"n_dots":3.35,"target":"right","response":"right","rt":805.5,"correct":true,"confidence":3},{"trial_n":32,"n_dots":3.35,"target":"left","response":"right","rt":1316.6000000238,"correct":false,"confidence":1},{"trial_n":33,"n_dots":3.45,"target":"left","response":"left","rt":908.19999998808,"correct":true,"confidence":4},{"trial_n":34,"n_dots":3.45,"target":"left","response":"left","rt":688.30000001192,"correct":true,"confidence":4},{"trial_n":35,"n_dots":3.35,"target":"left","response":"left","rt":607.59999999404,"correct":true,"confidence":4},{"trial_n":36,"n_dots":3.35,"target":"left","response":"left","rt":886.70000001788,"correct":true,"confidence":3},{"trial_n":37,"n_dots":3.25,"target":"right","response":"right","rt":491.09999999404,"correct":true,"confidence":4},{"trial_n":38,"n_dots":3.25,"target":"right","response":"left","rt":1003.900000006,"correct":false,"confidence":1},{"trial_n":39,"n_dots":3.35,"target":"right","response":"right","rt":434.89999997616,"correct":true,"confidence":3},{"trial_n":40,"n_dots":3.35,"target":"right","response":"left","rt":835.20000001788,"correct":false,"confidence":3},{"trial_n":41,"n_dots":3.45,"target":"left","response":"left","rt":581.30000001192,"correct":true,"confidence":3},{"trial_n":42,"n_dots":3.45,"target":"right","response":"left","rt":767.90000000596,"correct":false,"confidence":2},{"trial_n":43,"n_dots":3.55,"target":"right","response":"right","rt":667.90000000596,"correct":true,"confidence":3},{"trial_n":44,"n_dots":3.55,"target":"left","response":"left","rt":708.5,"correct":true,"confidence":3},{"trial_n":45,"n_dots":3.45,"target":"right","response":"right","rt":419.30000001192,"correct":true,"confidence":4},{"trial_n":46,"n_dots":3.45,"target":"left","response":"left","rt":1503.5,"correct":true,"confidence":3},{"trial_n":47,"n_dots":3.35,"target":"right","response":"left","rt":701.20000001788,"correct":false,"confidence":4},{"trial_n":48,"n_dots":3.45,"target":"left","response":"left","rt":1960.3000000119,"correct":true,"confidence":3},{"trial_n":49,"n_dots":3.45,"target":"right","response":"right","rt":707.59999999404,"correct":true,"confidence":4},{"trial_n":50,"n_dots":3.35,"target":"right","response":"left","rt":901.90000000596,"correct":false,"confidence":3},{"trial_n":51,"n_dots":3.45,"target":"left","response":"left","rt":1223.599999994,"correct":true,"confidence":3},{"trial_n":52,"n_dots":3.45,"target":"right","response":"right","rt":1077.099999994,"correct":true,"confidence":3},{"trial_n":53,"n_dots":3.35,"target":"right","response":"right","rt":608.90000000596,"correct":true,"confidence":3},{"trial_n":54,"n_dots":3.35,"target":"right","response":"right","rt":786.29999998212,"correct":true,"confidence":3},{"trial_n":55,"n_dots":3.25,"target":"left","response":"left","rt":458.5,"correct":true,"confidence":4},{"trial_n":56,"n_dots":3.25,"target":"left","response":"left","rt":662.70000001788,"correct":true,"confidence":3},{"trial_n":57,"n_dots":3.15,"target":"right","response":"right","rt":419,"correct":true,"confidence":3},{"trial_n":58,"n_dots":3.15,"target":"left","response":"left","rt":485.59999999404,"correct":true,"confidence":3},{"trial_n":59,"n_dots":3.05,"target":"right","response":"right","rt":804.5,"correct":true,"confidence":3},{"trial_n":60,"n_dots":3.05,"target":"right","response":"right","rt":513.90000000596,"correct":true,"confidence":2},{"trial_n":61,"n_dots":2.95,"target":"left","response":"left","rt":627.29999998212,"correct":true,"confidence":2},{"trial_n":62,"n_dots":2.95,"target":"left","response":"left","rt":541.5,"correct":true,"confidence":2},{"trial_n":63,"n_dots":2.85,"target":"left","response":"left","rt":657.59999999404,"correct":true,"confidence":3},{"trial_n":64,"n_dots":2.85,"target":"left","response":"left","rt":805.90000000596,"correct":true,"confidence":2},{"trial_n":65,"n_dots":2.75,"target":"right","response":"right","rt":289,"correct":true,"confidence":2},{"trial_n":66,"n_dots":2.75,"target":"left","response":"left","rt":835.09999999404,"correct":true,"confidence":2},{"trial_n":67,"n_dots":2.65,"target":"left","response":"left","rt":1593.3999999762,"correct":true,"confidence":3},{"trial_n":68,"n_dots":2.65,"target":"right","response":"right","rt":545.59999999404,"correct":true,"confidence":3},{"trial_n":69,"n_dots":2.55,"target":"right","response":"left","rt":1056.1999999881,"correct":false,"confidence":2},{"trial_n":70,"n_dots":2.65,"target":"left","response":"left","rt":951.40000000596,"correct":true,"confidence":2},{"trial_n":71,"n_dots":2.65,"target":"left","response":"left","rt":386.40000000596,"correct":true,"confidence":4},{"trial_n":72,"n_dots":2.55,"target":"left","response":"left","rt":551.69999998808,"correct":true,"confidence":3},{"trial_n":73,"n_dots":2.55,"target":"left","response":"left","rt":917.5,"correct":true,"confidence":3},{"trial_n":74,"n_dots":2.45,"target":"left","response":"left","rt":698.40000000596,"correct":true,"confidence":3},{"trial_n":75,"n_dots":2.45,"target":"right","response":"right","rt":635.5,"correct":true,"confidence":3},{"trial_n":76,"n_dots":2.35,"target":"right","response":"right","rt":926.5,"correct":true,"confidence":3},{"trial_n":77,"n_dots":2.35,"target":"left","response":"right","rt":798.19999998808,"correct":false,"confidence":3},{"trial_n":78,"n_dots":2.45,"target":"right","response":"right","rt":415,"correct":true,"confidence":2},{"trial_n":79,"n_dots":2.45,"target":"right","response":"right","rt":476.90000000596,"correct":true,"confidence":3},{"trial_n":80,"n_dots":2.35,"target":"right","response":"right","rt":621.20000001788,"correct":true,"confidence":3},{"trial_n":81,"n_dots":2.35,"target":"right","response":"left","rt":3819.2999999821,"correct":false,"confidence":1},{"trial_n":82,"n_dots":2.45,"target":"right","response":"left","rt":478.39999997616,"correct":false,"confidence":3},{"trial_n":83,"n_dots":2.55,"target":"right","response":"right","rt":434.29999998212,"correct":true,"confidence":4},{"trial_n":84,"n_dots":2.55,"target":"right","response":"left","rt":1432.1999999881,"correct":false,"confidence":2},{"trial_n":85,"n_dots":2.65,"target":"left","response":"left","rt":2706.6999999881,"correct":true,"confidence":3},{"trial_n":86,"n_dots":2.65,"target":"left","response":"right","rt":1628.6999999881,"correct":false,"confidence":1},{"trial_n":87,"n_dots":2.75,"target":"right","response":"right","rt":746.5,"correct":true,"confidence":3},{"trial_n":88,"n_dots":2.75,"target":"right","response":"right","rt":440.40000000596,"correct":true,"confidence":2},{"trial_n":89,"n_dots":2.65,"target":"left","response":"right","rt":1413.5,"correct":false,"confidence":2},{"trial_n":90,"n_dots":2.75,"target":"left","response":"right","rt":1009,"correct":false,"confidence":2},{"trial_n":91,"n_dots":2.85,"target":"left","response":"right","rt":851.29999998212,"correct":false,"confidence":3},{"trial_n":92,"n_dots":2.95,"target":"left","response":"left","rt":1333,"correct":true,"confidence":2},{"trial_n":93,"n_dots":2.95,"target":"left","response":"left","rt":1352.7000000179,"correct":true,"confidence":1},{"trial_n":94,"n_dots":2.85,"target":"right","response":"right","rt":1256,"correct":true,"confidence":2},{"trial_n":95,"n_dots":2.85,"target":"right","response":"right","rt":1134.2999999821,"correct":true,"confidence":3},{"trial_n":96,"n_dots":2.75,"target":"right","response":"right","rt":1012.099999994,"correct":true,"confidence":2},{"trial_n":97,"n_dots":2.75,"target":"right","response":"right","rt":1635.599999994,"correct":true,"confidence":3},{"trial_n":98,"n_dots":2.65,"target":"left","response":"left","rt":1285.8999999762,"correct":true,"confidence":3},{"trial_n":99,"n_dots":2.65,"target":"right","response":"right","rt":691.69999998808,"correct":true,"confidence":3},{"trial_n":100,"n_dots":2.55,"target":"right","response":"right","rt":1729,"correct":true,"confidence":3},{"trial_n":101,"n_dots":2.55,"target":"left","response":"right","rt":770.39999997616,"correct":false,"confidence":3},{"trial_n":102,"n_dots":2.65,"target":"right","response":"right","rt":815.80000001192,"correct":true,"confidence":3},{"trial_n":103,"n_dots":2.65,"target":"right","response":"right","rt":582.10000002384,"correct":true,"confidence":4},{"trial_n":104,"n_dots":2.55,"target":"right","response":"right","rt":594.20000001788,"correct":true,"confidence":4},{"trial_n":105,"n_dots":2.55,"target":"right","response":"left","rt":1344.1999999881,"correct":false,"confidence":2},{"trial_n":106,"n_dots":2.65,"target":"right","response":"left","rt":1082.8999999762,"correct":false,"confidence":3},{"trial_n":107,"n_dots":2.75,"target":"right","response":"right","rt":793.70000001788,"correct":true,"confidence":3},{"trial_n":108,"n_dots":2.75,"target":"left","response":"left","rt":1044.5,"correct":true,"confidence":4},{"trial_n":109,"n_dots":2.65,"target":"left","response":"left","rt":697.70000001788,"correct":true,"confidence":4},{"trial_n":110,"n_dots":2.65,"target":"left","response":"left","rt":705.59999999404,"correct":true,"confidence":3},{"trial_n":111,"n_dots":2.55,"target":"left","response":"left","rt":880.5,"correct":true,"confidence":3},{"trial_n":112,"n_dots":2.55,"target":"right","response":"right","rt":692.69999998808,"correct":true,"confidence":4},{"trial_n":113,"n_dots":2.45,"target":"left","response":"left","rt":1674,"correct":true,"confidence":2},{"trial_n":114,"n_dots":2.45,"target":"left","response":"left","rt":585.89999997616,"correct":true,"confidence":3},{"trial_n":115,"n_dots":2.35,"target":"left","response":"left","rt":511.39999997616,"correct":true,"confidence":3},{"trial_n":116,"n_dots":2.35,"target":"right","response":"left","rt":364.79999998212,"correct":false,"confidence":3},{"trial_n":117,"n_dots":2.45,"target":"right","response":"right","rt":442.69999998808,"correct":true,"confidence":3},{"trial_n":118,"n_dots":2.45,"target":"left","response":"left","rt":789.59999999404,"correct":true,"confidence":2},{"trial_n":119,"n_dots":2.35,"target":"right","response":"right","rt":537.40000000596,"correct":true,"confidence":2},{"trial_n":120,"n_dots":2.35,"target":"left","response":"left","rt":1252.7000000179,"correct":true,"confidence":3}]