[{"trial_n":1,"span":8,"encoder":"61469019","distractor":"61469319","target":"present","response":"present","rt":"6291.3000000119","correct":true,"confidence":-1},{"trial_n":2,"span":8,"encoder":"15223632","distractor":"15223662","target":"present","response":"present","rt":"2394","correct":true,"confidence":-1},{"trial_n":3,"span":10,"encoder":"7220044102","distractor":"7220014102","target":"absent","response":"present","rt":"2388.8999999762","correct":false,"confidence":-1},{"trial_n":4,"span":8,"encoder":"28709573","distractor":"28709571","target":"absent","response":"absent","rt":"1661.6999999881","correct":true,"confidence":-1},{"trial_n":5,"span":8,"encoder":"21398094","distractor":"28398094","target":"present","response":"absent","rt":"1659.5999999642","correct":false,"confidence":-1},{"trial_n":6,"span":6,"encoder":"097503","distractor":"091503","target":"present","response":"absent","rt":"3732.9000000358","correct":false,"confidence":-1},{"trial_n":7,"span":4,"encoder":"7006","distractor":"7106","target":"absent","response":"present","rt":"2204.9000000358","correct":false,"confidence":-1},{"trial_n":8,"span":2,"encoder":"93","distractor":"73","target":"absent","response":"absent","rt":"2274","correct":true,"confidence":-1},{"trial_n":9,"span":2,"encoder":"12","distractor":"15","target":"present","response":"present","rt":"1260.3000000119","correct":true,"confidence":-1},{"trial_n":10,"span":4,"encoder":"1401","distractor":"1408","target":"present","response":"present","rt":"1370.7000000477","correct":true,"confidence":-1},{"trial_n":11,"span":4,"encoder":"8080","distractor":"8380","target":"absent","response":"absent","rt":"1635.5","correct":true,"confidence":-1},{"trial_n":12,"span":5,"encoder":"71852","distractor":"71352","target":"present","response":"present","rt":"1880.6000000238","correct":true,"confidence":-1},{"trial_n":13,"span":5,"encoder":"60213","distractor":"60233","target":"present","response":"present","rt":"1802.0999999642","correct":true,"confidence":-1},{"trial_n":14,"span":6,"encoder":"345157","distractor":"345117","target":"present","response":"present","rt":"2582.5","correct":true,"confidence":-1},{"trial_n":15,"span":6,"encoder":"117041","distractor":"117047","target":"absent","response":"absent","rt":"3526.3999999762","correct":true,"confidence":-1},{"trial_n":16,"span":7,"encoder":"0199906","distractor":"0199905","target":"present","response":"present","rt":"1462.8000000119","correct":true,"confidence":-1},{"trial_n":17,"span":7,"encoder":"9260476","distractor":"9210476","target":"absent","response":"present","rt":"1302.5","correct":false,"confidence":-1},{"trial_n":18,"span":6,"encoder":"109447","distractor":"809447","target":"absent","response":"absent","rt":"1428.8000000119","correct":true,"confidence":-1},{"trial_n":19,"span":6,"encoder":"667288","distractor":"667188","target":"present","response":"present","rt":"1273.7000000477","correct":true,"confidence":-1},{"trial_n":20,"span":7,"encoder":"6819418","distractor":"6819718","target":"absent","response":"present","rt":"1484.7999999523","correct":false,"confidence":-1},{"trial_n":21,"span":6,"encoder":"249508","distractor":"249108","target":"absent","response":"present","rt":"1190.5","correct":false,"confidence":4},{"trial_n":22,"span":5,"encoder":"03813","distractor":"63813","target":"absent","response":"present","rt":"1296.7000000477","correct":false,"confidence":3},{"trial_n":23,"span":4,"encoder":"2841","distractor":"2941","target":"present","response":"present","rt":"1389.8999999762","correct":true,"confidence":5},{"trial_n":24,"span":4,"encoder":"2284","distractor":"2984","target":"absent","response":"absent","rt":"1919.1000000238","correct":true,"confidence":5},{"trial_n":25,"span":5,"encoder":"67282","distractor":"67482","target":"present","response":"present","rt":"1565.9000000358","correct":true,"confidence":4},{"trial_n":26,"span":5,"encoder":"06785","distractor":"06775","target":"present","response":"present","rt":"1659.5","correct":true,"confidence":5},{"trial_n":27,"span":6,"encoder":"798244","distractor":"798246","target":"present","response":"present","rt":"1328.5","correct":true,"confidence":5},{"trial_n":28,"span":6,"encoder":"576575","distractor":"576275","target":"absent","response":"absent","rt":"1474.3000000119","correct":true,"confidence":5},{"trial_n":29,"span":7,"encoder":"9581809","distractor":"9581801","target":"present","response":"present","rt":"1101.1000000238","correct":true,"confidence":4},{"trial_n":30,"span":7,"encoder":"4444019","distractor":"6444019","target":"absent","response":"absent","rt":"1494","correct":true,"confidence":4},{"trial_n":31,"span":8,"encoder":"14624483","distractor":"19624483","target":"present","response":"present","rt":"2617.5999999642","correct":true,"confidence":5},{"trial_n":32,"span":8,"encoder":"80691618","distractor":"80671618","target":"present","response":"present","rt":"2417","correct":true,"confidence":5},{"trial_n":33,"span":9,"encoder":"774146125","distractor":"774146825","target":"absent","response":"absent","rt":"1787.4000000358","correct":true,"confidence":5},{"trial_n":34,"span":9,"encoder":"602454301","distractor":"602454101","target":"present","response":"absent","rt":"1445.5","correct":false,"confidence":4},{"trial_n":35,"span":8,"encoder":"21620153","distractor":"21625153","target":"present","response":"absent","rt":"4171.6000000238","correct":false,"confidence":2},{"trial_n":36,"span":7,"encoder":"0122051","distractor":"0122059","target":"absent","response":"absent","rt":"1693.3999999762","correct":true,"confidence":5},{"trial_n":37,"span":7,"encoder":"6694533","distractor":"6694553","target":"absent","response":"absent","rt":"1838.5999999642","correct":true,"confidence":5},{"trial_n":38,"span":8,"encoder":"14714521","distractor":"14014521","target":"absent","response":"absent","rt":"1337.6000000238","correct":true,"confidence":5},{"trial_n":39,"span":8,"encoder":"05975490","distractor":"05575490","target":"present","response":"present","rt":"1439.2000000477","correct":true,"confidence":4},{"trial_n":40,"span":9,"encoder":"086085431","distractor":"086095431","target":"present","response":"present","rt":"2068.3999999762","correct":true,"confidence":3},{"trial_n":41,"span":9,"encoder":"104915065","distractor":"103915065","target":"absent","response":"present","rt":"1537.3000000119","correct":false,"confidence":4},{"trial_n":42,"span":8,"encoder":"11540680","distractor":"11548680","target":"absent","response":"present","rt":"1696","correct":false,"confidence":5},{"trial_n":43,"span":7,"encoder":"9655201","distractor":"8655201","target":"absent","response":"present","rt":"2365.5","correct":false,"confidence":5},{"trial_n":44,"span":6,"encoder":"670488","distractor":"650488","target":"absent","response":"absent","rt":"1609","correct":true,"confidence":5},{"trial_n":45,"span":6,"encoder":"781901","distractor":"781905","target":"absent","response":"absent","rt":"2490.4000000358","correct":true,"confidence":5},{"trial_n":46,"span":7,"encoder":"0108502","distractor":"0108507","target":"absent","response":"absent","rt":"2371","correct":true,"confidence":5},{"trial_n":47,"span":7,"encoder":"4207120","distractor":"4207124","target":"present","response":"present","rt":"3135.2999999523","correct":true,"confidence":5},{"trial_n":48,"span":8,"encoder":"67975649","distractor":"67974649","target":"present","response":"present","rt":"3408.3000000119","correct":true,"confidence":4},{"trial_n":49,"span":8,"encoder":"85234145","distractor":"85234115","target":"present","response":"present","rt":"3158.2000000477","correct":true,"confidence":4},{"trial_n":50,"span":9,"encoder":"578234322","distractor":"528234322","target":"absent","response":"present","rt":"2405.5999999642","correct":false,"confidence":5},{"trial_n":51,"span":8,"encoder":"06193780","distractor":"06193786","target":"absent","response":"absent","rt":"1449.6999999881","correct":true,"confidence":5},{"trial_n":52,"span":8,"encoder":"18974273","distractor":"18994273","target":"present","response":"present","rt":"2196.0999999642","correct":true,"confidence":4},{"trial_n":53,"span":9,"encoder":"911805023","distractor":"911805093","target":"present","response":"absent","rt":"1890.1999999881","correct":false,"confidence":5},{"trial_n":54,"span":8,"encoder":"93742709","distractor":"93742729","target":"present","response":"absent","rt":"4867.2999999523","correct":false,"confidence":4},{"trial_n":55,"span":7,"encoder":"9804641","distractor":"9804541","target":"absent","response":"absent","rt":"2311.8999999762","correct":true,"confidence":3},{"trial_n":56,"span":7,"encoder":"1239650","distractor":"1939650","target":"absent","response":"present","rt":"2334","correct":false,"confidence":5},{"trial_n":57,"span":6,"encoder":"747192","distractor":"747292","target":"absent","response":"absent","rt":"1584.8000000119","correct":true,"confidence":5},{"trial_n":58,"span":6,"encoder":"245278","distractor":"245270","target":"absent","response":"absent","rt":"2380.1999999881","correct":true,"confidence":5},{"trial_n":59,"span":7,"encoder":"9006651","distractor":"9002651","target":"present","response":"present","rt":"1860.8000000119","correct":true,"confidence":4},{"trial_n":60,"span":7,"encoder":"6902617","distractor":"6802617","target":"present","response":"present","rt":"2360","correct":true,"confidence":5},{"trial_n":61,"span":8,"encoder":"63277584","distractor":"93277584","target":"present","response":"present","rt":"1935.3000000119","correct":true,"confidence":5},{"trial_n":62,"span":8,"encoder":"53502678","distractor":"53502638","target":"present","response":"absent","rt":"2362.1000000238","correct":false,"confidence":3},{"trial_n":63,"span":7,"encoder":"9698184","distractor":"2698184","target":"absent","response":"absent","rt":"2179.3000000119","correct":true,"confidence":5},{"trial_n":64,"span":7,"encoder":"6151656","distractor":"0151656","target":"absent","response":"present","rt":"2600.1000000238","correct":false,"confidence":5},{"trial_n":65,"span":6,"encoder":"259751","distractor":"289751","target":"present","response":"present","rt":"2854.5","correct":true,"confidence":5},{"trial_n":66,"span":6,"encoder":"331861","distractor":"331811","target":"absent","response":"absent","rt":"1519.6000000238","correct":true,"confidence":5},{"trial_n":67,"span":7,"encoder":"0726131","distractor":"0726138","target":"present","response":"present","rt":"2724.0999999642","correct":true,"confidence":4},{"trial_n":68,"span":7,"encoder":"9118023","distractor":"1118023","target":"present","response":"absent","rt":"3577.6999999881","correct":false,"confidence":3},{"trial_n":69,"span":6,"encoder":"348753","distractor":"348783","target":"present","response":"present","rt":"3563.6000000238","correct":true,"confidence":5},{"trial_n":70,"span":6,"encoder":"072019","distractor":"032019","target":"absent","response":"absent","rt":"2040.7000000477","correct":true,"confidence":5},{"trial_n":71,"span":8,"encoder":"58480901","distractor":"52480901","target":"present","response":"present","rt":"4276.5","correct":true,"confidence":-1},{"trial_n":72,"span":8,"encoder":"94317654","distractor":"94315654","target":"present","response":"absent","rt":"6279.1000000238","correct":false,"confidence":-1},{"trial_n":73,"span":7,"encoder":"7205643","distractor":"7205645","target":"absent","response":"absent","rt":"4996.1999999881","correct":true,"confidence":-1},{"trial_n":74,"span":7,"encoder":"5552279","distractor":"5352279","target":"absent","response":"absent","rt":"1386.8000000119","correct":true,"confidence":-1},{"trial_n":75,"span":8,"encoder":"26782144","distractor":"36782144","target":"present","response":"present","rt":"3517.2999999523","correct":true,"confidence":-1},{"trial_n":76,"span":8,"encoder":"09709306","distractor":"09789306","target":"present","response":"absent","rt":"3507.6000000238","correct":false,"confidence":-1},{"trial_n":77,"span":7,"encoder":"2790270","distractor":"2790275","target":"absent","response":"present","rt":"1129.0999999642","correct":false,"confidence":-1},{"trial_n":78,"span":6,"encoder":"895361","distractor":"895341","target":"present","response":"absent","rt":"728.19999998808","correct":false,"confidence":-1},{"trial_n":79,"span":5,"encoder":"37680","distractor":"36680","target":"absent","response":"absent","rt":"792","correct":true,"confidence":-1},{"trial_n":80,"span":5,"encoder":"32322","distractor":"38322","target":"present","response":"present","rt":"819.10000002384","correct":true,"confidence":-1},{"trial_n":81,"span":6,"encoder":"503955","distractor":"503995","target":"absent","response":"absent","rt":"854.09999996424","correct":true,"confidence":-1},{"trial_n":82,"span":6,"encoder":"620778","distractor":"640778","target":"absent","response":"present","rt":"534.5","correct":false,"confidence":-1},{"trial_n":83,"span":5,"encoder":"56568","distractor":"56768","target":"present","response":"present","rt":"965.60000002384","correct":true,"confidence":-1},{"trial_n":84,"span":5,"encoder":"76773","distractor":"71773","target":"absent","response":"present","rt":"1183.6999999881","correct":false,"confidence":-1},{"trial_n":85,"span":4,"encoder":"9294","distractor":"9204","target":"absent","response":"present","rt":"1811.8000000119","correct":false,"confidence":-1},{"trial_n":86,"span":3,"encoder":"105","distractor":"175","target":"absent","response":"present","rt":"2427.2999999523","correct":false,"confidence":-1},{"trial_n":87,"span":2,"encoder":"63","distractor":"53","target":"present","response":"absent","rt":"1222.1999999881","correct":false,"confidence":-1},{"trial_n":88,"span":2,"encoder":"28","distractor":"48","target":"absent","response":"present","rt":"1736.1999999881","correct":false,"confidence":-1},{"trial_n":89,"span":2,"encoder":"85","distractor":"87","target":"present","response":"present","rt":"998.80000001192","correct":true,"confidence":-1},{"trial_n":90,"span":2,"encoder":"33","distractor":"63","target":"absent","response":"absent","rt":"1284.3000000119","correct":true,"confidence":-1},{"trial_n":91,"span":3,"encoder":"113","distractor":"193","target":"absent","response":"absent","rt":"1211.8999999762","correct":true,"confidence":5},{"trial_n":92,"span":3,"encoder":"805","distractor":"405","target":"present","response":"present","rt":"1141.1000000238","correct":true,"confidence":5},{"trial_n":93,"span":4,"encoder":"9285","distractor":"4285","target":"absent","response":"absent","rt":"1444.4000000358","correct":true,"confidence":5},{"trial_n":94,"span":4,"encoder":"6650","distractor":"5650","target":"present","response":"present","rt":"1584.5","correct":true,"confidence":5},{"trial_n":95,"span":5,"encoder":"01740","distractor":"11740","target":"present","response":"present","rt":"1515","correct":true,"confidence":5},{"trial_n":96,"span":5,"encoder":"51447","distractor":"51407","target":"present","response":"present","rt":"3258.5","correct":true,"confidence":5},{"trial_n":97,"span":6,"encoder":"931345","distractor":"931385","target":"absent","response":"absent","rt":"1941.1000000238","correct":true,"confidence":5},{"trial_n":98,"span":6,"encoder":"542222","distractor":"542221","target":"absent","response":"absent","rt":"1813.1999999881","correct":true,"confidence":5},{"trial_n":99,"span":7,"encoder":"1336713","distractor":"1336313","target":"present","response":"present","rt":"2674.1999999881","correct":true,"confidence":5},{"trial_n":100,"span":7,"encoder":"5526987","distractor":"5226987","target":"present","response":"present","rt":"3616.1999999881","correct":true,"confidence":5},{"trial_n":101,"span":8,"encoder":"87862214","distractor":"87862224","target":"present","response":"present","rt":"1520.3999999762","correct":true,"confidence":5},{"trial_n":102,"span":8,"encoder":"32838683","distractor":"32838603","target":"absent","response":"absent","rt":"2169.3000000119","correct":true,"confidence":5},{"trial_n":103,"span":9,"encoder":"128717027","distractor":"148717027","target":"present","response":"present","rt":"1736.6999999881","correct":true,"confidence":5},{"trial_n":104,"span":9,"encoder":"433796300","distractor":"433796000","target":"absent","response":"present","rt":"1604.6999999881","correct":false,"confidence":3},{"trial_n":105,"span":8,"encoder":"68730874","distractor":"68730474","target":"absent","response":"absent","rt":"4142","correct":true,"confidence":3},{"trial_n":106,"span":8,"encoder":"27016343","distractor":"57016343","target":"absent","response":"absent","rt":"2888.0999999642","correct":true,"confidence":5},{"trial_n":107,"span":9,"encoder":"367833494","distractor":"867833494","target":"absent","response":"present","rt":"2157.6999999881","correct":false,"confidence":5},{"trial_n":108,"span":8,"encoder":"39372574","distractor":"39372570","target":"present","response":"present","rt":"2787.5","correct":true,"confidence":5},{"trial_n":109,"span":8,"encoder":"66379032","distractor":"66379037","target":"present","response":"present","rt":"2570.7000000477","correct":true,"confidence":5},{"trial_n":110,"span":9,"encoder":"279691740","distractor":"278691740","target":"absent","response":"present","rt":"5330.7000000477","correct":false,"confidence":2},{"trial_n":111,"span":8,"encoder":"31590820","distractor":"31590620","target":"absent","response":"absent","rt":"4599.9000000358","correct":true,"confidence":4},{"trial_n":112,"span":8,"encoder":"11036669","distractor":"11036659","target":"present","response":"present","rt":"2172.6999999881","correct":true,"confidence":5},{"trial_n":113,"span":9,"encoder":"205618358","distractor":"225618358","target":"absent","response":"present","rt":"5689.1000000238","correct":false,"confidence":5},{"trial_n":114,"span":8,"encoder":"70264784","distractor":"76264784","target":"present","response":"present","rt":"2357.6999999881","correct":true,"confidence":5},{"trial_n":115,"span":8,"encoder":"64504811","distractor":"68504811","target":"absent","response":"present","rt":"3662.6000000238","correct":false,"confidence":2},{"trial_n":116,"span":7,"encoder":"9810047","distractor":"9820047","target":"absent","response":"absent","rt":"3447.6000000238","correct":true,"confidence":5},{"trial_n":117,"span":7,"encoder":"1305880","distractor":"8305880","target":"present","response":"present","rt":"3289.9000000358","correct":true,"confidence":5},{"trial_n":118,"span":8,"encoder":"84141528","distractor":"84191528","target":"absent","response":"absent","rt":"3326.3000000119","correct":true,"confidence":5},{"trial_n":119,"span":8,"encoder":"70973158","distractor":"70373158","target":"present","response":"present","rt":"2054.3000000119","correct":true,"confidence":3},{"trial_n":120,"span":9,"encoder":"233724362","distractor":"233704362","target":"absent","response":"present","rt":"3855.3000000119","correct":false,"confidence":4},{"trial_n":121,"span":8,"encoder":"34705737","distractor":"34305737","target":"absent","response":"present","rt":"919.30000001192","correct":false,"confidence":3},{"trial_n":122,"span":7,"encoder":"1047798","distractor":"1087798","target":"present","response":"present","rt":"4081.1000000238","correct":true,"confidence":3},{"trial_n":123,"span":7,"encoder":"7108974","distractor":"7107974","target":"present","response":"absent","rt":"9566.8000000119","correct":false,"confidence":3},{"trial_n":124,"span":6,"encoder":"898827","distractor":"897827","target":"present","response":"present","rt":"2471.4000000358","correct":true,"confidence":3},{"trial_n":125,"span":6,"encoder":"355343","distractor":"365343","target":"present","response":"present","rt":"1212.6000000238","correct":true,"confidence":3},{"trial_n":126,"span":7,"encoder":"1140299","distractor":"1140239","target":"absent","response":"absent","rt":"854","correct":true,"confidence":1},{"trial_n":127,"span":7,"encoder":"9595970","distractor":"9597970","target":"absent","response":"present","rt":"1039.9000000358","correct":false,"confidence":3},{"trial_n":128,"span":6,"encoder":"198805","distractor":"198865","target":"present","response":"absent","rt":"1304.7999999523","correct":false,"confidence":3},{"trial_n":129,"span":5,"encoder":"62493","distractor":"62443","target":"absent","response":"absent","rt":"2850.1999999881","correct":true,"confidence":5},{"trial_n":130,"span":5,"encoder":"64693","distractor":"54693","target":"present","response":"present","rt":"1413.3999999762","correct":true,"confidence":5},{"trial_n":131,"span":6,"encoder":"591413","distractor":"597413","target":"present","response":"present","rt":"2828.1999999881","correct":true,"confidence":5},{"trial_n":132,"span":6,"encoder":"130187","distractor":"730187","target":"present","response":"present","rt":"2031.5","correct":true,"confidence":5},{"trial_n":133,"span":7,"encoder":"7416734","distractor":"7916734","target":"present","response":"present","rt":"3454.7999999523","correct":true,"confidence":5},{"trial_n":134,"span":7,"encoder":"7332771","distractor":"7332871","target":"absent","response":"absent","rt":"1379.5","correct":true,"confidence":5},{"trial_n":135,"span":8,"encoder":"26358249","distractor":"26318249","target":"present","response":"present","rt":"2841.5","correct":true,"confidence":5},{"trial_n":136,"span":8,"encoder":"72133951","distractor":"72133971","target":"absent","response":"absent","rt":"2094","correct":true,"confidence":4},{"trial_n":137,"span":9,"encoder":"250072539","distractor":"450072539","target":"absent","response":"absent","rt":"1917.1999999881","correct":true,"confidence":4},{"trial_n":138,"span":9,"encoder":"478635683","distractor":"478635583","target":"present","response":"present","rt":"2153.5999999642","correct":true,"confidence":4},{"trial_n":139,"span":10,"encoder":"8019822234","distractor":"8019822934","target":"present","response":"present","rt":"1055.1999999881","correct":true,"confidence":4},{"trial_n":140,"span":10,"encoder":"9932746899","distractor":"9532746899","target":"present","response":"present","rt":"834.5","correct":true,"confidence":3}]