[{"trial_n":1,"n_dots":4.25,"target":"right","response":"left","rt":1483.2999999821,"correct":false,"confidence":-1},{"trial_n":2,"n_dots":4.25,"target":"left","response":"right","rt":1847.900000006,"correct":false,"confidence":-1},{"trial_n":3,"n_dots":4.65,"target":"left","response":"left","rt":656.30000001192,"correct":true,"confidence":-1},{"trial_n":4,"n_dots":4.65,"target":"right","response":"right","rt":405.70000001788,"correct":true,"confidence":-1},{"trial_n":5,"n_dots":4.25,"target":"left","response":"left","rt":1009.8000000119,"correct":true,"confidence":-1},{"trial_n":6,"n_dots":4.25,"target":"right","response":"right","rt":1020.6000000238,"correct":true,"confidence":-1},{"trial_n":7,"n_dots":3.85,"target":"left","response":"right","rt":1268.6999999881,"correct":false,"confidence":-1},{"trial_n":8,"n_dots":4.05,"target":"right","response":"right","rt":177.40000000596,"correct":true,"confidence":-1},{"trial_n":9,"n_dots":4.05,"target":"left","response":"left","rt":869.20000001788,"correct":true,"confidence":-1},{"trial_n":10,"n_dots":3.85,"target":"left","response":"right","rt":667.69999998808,"correct":false,"confidence":-1},{"trial_n":11,"n_dots":4.05,"target":"left","response":"right","rt":785.30000001192,"correct":false,"confidence":-1},{"trial_n":12,"n_dots":4.25,"target":"right","response":"right","rt":794.5,"correct":true,"confidence":-1},{"trial_n":13,"n_dots":4.25,"target":"left","response":"left","rt":845.39999997616,"correct":true,"confidence":-1},{"trial_n":14,"n_dots":4.15,"target":"right","response":"right","rt":900.30000001192,"correct":true,"confidence":-1},{"trial_n":15,"n_dots":4.15,"target":"right","response":"right","rt":910.09999999404,"correct":true,"confidence":-1},{"trial_n":16,"n_dots":4.05,"target":"left","response":"right","rt":766.30000001192,"correct":false,"confidence":-1},{"trial_n":17,"n_dots":4.15,"target":"left","response":"left","rt":955.80000001192,"correct":true,"confidence":-1},{"trial_n":18,"n_dots":4.15,"target":"left","response":"left","rt":809.40000000596,"correct":true,"confidence":-1},{"trial_n":19,"n_dots":4.05,"target":"right","response":"right","rt":1018.2999999821,"correct":true,"confidence":-1},{"trial_n":20,"n_dots":4.05,"target":"left","response":"left","rt":744,"correct":true,"confidence":-1},{"trial_n":21,"n_dots":3.95,"target":"right","response":"left","rt":942.80000001192,"correct":false,"confidence":3},{"trial_n":22,"n_dots":4.05,"target":"left","response":"right","rt":2877.2999999821,"correct":false,"confidence":3},{"trial_n":23,"n_dots":4.15,"target":"right","response":"right","rt":399.79999998212,"correct":true,"confidence":4},{"trial_n":24,"n_dots":4.15,"target":"left","response":"left","rt":855,"correct":true,"confidence":4},{"trial_n":25,"n_dots":4.05,"target":"left","response":"left","rt":958.5,"correct":true,"confidence":4},{"trial_n":26,"n_dots":4.05,"target":"right","response":"right","rt":1477.900000006,"correct":true,"confidence":4},{"trial_n":27,"n_dots":3.95,"target":"left","response":"left","rt":1044.6999999881,"correct":true,"confidence":4},{"trial_n":28,"n_dots":3.95,"target":"right","response":"right","rt":716.69999998808,"correct":true,"confidence":3},{"trial_n":29,"n_dots":3.85,"target":"right","response":"right","rt":852.69999998808,"correct":true,"confidence":4},{"trial_n":30,"n_dots":3.85,"target":"left","response":"left","rt":886.59999999404,"correct":true,"confidence":4},{"trial_n":31,"n_dots":3.75,"target":"left","response":"left","rt":1434.3000000119,"correct":true,"confidence":3},{"trial_n":32,"n_dots":3.75,"target":"right","response":"right","rt":757.90000000596,"correct":true,"confidence":3},{"trial_n":33,"n_dots":3.65,"target":"left","response":"left","rt":392,"correct":true,"confidence":3},{"trial_n":34,"n_dots":3.65,"target":"right","response":"right","rt":367.69999998808,"correct":true,"confidence":3},{"trial_n":35,"n_dots":3.55,"target":"left","response":"right","rt":846.90000000596,"correct":false,"confidence":3},{"trial_n":36,"n_dots":3.65,"target":"right","response":"right","rt":321.5,"correct":true,"confidence":4},{"trial_n":37,"n_dots":3.65,"target":"right","response":"right","rt":1070,"correct":true,"confidence":4},{"trial_n":38,"n_dots":3.55,"target":"left","response":"right","rt":99.5,"correct":false,"confidence":4},{"trial_n":39,"n_dots":3.65,"target":"right","response":"right","rt":824.20000001788,"correct":true,"confidence":4},{"trial_n":40,"n_dots":3.65,"target":"left","response":"left","rt":2517.099999994,"correct":true,"confidence":4},{"trial_n":41,"n_dots":3.55,"target":"left","response":"right","rt":1481.400000006,"correct":false,"confidence":3},{"trial_n":42,"n_dots":3.65,"target":"left","response":"right","rt":15.59999999404,"correct":false,"confidence":3},{"trial_n":43,"n_dots":3.75,"target":"right","response":"right","rt":195.10000002384,"correct":true,"confidence":4},{"trial_n":44,"n_dots":3.75,"target":"left","response":"left","rt":870.29999998212,"correct":true,"confidence":4},{"trial_n":45,"n_dots":3.65,"target":"left","response":"right","rt":458.60000002384,"correct":false,"confidence":4},{"trial_n":46,"n_dots":3.75,"target":"right","response":"left","rt":1356,"correct":false,"confidence":3},{"trial_n":47,"n_dots":3.85,"target":"right","response":"right","rt":2028.5,"correct":true,"confidence":3},{"trial_n":48,"n_dots":3.85,"target":"left","response":"left","rt":1391.900000006,"correct":true,"confidence":4},{"trial_n":49,"n_dots":3.75,"target":"left","response":"left","rt":555.5,"correct":true,"confidence":4},{"trial_n":50,"n_dots":3.75,"target":"right","response":"right","rt":248.09999999404,"correct":true,"confidence":4},{"trial_n":51,"n_dots":3.65,"target":"left","response":"right","rt":53.699999988079,"correct":false,"confidence":4},{"trial_n":52,"n_dots":3.75,"target":"left","response":"right","rt":137.09999999404,"correct":false,"confidence":4},{"trial_n":53,"n_dots":3.85,"target":"right","response":"right","rt":13.800000011921,"correct":true,"confidence":4},{"trial_n":54,"n_dots":3.85,"target":"left","response":"left","rt":374.19999998808,"correct":true,"confidence":4},{"trial_n":55,"n_dots":3.75,"target":"right","response":"right","rt":10.09999999404,"correct":true,"confidence":4},{"trial_n":56,"n_dots":3.75,"target":"left","response":"left","rt":140.80000001192,"correct":true,"confidence":4},{"trial_n":57,"n_dots":3.65,"target":"right","response":"right","rt":1738.900000006,"correct":true,"confidence":4},{"trial_n":58,"n_dots":3.65,"target":"left","response":"left","rt":60.800000011921,"correct":true,"confidence":4},{"trial_n":59,"n_dots":3.55,"target":"right","response":"right","rt":523.40000000596,"correct":true,"confidence":4},{"trial_n":60,"n_dots":3.55,"target":"left","response":"right","rt":1002.1999999881,"correct":false,"confidence":3},{"trial_n":61,"n_dots":3.65,"target":"left","response":"left","rt":1678,"correct":true,"confidence":3},{"trial_n":62,"n_dots":3.65,"target":"left","response":"left","rt":1751.6000000238,"correct":true,"confidence":2},{"trial_n":63,"n_dots":3.55,"target":"right","response":"right","rt":557.90000000596,"correct":true,"confidence":4},{"trial_n":64,"n_dots":3.55,"target":"right","response":"right","rt":215.40000000596,"correct":true,"confidence":4},{"trial_n":65,"n_dots":3.45,"target":"right","response":"right","rt":110.69999998808,"correct":true,"confidence":4},{"trial_n":66,"n_dots":3.45,"target":"right","response":"right","rt":325.59999999404,"correct":true,"confidence":4},{"trial_n":67,"n_dots":3.35,"target":"left","response":"right","rt":1755,"correct":false,"confidence":3},{"trial_n":68,"n_dots":3.45,"target":"left","response":"left","rt":1044.7999999821,"correct":true,"confidence":3},{"trial_n":69,"n_dots":3.45,"target":"right","response":"right","rt":743.30000001192,"correct":true,"confidence":3},{"trial_n":70,"n_dots":3.35,"target":"right","response":"right","rt":861.5,"correct":true,"confidence":4},{"trial_n":71,"n_dots":3.35,"target":"left","response":"left","rt":879.30000001192,"correct":true,"confidence":4},{"trial_n":72,"n_dots":3.25,"target":"right","response":"right","rt":109.40000000596,"correct":true,"confidence":4},{"trial_n":73,"n_dots":3.25,"target":"right","response":"right","rt":612.80000001192,"correct":true,"confidence":3},{"trial_n":74,"n_dots":3.15,"target":"right","response":"right","rt":176.29999998212,"correct":true,"confidence":4},{"trial_n":75,"n_dots":3.15,"target":"left","response":"right","rt":535.19999998808,"correct":false,"confidence":4},{"trial_n":76,"n_dots":3.25,"target":"left","response":"left","rt":676.20000001788,"correct":true,"confidence":3},{"trial_n":77,"n_dots":3.25,"target":"right","response":"right","rt":1267,"correct":true,"confidence":4},{"trial_n":78,"n_dots":3.15,"target":"right","response":"right","rt":1705.6999999881,"correct":true,"confidence":4},{"trial_n":79,"n_dots":3.15,"target":"left","response":"left","rt":975.70000001788,"correct":true,"confidence":3},{"trial_n":80,"n_dots":3.05,"target":"left","response":"left","rt":246.39999997616,"correct":true,"confidence":4},{"trial_n":81,"n_dots":3.05,"target":"left","response":"left","rt":1321.5,"correct":true,"confidence":3},{"trial_n":82,"n_dots":2.95,"target":"left","response":"left","rt":279.19999998808,"correct":true,"confidence":3},{"trial_n":83,"n_dots":2.95,"target":"right","response":"right","rt":50.09999999404,"correct":true,"confidence":3},{"trial_n":84,"n_dots":2.85,"target":"left","response":"left","rt":919.59999999404,"correct":true,"confidence":3},{"trial_n":85,"n_dots":2.85,"target":"right","response":"right","rt":614.80000001192,"correct":true,"confidence":3},{"trial_n":86,"n_dots":2.75,"target":"right","response":"left","rt":7.4000000059605,"correct":false,"confidence":3},{"trial_n":87,"n_dots":2.85,"target":"right","response":"right","rt":360.69999998808,"correct":true,"confidence":3},{"trial_n":88,"n_dots":2.85,"target":"left","response":"left","rt":490.90000000596,"correct":true,"confidence":4},{"trial_n":89,"n_dots":2.75,"target":"left","response":"left","rt":1086.900000006,"correct":true,"confidence":3},{"trial_n":90,"n_dots":2.75,"target":"right","response":"right","rt":546.19999998808,"correct":true,"confidence":2},{"trial_n":91,"n_dots":2.65,"target":"right","response":"right","rt":279,"correct":true,"confidence":3},{"trial_n":92,"n_dots":2.65,"target":"right","response":"right","rt":585.5,"correct":true,"confidence":3},{"trial_n":93,"n_dots":2.55,"target":"left","response":"left","rt":1767.5,"correct":true,"confidence":2},{"trial_n":94,"n_dots":2.55,"target":"left","response":"left","rt":1421.099999994,"correct":true,"confidence":4},{"trial_n":95,"n_dots":2.45,"target":"left","response":"left","rt":1341.599999994,"correct":true,"confidence":4},{"trial_n":96,"n_dots":2.45,"target":"left","response":"left","rt":1122.8000000119,"correct":true,"confidence":4},{"trial_n":97,"n_dots":2.35,"target":"left","response":"right","rt":3051.3999999762,"correct":false,"confidence":2},{"trial_n":98,"n_dots":2.45,"target":"right","response":"left","rt":1023.2999999821,"correct":false,"confidence":3},{"trial_n":99,"n_dots":2.55,"target":"left","response":"left","rt":630.40000000596,"correct":true,"confidence":3},{"trial_n":100,"n_dots":2.55,"target":"left","response":"left","rt":978.40000000596,"correct":true,"confidence":4},{"trial_n":101,"n_dots":2.45,"target":"right","response":"left","rt":1257.2999999821,"correct":false,"confidence":2},{"trial_n":102,"n_dots":2.55,"target":"right","response":"right","rt":1789.6000000238,"correct":true,"confidence":3},{"trial_n":103,"n_dots":2.55,"target":"right","response":"right","rt":409.20000001788,"correct":true,"confidence":3},{"trial_n":104,"n_dots":2.45,"target":"left","response":"left","rt":341.30000001192,"correct":true,"confidence":3},{"trial_n":105,"n_dots":2.45,"target":"right","response":"right","rt":1213,"correct":true,"confidence":2},{"trial_n":106,"n_dots":2.35,"target":"right","response":"left","rt":515.39999997616,"correct":false,"confidence":1},{"trial_n":107,"n_dots":2.45,"target":"left","response":"left","rt":324.5,"correct":true,"confidence":3},{"trial_n":108,"n_dots":2.45,"target":"left","response":"right","rt":195.60000002384,"correct":false,"confidence":3},{"trial_n":109,"n_dots":2.55,"target":"right","response":"right","rt":589.70000001788,"correct":true,"confidence":3},{"trial_n":110,"n_dots":2.55,"target":"right","response":"right","rt":114.69999998808,"correct":true,"confidence":3},{"trial_n":111,"n_dots":2.45,"target":"right","response":"left","rt":871.29999998212,"correct":false,"confidence":3},{"trial_n":112,"n_dots":2.55,"target":"right","response":"left","rt":1651.2999999821,"correct":false,"confidence":4},{"trial_n":113,"n_dots":2.65,"target":"left","response":"left","rt":30,"correct":true,"confidence":4},{"trial_n":114,"n_dots":2.65,"target":"right","response":"right","rt":462.30000001192,"correct":true,"confidence":4},{"trial_n":115,"n_dots":2.55,"target":"right","response":"right","rt":446,"correct":true,"confidence":4},{"trial_n":116,"n_dots":2.55,"target":"right","response":"right","rt":636.10000002384,"correct":true,"confidence":4},{"trial_n":117,"n_dots":2.45,"target":"right","response":"left","rt":1215.3000000119,"correct":false,"confidence":2},{"trial_n":118,"n_dots":2.55,"target":"right","response":"right","rt":986.39999997616,"correct":true,"confidence":3},{"trial_n":119,"n_dots":2.55,"target":"right","response":"right","rt":3506.7000000179,"correct":true,"confidence":2},{"trial_n":120,"n_dots":2.45,"target":"left","response":"right","rt":3643.3000000119,"correct":false,"confidence":3}]