[{"trial_n":1,"min":25,"max":230,"target":"present","response":"present","rt":12934.5,"correct":true,"confidence":-1},{"trial_n":2,"min":25,"max":230,"target":"present","response":"present","rt":8808,"correct":true,"confidence":-1},{"trial_n":3,"min":41,"max":214,"target":"absent","response":"absent","rt":3567.5,"correct":true,"confidence":-1},{"trial_n":4,"min":41,"max":214,"target":"absent","response":"absent","rt":1451,"correct":true,"confidence":-1},{"trial_n":5,"min":57,"max":198,"target":"present","response":"absent","rt":851.69999998808,"correct":false,"confidence":-1},{"trial_n":6,"min":41,"max":214,"target":"present","response":"present","rt":2166.8000000119,"correct":true,"confidence":-1},{"trial_n":7,"min":41,"max":214,"target":"present","response":"present","rt":1313.099999994,"correct":true,"confidence":-1},{"trial_n":8,"min":57,"max":198,"target":"present","response":"present","rt":836.59999999404,"correct":true,"confidence":-1},{"trial_n":9,"min":57,"max":198,"target":"present","response":"present","rt":862.79999998212,"correct":true,"confidence":-1},{"trial_n":10,"min":73,"max":182,"target":"absent","response":"absent","rt":2592.7999999821,"correct":true,"confidence":-1},{"trial_n":11,"min":73,"max":182,"target":"present","response":"absent","rt":1467.599999994,"correct":false,"confidence":-1},{"trial_n":12,"min":65,"max":190,"target":"absent","response":"absent","rt":874.40000000596,"correct":true,"confidence":-1},{"trial_n":13,"min":65,"max":190,"target":"absent","response":"absent","rt":754.90000000596,"correct":true,"confidence":-1},{"trial_n":14,"min":73,"max":182,"target":"absent","response":"absent","rt":844.60000002384,"correct":true,"confidence":-1},{"trial_n":15,"min":73,"max":182,"target":"absent","response":"absent","rt":887.5,"correct":true,"confidence":-1},{"trial_n":16,"min":81,"max":174,"target":"present","response":"absent","rt":998.39999997616,"correct":false,"confidence":-1},{"trial_n":17,"min":73,"max":182,"target":"absent","response":"absent","rt":1074,"correct":true,"confidence":-1},{"trial_n":18,"min":73,"max":182,"target":"absent","response":"absent","rt":842.40000000596,"correct":true,"confidence":-1},{"trial_n":19,"min":81,"max":174,"target":"present","response":"present","rt":1352.099999994,"correct":true,"confidence":-1},{"trial_n":20,"min":81,"max":174,"target":"absent","response":"absent","rt":1388,"correct":true,"confidence":-1},{"trial_n":21,"min":85,"max":170,"target":"absent","response":"absent","rt":933.5,"correct":true,"confidence":3},{"trial_n":22,"min":85,"max":170,"target":"absent","response":"absent","rt":1438.400000006,"correct":true,"confidence":3},{"trial_n":23,"min":89,"max":166,"target":"absent","response":"absent","rt":2221,"correct":true,"confidence":2},{"trial_n":24,"min":89,"max":166,"target":"present","response":"absent","rt":1880,"correct":false,"confidence":3},{"trial_n":25,"min":85,"max":170,"target":"present","response":"present","rt":1261.2999999821,"correct":true,"confidence":4},{"trial_n":26,"min":85,"max":170,"target":"absent","response":"absent","rt":1213.599999994,"correct":true,"confidence":3},{"trial_n":27,"min":89,"max":166,"target":"present","response":"present","rt":2601.099999994,"correct":true,"confidence":3},{"trial_n":28,"min":89,"max":166,"target":"present","response":"absent","rt":1576.2999999821,"correct":false,"confidence":3},{"trial_n":29,"min":85,"max":170,"target":"absent","response":"present","rt":1848.8000000119,"correct":false,"confidence":3},{"trial_n":30,"min":81,"max":174,"target":"absent","response":"absent","rt":1380.6999999881,"correct":true,"confidence":3},{"trial_n":31,"min":81,"max":174,"target":"present","response":"absent","rt":1170.099999994,"correct":false,"confidence":3},{"trial_n":32,"min":79,"max":176,"target":"absent","response":"absent","rt":1792.599999994,"correct":true,"confidence":3},{"trial_n":33,"min":79,"max":176,"target":"present","response":"present","rt":1069,"correct":true,"confidence":4},{"trial_n":34,"min":81,"max":174,"target":"present","response":"present","rt":2591.5,"correct":true,"confidence":3},{"trial_n":35,"min":81,"max":174,"target":"present","response":"present","rt":1642.599999994,"correct":true,"confidence":4},{"trial_n":36,"min":83,"max":172,"target":"present","response":"present","rt":1460.3000000119,"correct":true,"confidence":3},{"trial_n":37,"min":83,"max":172,"target":"present","response":"absent","rt":6238.6000000238,"correct":false,"confidence":2},{"trial_n":38,"min":81,"max":174,"target":"present","response":"present","rt":1227.400000006,"correct":true,"confidence":5},{"trial_n":39,"min":81,"max":174,"target":"present","response":"present","rt":1876.400000006,"correct":true,"confidence":4},{"trial_n":40,"min":83,"max":172,"target":"absent","response":"absent","rt":1180.1999999881,"correct":true,"confidence":4},{"trial_n":41,"min":83,"max":172,"target":"present","response":"absent","rt":1728.400000006,"correct":false,"confidence":2},{"trial_n":42,"min":82,"max":173,"target":"absent","response":"present","rt":1241.7999999821,"correct":false,"confidence":3},{"trial_n":43,"min":81,"max":174,"target":"present","response":"present","rt":1160.900000006,"correct":true,"confidence":3},{"trial_n":44,"min":81,"max":174,"target":"absent","response":"absent","rt":2243.900000006,"correct":true,"confidence":3},{"trial_n":45,"min":82,"max":173,"target":"absent","response":"absent","rt":8687.1999999881,"correct":true,"confidence":2},{"trial_n":46,"min":82,"max":173,"target":"present","response":"absent","rt":2790.6000000238,"correct":false,"confidence":3},{"trial_n":47,"min":81,"max":174,"target":"absent","response":"absent","rt":1364.099999994,"correct":true,"confidence":3},{"trial_n":48,"min":81,"max":174,"target":"absent","response":"absent","rt":1553.8000000119,"correct":true,"confidence":3},{"trial_n":49,"min":82,"max":173,"target":"present","response":"present","rt":1195,"correct":true,"confidence":3},{"trial_n":50,"min":82,"max":173,"target":"present","response":"present","rt":1356.8000000119,"correct":true,"confidence":3},{"trial_n":51,"min":83,"max":172,"target":"absent","response":"present","rt":1370.099999994,"correct":false,"confidence":3},{"trial_n":52,"min":82,"max":173,"target":"present","response":"present","rt":1250.8000000119,"correct":true,"confidence":3},{"trial_n":53,"min":82,"max":173,"target":"absent","response":"absent","rt":1084.1999999881,"correct":true,"confidence":3},{"trial_n":54,"min":83,"max":172,"target":"absent","response":"absent","rt":1556,"correct":true,"confidence":3},{"trial_n":55,"min":83,"max":172,"target":"absent","response":"present","rt":1387.900000006,"correct":false,"confidence":3},{"trial_n":56,"min":82,"max":173,"target":"present","response":"present","rt":1181.099999994,"correct":true,"confidence":4},{"trial_n":57,"min":82,"max":173,"target":"present","response":"absent","rt":3332.2000000179,"correct":false,"confidence":2},{"trial_n":58,"min":81,"max":174,"target":"absent","response":"absent","rt":1920.400000006,"correct":true,"confidence":2},{"trial_n":59,"min":81,"max":174,"target":"present","response":"absent","rt":1547.1000000238,"correct":false,"confidence":3},{"trial_n":60,"min":80,"max":175,"target":"present","response":"absent","rt":1325.400000006,"correct":false,"confidence":3},{"trial_n":61,"min":79,"max":176,"target":"absent","response":"absent","rt":1613.3000000119,"correct":true,"confidence":3},{"trial_n":62,"min":79,"max":176,"target":"absent","response":"absent","rt":1359.400000006,"correct":true,"confidence":2},{"trial_n":63,"min":80,"max":175,"target":"present","response":"present","rt":1035.7999999821,"correct":true,"confidence":5},{"trial_n":64,"min":80,"max":175,"target":"absent","response":"absent","rt":1034.1999999881,"correct":true,"confidence":4},{"trial_n":65,"min":81,"max":174,"target":"absent","response":"absent","rt":3309.6999999881,"correct":true,"confidence":3},{"trial_n":66,"min":81,"max":174,"target":"absent","response":"absent","rt":2138.3999999762,"correct":true,"confidence":4},{"trial_n":67,"min":82,"max":173,"target":"absent","response":"absent","rt":1243.6999999881,"correct":true,"confidence":3},{"trial_n":68,"min":82,"max":173,"target":"present","response":"present","rt":1313.099999994,"correct":true,"confidence":3},{"trial_n":69,"min":83,"max":172,"target":"present","response":"present","rt":1249.099999994,"correct":true,"confidence":4},{"trial_n":70,"min":83,"max":172,"target":"present","response":"present","rt":1361.6999999881,"correct":true,"confidence":3},{"trial_n":71,"min":41,"max":214,"target":"present","response":"present","rt":2530.8000000119,"correct":true,"confidence":-1},{"trial_n":72,"min":41,"max":214,"target":"present","response":"present","rt":1639,"correct":true,"confidence":-1},{"trial_n":73,"min":57,"max":198,"target":"absent","response":"absent","rt":1815.6999999881,"correct":true,"confidence":-1},{"trial_n":74,"min":57,"max":198,"target":"absent","response":"absent","rt":897,"correct":true,"confidence":-1},{"trial_n":75,"min":73,"max":182,"target":"present","response":"present","rt":1538.900000006,"correct":true,"confidence":-1},{"trial_n":76,"min":73,"max":182,"target":"present","response":"present","rt":949.20000001788,"correct":true,"confidence":-1},{"trial_n":77,"min":89,"max":166,"target":"absent","response":"present","rt":2254.599999994,"correct":false,"confidence":-1},{"trial_n":78,"min":73,"max":182,"target":"present","response":"present","rt":1187.900000006,"correct":true,"confidence":-1},{"trial_n":79,"min":73,"max":182,"target":"absent","response":"absent","rt":3125,"correct":true,"confidence":-1},{"trial_n":80,"min":89,"max":166,"target":"absent","response":"absent","rt":2714.400000006,"correct":true,"confidence":-1},{"trial_n":81,"min":89,"max":166,"target":"present","response":"present","rt":1316.099999994,"correct":true,"confidence":-1},{"trial_n":82,"min":97,"max":158,"target":"present","response":"present","rt":939.5,"correct":true,"confidence":-1},{"trial_n":83,"min":97,"max":158,"target":"present","response":"present","rt":1903.099999994,"correct":true,"confidence":-1},{"trial_n":84,"min":105,"max":150,"target":"present","response":"present","rt":946.10000002384,"correct":true,"confidence":-1},{"trial_n":85,"min":105,"max":150,"target":"present","response":"present","rt":923.79999998212,"correct":true,"confidence":-1},{"trial_n":86,"min":113,"max":142,"target":"absent","response":"present","rt":797.69999998808,"correct":false,"confidence":-1},{"trial_n":87,"min":105,"max":150,"target":"absent","response":"present","rt":950.09999999404,"correct":false,"confidence":-1},{"trial_n":88,"min":97,"max":158,"target":"present","response":"present","rt":2684.2000000179,"correct":true,"confidence":-1},{"trial_n":89,"min":97,"max":158,"target":"absent","response":"present","rt":804.90000000596,"correct":false,"confidence":-1},{"trial_n":90,"min":89,"max":166,"target":"present","response":"present","rt":690.80000001192,"correct":true,"confidence":-1},{"trial_n":91,"min":89,"max":166,"target":"absent","response":"present","rt":1679.599999994,"correct":false,"confidence":3},{"trial_n":92,"min":85,"max":170,"target":"absent","response":"absent","rt":1781.400000006,"correct":true,"confidence":2},{"trial_n":93,"min":85,"max":170,"target":"absent","response":"absent","rt":1392.2999999821,"correct":true,"confidence":3},{"trial_n":94,"min":89,"max":166,"target":"present","response":"present","rt":1066.900000006,"correct":true,"confidence":4},{"trial_n":95,"min":89,"max":166,"target":"present","response":"present","rt":1144.8000000119,"correct":true,"confidence":3},{"trial_n":96,"min":93,"max":162,"target":"absent","response":"absent","rt":1673,"correct":true,"confidence":3},{"trial_n":97,"min":93,"max":162,"target":"absent","response":"present","rt":1679.7000000179,"correct":false,"confidence":3},{"trial_n":98,"min":89,"max":166,"target":"present","response":"present","rt":1180.599999994,"correct":true,"confidence":4},{"trial_n":99,"min":89,"max":166,"target":"absent","response":"present","rt":1539.7999999821,"correct":false,"confidence":4},{"trial_n":100,"min":85,"max":170,"target":"present","response":"present","rt":1225,"correct":true,"confidence":4},{"trial_n":101,"min":85,"max":170,"target":"present","response":"present","rt":841.19999998808,"correct":true,"confidence":4},{"trial_n":102,"min":87,"max":168,"target":"absent","response":"present","rt":1115.5,"correct":false,"confidence":3},{"trial_n":103,"min":85,"max":170,"target":"present","response":"present","rt":812.09999999404,"correct":true,"confidence":4},{"trial_n":104,"min":85,"max":170,"target":"absent","response":"present","rt":2077.900000006,"correct":false,"confidence":3},{"trial_n":105,"min":83,"max":172,"target":"present","response":"present","rt":1078,"correct":true,"confidence":3},{"trial_n":106,"min":83,"max":172,"target":"absent","response":"present","rt":1384.1999999881,"correct":false,"confidence":3},{"trial_n":107,"min":81,"max":174,"target":"present","response":"present","rt":1049.900000006,"correct":true,"confidence":4},{"trial_n":108,"min":81,"max":174,"target":"absent","response":"absent","rt":1462.1999999881,"correct":true,"confidence":3},{"trial_n":109,"min":83,"max":172,"target":"absent","response":"present","rt":1014.2000000179,"correct":false,"confidence":3},{"trial_n":110,"min":81,"max":174,"target":"absent","response":"absent","rt":1963.3000000119,"correct":true,"confidence":3},{"trial_n":111,"min":81,"max":174,"target":"present","response":"present","rt":1031.400000006,"correct":true,"confidence":3},{"trial_n":112,"min":82,"max":173,"target":"absent","response":"present","rt":1884.599999994,"correct":false,"confidence":3},{"trial_n":113,"min":81,"max":174,"target":"absent","response":"present","rt":1252.400000006,"correct":false,"confidence":3},{"trial_n":114,"min":80,"max":175,"target":"absent","response":"absent","rt":1657.3000000119,"correct":true,"confidence":3},{"trial_n":115,"min":80,"max":175,"target":"present","response":"present","rt":2534.599999994,"correct":true,"confidence":3},{"trial_n":116,"min":81,"max":174,"target":"absent","response":"present","rt":1198.5,"correct":false,"confidence":3},{"trial_n":117,"min":80,"max":175,"target":"present","response":"absent","rt":1806.900000006,"correct":false,"confidence":2},{"trial_n":118,"min":79,"max":176,"target":"present","response":"present","rt":2007,"correct":true,"confidence":3},{"trial_n":119,"min":79,"max":176,"target":"absent","response":"absent","rt":1923.599999994,"correct":true,"confidence":4},{"trial_n":120,"min":80,"max":175,"target":"absent","response":"present","rt":1192.5,"correct":false,"confidence":2},{"trial_n":121,"min":79,"max":176,"target":"present","response":"present","rt":1721.7999999821,"correct":true,"confidence":4},{"trial_n":122,"min":79,"max":176,"target":"present","response":"present","rt":990.30000001192,"correct":true,"confidence":4},{"trial_n":123,"min":80,"max":175,"target":"present","response":"present","rt":1289,"correct":true,"confidence":3},{"trial_n":124,"min":80,"max":175,"target":"present","response":"present","rt":2016,"correct":true,"confidence":5},{"trial_n":125,"min":81,"max":174,"target":"present","response":"present","rt":1187.7999999821,"correct":true,"confidence":4},{"trial_n":126,"min":81,"max":174,"target":"absent","response":"present","rt":1454.900000006,"correct":false,"confidence":3},{"trial_n":127,"min":80,"max":175,"target":"present","response":"present","rt":1747.099999994,"correct":true,"confidence":3},{"trial_n":128,"min":80,"max":175,"target":"absent","response":"absent","rt":1247.900000006,"correct":true,"confidence":2},{"trial_n":129,"min":81,"max":174,"target":"present","response":"present","rt":1236,"correct":true,"confidence":3},{"trial_n":130,"min":81,"max":174,"target":"absent","response":"present","rt":1363.7999999821,"correct":false,"confidence":2},{"trial_n":131,"min":80,"max":175,"target":"present","response":"present","rt":1177.7999999821,"correct":true,"confidence":3},{"trial_n":132,"min":80,"max":175,"target":"absent","response":"absent","rt":1095.099999994,"correct":true,"confidence":3},{"trial_n":133,"min":81,"max":174,"target":"present","response":"present","rt":1106.2999999821,"correct":true,"confidence":4},{"trial_n":134,"min":81,"max":174,"target":"present","response":"present","rt":1398.8999999762,"correct":true,"confidence":4},{"trial_n":135,"min":82,"max":173,"target":"absent","response":"present","rt":1149.2000000179,"correct":false,"confidence":3},{"trial_n":136,"min":81,"max":174,"target":"absent","response":"absent","rt":4836.8000000119,"correct":true,"confidence":2},{"trial_n":137,"min":81,"max":174,"target":"absent","response":"present","rt":3438.6999999881,"correct":false,"confidence":2},{"trial_n":138,"min":80,"max":175,"target":"absent","response":"absent","rt":2316,"correct":true,"confidence":2},{"trial_n":139,"min":80,"max":175,"target":"present","response":"present","rt":6091.5,"correct":true,"confidence":3},{"trial_n":140,"min":81,"max":174,"target":"present","response":"present","rt":1246,"correct":true,"confidence":4}]