[{"trial_n":1,"span":8,"encoder":"54751043","distractor":"54751053","target":"present","response":"present","rt":"4438.3000000007","correct":true,"confidence":-1},{"trial_n":2,"span":8,"encoder":"08798486","distractor":"08798586","target":"present","response":"absent","rt":"4226.1999999993","correct":false,"confidence":-1},{"trial_n":3,"span":6,"encoder":"374852","distractor":"394852","target":"absent","response":"present","rt":"1731.7999999989","correct":false,"confidence":-1},{"trial_n":4,"span":4,"encoder":"7122","distractor":"2122","target":"absent","response":"absent","rt":"2721.5999999996","correct":true,"confidence":-1},{"trial_n":5,"span":4,"encoder":"2446","distractor":"2443","target":"present","response":"present","rt":"1503.5","correct":true,"confidence":-1},{"trial_n":6,"span":6,"encoder":"333588","distractor":"833588","target":"absent","response":"absent","rt":"4315.2999999989","correct":true,"confidence":-1},{"trial_n":7,"span":6,"encoder":"601992","distractor":"501992","target":"present","response":"present","rt":"2665.0999999996","correct":true,"confidence":-1},{"trial_n":8,"span":8,"encoder":"02339837","distractor":"00339837","target":"absent","response":"present","rt":"2083.5999999996","correct":false,"confidence":-1},{"trial_n":9,"span":6,"encoder":"589445","distractor":"689445","target":"present","response":"present","rt":"2338.4000000004","correct":true,"confidence":-1},{"trial_n":10,"span":6,"encoder":"745119","distractor":"745117","target":"absent","response":"absent","rt":"2799.8000000007","correct":true,"confidence":-1},{"trial_n":11,"span":8,"encoder":"48282969","distractor":"48282963","target":"absent","response":"absent","rt":"3815.4000000004","correct":true,"confidence":-1},{"trial_n":12,"span":8,"encoder":"54413707","distractor":"44413707","target":"absent","response":"absent","rt":"3214.5","correct":true,"confidence":-1},{"trial_n":13,"span":9,"encoder":"076462205","distractor":"072462205","target":"present","response":"present","rt":"2495.8000000007","correct":true,"confidence":-1},{"trial_n":14,"span":9,"encoder":"950994723","distractor":"952994723","target":"absent","response":"absent","rt":"3498.2000000011","correct":true,"confidence":-1},{"trial_n":15,"span":10,"encoder":"3448244656","distractor":"0448244656","target":"present","response":"absent","rt":"1520.0999999996","correct":false,"confidence":-1},{"trial_n":16,"span":9,"encoder":"499793029","distractor":"899793029","target":"present","response":"present","rt":"1611.9000000004","correct":true,"confidence":-1},{"trial_n":17,"span":9,"encoder":"829104661","distractor":"229104661","target":"absent","response":"present","rt":"2986.7999999989","correct":false,"confidence":-1},{"trial_n":18,"span":8,"encoder":"03642204","distractor":"03640204","target":"absent","response":"present","rt":"1717.1999999993","correct":false,"confidence":-1},{"trial_n":19,"span":7,"encoder":"3809637","distractor":"3809667","target":"present","response":"present","rt":"13520.1","correct":true,"confidence":-1},{"trial_n":20,"span":7,"encoder":"0468841","distractor":"0468881","target":"present","response":"present","rt":"1245.7999999989","correct":true,"confidence":-1},{"trial_n":21,"span":8,"encoder":"97899727","distractor":"97896727","target":"absent","response":"present","rt":"2648.6000000015","correct":false,"confidence":3},{"trial_n":22,"span":7,"encoder":"0923108","distractor":"0923908","target":"absent","response":"absent","rt":"5351.1999999993","correct":true,"confidence":4},{"trial_n":23,"span":7,"encoder":"8887122","distractor":"8837122","target":"absent","response":"present","rt":"9632.5","correct":false,"confidence":2},{"trial_n":24,"span":6,"encoder":"266583","distractor":"266503","target":"absent","response":"absent","rt":"6080.6999999993","correct":true,"confidence":3},{"trial_n":25,"span":6,"encoder":"065309","distractor":"065609","target":"absent","response":"absent","rt":"3689.8999999985","correct":true,"confidence":2},{"trial_n":26,"span":7,"encoder":"5300471","distractor":"4300471","target":"absent","response":"present","rt":"4251.0999999996","correct":false,"confidence":3},{"trial_n":27,"span":6,"encoder":"319894","distractor":"369894","target":"absent","response":"absent","rt":"3422.6000000015","correct":true,"confidence":3},{"trial_n":28,"span":6,"encoder":"128737","distractor":"128739","target":"present","response":"present","rt":"4149.0999999996","correct":true,"confidence":4},{"trial_n":29,"span":7,"encoder":"3327536","distractor":"5327536","target":"absent","response":"absent","rt":"4348","correct":true,"confidence":3},{"trial_n":30,"span":7,"encoder":"1490118","distractor":"1490518","target":"present","response":"present","rt":"3000.2000000011","correct":true,"confidence":4},{"trial_n":31,"span":8,"encoder":"66456578","distractor":"26456578","target":"absent","response":"absent","rt":"3842.7000000011","correct":true,"confidence":3},{"trial_n":32,"span":8,"encoder":"39873501","distractor":"39873502","target":"present","response":"present","rt":"3326.3000000007","correct":true,"confidence":4},{"trial_n":33,"span":9,"encoder":"698680386","distractor":"698689386","target":"present","response":"absent","rt":"7586.8000000007","correct":false,"confidence":4},{"trial_n":34,"span":8,"encoder":"99991116","distractor":"99991146","target":"present","response":"present","rt":"4278","correct":true,"confidence":4},{"trial_n":35,"span":8,"encoder":"23407910","distractor":"23507910","target":"present","response":"present","rt":"3403.5","correct":true,"confidence":4},{"trial_n":36,"span":9,"encoder":"533312831","distractor":"833312831","target":"present","response":"absent","rt":"5015","correct":false,"confidence":4},{"trial_n":37,"span":8,"encoder":"99617607","distractor":"19617607","target":"absent","response":"present","rt":"2597.9000000004","correct":false,"confidence":3},{"trial_n":38,"span":7,"encoder":"1875654","distractor":"1875454","target":"present","response":"present","rt":"1868","correct":true,"confidence":3},{"trial_n":39,"span":7,"encoder":"8894984","distractor":"4894984","target":"present","response":"present","rt":"1850","correct":true,"confidence":4},{"trial_n":40,"span":8,"encoder":"56440921","distractor":"56442921","target":"present","response":"present","rt":"2329.1999999993","correct":true,"confidence":4},{"trial_n":41,"span":8,"encoder":"11007091","distractor":"11007071","target":"absent","response":"present","rt":"2320.8000000007","correct":false,"confidence":4},{"trial_n":42,"span":7,"encoder":"9231136","distractor":"9131136","target":"present","response":"present","rt":"4060.5","correct":true,"confidence":3},{"trial_n":43,"span":7,"encoder":"6063866","distractor":"6063846","target":"present","response":"present","rt":"3534.5999999996","correct":true,"confidence":3},{"trial_n":44,"span":8,"encoder":"55346404","distractor":"50346404","target":"absent","response":"absent","rt":"2136.6999999993","correct":true,"confidence":4},{"trial_n":45,"span":8,"encoder":"18784219","distractor":"15784219","target":"present","response":"absent","rt":"5223.5","correct":false,"confidence":4},{"trial_n":46,"span":7,"encoder":"2471409","distractor":"2471401","target":"absent","response":"absent","rt":"3245.6999999993","correct":true,"confidence":4},{"trial_n":47,"span":7,"encoder":"8620437","distractor":"8670437","target":"present","response":"present","rt":"1488.3000000007","correct":true,"confidence":4},{"trial_n":48,"span":8,"encoder":"24932140","distractor":"24952140","target":"absent","response":"absent","rt":"2911.7999999989","correct":true,"confidence":4},{"trial_n":49,"span":8,"encoder":"13563471","distractor":"13663471","target":"absent","response":"present","rt":"1506.1999999993","correct":false,"confidence":1},{"trial_n":50,"span":7,"encoder":"0268435","distractor":"0262435","target":"absent","response":"absent","rt":"5960.9000000004","correct":true,"confidence":2},{"trial_n":51,"span":7,"encoder":"2421661","distractor":"2021661","target":"present","response":"present","rt":"1612.5","correct":true,"confidence":5},{"trial_n":52,"span":8,"encoder":"87470542","distractor":"87470541","target":"present","response":"present","rt":"2567.0999999996","correct":true,"confidence":5},{"trial_n":53,"span":8,"encoder":"74055219","distractor":"74055211","target":"present","response":"present","rt":"1672.5","correct":true,"confidence":4},{"trial_n":54,"span":9,"encoder":"456078644","distractor":"426078644","target":"absent","response":"absent","rt":"1942.7999999989","correct":true,"confidence":5},{"trial_n":55,"span":9,"encoder":"467667694","distractor":"467667654","target":"absent","response":"absent","rt":"2082.5999999996","correct":true,"confidence":4},{"trial_n":56,"span":10,"encoder":"8107050315","distractor":"0107050315","target":"present","response":"absent","rt":"2130","correct":false,"confidence":5},{"trial_n":57,"span":9,"encoder":"020970064","distractor":"920970064","target":"absent","response":"absent","rt":"2603.1000000015","correct":true,"confidence":4},{"trial_n":58,"span":9,"encoder":"542594046","distractor":"542594040","target":"present","response":"absent","rt":"4754.9000000004","correct":false,"confidence":3},{"trial_n":59,"span":8,"encoder":"48370051","distractor":"43370051","target":"present","response":"present","rt":"2442.0999999996","correct":true,"confidence":2},{"trial_n":60,"span":8,"encoder":"05825922","distractor":"05425922","target":"present","response":"present","rt":"2078.2999999989","correct":true,"confidence":3},{"trial_n":61,"span":9,"encoder":"240266538","distractor":"240266038","target":"present","response":"present","rt":"2286.3000000007","correct":true,"confidence":3},{"trial_n":62,"span":9,"encoder":"153574783","distractor":"153774783","target":"absent","response":"present","rt":"1638.5","correct":false,"confidence":3},{"trial_n":63,"span":8,"encoder":"95813052","distractor":"95853052","target":"present","response":"present","rt":"6078.7999999989","correct":true,"confidence":1},{"trial_n":64,"span":8,"encoder":"29386305","distractor":"29306305","target":"present","response":"present","rt":"2129.1999999993","correct":true,"confidence":3},{"trial_n":65,"span":9,"encoder":"179792413","distractor":"179892413","target":"absent","response":"present","rt":"2373.1999999993","correct":false,"confidence":3},{"trial_n":66,"span":8,"encoder":"77636447","distractor":"77636440","target":"present","response":"present","rt":"2399.1999999993","correct":true,"confidence":3},{"trial_n":67,"span":8,"encoder":"43494969","distractor":"43454969","target":"absent","response":"absent","rt":"3227","correct":true,"confidence":4},{"trial_n":68,"span":9,"encoder":"957984903","distractor":"957924903","target":"absent","response":"absent","rt":"2300.6999999993","correct":true,"confidence":4},{"trial_n":69,"span":9,"encoder":"565177860","distractor":"565157860","target":"absent","response":"absent","rt":"2594","correct":true,"confidence":3},{"trial_n":70,"span":10,"encoder":"6907797655","distractor":"8907797655","target":"present","response":"absent","rt":"1955.3000000007","correct":false,"confidence":4},{"trial_n":71,"span":8,"encoder":"72633406","distractor":"72636406","target":"present","response":"present","rt":"2346.6999999993","correct":true,"confidence":-1},{"trial_n":72,"span":8,"encoder":"26472254","distractor":"86472254","target":"present","response":"present","rt":"2947.8000000007","correct":true,"confidence":-1},{"trial_n":73,"span":9,"encoder":"867835675","distractor":"862835675","target":"absent","response":"present","rt":"2338","correct":false,"confidence":-1},{"trial_n":74,"span":8,"encoder":"80143795","distractor":"80143793","target":"absent","response":"absent","rt":"1020.5999999996","correct":true,"confidence":-1},{"trial_n":75,"span":8,"encoder":"40923436","distractor":"40223436","target":"present","response":"absent","rt":"1165.7999999989","correct":false,"confidence":-1},{"trial_n":76,"span":7,"encoder":"6628937","distractor":"6628947","target":"present","response":"present","rt":"5151.7000000011","correct":true,"confidence":-1},{"trial_n":77,"span":7,"encoder":"9129225","distractor":"7129225","target":"absent","response":"present","rt":"1403.2999999989","correct":false,"confidence":-1},{"trial_n":78,"span":6,"encoder":"452227","distractor":"472227","target":"present","response":"absent","rt":"1629.5","correct":false,"confidence":-1},{"trial_n":79,"span":5,"encoder":"98890","distractor":"98894","target":"absent","response":"present","rt":"1679.1999999993","correct":false,"confidence":-1},{"trial_n":80,"span":4,"encoder":"5827","distractor":"5327","target":"absent","response":"absent","rt":"1401.6999999993","correct":true,"confidence":-1},{"trial_n":81,"span":4,"encoder":"3591","distractor":"8591","target":"absent","response":"absent","rt":"1500.3000000007","correct":true,"confidence":-1},{"trial_n":82,"span":5,"encoder":"50755","distractor":"60755","target":"present","response":"present","rt":"1471.3000000007","correct":true,"confidence":-1},{"trial_n":83,"span":5,"encoder":"50109","distractor":"50709","target":"absent","response":"absent","rt":"2278.0999999996","correct":true,"confidence":-1},{"trial_n":84,"span":6,"encoder":"514230","distractor":"534230","target":"absent","response":"absent","rt":"1371.3999999985","correct":true,"confidence":-1},{"trial_n":85,"span":6,"encoder":"133721","distractor":"833721","target":"absent","response":"absent","rt":"1104.7999999989","correct":true,"confidence":-1},{"trial_n":86,"span":7,"encoder":"3708195","distractor":"3208195","target":"absent","response":"present","rt":"2395.6000000015","correct":false,"confidence":-1},{"trial_n":87,"span":6,"encoder":"691022","distractor":"791022","target":"absent","response":"absent","rt":"985.09999999963","correct":true,"confidence":-1},{"trial_n":88,"span":6,"encoder":"421659","distractor":"411659","target":"absent","response":"absent","rt":"958.19999999925","correct":true,"confidence":-1},{"trial_n":89,"span":7,"encoder":"4678477","distractor":"6678477","target":"absent","response":"present","rt":"1173.6999999993","correct":false,"confidence":-1},{"trial_n":90,"span":6,"encoder":"557496","distractor":"557498","target":"absent","response":"absent","rt":"1192.1999999993","correct":true,"confidence":-1},{"trial_n":91,"span":6,"encoder":"449004","distractor":"149004","target":"present","response":"present","rt":"1976","correct":true,"confidence":5},{"trial_n":92,"span":7,"encoder":"5270477","distractor":"5270877","target":"absent","response":"absent","rt":"3939.5","correct":true,"confidence":4},{"trial_n":93,"span":7,"encoder":"8264839","distractor":"8264339","target":"present","response":"present","rt":"3476.6999999993","correct":true,"confidence":5},{"trial_n":94,"span":8,"encoder":"30114047","distractor":"70114047","target":"present","response":"present","rt":"3467.7000000011","correct":true,"confidence":3},{"trial_n":95,"span":8,"encoder":"96553703","distractor":"94553703","target":"present","response":"present","rt":"8214.8999999985","correct":true,"confidence":2},{"trial_n":96,"span":9,"encoder":"818057559","distractor":"816057559","target":"present","response":"absent","rt":"1556.7999999989","correct":false,"confidence":1},{"trial_n":97,"span":8,"encoder":"89574581","distractor":"89574181","target":"present","response":"present","rt":"2525.5","correct":true,"confidence":5},{"trial_n":98,"span":8,"encoder":"17875508","distractor":"10875508","target":"present","response":"present","rt":"2362.7000000011","correct":true,"confidence":4},{"trial_n":99,"span":9,"encoder":"828583400","distractor":"828583430","target":"absent","response":"absent","rt":"1752.9000000004","correct":true,"confidence":5},{"trial_n":100,"span":9,"encoder":"443508497","distractor":"403508497","target":"present","response":"present","rt":"3383","correct":true,"confidence":4},{"trial_n":101,"span":10,"encoder":"4209582339","distractor":"4209582329","target":"present","response":"present","rt":"1581.6999999993","correct":true,"confidence":5},{"trial_n":102,"span":10,"encoder":"7199465009","distractor":"7199465079","target":"absent","response":"absent","rt":"1531.5999999996","correct":true,"confidence":5},{"trial_n":103,"span":11,"encoder":"50524720076","distractor":"50522720076","target":"present","response":"present","rt":"4838.4000000004","correct":true,"confidence":2},{"trial_n":104,"span":11,"encoder":"71282147311","distractor":"75282147311","target":"present","response":"present","rt":"4442.6000000015","correct":true,"confidence":2},{"trial_n":105,"span":12,"encoder":"672962515068","distractor":"672962215068","target":"present","response":"present","rt":"5339.3000000007","correct":true,"confidence":3},{"trial_n":106,"span":12,"encoder":"200987971100","distractor":"200987973100","target":"absent","response":"absent","rt":"2249.3000000007","correct":true,"confidence":5},{"trial_n":107,"span":13,"encoder":"6797935424518","distractor":"6797935424528","target":"absent","response":"absent","rt":"1440.5","correct":true,"confidence":4},{"trial_n":108,"span":13,"encoder":"1803464919534","distractor":"1903464919534","target":"present","response":"present","rt":"11315.300000001","correct":true,"confidence":1},{"trial_n":109,"span":14,"encoder":"35390605804608","distractor":"35390805804608","target":"present","response":"present","rt":"14029.300000001","correct":true,"confidence":4},{"trial_n":110,"span":14,"encoder":"63193949291233","distractor":"63193949891233","target":"absent","response":"present","rt":"9665.0999999996","correct":false,"confidence":1},{"trial_n":111,"span":13,"encoder":"8957240078016","distractor":"8997240078016","target":"present","response":"present","rt":"3591.3999999985","correct":true,"confidence":1},{"trial_n":112,"span":13,"encoder":"2568708480559","distractor":"2568708480554","target":"present","response":"present","rt":"3079.1999999993","correct":true,"confidence":4},{"trial_n":113,"span":14,"encoder":"85971455081391","distractor":"45971455081391","target":"present","response":"present","rt":"6992.4000000004","correct":true,"confidence":1},{"trial_n":114,"span":14,"encoder":"30248503296242","distractor":"30248503296282","target":"present","response":"absent","rt":"1725.3999999985","correct":false,"confidence":1},{"trial_n":115,"span":13,"encoder":"0113269252831","distractor":"0113269252331","target":"absent","response":"absent","rt":"4340","correct":true,"confidence":3},{"trial_n":116,"span":13,"encoder":"1046594092560","distractor":"1046564092560","target":"present","response":"present","rt":"5359.6999999993","correct":true,"confidence":4},{"trial_n":117,"span":14,"encoder":"86630803824668","distractor":"86630805824668","target":"absent","response":"absent","rt":"5225.5","correct":true,"confidence":3},{"trial_n":118,"span":14,"encoder":"56940500836966","distractor":"56940504836966","target":"present","response":"present","rt":"4478.3999999985","correct":true,"confidence":2},{"trial_n":119,"span":15,"encoder":"104749379674512","distractor":"106749379674512","target":"present","response":"absent","rt":"3003.7000000011","correct":false,"confidence":2},{"trial_n":120,"span":14,"encoder":"79233760700348","distractor":"79233460700348","target":"present","response":"absent","rt":"2576.0999999996","correct":false,"confidence":3},{"trial_n":121,"span":13,"encoder":"7935684243521","distractor":"7635684243521","target":"absent","response":"present","rt":"8304.4000000004","correct":false,"confidence":3},{"trial_n":122,"span":12,"encoder":"247426345748","distractor":"247426335748","target":"present","response":"absent","rt":"3008.5","correct":false,"confidence":3},{"trial_n":123,"span":11,"encoder":"64493064369","distractor":"74493064369","target":"absent","response":"absent","rt":"996.09999999963","correct":true,"confidence":4},{"trial_n":124,"span":11,"encoder":"81391346718","distractor":"81391346778","target":"absent","response":"present","rt":"2882.0999999996","correct":false,"confidence":1},{"trial_n":125,"span":10,"encoder":"7900914770","distractor":"7900914170","target":"present","response":"absent","rt":"4839.1000000015","correct":false,"confidence":3},{"trial_n":126,"span":9,"encoder":"091204280","distractor":"091704280","target":"absent","response":"absent","rt":"8486","correct":true,"confidence":4},{"trial_n":127,"span":9,"encoder":"191824631","distractor":"191824691","target":"absent","response":"present","rt":"10825.4","correct":false,"confidence":4},{"trial_n":128,"span":8,"encoder":"83696136","distractor":"83697136","target":"absent","response":"absent","rt":"2207.5","correct":true,"confidence":5},{"trial_n":129,"span":8,"encoder":"58462319","distractor":"58462313","target":"absent","response":"absent","rt":"2216.5","correct":true,"confidence":4},{"trial_n":130,"span":9,"encoder":"469110269","distractor":"469110169","target":"present","response":"absent","rt":"1469.9000000004","correct":false,"confidence":4},{"trial_n":131,"span":8,"encoder":"03634083","distractor":"03664083","target":"present","response":"present","rt":"3339.8999999985","correct":true,"confidence":5},{"trial_n":132,"span":8,"encoder":"30167897","distractor":"30167597","target":"absent","response":"absent","rt":"1698.2000000011","correct":true,"confidence":4},{"trial_n":133,"span":9,"encoder":"118793944","distractor":"118293944","target":"present","response":"present","rt":"4983.9000000004","correct":true,"confidence":4},{"trial_n":134,"span":9,"encoder":"822762421","distractor":"802762421","target":"absent","response":"absent","rt":"3825.2999999989","correct":true,"confidence":4},{"trial_n":135,"span":10,"encoder":"1447439267","distractor":"1447429267","target":"absent","response":"present","rt":"8042.5","correct":false,"confidence":3},{"trial_n":136,"span":9,"encoder":"463576530","distractor":"463076530","target":"absent","response":"absent","rt":"4765.0999999996","correct":true,"confidence":3},{"trial_n":137,"span":9,"encoder":"033819133","distractor":"003819133","target":"present","response":"absent","rt":"3291.2999999989","correct":false,"confidence":1},{"trial_n":138,"span":8,"encoder":"98718857","distractor":"94718857","target":"present","response":"absent","rt":"57620.9","correct":false,"confidence":1},{"trial_n":139,"span":7,"encoder":"7062364","distractor":"3062364","target":"absent","response":"absent","rt":"2658.0999999996","correct":true,"confidence":4},{"trial_n":140,"span":7,"encoder":"6761815","distractor":"6761875","target":"present","response":"absent","rt":"4888.8999999985","correct":false,"confidence":4}]