[{"trial_n":1,"min":25,"max":230,"target":"present","response":"absent","rt":4948.1999999881,"correct":false,"confidence":-1},{"trial_n":2,"min":25,"max":230,"target":"present","response":"present","rt":926.69999998808,"correct":true,"confidence":-1},{"trial_n":3,"min":25,"max":230,"target":"absent","response":"absent","rt":1207.8000000119,"correct":true,"confidence":-1},{"trial_n":4,"min":41,"max":214,"target":"absent","response":"absent","rt":915.79999995232,"correct":true,"confidence":-1},{"trial_n":5,"min":41,"max":214,"target":"present","response":"present","rt":640.10000002384,"correct":true,"confidence":-1},{"trial_n":6,"min":57,"max":198,"target":"present","response":"present","rt":640.90000003576,"correct":true,"confidence":-1},{"trial_n":7,"min":57,"max":198,"target":"present","response":"present","rt":652.60000002384,"correct":true,"confidence":-1},{"trial_n":8,"min":73,"max":182,"target":"absent","response":"absent","rt":666.60000002384,"correct":true,"confidence":-1},{"trial_n":9,"min":73,"max":182,"target":"absent","response":"absent","rt":577.80000001192,"correct":true,"confidence":-1},{"trial_n":10,"min":89,"max":166,"target":"present","response":"absent","rt":679.60000002384,"correct":false,"confidence":-1},{"trial_n":11,"min":81,"max":174,"target":"absent","response":"absent","rt":653.39999997616,"correct":true,"confidence":-1},{"trial_n":12,"min":81,"max":174,"target":"present","response":"absent","rt":568.59999996424,"correct":false,"confidence":-1},{"trial_n":13,"min":73,"max":182,"target":"absent","response":"absent","rt":500.60000002384,"correct":true,"confidence":-1},{"trial_n":14,"min":73,"max":182,"target":"present","response":"absent","rt":570,"correct":false,"confidence":-1},{"trial_n":15,"min":65,"max":190,"target":"absent","response":"absent","rt":575.5,"correct":true,"confidence":-1},{"trial_n":16,"min":65,"max":190,"target":"present","response":"present","rt":950.5,"correct":true,"confidence":-1},{"trial_n":17,"min":73,"max":182,"target":"present","response":"absent","rt":903.30000001192,"correct":false,"confidence":-1},{"trial_n":18,"min":65,"max":190,"target":"absent","response":"absent","rt":575,"correct":true,"confidence":-1},{"trial_n":19,"min":65,"max":190,"target":"present","response":"present","rt":748,"correct":true,"confidence":-1},{"trial_n":20,"min":73,"max":182,"target":"absent","response":"absent","rt":673.10000002384,"correct":true,"confidence":-1},{"trial_n":21,"min":73,"max":182,"target":"absent","response":"absent","rt":1119.6999999881,"correct":true,"confidence":3},{"trial_n":22,"min":77,"max":178,"target":"present","response":"absent","rt":1479.5999999642,"correct":false,"confidence":3},{"trial_n":23,"min":73,"max":182,"target":"present","response":"present","rt":1153.6000000238,"correct":true,"confidence":3},{"trial_n":24,"min":73,"max":182,"target":"present","response":"present","rt":759.60000002384,"correct":true,"confidence":5},{"trial_n":25,"min":77,"max":178,"target":"absent","response":"absent","rt":1427.8000000119,"correct":true,"confidence":3},{"trial_n":26,"min":77,"max":178,"target":"absent","response":"absent","rt":709.60000002384,"correct":true,"confidence":3},{"trial_n":27,"min":81,"max":174,"target":"absent","response":"absent","rt":674.60000002384,"correct":true,"confidence":3},{"trial_n":28,"min":81,"max":174,"target":"absent","response":"absent","rt":810.09999996424,"correct":true,"confidence":3},{"trial_n":29,"min":85,"max":170,"target":"absent","response":"absent","rt":745.69999998808,"correct":true,"confidence":3},{"trial_n":30,"min":85,"max":170,"target":"present","response":"present","rt":2021.8999999762,"correct":true,"confidence":3},{"trial_n":31,"min":87,"max":168,"target":"absent","response":"absent","rt":1388.6000000238,"correct":true,"confidence":5},{"trial_n":32,"min":87,"max":168,"target":"absent","response":"absent","rt":706.20000004768,"correct":true,"confidence":5},{"trial_n":33,"min":89,"max":166,"target":"absent","response":"present","rt":970,"correct":false,"confidence":3},{"trial_n":34,"min":87,"max":168,"target":"present","response":"absent","rt":1063.8999999762,"correct":false,"confidence":3},{"trial_n":35,"min":85,"max":170,"target":"absent","response":"absent","rt":723.60000002384,"correct":true,"confidence":3},{"trial_n":36,"min":85,"max":170,"target":"absent","response":"absent","rt":1012.6999999881,"correct":true,"confidence":5},{"trial_n":37,"min":87,"max":168,"target":"absent","response":"absent","rt":783.40000003576,"correct":true,"confidence":5},{"trial_n":38,"min":87,"max":168,"target":"present","response":"absent","rt":731.90000003576,"correct":false,"confidence":5},{"trial_n":39,"min":85,"max":170,"target":"present","response":"present","rt":964.5,"correct":true,"confidence":5},{"trial_n":40,"min":85,"max":170,"target":"present","response":"absent","rt":1060.8000000119,"correct":false,"confidence":5},{"trial_n":41,"min":84,"max":171,"target":"absent","response":"absent","rt":713.59999996424,"correct":true,"confidence":5},{"trial_n":42,"min":84,"max":171,"target":"absent","response":"present","rt":1689.6999999881,"correct":false,"confidence":4},{"trial_n":43,"min":83,"max":172,"target":"absent","response":"absent","rt":1156.6999999881,"correct":true,"confidence":5},{"trial_n":44,"min":83,"max":172,"target":"present","response":"absent","rt":9928.9000000358,"correct":false,"confidence":3},{"trial_n":45,"min":82,"max":173,"target":"present","response":"present","rt":1079.6000000238,"correct":true,"confidence":4},{"trial_n":46,"min":82,"max":173,"target":"present","response":"present","rt":831.80000001192,"correct":true,"confidence":4},{"trial_n":47,"min":83,"max":172,"target":"present","response":"present","rt":908.29999995232,"correct":true,"confidence":5},{"trial_n":48,"min":83,"max":172,"target":"absent","response":"present","rt":1429.9000000358,"correct":false,"confidence":4},{"trial_n":49,"min":82,"max":173,"target":"present","response":"present","rt":782.30000001192,"correct":true,"confidence":5},{"trial_n":50,"min":82,"max":173,"target":"present","response":"absent","rt":837.60000002384,"correct":false,"confidence":3},{"trial_n":51,"min":81,"max":174,"target":"absent","response":"absent","rt":852.40000003576,"correct":true,"confidence":4},{"trial_n":52,"min":81,"max":174,"target":"present","response":"absent","rt":1239.6999999881,"correct":false,"confidence":4},{"trial_n":53,"min":80,"max":175,"target":"present","response":"present","rt":1073.9000000358,"correct":true,"confidence":5},{"trial_n":54,"min":80,"max":175,"target":"present","response":"absent","rt":1460.6999999881,"correct":false,"confidence":4},{"trial_n":55,"min":79,"max":176,"target":"absent","response":"absent","rt":1178.3000000119,"correct":true,"confidence":3},{"trial_n":56,"min":79,"max":176,"target":"present","response":"absent","rt":965.69999998808,"correct":false,"confidence":3},{"trial_n":57,"min":78,"max":177,"target":"absent","response":"absent","rt":771.30000001192,"correct":true,"confidence":3},{"trial_n":58,"min":78,"max":177,"target":"absent","response":"absent","rt":1039.0999999642,"correct":true,"confidence":4},{"trial_n":59,"min":79,"max":176,"target":"absent","response":"absent","rt":758.10000002384,"correct":true,"confidence":4},{"trial_n":60,"min":79,"max":176,"target":"present","response":"present","rt":685.80000001192,"correct":true,"confidence":5},{"trial_n":61,"min":80,"max":175,"target":"present","response":"present","rt":920.60000002384,"correct":true,"confidence":4},{"trial_n":62,"min":80,"max":175,"target":"present","response":"absent","rt":1073.3999999762,"correct":false,"confidence":3},{"trial_n":63,"min":79,"max":176,"target":"absent","response":"absent","rt":824.5,"correct":true,"confidence":3},{"trial_n":64,"min":79,"max":176,"target":"absent","response":"absent","rt":1165.5,"correct":true,"confidence":4},{"trial_n":65,"min":80,"max":175,"target":"absent","response":"absent","rt":1061.6999999881,"correct":true,"confidence":3},{"trial_n":66,"min":80,"max":175,"target":"present","response":"present","rt":707,"correct":true,"confidence":5},{"trial_n":67,"min":81,"max":174,"target":"present","response":"present","rt":629.40000003576,"correct":true,"confidence":5},{"trial_n":68,"min":81,"max":174,"target":"present","response":"present","rt":1113.3999999762,"correct":true,"confidence":5},{"trial_n":69,"min":82,"max":173,"target":"present","response":"present","rt":851.80000001192,"correct":true,"confidence":5},{"trial_n":70,"min":82,"max":173,"target":"absent","response":"present","rt":949.30000001192,"correct":false,"confidence":5},{"trial_n":71,"min":41,"max":214,"target":"present","response":"present","rt":5541.1000000238,"correct":true,"confidence":-1},{"trial_n":72,"min":41,"max":214,"target":"present","response":"present","rt":162.10000002384,"correct":true,"confidence":-1},{"trial_n":73,"min":57,"max":198,"target":"absent","response":"absent","rt":112.5,"correct":true,"confidence":-1},{"trial_n":74,"min":57,"max":198,"target":"absent","response":"absent","rt":274.5,"correct":true,"confidence":-1},{"trial_n":75,"min":73,"max":182,"target":"present","response":"present","rt":565.80000001192,"correct":true,"confidence":-1},{"trial_n":76,"min":73,"max":182,"target":"absent","response":"absent","rt":240.19999998808,"correct":true,"confidence":-1},{"trial_n":77,"min":89,"max":166,"target":"present","response":"absent","rt":78,"correct":false,"confidence":-1},{"trial_n":78,"min":73,"max":182,"target":"absent","response":"present","rt":192.90000003576,"correct":false,"confidence":-1},{"trial_n":79,"min":57,"max":198,"target":"absent","response":"absent","rt":189,"correct":true,"confidence":-1},{"trial_n":80,"min":57,"max":198,"target":"present","response":"present","rt":466.90000003576,"correct":true,"confidence":-1},{"trial_n":81,"min":65,"max":190,"target":"present","response":"present","rt":235.80000001192,"correct":true,"confidence":-1},{"trial_n":82,"min":65,"max":190,"target":"absent","response":"absent","rt":379,"correct":true,"confidence":-1},{"trial_n":83,"min":73,"max":182,"target":"present","response":"present","rt":265.09999996424,"correct":true,"confidence":-1},{"trial_n":84,"min":73,"max":182,"target":"present","response":"present","rt":182.90000003576,"correct":true,"confidence":-1},{"trial_n":85,"min":81,"max":174,"target":"present","response":"present","rt":104.80000001192,"correct":true,"confidence":-1},{"trial_n":86,"min":81,"max":174,"target":"present","response":"present","rt":133.30000001192,"correct":true,"confidence":-1},{"trial_n":87,"min":89,"max":166,"target":"absent","response":"absent","rt":162.69999998808,"correct":true,"confidence":-1},{"trial_n":88,"min":89,"max":166,"target":"absent","response":"absent","rt":110.19999998808,"correct":true,"confidence":-1},{"trial_n":89,"min":97,"max":158,"target":"absent","response":"absent","rt":172.69999998808,"correct":true,"confidence":-1},{"trial_n":90,"min":97,"max":158,"target":"present","response":"absent","rt":38.600000023842,"correct":false,"confidence":-1},{"trial_n":91,"min":93,"max":162,"target":"absent","response":"absent","rt":188.89999997616,"correct":true,"confidence":5},{"trial_n":92,"min":93,"max":162,"target":"absent","response":"absent","rt":1333.5,"correct":true,"confidence":5},{"trial_n":93,"min":97,"max":158,"target":"absent","response":"absent","rt":770.80000001192,"correct":true,"confidence":4},{"trial_n":94,"min":97,"max":158,"target":"absent","response":"absent","rt":515.09999996424,"correct":true,"confidence":3},{"trial_n":95,"min":101,"max":154,"target":"present","response":"absent","rt":325.60000002384,"correct":false,"confidence":4},{"trial_n":96,"min":97,"max":158,"target":"absent","response":"absent","rt":148.90000003576,"correct":true,"confidence":4},{"trial_n":97,"min":97,"max":158,"target":"absent","response":"absent","rt":227.39999997616,"correct":true,"confidence":1},{"trial_n":98,"min":101,"max":154,"target":"present","response":"absent","rt":556.70000004768,"correct":false,"confidence":4},{"trial_n":99,"min":97,"max":158,"target":"present","response":"absent","rt":245.19999998808,"correct":false,"confidence":5},{"trial_n":100,"min":93,"max":162,"target":"present","response":"absent","rt":461.39999997616,"correct":false,"confidence":5},{"trial_n":101,"min":91,"max":164,"target":"absent","response":"absent","rt":568,"correct":true,"confidence":5},{"trial_n":102,"min":91,"max":164,"target":"present","response":"absent","rt":220.10000002384,"correct":false,"confidence":5},{"trial_n":103,"min":89,"max":166,"target":"absent","response":"absent","rt":460.80000001192,"correct":true,"confidence":5},{"trial_n":104,"min":89,"max":166,"target":"absent","response":"absent","rt":508.80000001192,"correct":true,"confidence":5},{"trial_n":105,"min":91,"max":164,"target":"present","response":"present","rt":390.79999995232,"correct":true,"confidence":3},{"trial_n":106,"min":91,"max":164,"target":"present","response":"absent","rt":981.10000002384,"correct":false,"confidence":1},{"trial_n":107,"min":89,"max":166,"target":"absent","response":"absent","rt":308.69999998808,"correct":true,"confidence":5},{"trial_n":108,"min":89,"max":166,"target":"absent","response":"absent","rt":254.80000001192,"correct":true,"confidence":5},{"trial_n":109,"min":91,"max":164,"target":"present","response":"absent","rt":866.5,"correct":false,"confidence":4},{"trial_n":110,"min":89,"max":166,"target":"absent","response":"absent","rt":376.80000001192,"correct":true,"confidence":4},{"trial_n":111,"min":89,"max":166,"target":"absent","response":"absent","rt":501.39999997616,"correct":true,"confidence":4},{"trial_n":112,"min":90,"max":165,"target":"absent","response":"absent","rt":334.80000001192,"correct":true,"confidence":5},{"trial_n":113,"min":90,"max":165,"target":"present","response":"absent","rt":573.89999997616,"correct":false,"confidence":5},{"trial_n":114,"min":89,"max":166,"target":"present","response":"absent","rt":324.60000002384,"correct":false,"confidence":5},{"trial_n":115,"min":88,"max":167,"target":"absent","response":"absent","rt":292.69999998808,"correct":true,"confidence":5},{"trial_n":116,"min":88,"max":167,"target":"present","response":"absent","rt":324.5,"correct":false,"confidence":5},{"trial_n":117,"min":87,"max":168,"target":"present","response":"present","rt":563.40000003576,"correct":true,"confidence":3},{"trial_n":118,"min":87,"max":168,"target":"present","response":"present","rt":530.20000004768,"correct":true,"confidence":3},{"trial_n":119,"min":88,"max":167,"target":"present","response":"absent","rt":286.10000002384,"correct":false,"confidence":5},{"trial_n":120,"min":87,"max":168,"target":"present","response":"absent","rt":385.60000002384,"correct":false,"confidence":4},{"trial_n":121,"min":86,"max":169,"target":"absent","response":"absent","rt":284.19999998808,"correct":true,"confidence":5},{"trial_n":122,"min":86,"max":169,"target":"present","response":"absent","rt":336.20000004768,"correct":false,"confidence":5},{"trial_n":123,"min":85,"max":170,"target":"absent","response":"absent","rt":310.09999996424,"correct":true,"confidence":5},{"trial_n":124,"min":85,"max":170,"target":"absent","response":"absent","rt":296.69999998808,"correct":true,"confidence":5},{"trial_n":125,"min":86,"max":169,"target":"present","response":"absent","rt":259.60000002384,"correct":false,"confidence":5},{"trial_n":126,"min":85,"max":170,"target":"absent","response":"absent","rt":248.69999998808,"correct":true,"confidence":5},{"trial_n":127,"min":85,"max":170,"target":"present","response":"present","rt":325.59999996424,"correct":true,"confidence":3},{"trial_n":128,"min":86,"max":169,"target":"present","response":"absent","rt":124.60000002384,"correct":false,"confidence":5},{"trial_n":129,"min":85,"max":170,"target":"present","response":"absent","rt":325.69999998808,"correct":false,"confidence":5},{"trial_n":130,"min":84,"max":171,"target":"absent","response":"absent","rt":189,"correct":true,"confidence":5},{"trial_n":131,"min":84,"max":171,"target":"absent","response":"absent","rt":284.80000001192,"correct":true,"confidence":5},{"trial_n":132,"min":85,"max":170,"target":"present","response":"absent","rt":795.5,"correct":false,"confidence":5},{"trial_n":133,"min":84,"max":171,"target":"present","response":"absent","rt":649.69999998808,"correct":false,"confidence":5},{"trial_n":134,"min":83,"max":172,"target":"absent","response":"absent","rt":222.39999997616,"correct":true,"confidence":5},{"trial_n":135,"min":83,"max":172,"target":"present","response":"present","rt":476.30000001192,"correct":true,"confidence":3},{"trial_n":136,"min":84,"max":171,"target":"absent","response":"absent","rt":458.69999998808,"correct":true,"confidence":5},{"trial_n":137,"min":84,"max":171,"target":"present","response":"present","rt":443.70000004768,"correct":true,"confidence":2},{"trial_n":138,"min":85,"max":170,"target":"present","response":"present","rt":700.80000001192,"correct":true,"confidence":2},{"trial_n":139,"min":85,"max":170,"target":"absent","response":"absent","rt":642.60000002384,"correct":true,"confidence":4},{"trial_n":140,"min":86,"max":169,"target":"absent","response":"absent","rt":281.89999997616,"correct":true,"confidence":4}]