[{"trial_n":1,"n_dots":4.25,"target":"right","response":"left","rt":5358,"correct":false,"confidence":-1},{"trial_n":2,"n_dots":4.25,"target":"left","response":"left","rt":384,"correct":true,"confidence":-1},{"trial_n":3,"n_dots":4.25,"target":"left","response":"right","rt":509,"correct":false,"confidence":-1},{"trial_n":4,"n_dots":4.65,"target":"left","response":"left","rt":1040,"correct":true,"confidence":-1},{"trial_n":5,"n_dots":4.65,"target":"left","response":"right","rt":655,"correct":false,"confidence":-1},{"trial_n":6,"n_dots":5.05,"target":"right","response":"right","rt":115,"correct":true,"confidence":-1},{"trial_n":7,"n_dots":5.05,"target":"right","response":"right","rt":346,"correct":true,"confidence":-1},{"trial_n":8,"n_dots":4.85,"target":"right","response":"right","rt":260,"correct":true,"confidence":-1},{"trial_n":9,"n_dots":4.85,"target":"right","response":"right","rt":364,"correct":true,"confidence":-1},{"trial_n":10,"n_dots":4.65,"target":"right","response":"right","rt":276,"correct":true,"confidence":-1},{"trial_n":11,"n_dots":4.65,"target":"right","response":"right","rt":299.99999999997,"correct":true,"confidence":-1},{"trial_n":12,"n_dots":4.45,"target":"right","response":"right","rt":593.00000000003,"correct":true,"confidence":-1},{"trial_n":13,"n_dots":4.45,"target":"right","response":"right","rt":319,"correct":true,"confidence":-1},{"trial_n":14,"n_dots":4.35,"target":"left","response":"left","rt":499,"correct":true,"confidence":-1},{"trial_n":15,"n_dots":4.35,"target":"right","response":"right","rt":228,"correct":true,"confidence":-1},{"trial_n":16,"n_dots":4.25,"target":"left","response":"right","rt":404,"correct":false,"confidence":-1},{"trial_n":17,"n_dots":4.35,"target":"right","response":"right","rt":678,"correct":true,"confidence":-1},{"trial_n":18,"n_dots":4.35,"target":"left","response":"right","rt":471,"correct":false,"confidence":-1},{"trial_n":19,"n_dots":4.45,"target":"left","response":"right","rt":281,"correct":false,"confidence":-1},{"trial_n":20,"n_dots":4.55,"target":"left","response":"left","rt":311,"correct":true,"confidence":-1},{"trial_n":21,"n_dots":4.55,"target":"right","response":"right","rt":288,"correct":true,"confidence":3},{"trial_n":22,"n_dots":4.45,"target":"left","response":"left","rt":253,"correct":true,"confidence":3},{"trial_n":23,"n_dots":4.45,"target":"right","response":"right","rt":-1,"correct":true,"confidence":3},{"trial_n":24,"n_dots":4.35,"target":"left","response":"left","rt":220,"correct":true,"confidence":3},{"trial_n":25,"n_dots":4.35,"target":"left","response":"left","rt":398,"correct":true,"confidence":3},{"trial_n":26,"n_dots":4.25,"target":"left","response":"right","rt":233,"correct":false,"confidence":4},{"trial_n":27,"n_dots":4.35,"target":"right","response":"right","rt":321,"correct":true,"confidence":4},{"trial_n":28,"n_dots":4.35,"target":"left","response":"right","rt":352,"correct":false,"confidence":4},{"trial_n":29,"n_dots":4.45,"target":"left","response":"left","rt":478,"correct":true,"confidence":4},{"trial_n":30,"n_dots":4.45,"target":"left","response":"right","rt":315,"correct":false,"confidence":4},{"trial_n":31,"n_dots":4.55,"target":"right","response":"right","rt":220,"correct":true,"confidence":4},{"trial_n":32,"n_dots":4.55,"target":"left","response":"left","rt":238,"correct":true,"confidence":3},{"trial_n":33,"n_dots":4.45,"target":"right","response":"right","rt":261,"correct":true,"confidence":4},{"trial_n":34,"n_dots":4.45,"target":"right","response":"right","rt":345,"correct":true,"confidence":4},{"trial_n":35,"n_dots":4.35,"target":"right","response":"right","rt":247,"correct":true,"confidence":4},{"trial_n":36,"n_dots":4.35,"target":"left","response":"left","rt":274.99999999997,"correct":true,"confidence":4},{"trial_n":37,"n_dots":4.25,"target":"left","response":"left","rt":310,"correct":true,"confidence":3},{"trial_n":38,"n_dots":4.25,"target":"right","response":"right","rt":129,"correct":true,"confidence":4},{"trial_n":39,"n_dots":4.15,"target":"right","response":"right","rt":335,"correct":true,"confidence":4},{"trial_n":40,"n_dots":4.15,"target":"right","response":"right","rt":249,"correct":true,"confidence":3},{"trial_n":41,"n_dots":4.05,"target":"left","response":"left","rt":864,"correct":true,"confidence":3},{"trial_n":42,"n_dots":4.05,"target":"right","response":"right","rt":325,"correct":true,"confidence":3},{"trial_n":43,"n_dots":3.95,"target":"left","response":"right","rt":282,"correct":false,"confidence":4},{"trial_n":44,"n_dots":4.05,"target":"right","response":"right","rt":266,"correct":true,"confidence":3},{"trial_n":45,"n_dots":4.05,"target":"right","response":"right","rt":272,"correct":true,"confidence":4},{"trial_n":46,"n_dots":3.95,"target":"right","response":"right","rt":767,"correct":true,"confidence":3},{"trial_n":47,"n_dots":3.95,"target":"right","response":"right","rt":210.99999999994,"correct":true,"confidence":3},{"trial_n":48,"n_dots":3.85,"target":"left","response":"right","rt":426,"correct":false,"confidence":4},{"trial_n":49,"n_dots":3.95,"target":"left","response":"left","rt":252,"correct":true,"confidence":3},{"trial_n":50,"n_dots":3.95,"target":"left","response":"left","rt":430,"correct":true,"confidence":3},{"trial_n":51,"n_dots":3.85,"target":"left","response":"right","rt":779,"correct":false,"confidence":4},{"trial_n":52,"n_dots":3.95,"target":"right","response":"right","rt":1183,"correct":true,"confidence":3},{"trial_n":53,"n_dots":3.95,"target":"left","response":"right","rt":445.00000000006,"correct":false,"confidence":4},{"trial_n":54,"n_dots":4.05,"target":"right","response":"right","rt":668,"correct":true,"confidence":4},{"trial_n":55,"n_dots":4.05,"target":"left","response":"right","rt":501,"correct":false,"confidence":4},{"trial_n":56,"n_dots":4.15,"target":"left","response":"right","rt":485,"correct":false,"confidence":4},{"trial_n":57,"n_dots":4.25,"target":"right","response":"left","rt":686,"correct":false,"confidence":4},{"trial_n":58,"n_dots":4.35,"target":"right","response":"right","rt":455,"correct":true,"confidence":4},{"trial_n":59,"n_dots":4.35,"target":"left","response":"left","rt":54,"correct":true,"confidence":3},{"trial_n":60,"n_dots":4.25,"target":"right","response":"right","rt":564,"correct":true,"confidence":4},{"trial_n":61,"n_dots":4.25,"target":"right","response":"right","rt":728.99999999994,"correct":true,"confidence":4},{"trial_n":62,"n_dots":4.15,"target":"left","response":"left","rt":322,"correct":true,"confidence":3},{"trial_n":63,"n_dots":4.15,"target":"right","response":"right","rt":405,"correct":true,"confidence":4},{"trial_n":64,"n_dots":4.05,"target":"left","response":"left","rt":274,"correct":true,"confidence":4},{"trial_n":65,"n_dots":4.05,"target":"right","response":"right","rt":472,"correct":true,"confidence":3},{"trial_n":66,"n_dots":3.95,"target":"right","response":"right","rt":477,"correct":true,"confidence":4},{"trial_n":67,"n_dots":3.95,"target":"left","response":"right","rt":351,"correct":false,"confidence":4},{"trial_n":68,"n_dots":4.05,"target":"left","response":"right","rt":302.99999999994,"correct":false,"confidence":4},{"trial_n":69,"n_dots":4.15,"target":"left","response":"left","rt":483,"correct":true,"confidence":3},{"trial_n":70,"n_dots":4.15,"target":"right","response":"right","rt":156,"correct":true,"confidence":4},{"trial_n":71,"n_dots":4.05,"target":"left","response":"left","rt":574,"correct":true,"confidence":4},{"trial_n":72,"n_dots":4.05,"target":"right","response":"right","rt":467,"correct":true,"confidence":4},{"trial_n":73,"n_dots":3.95,"target":"left","response":"left","rt":386,"correct":true,"confidence":1},{"trial_n":74,"n_dots":3.95,"target":"right","response":"left","rt":429,"correct":false,"confidence":4},{"trial_n":75,"n_dots":4.05,"target":"right","response":"right","rt":571.00000000006,"correct":true,"confidence":4},{"trial_n":76,"n_dots":4.05,"target":"left","response":"right","rt":748,"correct":false,"confidence":4},{"trial_n":77,"n_dots":4.15,"target":"left","response":"right","rt":579,"correct":false,"confidence":4},{"trial_n":78,"n_dots":4.25,"target":"left","response":"right","rt":779,"correct":false,"confidence":4},{"trial_n":79,"n_dots":4.35,"target":"left","response":"left","rt":290.00000000006,"correct":true,"confidence":4},{"trial_n":80,"n_dots":4.35,"target":"right","response":"right","rt":399,"correct":true,"confidence":4},{"trial_n":81,"n_dots":4.25,"target":"right","response":"right","rt":418,"correct":true,"confidence":4},{"trial_n":82,"n_dots":4.25,"target":"right","response":"right","rt":581,"correct":true,"confidence":4},{"trial_n":83,"n_dots":4.15,"target":"left","response":"right","rt":307.00000000006,"correct":false,"confidence":4},{"trial_n":84,"n_dots":4.25,"target":"left","response":"right","rt":696,"correct":false,"confidence":4},{"trial_n":85,"n_dots":4.35,"target":"right","response":"right","rt":181,"correct":true,"confidence":4},{"trial_n":86,"n_dots":4.35,"target":"right","response":"right","rt":371.99999999994,"correct":true,"confidence":4},{"trial_n":87,"n_dots":4.25,"target":"left","response":"left","rt":2301,"correct":true,"confidence":4},{"trial_n":88,"n_dots":4.25,"target":"left","response":"right","rt":439.00000000006,"correct":false,"confidence":4},{"trial_n":89,"n_dots":4.35,"target":"left","response":"left","rt":332.99999999994,"correct":true,"confidence":4},{"trial_n":90,"n_dots":4.35,"target":"right","response":"right","rt":298,"correct":true,"confidence":4},{"trial_n":91,"n_dots":4.25,"target":"right","response":"right","rt":440,"correct":true,"confidence":4},{"trial_n":92,"n_dots":4.25,"target":"right","response":"right","rt":363,"correct":true,"confidence":4},{"trial_n":93,"n_dots":4.15,"target":"left","response":"left","rt":327,"correct":true,"confidence":4},{"trial_n":94,"n_dots":4.15,"target":"right","response":"right","rt":661.99999999994,"correct":true,"confidence":4},{"trial_n":95,"n_dots":4.05,"target":"right","response":"right","rt":674.99999999994,"correct":true,"confidence":4},{"trial_n":96,"n_dots":4.05,"target":"left","response":"left","rt":1324.0000000001,"correct":true,"confidence":4},{"trial_n":97,"n_dots":3.95,"target":"left","response":"left","rt":491,"correct":true,"confidence":3},{"trial_n":98,"n_dots":3.95,"target":"right","response":"right","rt":328,"correct":true,"confidence":4},{"trial_n":99,"n_dots":3.85,"target":"left","response":"left","rt":372,"correct":true,"confidence":3},{"trial_n":100,"n_dots":3.85,"target":"left","response":"right","rt":787,"correct":false,"confidence":4},{"trial_n":101,"n_dots":3.95,"target":"right","response":"right","rt":859,"correct":true,"confidence":4},{"trial_n":102,"n_dots":3.95,"target":"left","response":"left","rt":309,"correct":true,"confidence":4},{"trial_n":103,"n_dots":3.85,"target":"right","response":"right","rt":214,"correct":true,"confidence":4},{"trial_n":104,"n_dots":3.85,"target":"left","response":"left","rt":745,"correct":true,"confidence":4},{"trial_n":105,"n_dots":3.75,"target":"right","response":"right","rt":349,"correct":true,"confidence":4},{"trial_n":106,"n_dots":3.75,"target":"right","response":"right","rt":601.00000000012,"correct":true,"confidence":4},{"trial_n":107,"n_dots":3.65,"target":"left","response":"left","rt":270,"correct":true,"confidence":4},{"trial_n":108,"n_dots":3.65,"target":"left","response":"right","rt":335,"correct":false,"confidence":4},{"trial_n":109,"n_dots":3.75,"target":"right","response":"left","rt":1279,"correct":false,"confidence":3},{"trial_n":110,"n_dots":3.85,"target":"left","response":"right","rt":363,"correct":false,"confidence":4},{"trial_n":111,"n_dots":3.95,"target":"right","response":"right","rt":657,"correct":true,"confidence":3},{"trial_n":112,"n_dots":3.95,"target":"right","response":"right","rt":512,"correct":true,"confidence":3},{"trial_n":113,"n_dots":3.85,"target":"right","response":"right","rt":470,"correct":true,"confidence":3},{"trial_n":114,"n_dots":3.85,"target":"right","response":"right","rt":591,"correct":true,"confidence":3},{"trial_n":115,"n_dots":3.75,"target":"left","response":"left","rt":999,"correct":true,"confidence":2},{"trial_n":116,"n_dots":3.75,"target":"left","response":"right","rt":964,"correct":false,"confidence":3},{"trial_n":117,"n_dots":3.85,"target":"left","response":"right","rt":1881,"correct":false,"confidence":3},{"trial_n":118,"n_dots":3.95,"target":"left","response":"right","rt":591,"correct":false,"confidence":4},{"trial_n":119,"n_dots":4.05,"target":"right","response":"right","rt":839.00000000012,"correct":true,"confidence":3},{"trial_n":120,"n_dots":4.05,"target":"left","response":"left","rt":477,"correct":true,"confidence":3}]