[{"trial_n":1,"min":25,"max":230,"target":"present","response":"present","rt":5320,"correct":true,"confidence":-1},{"trial_n":2,"min":25,"max":230,"target":"present","response":"present","rt":2407.2999999523,"correct":true,"confidence":-1},{"trial_n":3,"min":41,"max":214,"target":"absent","response":"present","rt":1067.3999999762,"correct":false,"confidence":-1},{"trial_n":4,"min":25,"max":230,"target":"absent","response":"absent","rt":561.5,"correct":true,"confidence":-1},{"trial_n":5,"min":25,"max":230,"target":"present","response":"present","rt":842.79999995232,"correct":true,"confidence":-1},{"trial_n":6,"min":41,"max":214,"target":"present","response":"present","rt":638.89999997616,"correct":true,"confidence":-1},{"trial_n":7,"min":41,"max":214,"target":"absent","response":"absent","rt":1150.0999999642,"correct":true,"confidence":-1},{"trial_n":8,"min":57,"max":198,"target":"present","response":"present","rt":676.5,"correct":true,"confidence":-1},{"trial_n":9,"min":57,"max":198,"target":"absent","response":"absent","rt":405.79999995232,"correct":true,"confidence":-1},{"trial_n":10,"min":73,"max":182,"target":"present","response":"present","rt":446.80000001192,"correct":true,"confidence":-1},{"trial_n":11,"min":73,"max":182,"target":"present","response":"absent","rt":467.5,"correct":false,"confidence":-1},{"trial_n":12,"min":65,"max":190,"target":"present","response":"present","rt":339.89999997616,"correct":true,"confidence":-1},{"trial_n":13,"min":65,"max":190,"target":"absent","response":"absent","rt":520.79999995232,"correct":true,"confidence":-1},{"trial_n":14,"min":73,"max":182,"target":"present","response":"absent","rt":538.39999997616,"correct":false,"confidence":-1},{"trial_n":15,"min":65,"max":190,"target":"present","response":"absent","rt":1066.3000000119,"correct":false,"confidence":-1},{"trial_n":16,"min":57,"max":198,"target":"absent","response":"present","rt":660.79999995232,"correct":false,"confidence":-1},{"trial_n":17,"min":49,"max":206,"target":"present","response":"present","rt":602.09999996424,"correct":true,"confidence":-1},{"trial_n":18,"min":49,"max":206,"target":"absent","response":"present","rt":413.79999995232,"correct":false,"confidence":-1},{"trial_n":19,"min":41,"max":214,"target":"absent","response":"present","rt":456.60000002384,"correct":false,"confidence":-1},{"trial_n":20,"min":33,"max":222,"target":"present","response":"present","rt":468.29999995232,"correct":true,"confidence":-1},{"trial_n":21,"min":33,"max":222,"target":"absent","response":"absent","rt":2676.8999999762,"correct":true,"confidence":3},{"trial_n":22,"min":37,"max":218,"target":"absent","response":"absent","rt":1726.8000000119,"correct":true,"confidence":5},{"trial_n":23,"min":37,"max":218,"target":"absent","response":"absent","rt":1228.0999999642,"correct":true,"confidence":5},{"trial_n":24,"min":41,"max":214,"target":"present","response":"present","rt":861.5,"correct":true,"confidence":5},{"trial_n":25,"min":41,"max":214,"target":"absent","response":"absent","rt":925.39999997616,"correct":true,"confidence":3},{"trial_n":26,"min":45,"max":210,"target":"absent","response":"absent","rt":928.30000001192,"correct":true,"confidence":3},{"trial_n":27,"min":45,"max":210,"target":"present","response":"present","rt":678.29999995232,"correct":true,"confidence":5},{"trial_n":28,"min":49,"max":206,"target":"present","response":"present","rt":766.69999998808,"correct":true,"confidence":5},{"trial_n":29,"min":49,"max":206,"target":"absent","response":"present","rt":3071.6999999881,"correct":false,"confidence":2},{"trial_n":30,"min":45,"max":210,"target":"present","response":"present","rt":410.09999996424,"correct":true,"confidence":5},{"trial_n":31,"min":45,"max":210,"target":"present","response":"present","rt":473.69999998808,"correct":true,"confidence":5},{"trial_n":32,"min":47,"max":208,"target":"absent","response":"absent","rt":1866,"correct":true,"confidence":3},{"trial_n":33,"min":47,"max":208,"target":"present","response":"present","rt":247.5,"correct":true,"confidence":5},{"trial_n":34,"min":49,"max":206,"target":"present","response":"present","rt":437,"correct":true,"confidence":5},{"trial_n":35,"min":49,"max":206,"target":"absent","response":"absent","rt":1238.8999999762,"correct":true,"confidence":2},{"trial_n":36,"min":51,"max":204,"target":"present","response":"present","rt":270.60000002384,"correct":true,"confidence":5},{"trial_n":37,"min":51,"max":204,"target":"absent","response":"present","rt":474.5,"correct":false,"confidence":4},{"trial_n":38,"min":49,"max":206,"target":"present","response":"present","rt":333.29999995232,"correct":true,"confidence":5},{"trial_n":39,"min":49,"max":206,"target":"absent","response":"present","rt":692.69999998808,"correct":false,"confidence":2},{"trial_n":40,"min":47,"max":208,"target":"absent","response":"absent","rt":443.80000001192,"correct":true,"confidence":3},{"trial_n":41,"min":47,"max":208,"target":"absent","response":"absent","rt":820.29999995232,"correct":true,"confidence":4},{"trial_n":42,"min":48,"max":207,"target":"absent","response":"present","rt":2060.8000000119,"correct":false,"confidence":2},{"trial_n":43,"min":47,"max":208,"target":"present","response":"present","rt":270.29999995232,"correct":true,"confidence":5},{"trial_n":44,"min":47,"max":208,"target":"absent","response":"absent","rt":1081.8000000119,"correct":true,"confidence":3},{"trial_n":45,"min":48,"max":207,"target":"present","response":"present","rt":236.69999998808,"correct":true,"confidence":5},{"trial_n":46,"min":48,"max":207,"target":"absent","response":"absent","rt":1696.1999999881,"correct":true,"confidence":3},{"trial_n":47,"min":49,"max":206,"target":"present","response":"present","rt":313.69999998808,"correct":true,"confidence":5},{"trial_n":48,"min":49,"max":206,"target":"present","response":"present","rt":333.60000002384,"correct":true,"confidence":5},{"trial_n":49,"min":50,"max":205,"target":"absent","response":"present","rt":466.60000002384,"correct":false,"confidence":5},{"trial_n":50,"min":49,"max":206,"target":"present","response":"present","rt":486,"correct":true,"confidence":5},{"trial_n":51,"min":49,"max":206,"target":"present","response":"present","rt":241.80000001192,"correct":true,"confidence":5},{"trial_n":52,"min":50,"max":205,"target":"absent","response":"present","rt":459.69999998808,"correct":false,"confidence":4},{"trial_n":53,"min":49,"max":206,"target":"present","response":"present","rt":340.39999997616,"correct":true,"confidence":5},{"trial_n":54,"min":49,"max":206,"target":"absent","response":"present","rt":301.80000001192,"correct":false,"confidence":3},{"trial_n":55,"min":48,"max":207,"target":"present","response":"present","rt":189.89999997616,"correct":true,"confidence":5},{"trial_n":56,"min":48,"max":207,"target":"present","response":"absent","rt":9370.1999999881,"correct":false,"confidence":1},{"trial_n":57,"min":47,"max":208,"target":"absent","response":"absent","rt":1307.8000000119,"correct":true,"confidence":1},{"trial_n":58,"min":47,"max":208,"target":"present","response":"present","rt":451.40000003576,"correct":true,"confidence":5},{"trial_n":59,"min":48,"max":207,"target":"present","response":"present","rt":264.5,"correct":true,"confidence":5},{"trial_n":60,"min":48,"max":207,"target":"absent","response":"present","rt":365.70000004768,"correct":false,"confidence":4},{"trial_n":61,"min":47,"max":208,"target":"present","response":"present","rt":285.19999998808,"correct":true,"confidence":5},{"trial_n":62,"min":47,"max":208,"target":"absent","response":"present","rt":1310.1999999881,"correct":false,"confidence":2},{"trial_n":63,"min":46,"max":209,"target":"absent","response":"present","rt":330.30000001192,"correct":false,"confidence":4},{"trial_n":64,"min":45,"max":210,"target":"absent","response":"absent","rt":856.89999997616,"correct":true,"confidence":1},{"trial_n":65,"min":45,"max":210,"target":"absent","response":"absent","rt":811.60000002384,"correct":true,"confidence":4},{"trial_n":66,"min":46,"max":209,"target":"present","response":"present","rt":259.30000001192,"correct":true,"confidence":5},{"trial_n":67,"min":46,"max":209,"target":"absent","response":"absent","rt":1121.8999999762,"correct":true,"confidence":3},{"trial_n":68,"min":47,"max":208,"target":"present","response":"present","rt":387.90000003576,"correct":true,"confidence":5},{"trial_n":69,"min":47,"max":208,"target":"absent","response":"absent","rt":456.09999996424,"correct":true,"confidence":5},{"trial_n":70,"min":48,"max":207,"target":"present","response":"present","rt":403.39999997616,"correct":true,"confidence":5},{"trial_n":71,"min":41,"max":214,"target":"present","response":"present","rt":2600.3999999762,"correct":true,"confidence":-1},{"trial_n":72,"min":41,"max":214,"target":"present","response":"present","rt":412.20000004768,"correct":true,"confidence":-1},{"trial_n":73,"min":57,"max":198,"target":"absent","response":"absent","rt":669.80000001192,"correct":true,"confidence":-1},{"trial_n":74,"min":57,"max":198,"target":"absent","response":"absent","rt":300.90000003576,"correct":true,"confidence":-1},{"trial_n":75,"min":73,"max":182,"target":"present","response":"present","rt":110.19999998808,"correct":true,"confidence":-1},{"trial_n":76,"min":73,"max":182,"target":"present","response":"present","rt":70.800000011921,"correct":true,"confidence":-1},{"trial_n":77,"min":89,"max":166,"target":"present","response":"present","rt":376.10000002384,"correct":true,"confidence":-1},{"trial_n":78,"min":89,"max":166,"target":"present","response":"present","rt":613.70000004768,"correct":true,"confidence":-1},{"trial_n":79,"min":105,"max":150,"target":"present","response":"present","rt":280.5,"correct":true,"confidence":-1},{"trial_n":80,"min":105,"max":150,"target":"absent","response":"absent","rt":543.39999997616,"correct":true,"confidence":-1},{"trial_n":81,"min":113,"max":142,"target":"present","response":"absent","rt":813.80000001192,"correct":false,"confidence":-1},{"trial_n":82,"min":105,"max":150,"target":"absent","response":"present","rt":461.90000003576,"correct":false,"confidence":-1},{"trial_n":83,"min":97,"max":158,"target":"present","response":"present","rt":293.60000002384,"correct":true,"confidence":-1},{"trial_n":84,"min":97,"max":158,"target":"absent","response":"present","rt":266.20000004768,"correct":false,"confidence":-1},{"trial_n":85,"min":89,"max":166,"target":"absent","response":"absent","rt":348,"correct":true,"confidence":-1},{"trial_n":86,"min":89,"max":166,"target":"present","response":"present","rt":286,"correct":true,"confidence":-1},{"trial_n":87,"min":97,"max":158,"target":"absent","response":"present","rt":308.70000004768,"correct":false,"confidence":-1},{"trial_n":88,"min":89,"max":166,"target":"present","response":"absent","rt":521.30000001192,"correct":false,"confidence":-1},{"trial_n":89,"min":81,"max":174,"target":"present","response":"present","rt":350.70000004768,"correct":true,"confidence":-1},{"trial_n":90,"min":81,"max":174,"target":"absent","response":"absent","rt":697.90000003576,"correct":true,"confidence":-1},{"trial_n":91,"min":85,"max":170,"target":"absent","response":"present","rt":617.80000001192,"correct":false,"confidence":4},{"trial_n":92,"min":81,"max":174,"target":"present","response":"present","rt":608.80000001192,"correct":true,"confidence":4},{"trial_n":93,"min":81,"max":174,"target":"present","response":"present","rt":207.20000004768,"correct":true,"confidence":5},{"trial_n":94,"min":85,"max":170,"target":"present","response":"present","rt":265.30000001192,"correct":true,"confidence":5},{"trial_n":95,"min":85,"max":170,"target":"absent","response":"present","rt":970.5,"correct":false,"confidence":2},{"trial_n":96,"min":81,"max":174,"target":"present","response":"present","rt":239.80000001192,"correct":true,"confidence":5},{"trial_n":97,"min":81,"max":174,"target":"present","response":"present","rt":379.89999997616,"correct":true,"confidence":5},{"trial_n":98,"min":85,"max":170,"target":"present","response":"absent","rt":1170,"correct":false,"confidence":1},{"trial_n":99,"min":81,"max":174,"target":"present","response":"present","rt":437.10000002384,"correct":true,"confidence":4},{"trial_n":100,"min":81,"max":174,"target":"absent","response":"absent","rt":1408.5999999642,"correct":true,"confidence":3},{"trial_n":101,"min":83,"max":172,"target":"absent","response":"absent","rt":2236.5,"correct":true,"confidence":1},{"trial_n":102,"min":83,"max":172,"target":"present","response":"present","rt":293.60000002384,"correct":true,"confidence":5},{"trial_n":103,"min":85,"max":170,"target":"absent","response":"present","rt":1351.4000000358,"correct":false,"confidence":1},{"trial_n":104,"min":83,"max":172,"target":"absent","response":"absent","rt":1961.3000000119,"correct":true,"confidence":1},{"trial_n":105,"min":83,"max":172,"target":"absent","response":"absent","rt":636.69999998808,"correct":true,"confidence":3},{"trial_n":106,"min":85,"max":170,"target":"absent","response":"absent","rt":1012.3000000119,"correct":true,"confidence":1},{"trial_n":107,"min":85,"max":170,"target":"absent","response":"present","rt":660.30000001192,"correct":false,"confidence":1},{"trial_n":108,"min":83,"max":172,"target":"absent","response":"absent","rt":1663.3999999762,"correct":true,"confidence":2},{"trial_n":109,"min":83,"max":172,"target":"absent","response":"absent","rt":593.60000002384,"correct":true,"confidence":4},{"trial_n":110,"min":85,"max":170,"target":"present","response":"absent","rt":360.39999997616,"correct":false,"confidence":5},{"trial_n":111,"min":84,"max":171,"target":"absent","response":"absent","rt":1210.1999999881,"correct":true,"confidence":1},{"trial_n":112,"min":84,"max":171,"target":"absent","response":"absent","rt":680.89999997616,"correct":true,"confidence":3},{"trial_n":113,"min":85,"max":170,"target":"absent","response":"absent","rt":1174.2999999523,"correct":true,"confidence":3},{"trial_n":114,"min":85,"max":170,"target":"present","response":"present","rt":234.70000004768,"correct":true,"confidence":5},{"trial_n":115,"min":86,"max":169,"target":"absent","response":"present","rt":1787.1000000238,"correct":false,"confidence":1},{"trial_n":116,"min":85,"max":170,"target":"present","response":"present","rt":119.39999997616,"correct":true,"confidence":5},{"trial_n":117,"min":85,"max":170,"target":"absent","response":"absent","rt":1060.5999999642,"correct":true,"confidence":1},{"trial_n":118,"min":86,"max":169,"target":"absent","response":"present","rt":1143.3999999762,"correct":false,"confidence":3},{"trial_n":119,"min":85,"max":170,"target":"present","response":"present","rt":867.69999998808,"correct":true,"confidence":3},{"trial_n":120,"min":85,"max":170,"target":"present","response":"present","rt":1031.6000000238,"correct":true,"confidence":4},{"trial_n":121,"min":86,"max":169,"target":"present","response":"present","rt":379.79999995232,"correct":true,"confidence":5},{"trial_n":122,"min":86,"max":169,"target":"absent","response":"present","rt":1391.7999999523,"correct":false,"confidence":4},{"trial_n":123,"min":85,"max":170,"target":"present","response":"present","rt":1290,"correct":true,"confidence":1},{"trial_n":124,"min":85,"max":170,"target":"present","response":"present","rt":715.19999998808,"correct":true,"confidence":5},{"trial_n":125,"min":86,"max":169,"target":"absent","response":"absent","rt":761,"correct":true,"confidence":1},{"trial_n":126,"min":86,"max":169,"target":"present","response":"absent","rt":1309.8000000119,"correct":false,"confidence":1},{"trial_n":127,"min":85,"max":170,"target":"absent","response":"absent","rt":871.5,"correct":true,"confidence":4},{"trial_n":128,"min":85,"max":170,"target":"present","response":"present","rt":363.29999995232,"correct":true,"confidence":1},{"trial_n":129,"min":86,"max":169,"target":"absent","response":"present","rt":981.19999998808,"correct":false,"confidence":4},{"trial_n":130,"min":85,"max":170,"target":"present","response":"absent","rt":1086.5999999642,"correct":false,"confidence":1},{"trial_n":131,"min":84,"max":171,"target":"present","response":"present","rt":277.39999997616,"correct":true,"confidence":5},{"trial_n":132,"min":84,"max":171,"target":"present","response":"present","rt":663,"correct":true,"confidence":5},{"trial_n":133,"min":85,"max":170,"target":"absent","response":"present","rt":330.30000001192,"correct":false,"confidence":1},{"trial_n":134,"min":84,"max":171,"target":"absent","response":"absent","rt":481.10000002384,"correct":true,"confidence":5},{"trial_n":135,"min":84,"max":171,"target":"present","response":"present","rt":655.39999997616,"correct":true,"confidence":4},{"trial_n":136,"min":85,"max":170,"target":"present","response":"present","rt":380.69999998808,"correct":true,"confidence":3},{"trial_n":137,"min":85,"max":170,"target":"absent","response":"absent","rt":1028.6999999881,"correct":true,"confidence":3},{"trial_n":138,"min":86,"max":169,"target":"present","response":"absent","rt":1585.9000000358,"correct":false,"confidence":1},{"trial_n":139,"min":85,"max":170,"target":"absent","response":"absent","rt":1451.8000000119,"correct":true,"confidence":4},{"trial_n":140,"min":85,"max":170,"target":"absent","response":"absent","rt":670.90000003576,"correct":true,"confidence":1}]