[{"trial_n":1,"n_dots":4.25,"target":"left","response":"left","rt":2677.6000000238,"correct":true,"confidence":-1},{"trial_n":2,"n_dots":4.25,"target":"right","response":"right","rt":739,"correct":true,"confidence":-1},{"trial_n":3,"n_dots":3.85,"target":"right","response":"left","rt":992.80000001192,"correct":false,"confidence":-1},{"trial_n":4,"n_dots":4.25,"target":"left","response":"left","rt":541.60000002384,"correct":true,"confidence":-1},{"trial_n":5,"n_dots":4.25,"target":"left","response":"left","rt":404.20000004768,"correct":true,"confidence":-1},{"trial_n":6,"n_dots":3.85,"target":"right","response":"right","rt":402.80000001192,"correct":true,"confidence":-1},{"trial_n":7,"n_dots":3.85,"target":"left","response":"left","rt":324.40000003576,"correct":true,"confidence":-1},{"trial_n":8,"n_dots":3.65,"target":"right","response":"left","rt":501.39999997616,"correct":false,"confidence":-1},{"trial_n":9,"n_dots":3.85,"target":"left","response":"left","rt":305.30000001192,"correct":true,"confidence":-1},{"trial_n":10,"n_dots":3.85,"target":"right","response":"right","rt":286.89999997616,"correct":true,"confidence":-1},{"trial_n":11,"n_dots":3.65,"target":"right","response":"left","rt":388.90000003576,"correct":false,"confidence":-1},{"trial_n":12,"n_dots":3.85,"target":"right","response":"right","rt":411.80000001192,"correct":true,"confidence":-1},{"trial_n":13,"n_dots":3.85,"target":"left","response":"left","rt":496,"correct":true,"confidence":-1},{"trial_n":14,"n_dots":3.75,"target":"right","response":"right","rt":377.20000004768,"correct":true,"confidence":-1},{"trial_n":15,"n_dots":3.75,"target":"left","response":"left","rt":406.90000003576,"correct":true,"confidence":-1},{"trial_n":16,"n_dots":3.65,"target":"right","response":"right","rt":412.5,"correct":true,"confidence":-1},{"trial_n":17,"n_dots":3.65,"target":"right","response":"right","rt":372.69999998808,"correct":true,"confidence":-1},{"trial_n":18,"n_dots":3.55,"target":"right","response":"left","rt":335.89999997616,"correct":false,"confidence":-1},{"trial_n":19,"n_dots":3.65,"target":"left","response":"left","rt":573.60000002384,"correct":true,"confidence":-1},{"trial_n":20,"n_dots":3.65,"target":"left","response":"left","rt":307.30000001192,"correct":true,"confidence":-1},{"trial_n":21,"n_dots":3.55,"target":"right","response":"right","rt":562.30000001192,"correct":true,"confidence":4},{"trial_n":22,"n_dots":3.55,"target":"right","response":"right","rt":10673.199999988,"correct":true,"confidence":1},{"trial_n":23,"n_dots":3.45,"target":"right","response":"left","rt":839.29999995232,"correct":false,"confidence":3},{"trial_n":24,"n_dots":3.55,"target":"left","response":"left","rt":527.19999998808,"correct":true,"confidence":5},{"trial_n":25,"n_dots":3.55,"target":"left","response":"left","rt":449.10000002384,"correct":true,"confidence":5},{"trial_n":26,"n_dots":3.45,"target":"right","response":"right","rt":539.40000003576,"correct":true,"confidence":3},{"trial_n":27,"n_dots":3.45,"target":"right","response":"right","rt":585.19999998808,"correct":true,"confidence":1},{"trial_n":28,"n_dots":3.35,"target":"right","response":"left","rt":840.69999998808,"correct":false,"confidence":5},{"trial_n":29,"n_dots":3.45,"target":"right","response":"left","rt":550.69999998808,"correct":false,"confidence":5},{"trial_n":30,"n_dots":3.55,"target":"left","response":"left","rt":2228.1999999881,"correct":true,"confidence":1},{"trial_n":31,"n_dots":3.55,"target":"right","response":"right","rt":461.39999997616,"correct":true,"confidence":3},{"trial_n":32,"n_dots":3.45,"target":"right","response":"left","rt":395.19999998808,"correct":false,"confidence":3},{"trial_n":33,"n_dots":3.55,"target":"left","response":"left","rt":315.30000001192,"correct":true,"confidence":5},{"trial_n":34,"n_dots":3.55,"target":"left","response":"left","rt":586.19999998808,"correct":true,"confidence":5},{"trial_n":35,"n_dots":3.45,"target":"right","response":"left","rt":528.5,"correct":false,"confidence":3},{"trial_n":36,"n_dots":3.55,"target":"right","response":"left","rt":1304.4000000358,"correct":false,"confidence":3},{"trial_n":37,"n_dots":3.65,"target":"right","response":"right","rt":622.5,"correct":true,"confidence":1},{"trial_n":38,"n_dots":3.65,"target":"left","response":"left","rt":560,"correct":true,"confidence":1},{"trial_n":39,"n_dots":3.55,"target":"right","response":"left","rt":346.40000003576,"correct":false,"confidence":5},{"trial_n":40,"n_dots":3.65,"target":"left","response":"left","rt":404.69999998808,"correct":true,"confidence":4},{"trial_n":41,"n_dots":3.65,"target":"right","response":"right","rt":504.89999997616,"correct":true,"confidence":3},{"trial_n":42,"n_dots":3.55,"target":"right","response":"left","rt":783.89999997616,"correct":false,"confidence":1},{"trial_n":43,"n_dots":3.65,"target":"left","response":"right","rt":595,"correct":false,"confidence":4},{"trial_n":44,"n_dots":3.75,"target":"right","response":"right","rt":703.39999997616,"correct":true,"confidence":4},{"trial_n":45,"n_dots":3.75,"target":"left","response":"left","rt":1402.8000000119,"correct":true,"confidence":1},{"trial_n":46,"n_dots":3.65,"target":"left","response":"left","rt":370.5,"correct":true,"confidence":3},{"trial_n":47,"n_dots":3.65,"target":"right","response":"left","rt":545.30000001192,"correct":false,"confidence":3},{"trial_n":48,"n_dots":3.75,"target":"left","response":"left","rt":295.89999997616,"correct":true,"confidence":4},{"trial_n":49,"n_dots":3.75,"target":"left","response":"left","rt":334.80000001192,"correct":true,"confidence":4},{"trial_n":50,"n_dots":3.65,"target":"left","response":"left","rt":1208.3000000119,"correct":true,"confidence":4},{"trial_n":51,"n_dots":3.65,"target":"right","response":"right","rt":826.30000001192,"correct":true,"confidence":4},{"trial_n":52,"n_dots":3.55,"target":"left","response":"left","rt":423.69999998808,"correct":true,"confidence":2},{"trial_n":53,"n_dots":3.55,"target":"right","response":"left","rt":1110.8000000119,"correct":false,"confidence":3},{"trial_n":54,"n_dots":3.65,"target":"left","response":"left","rt":1473.3000000119,"correct":true,"confidence":1},{"trial_n":55,"n_dots":3.65,"target":"right","response":"right","rt":2816.5,"correct":true,"confidence":4},{"trial_n":56,"n_dots":3.55,"target":"left","response":"left","rt":2318.8000000119,"correct":true,"confidence":5},{"trial_n":57,"n_dots":3.55,"target":"left","response":"left","rt":2295.5,"correct":true,"confidence":1},{"trial_n":58,"n_dots":3.45,"target":"left","response":"left","rt":10670.399999976,"correct":true,"confidence":1},{"trial_n":59,"n_dots":3.45,"target":"right","response":"left","rt":1511.4000000358,"correct":false,"confidence":3},{"trial_n":60,"n_dots":3.55,"target":"left","response":"left","rt":429.30000001192,"correct":true,"confidence":1},{"trial_n":61,"n_dots":3.55,"target":"left","response":"left","rt":635.60000002384,"correct":true,"confidence":4},{"trial_n":62,"n_dots":3.45,"target":"left","response":"right","rt":311.5,"correct":false,"confidence":4},{"trial_n":63,"n_dots":3.55,"target":"left","response":"left","rt":365.19999998808,"correct":true,"confidence":3},{"trial_n":64,"n_dots":3.55,"target":"left","response":"left","rt":450.80000001192,"correct":true,"confidence":4},{"trial_n":65,"n_dots":3.45,"target":"right","response":"right","rt":444.69999998808,"correct":true,"confidence":4},{"trial_n":66,"n_dots":3.45,"target":"right","response":"right","rt":378.69999998808,"correct":true,"confidence":4},{"trial_n":67,"n_dots":3.35,"target":"left","response":"left","rt":447.20000004768,"correct":true,"confidence":3},{"trial_n":68,"n_dots":3.35,"target":"left","response":"left","rt":549.30000001192,"correct":true,"confidence":3},{"trial_n":69,"n_dots":3.25,"target":"right","response":"right","rt":468.30000001192,"correct":true,"confidence":5},{"trial_n":70,"n_dots":3.25,"target":"left","response":"left","rt":310,"correct":true,"confidence":5},{"trial_n":71,"n_dots":3.15,"target":"right","response":"right","rt":458.69999998808,"correct":true,"confidence":3},{"trial_n":72,"n_dots":3.15,"target":"left","response":"left","rt":278,"correct":true,"confidence":5},{"trial_n":73,"n_dots":3.05,"target":"left","response":"left","rt":561.80000001192,"correct":true,"confidence":4},{"trial_n":74,"n_dots":3.05,"target":"right","response":"left","rt":302,"correct":false,"confidence":3},{"trial_n":75,"n_dots":3.15,"target":"left","response":"left","rt":601.60000002384,"correct":true,"confidence":3},{"trial_n":76,"n_dots":3.15,"target":"right","response":"left","rt":329.30000001192,"correct":false,"confidence":1},{"trial_n":77,"n_dots":3.25,"target":"right","response":"right","rt":372.19999998808,"correct":true,"confidence":4},{"trial_n":78,"n_dots":3.25,"target":"left","response":"left","rt":842.19999998808,"correct":true,"confidence":3},{"trial_n":79,"n_dots":3.15,"target":"right","response":"right","rt":909.30000001192,"correct":true,"confidence":4},{"trial_n":80,"n_dots":3.15,"target":"left","response":"right","rt":2160.3000000119,"correct":false,"confidence":1},{"trial_n":81,"n_dots":3.25,"target":"right","response":"right","rt":301.5,"correct":true,"confidence":3},{"trial_n":82,"n_dots":3.25,"target":"left","response":"left","rt":297.30000001192,"correct":true,"confidence":3},{"trial_n":83,"n_dots":3.15,"target":"left","response":"left","rt":171.59999996424,"correct":true,"confidence":3},{"trial_n":84,"n_dots":3.15,"target":"right","response":"right","rt":259.10000002384,"correct":true,"confidence":3},{"trial_n":85,"n_dots":3.05,"target":"right","response":"left","rt":427.30000001192,"correct":false,"confidence":1},{"trial_n":86,"n_dots":3.15,"target":"left","response":"left","rt":316.69999998808,"correct":true,"confidence":4},{"trial_n":87,"n_dots":3.15,"target":"left","response":"left","rt":259.5,"correct":true,"confidence":4},{"trial_n":88,"n_dots":3.05,"target":"right","response":"left","rt":466.80000001192,"correct":false,"confidence":3},{"trial_n":89,"n_dots":3.15,"target":"left","response":"left","rt":286.30000001192,"correct":true,"confidence":1},{"trial_n":90,"n_dots":3.15,"target":"right","response":"right","rt":333,"correct":true,"confidence":1},{"trial_n":91,"n_dots":3.05,"target":"right","response":"left","rt":606.39999997616,"correct":false,"confidence":3},{"trial_n":92,"n_dots":3.15,"target":"right","response":"right","rt":825.80000001192,"correct":true,"confidence":1},{"trial_n":93,"n_dots":3.15,"target":"right","response":"left","rt":348.70000004768,"correct":false,"confidence":1},{"trial_n":94,"n_dots":3.25,"target":"left","response":"left","rt":341.80000001192,"correct":true,"confidence":3},{"trial_n":95,"n_dots":3.25,"target":"right","response":"left","rt":483.19999998808,"correct":false,"confidence":3},{"trial_n":96,"n_dots":3.35,"target":"right","response":"right","rt":540.30000001192,"correct":true,"confidence":4},{"trial_n":97,"n_dots":3.35,"target":"left","response":"left","rt":252.39999997616,"correct":true,"confidence":3},{"trial_n":98,"n_dots":3.25,"target":"left","response":"left","rt":319.39999997616,"correct":true,"confidence":3},{"trial_n":99,"n_dots":3.25,"target":"left","response":"left","rt":385.89999997616,"correct":true,"confidence":5},{"trial_n":100,"n_dots":3.15,"target":"right","response":"left","rt":367.39999997616,"correct":false,"confidence":1},{"trial_n":101,"n_dots":3.25,"target":"right","response":"left","rt":315.09999996424,"correct":false,"confidence":5},{"trial_n":102,"n_dots":3.35,"target":"left","response":"left","rt":472.70000004768,"correct":true,"confidence":5},{"trial_n":103,"n_dots":3.35,"target":"left","response":"left","rt":364.70000004768,"correct":true,"confidence":5},{"trial_n":104,"n_dots":3.25,"target":"right","response":"left","rt":1394.5,"correct":false,"confidence":4},{"trial_n":105,"n_dots":3.35,"target":"left","response":"left","rt":363.70000004768,"correct":true,"confidence":5},{"trial_n":106,"n_dots":3.35,"target":"left","response":"left","rt":352.80000001192,"correct":true,"confidence":4},{"trial_n":107,"n_dots":3.25,"target":"left","response":"left","rt":811.70000004768,"correct":true,"confidence":2},{"trial_n":108,"n_dots":3.25,"target":"left","response":"left","rt":300.30000001192,"correct":true,"confidence":5},{"trial_n":109,"n_dots":3.15,"target":"right","response":"left","rt":549.30000001192,"correct":false,"confidence":5},{"trial_n":110,"n_dots":3.25,"target":"left","response":"right","rt":525.60000002384,"correct":false,"confidence":1},{"trial_n":111,"n_dots":3.35,"target":"right","response":"right","rt":523.89999997616,"correct":true,"confidence":1},{"trial_n":112,"n_dots":3.35,"target":"left","response":"left","rt":648.80000001192,"correct":true,"confidence":1},{"trial_n":113,"n_dots":3.25,"target":"right","response":"left","rt":396.5,"correct":false,"confidence":4},{"trial_n":114,"n_dots":3.35,"target":"right","response":"left","rt":251.40000003576,"correct":false,"confidence":5},{"trial_n":115,"n_dots":3.45,"target":"right","response":"right","rt":519.89999997616,"correct":true,"confidence":4},{"trial_n":116,"n_dots":3.45,"target":"right","response":"left","rt":585.60000002384,"correct":false,"confidence":3},{"trial_n":117,"n_dots":3.55,"target":"left","response":"left","rt":411.80000001192,"correct":true,"confidence":3},{"trial_n":118,"n_dots":3.55,"target":"right","response":"right","rt":389.39999997616,"correct":true,"confidence":5},{"trial_n":119,"n_dots":3.45,"target":"left","response":"left","rt":861.89999997616,"correct":true,"confidence":3},{"trial_n":120,"n_dots":3.45,"target":"left","response":"left","rt":454.30000001192,"correct":true,"confidence":3}]