[{"trial_n":1,"n_dots":4.25,"target":"left","response":"left","rt":6965.7000000477,"correct":true,"confidence":-1},{"trial_n":2,"n_dots":4.25,"target":"left","response":"left","rt":422.80000019073,"correct":true,"confidence":-1},{"trial_n":3,"n_dots":3.85,"target":"left","response":"left","rt":77.5,"correct":true,"confidence":-1},{"trial_n":4,"n_dots":3.85,"target":"right","response":"right","rt":3034.5,"correct":true,"confidence":-1},{"trial_n":5,"n_dots":3.45,"target":"right","response":"left","rt":88.399999856949,"correct":false,"confidence":-1},{"trial_n":6,"n_dots":3.85,"target":"left","response":"right","rt":2090.8999998569,"correct":false,"confidence":-1},{"trial_n":7,"n_dots":4.25,"target":"right","response":"left","rt":6429.2999999523,"correct":false,"confidence":-1},{"trial_n":8,"n_dots":4.45,"target":"left","response":"left","rt":514.29999995232,"correct":true,"confidence":-1},{"trial_n":9,"n_dots":4.45,"target":"left","response":"left","rt":286.39999985695,"correct":true,"confidence":-1},{"trial_n":10,"n_dots":4.25,"target":"left","response":"left","rt":261.10000014305,"correct":true,"confidence":-1},{"trial_n":11,"n_dots":4.25,"target":"right","response":"right","rt":202.5,"correct":true,"confidence":-1},{"trial_n":12,"n_dots":4.05,"target":"left","response":"left","rt":251.59999990463,"correct":true,"confidence":-1},{"trial_n":13,"n_dots":4.05,"target":"left","response":"left","rt":345.59999990463,"correct":true,"confidence":-1},{"trial_n":14,"n_dots":3.95,"target":"right","response":"right","rt":260.59999990463,"correct":true,"confidence":-1},{"trial_n":15,"n_dots":3.95,"target":"right","response":"right","rt":254.29999995232,"correct":true,"confidence":-1},{"trial_n":16,"n_dots":3.85,"target":"left","response":"left","rt":306.59999990463,"correct":true,"confidence":-1},{"trial_n":17,"n_dots":3.85,"target":"right","response":"right","rt":215,"correct":true,"confidence":-1},{"trial_n":18,"n_dots":3.75,"target":"right","response":"right","rt":212.10000014305,"correct":true,"confidence":-1},{"trial_n":19,"n_dots":3.75,"target":"right","response":"right","rt":187.90000009537,"correct":true,"confidence":-1},{"trial_n":20,"n_dots":3.65,"target":"left","response":"left","rt":86.299999952316,"correct":true,"confidence":-1},{"trial_n":21,"n_dots":3.65,"target":"right","response":"right","rt":412.59999990463,"correct":true,"confidence":2},{"trial_n":22,"n_dots":3.55,"target":"right","response":"left","rt":6919.1000001431,"correct":false,"confidence":1},{"trial_n":23,"n_dots":3.65,"target":"right","response":"left","rt":566.89999985695,"correct":false,"confidence":3},{"trial_n":24,"n_dots":3.75,"target":"right","response":"left","rt":313.09999990463,"correct":false,"confidence":1},{"trial_n":25,"n_dots":3.85,"target":"right","response":"right","rt":808.59999990463,"correct":true,"confidence":1},{"trial_n":26,"n_dots":3.85,"target":"left","response":"left","rt":304.29999995232,"correct":true,"confidence":4},{"trial_n":27,"n_dots":3.75,"target":"right","response":"left","rt":1520.1000001431,"correct":false,"confidence":2},{"trial_n":28,"n_dots":3.85,"target":"right","response":"left","rt":469.29999995232,"correct":false,"confidence":1},{"trial_n":29,"n_dots":3.95,"target":"left","response":"left","rt":309.79999995232,"correct":true,"confidence":4},{"trial_n":30,"n_dots":3.95,"target":"left","response":"left","rt":513.60000014305,"correct":true,"confidence":4},{"trial_n":31,"n_dots":3.85,"target":"right","response":"right","rt":993.89999985695,"correct":true,"confidence":1},{"trial_n":32,"n_dots":3.85,"target":"left","response":"left","rt":302.60000014305,"correct":true,"confidence":4},{"trial_n":33,"n_dots":3.75,"target":"left","response":"left","rt":372.90000009537,"correct":true,"confidence":2},{"trial_n":34,"n_dots":3.75,"target":"left","response":"left","rt":341.90000009537,"correct":true,"confidence":4},{"trial_n":35,"n_dots":3.65,"target":"left","response":"left","rt":35.5,"correct":true,"confidence":4},{"trial_n":36,"n_dots":3.65,"target":"right","response":"right","rt":290.60000014305,"correct":true,"confidence":3},{"trial_n":37,"n_dots":3.55,"target":"right","response":"right","rt":1001.7999999523,"correct":true,"confidence":4},{"trial_n":38,"n_dots":3.55,"target":"left","response":"left","rt":586.19999980927,"correct":true,"confidence":1},{"trial_n":39,"n_dots":3.45,"target":"right","response":"left","rt":278,"correct":false,"confidence":1},{"trial_n":40,"n_dots":3.55,"target":"left","response":"left","rt":339.59999990463,"correct":true,"confidence":1},{"trial_n":41,"n_dots":3.55,"target":"left","response":"left","rt":345.20000004768,"correct":true,"confidence":3},{"trial_n":42,"n_dots":3.45,"target":"right","response":"right","rt":346.70000004768,"correct":true,"confidence":1},{"trial_n":43,"n_dots":3.45,"target":"left","response":"left","rt":280.5,"correct":true,"confidence":4},{"trial_n":44,"n_dots":3.35,"target":"left","response":"left","rt":1042.6000001431,"correct":true,"confidence":4},{"trial_n":45,"n_dots":3.35,"target":"right","response":"right","rt":1773,"correct":true,"confidence":1},{"trial_n":46,"n_dots":3.25,"target":"left","response":"left","rt":311.90000009537,"correct":true,"confidence":1},{"trial_n":47,"n_dots":3.25,"target":"left","response":"left","rt":231.90000009537,"correct":true,"confidence":4},{"trial_n":48,"n_dots":3.15,"target":"right","response":"left","rt":245.90000009537,"correct":false,"confidence":3},{"trial_n":49,"n_dots":3.25,"target":"left","response":"left","rt":733.10000014305,"correct":true,"confidence":2},{"trial_n":50,"n_dots":3.25,"target":"right","response":"left","rt":1863.8999998569,"correct":false,"confidence":4},{"trial_n":51,"n_dots":3.35,"target":"right","response":"left","rt":322.79999995232,"correct":false,"confidence":4},{"trial_n":52,"n_dots":3.45,"target":"left","response":"left","rt":1701,"correct":true,"confidence":4},{"trial_n":53,"n_dots":3.45,"target":"right","response":"left","rt":681.20000004768,"correct":false,"confidence":1},{"trial_n":54,"n_dots":3.55,"target":"right","response":"right","rt":1153.3999998569,"correct":true,"confidence":3},{"trial_n":55,"n_dots":3.55,"target":"right","response":"right","rt":1520.5999999046,"correct":true,"confidence":4},{"trial_n":56,"n_dots":3.45,"target":"left","response":"left","rt":2460.0999999046,"correct":true,"confidence":2},{"trial_n":57,"n_dots":3.45,"target":"left","response":"right","rt":749.5,"correct":false,"confidence":3},{"trial_n":58,"n_dots":3.55,"target":"left","response":"left","rt":908.29999995232,"correct":true,"confidence":4},{"trial_n":59,"n_dots":3.55,"target":"right","response":"right","rt":465,"correct":true,"confidence":2},{"trial_n":60,"n_dots":3.45,"target":"right","response":"left","rt":279.29999995232,"correct":false,"confidence":1},{"trial_n":61,"n_dots":3.55,"target":"left","response":"left","rt":327,"correct":true,"confidence":4},{"trial_n":62,"n_dots":3.55,"target":"left","response":"left","rt":2174.2000000477,"correct":true,"confidence":2},{"trial_n":63,"n_dots":3.45,"target":"right","response":"right","rt":2484.2999999523,"correct":true,"confidence":1},{"trial_n":64,"n_dots":3.45,"target":"left","response":"left","rt":361.60000014305,"correct":true,"confidence":4},{"trial_n":65,"n_dots":3.35,"target":"left","response":"left","rt":713.90000009537,"correct":true,"confidence":4},{"trial_n":66,"n_dots":3.35,"target":"right","response":"left","rt":1390.6000001431,"correct":false,"confidence":1},{"trial_n":67,"n_dots":3.45,"target":"left","response":"left","rt":724.60000014305,"correct":true,"confidence":4},{"trial_n":68,"n_dots":3.45,"target":"right","response":"right","rt":1489.4000000954,"correct":true,"confidence":1},{"trial_n":69,"n_dots":3.35,"target":"left","response":"left","rt":922.59999990463,"correct":true,"confidence":3},{"trial_n":70,"n_dots":3.35,"target":"left","response":"left","rt":349.59999990463,"correct":true,"confidence":3},{"trial_n":71,"n_dots":3.25,"target":"right","response":"right","rt":1541.7000000477,"correct":true,"confidence":1},{"trial_n":72,"n_dots":3.25,"target":"left","response":"left","rt":339.59999990463,"correct":true,"confidence":3},{"trial_n":73,"n_dots":3.15,"target":"left","response":"left","rt":338.5,"correct":true,"confidence":2},{"trial_n":74,"n_dots":3.15,"target":"left","response":"left","rt":1476.2000000477,"correct":true,"confidence":2},{"trial_n":75,"n_dots":3.05,"target":"right","response":"left","rt":909.90000009537,"correct":false,"confidence":1},{"trial_n":76,"n_dots":3.15,"target":"left","response":"left","rt":1409.7000000477,"correct":true,"confidence":3},{"trial_n":77,"n_dots":3.15,"target":"left","response":"left","rt":1401.2000000477,"correct":true,"confidence":3},{"trial_n":78,"n_dots":3.05,"target":"right","response":"left","rt":791.79999995232,"correct":false,"confidence":1},{"trial_n":79,"n_dots":3.15,"target":"left","response":"left","rt":959,"correct":true,"confidence":1},{"trial_n":80,"n_dots":3.15,"target":"left","response":"left","rt":876.09999990463,"correct":true,"confidence":3},{"trial_n":81,"n_dots":3.05,"target":"right","response":"right","rt":942.70000004768,"correct":true,"confidence":3},{"trial_n":82,"n_dots":3.05,"target":"left","response":"left","rt":684.29999995232,"correct":true,"confidence":3},{"trial_n":83,"n_dots":2.95,"target":"left","response":"left","rt":511.19999980927,"correct":true,"confidence":3},{"trial_n":84,"n_dots":2.95,"target":"right","response":"left","rt":2052.7999999523,"correct":false,"confidence":1},{"trial_n":85,"n_dots":3.05,"target":"left","response":"left","rt":624.5,"correct":true,"confidence":1},{"trial_n":86,"n_dots":3.05,"target":"right","response":"left","rt":531.79999995232,"correct":false,"confidence":1},{"trial_n":87,"n_dots":3.15,"target":"right","response":"left","rt":591.79999995232,"correct":false,"confidence":2},{"trial_n":88,"n_dots":3.25,"target":"left","response":"left","rt":383.09999990463,"correct":true,"confidence":2},{"trial_n":89,"n_dots":3.25,"target":"left","response":"left","rt":1083.2999999523,"correct":true,"confidence":4},{"trial_n":90,"n_dots":3.15,"target":"right","response":"left","rt":300.90000009537,"correct":false,"confidence":1},{"trial_n":91,"n_dots":3.25,"target":"right","response":"left","rt":505.39999985695,"correct":false,"confidence":3},{"trial_n":92,"n_dots":3.35,"target":"left","response":"left","rt":1400.5,"correct":true,"confidence":4},{"trial_n":93,"n_dots":3.35,"target":"right","response":"right","rt":259.89999985695,"correct":true,"confidence":5},{"trial_n":94,"n_dots":3.25,"target":"right","response":"left","rt":507,"correct":false,"confidence":1},{"trial_n":95,"n_dots":3.35,"target":"left","response":"left","rt":274.70000004768,"correct":true,"confidence":3},{"trial_n":96,"n_dots":3.35,"target":"right","response":"left","rt":1658.6000001431,"correct":false,"confidence":3},{"trial_n":97,"n_dots":3.45,"target":"right","response":"left","rt":338.70000004768,"correct":false,"confidence":1},{"trial_n":98,"n_dots":3.55,"target":"left","response":"left","rt":557.40000009537,"correct":true,"confidence":4},{"trial_n":99,"n_dots":3.55,"target":"left","response":"left","rt":1443.6999998093,"correct":true,"confidence":3},{"trial_n":100,"n_dots":3.45,"target":"right","response":"left","rt":1262.8999998569,"correct":false,"confidence":3},{"trial_n":101,"n_dots":3.55,"target":"left","response":"left","rt":304.90000009537,"correct":true,"confidence":4},{"trial_n":102,"n_dots":3.55,"target":"right","response":"right","rt":978,"correct":true,"confidence":3},{"trial_n":103,"n_dots":3.45,"target":"right","response":"right","rt":1173.5,"correct":true,"confidence":3},{"trial_n":104,"n_dots":3.45,"target":"left","response":"right","rt":714.59999990463,"correct":false,"confidence":1},{"trial_n":105,"n_dots":3.55,"target":"left","response":"left","rt":4453.5,"correct":true,"confidence":3},{"trial_n":106,"n_dots":3.55,"target":"right","response":"right","rt":957.10000014305,"correct":true,"confidence":1},{"trial_n":107,"n_dots":3.45,"target":"right","response":"right","rt":338.79999995232,"correct":true,"confidence":4},{"trial_n":108,"n_dots":3.45,"target":"right","response":"right","rt":244.30000019073,"correct":true,"confidence":3},{"trial_n":109,"n_dots":3.35,"target":"right","response":"right","rt":497.5,"correct":true,"confidence":3},{"trial_n":110,"n_dots":3.35,"target":"right","response":"right","rt":307.90000009537,"correct":true,"confidence":3},{"trial_n":111,"n_dots":3.25,"target":"left","response":"left","rt":614.90000009537,"correct":true,"confidence":4},{"trial_n":112,"n_dots":3.25,"target":"right","response":"right","rt":847.29999995232,"correct":true,"confidence":3},{"trial_n":113,"n_dots":3.15,"target":"right","response":"right","rt":244.10000014305,"correct":true,"confidence":3},{"trial_n":114,"n_dots":3.15,"target":"right","response":"right","rt":844.20000004768,"correct":true,"confidence":3},{"trial_n":115,"n_dots":3.05,"target":"left","response":"left","rt":1454.5,"correct":true,"confidence":1},{"trial_n":116,"n_dots":3.05,"target":"right","response":"left","rt":478.40000009537,"correct":false,"confidence":1},{"trial_n":117,"n_dots":3.15,"target":"left","response":"left","rt":197.29999995232,"correct":true,"confidence":1},{"trial_n":118,"n_dots":3.15,"target":"left","response":"left","rt":264.10000014305,"correct":true,"confidence":1},{"trial_n":119,"n_dots":3.05,"target":"right","response":"left","rt":435.79999995232,"correct":false,"confidence":1},{"trial_n":120,"n_dots":3.15,"target":"right","response":"left","rt":391.29999995232,"correct":false,"confidence":1}]