[{"trial_n":1,"n_dots":4.25,"target":"left","response":"right","rt":933.69999999925,"correct":false,"confidence":-1},{"trial_n":2,"n_dots":4.25,"target":"right","response":"left","rt":551.59999999963,"correct":false,"confidence":-1},{"trial_n":3,"n_dots":4.65,"target":"left","response":"right","rt":997.09999999963,"correct":false,"confidence":-1},{"trial_n":4,"n_dots":5.05,"target":"right","response":"right","rt":233,"correct":true,"confidence":-1},{"trial_n":5,"n_dots":5.05,"target":"right","response":"left","rt":1077.5999999996,"correct":false,"confidence":-1},{"trial_n":6,"n_dots":5.45,"target":"left","response":"left","rt":213.90000000037,"correct":true,"confidence":-1},{"trial_n":7,"n_dots":5.45,"target":"right","response":"right","rt":145.90000000037,"correct":true,"confidence":-1},{"trial_n":8,"n_dots":5.25,"target":"left","response":"left","rt":164.59999999963,"correct":true,"confidence":-1},{"trial_n":9,"n_dots":5.25,"target":"left","response":"left","rt":234.59999999963,"correct":true,"confidence":-1},{"trial_n":10,"n_dots":5.05,"target":"left","response":"left","rt":126,"correct":true,"confidence":-1},{"trial_n":11,"n_dots":5.05,"target":"left","response":"left","rt":223,"correct":true,"confidence":-1},{"trial_n":12,"n_dots":4.85,"target":"left","response":"left","rt":653.40000000037,"correct":true,"confidence":-1},{"trial_n":13,"n_dots":4.85,"target":"right","response":"left","rt":1091.8000000007,"correct":false,"confidence":-1},{"trial_n":14,"n_dots":4.95,"target":"left","response":"right","rt":707.80000000075,"correct":false,"confidence":-1},{"trial_n":15,"n_dots":5.05,"target":"right","response":"left","rt":649.20000000112,"correct":false,"confidence":-1},{"trial_n":16,"n_dots":5.15,"target":"right","response":"left","rt":1220.2000000011,"correct":false,"confidence":-1},{"trial_n":17,"n_dots":5.25,"target":"right","response":"right","rt":48.39999999851,"correct":true,"confidence":-1},{"trial_n":18,"n_dots":5.25,"target":"right","response":"right","rt":107.89999999851,"correct":true,"confidence":-1},{"trial_n":19,"n_dots":5.15,"target":"left","response":"left","rt":181.79999999888,"correct":true,"confidence":-1},{"trial_n":20,"n_dots":5.15,"target":"left","response":"left","rt":101.69999999925,"correct":true,"confidence":-1},{"trial_n":21,"n_dots":5.05,"target":"left","response":"left","rt":1047,"correct":true,"confidence":3},{"trial_n":22,"n_dots":5.05,"target":"left","response":"left","rt":573.5,"correct":true,"confidence":3},{"trial_n":23,"n_dots":4.95,"target":"left","response":"left","rt":43.199999999255,"correct":true,"confidence":4},{"trial_n":24,"n_dots":4.95,"target":"left","response":"left","rt":443.79999999888,"correct":true,"confidence":1},{"trial_n":25,"n_dots":4.85,"target":"right","response":"right","rt":486.79999999888,"correct":true,"confidence":3},{"trial_n":26,"n_dots":4.85,"target":"left","response":"left","rt":467.09999999963,"correct":true,"confidence":4},{"trial_n":27,"n_dots":4.75,"target":"left","response":"left","rt":128.59999999963,"correct":true,"confidence":3},{"trial_n":28,"n_dots":4.75,"target":"right","response":"right","rt":24.900000000373,"correct":true,"confidence":4},{"trial_n":29,"n_dots":4.65,"target":"left","response":"left","rt":120.5,"correct":true,"confidence":5},{"trial_n":30,"n_dots":4.65,"target":"left","response":"left","rt":23.099999999627,"correct":true,"confidence":3},{"trial_n":31,"n_dots":4.55,"target":"left","response":"left","rt":202.59999999963,"correct":true,"confidence":1},{"trial_n":32,"n_dots":4.55,"target":"right","response":"right","rt":1646.0999999996,"correct":true,"confidence":1},{"trial_n":33,"n_dots":4.45,"target":"right","response":"right","rt":42.799999998882,"correct":true,"confidence":4},{"trial_n":34,"n_dots":4.45,"target":"left","response":"left","rt":338,"correct":true,"confidence":3},{"trial_n":35,"n_dots":4.35,"target":"right","response":"right","rt":130.10000000149,"correct":true,"confidence":4},{"trial_n":36,"n_dots":4.35,"target":"right","response":"right","rt":27.199999999255,"correct":true,"confidence":1},{"trial_n":37,"n_dots":4.25,"target":"left","response":"right","rt":407.59999999963,"correct":false,"confidence":1},{"trial_n":38,"n_dots":4.35,"target":"left","response":"left","rt":43.799999998882,"correct":true,"confidence":3},{"trial_n":39,"n_dots":4.35,"target":"right","response":"right","rt":202,"correct":true,"confidence":4},{"trial_n":40,"n_dots":4.25,"target":"right","response":"left","rt":4796.5999999996,"correct":false,"confidence":4},{"trial_n":41,"n_dots":4.35,"target":"left","response":"left","rt":84.200000001118,"correct":true,"confidence":3},{"trial_n":42,"n_dots":4.35,"target":"right","response":"right","rt":233.90000000037,"correct":true,"confidence":4},{"trial_n":43,"n_dots":4.25,"target":"left","response":"right","rt":15.900000000373,"correct":false,"confidence":4},{"trial_n":44,"n_dots":4.35,"target":"left","response":"left","rt":132.40000000037,"correct":true,"confidence":1},{"trial_n":45,"n_dots":4.35,"target":"right","response":"right","rt":939.5,"correct":true,"confidence":3},{"trial_n":46,"n_dots":4.25,"target":"left","response":"right","rt":4039.8000000007,"correct":false,"confidence":1},{"trial_n":47,"n_dots":4.35,"target":"right","response":"right","rt":330,"correct":true,"confidence":4},{"trial_n":48,"n_dots":4.35,"target":"right","response":"right","rt":308.5,"correct":true,"confidence":3},{"trial_n":49,"n_dots":4.25,"target":"left","response":"left","rt":467.59999999963,"correct":true,"confidence":4},{"trial_n":50,"n_dots":4.25,"target":"right","response":"right","rt":408.10000000149,"correct":true,"confidence":4},{"trial_n":51,"n_dots":4.15,"target":"right","response":"right","rt":63.699999999255,"correct":true,"confidence":4},{"trial_n":52,"n_dots":4.15,"target":"right","response":"right","rt":55,"correct":true,"confidence":4},{"trial_n":53,"n_dots":4.05,"target":"right","response":"left","rt":436,"correct":false,"confidence":1},{"trial_n":54,"n_dots":4.15,"target":"right","response":"left","rt":921.59999999963,"correct":false,"confidence":1},{"trial_n":55,"n_dots":4.25,"target":"right","response":"right","rt":1343.5,"correct":true,"confidence":2},{"trial_n":56,"n_dots":4.25,"target":"right","response":"right","rt":260.10000000149,"correct":true,"confidence":3},{"trial_n":57,"n_dots":4.15,"target":"right","response":"right","rt":434.90000000037,"correct":true,"confidence":3},{"trial_n":58,"n_dots":4.15,"target":"right","response":"right","rt":132.69999999925,"correct":true,"confidence":1},{"trial_n":59,"n_dots":4.05,"target":"right","response":"right","rt":743,"correct":true,"confidence":4},{"trial_n":60,"n_dots":4.05,"target":"left","response":"left","rt":330.20000000112,"correct":true,"confidence":3},{"trial_n":61,"n_dots":3.95,"target":"right","response":"left","rt":688.40000000037,"correct":false,"confidence":3},{"trial_n":62,"n_dots":4.05,"target":"right","response":"right","rt":232.59999999963,"correct":true,"confidence":1},{"trial_n":63,"n_dots":4.05,"target":"right","response":"right","rt":595,"correct":true,"confidence":3},{"trial_n":64,"n_dots":3.95,"target":"left","response":"right","rt":1325,"correct":false,"confidence":1},{"trial_n":65,"n_dots":4.05,"target":"left","response":"left","rt":4,"correct":true,"confidence":2},{"trial_n":66,"n_dots":4.05,"target":"left","response":"left","rt":539.19999999925,"correct":true,"confidence":3},{"trial_n":67,"n_dots":3.95,"target":"right","response":"right","rt":614.89999999851,"correct":true,"confidence":3},{"trial_n":68,"n_dots":3.95,"target":"left","response":"left","rt":428.69999999925,"correct":true,"confidence":3},{"trial_n":69,"n_dots":3.85,"target":"right","response":"left","rt":1198.2999999989,"correct":false,"confidence":4},{"trial_n":70,"n_dots":3.95,"target":"left","response":"left","rt":467.40000000037,"correct":true,"confidence":3},{"trial_n":71,"n_dots":3.95,"target":"left","response":"left","rt":359.10000000149,"correct":true,"confidence":4},{"trial_n":72,"n_dots":3.85,"target":"left","response":"left","rt":156,"correct":true,"confidence":3},{"trial_n":73,"n_dots":3.85,"target":"left","response":"left","rt":54.800000000745,"correct":true,"confidence":4},{"trial_n":74,"n_dots":3.75,"target":"left","response":"right","rt":716.30000000075,"correct":false,"confidence":3},{"trial_n":75,"n_dots":3.85,"target":"right","response":"right","rt":1769.2000000011,"correct":true,"confidence":3},{"trial_n":76,"n_dots":3.85,"target":"left","response":"left","rt":933.09999999963,"correct":true,"confidence":4},{"trial_n":77,"n_dots":3.75,"target":"right","response":"right","rt":655.09999999963,"correct":true,"confidence":3},{"trial_n":78,"n_dots":3.75,"target":"right","response":"right","rt":576,"correct":true,"confidence":4},{"trial_n":79,"n_dots":3.65,"target":"left","response":"left","rt":747.10000000149,"correct":true,"confidence":3},{"trial_n":80,"n_dots":3.65,"target":"right","response":"right","rt":497.80000000075,"correct":true,"confidence":4},{"trial_n":81,"n_dots":3.55,"target":"left","response":"right","rt":429.79999999888,"correct":false,"confidence":4},{"trial_n":82,"n_dots":3.65,"target":"right","response":"right","rt":1107.5,"correct":true,"confidence":3},{"trial_n":83,"n_dots":3.65,"target":"right","response":"right","rt":439.89999999851,"correct":true,"confidence":3},{"trial_n":84,"n_dots":3.55,"target":"right","response":"right","rt":441.60000000149,"correct":true,"confidence":4},{"trial_n":85,"n_dots":3.55,"target":"left","response":"left","rt":851.90000000037,"correct":true,"confidence":4},{"trial_n":86,"n_dots":3.45,"target":"right","response":"right","rt":448.79999999888,"correct":true,"confidence":3},{"trial_n":87,"n_dots":3.45,"target":"left","response":"left","rt":420,"correct":true,"confidence":3},{"trial_n":88,"n_dots":3.35,"target":"right","response":"left","rt":1825.8000000007,"correct":false,"confidence":1},{"trial_n":89,"n_dots":3.45,"target":"left","response":"right","rt":190.90000000037,"correct":false,"confidence":1},{"trial_n":90,"n_dots":3.55,"target":"left","response":"left","rt":56.099999999627,"correct":true,"confidence":3},{"trial_n":91,"n_dots":3.55,"target":"right","response":"right","rt":94,"correct":true,"confidence":4},{"trial_n":92,"n_dots":3.45,"target":"left","response":"left","rt":173.5,"correct":true,"confidence":2},{"trial_n":93,"n_dots":3.45,"target":"right","response":"right","rt":271,"correct":true,"confidence":4},{"trial_n":94,"n_dots":3.35,"target":"right","response":"left","rt":204.09999999963,"correct":false,"confidence":1},{"trial_n":95,"n_dots":3.45,"target":"right","response":"right","rt":792.40000000037,"correct":true,"confidence":1},{"trial_n":96,"n_dots":3.45,"target":"left","response":"left","rt":114.5,"correct":true,"confidence":1},{"trial_n":97,"n_dots":3.35,"target":"left","response":"left","rt":772.40000000037,"correct":true,"confidence":1},{"trial_n":98,"n_dots":3.35,"target":"right","response":"right","rt":44.900000000373,"correct":true,"confidence":3},{"trial_n":99,"n_dots":3.25,"target":"right","response":"right","rt":420.09999999963,"correct":true,"confidence":4},{"trial_n":100,"n_dots":3.25,"target":"left","response":"left","rt":1582.4000000004,"correct":true,"confidence":3},{"trial_n":101,"n_dots":3.15,"target":"left","response":"left","rt":271.90000000037,"correct":true,"confidence":3},{"trial_n":102,"n_dots":3.15,"target":"left","response":"left","rt":123.29999999888,"correct":true,"confidence":4},{"trial_n":103,"n_dots":3.05,"target":"right","response":"left","rt":461.30000000075,"correct":false,"confidence":3},{"trial_n":104,"n_dots":3.15,"target":"left","response":"left","rt":892.20000000112,"correct":true,"confidence":3},{"trial_n":105,"n_dots":3.15,"target":"left","response":"right","rt":617.19999999925,"correct":false,"confidence":4},{"trial_n":106,"n_dots":3.25,"target":"left","response":"left","rt":942.19999999925,"correct":true,"confidence":3},{"trial_n":107,"n_dots":3.25,"target":"left","response":"left","rt":4603.6000000015,"correct":true,"confidence":3},{"trial_n":108,"n_dots":3.15,"target":"left","response":"left","rt":556.5,"correct":true,"confidence":3},{"trial_n":109,"n_dots":3.15,"target":"right","response":"right","rt":801.90000000037,"correct":true,"confidence":4},{"trial_n":110,"n_dots":3.05,"target":"right","response":"right","rt":392.59999999963,"correct":true,"confidence":3},{"trial_n":111,"n_dots":3.05,"target":"left","response":"left","rt":144.40000000037,"correct":true,"confidence":3},{"trial_n":112,"n_dots":2.95,"target":"left","response":"left","rt":723.5,"correct":true,"confidence":4},{"trial_n":113,"n_dots":2.95,"target":"right","response":"left","rt":171.69999999925,"correct":false,"confidence":3},{"trial_n":114,"n_dots":3.05,"target":"right","response":"right","rt":185.5,"correct":true,"confidence":4},{"trial_n":115,"n_dots":3.05,"target":"left","response":"left","rt":104.29999999888,"correct":true,"confidence":5},{"trial_n":116,"n_dots":2.95,"target":"left","response":"left","rt":321.80000000075,"correct":true,"confidence":3},{"trial_n":117,"n_dots":2.95,"target":"right","response":"left","rt":182.09999999963,"correct":false,"confidence":4},{"trial_n":118,"n_dots":3.05,"target":"right","response":"left","rt":138.89999999851,"correct":false,"confidence":1},{"trial_n":119,"n_dots":3.15,"target":"right","response":"left","rt":1315.0999999996,"correct":false,"confidence":1},{"trial_n":120,"n_dots":3.25,"target":"right","response":"right","rt":1225.9000000004,"correct":true,"confidence":2}]