[{"trial_n":1,"n_dots":4.25,"target":"right","response":"right","rt":6876,"correct":true,"confidence":-1},{"trial_n":2,"n_dots":4.25,"target":"left","response":"left","rt":1054,"correct":true,"confidence":-1},{"trial_n":3,"n_dots":3.85,"target":"right","response":"right","rt":1297,"correct":true,"confidence":-1},{"trial_n":4,"n_dots":3.85,"target":"left","response":"left","rt":1144,"correct":true,"confidence":-1},{"trial_n":5,"n_dots":3.45,"target":"left","response":"left","rt":1152,"correct":true,"confidence":-1},{"trial_n":6,"n_dots":3.45,"target":"left","response":"right","rt":1487,"correct":false,"confidence":-1},{"trial_n":7,"n_dots":3.85,"target":"right","response":"left","rt":1119,"correct":false,"confidence":-1},{"trial_n":8,"n_dots":4.05,"target":"left","response":"left","rt":1216,"correct":true,"confidence":-1},{"trial_n":9,"n_dots":4.05,"target":"left","response":"left","rt":1304,"correct":true,"confidence":-1},{"trial_n":10,"n_dots":3.85,"target":"right","response":"left","rt":928.00000000001,"correct":false,"confidence":-1},{"trial_n":11,"n_dots":4.05,"target":"right","response":"right","rt":1823,"correct":true,"confidence":-1},{"trial_n":12,"n_dots":4.05,"target":"left","response":"right","rt":982,"correct":false,"confidence":-1},{"trial_n":13,"n_dots":4.15,"target":"left","response":"left","rt":748.99999999999,"correct":true,"confidence":-1},{"trial_n":14,"n_dots":4.15,"target":"right","response":"right","rt":974,"correct":true,"confidence":-1},{"trial_n":15,"n_dots":4.05,"target":"left","response":"left","rt":1021,"correct":true,"confidence":-1},{"trial_n":16,"n_dots":4.05,"target":"left","response":"left","rt":788,"correct":true,"confidence":-1},{"trial_n":17,"n_dots":3.95,"target":"right","response":"right","rt":766,"correct":true,"confidence":-1},{"trial_n":18,"n_dots":3.95,"target":"left","response":"left","rt":733,"correct":true,"confidence":-1},{"trial_n":19,"n_dots":3.85,"target":"left","response":"left","rt":805,"correct":true,"confidence":-1},{"trial_n":20,"n_dots":3.85,"target":"right","response":"left","rt":798,"correct":false,"confidence":-1},{"trial_n":21,"n_dots":3.95,"target":"left","response":"left","rt":872.99999999999,"correct":true,"confidence":2},{"trial_n":22,"n_dots":3.95,"target":"left","response":"left","rt":2908,"correct":true,"confidence":3},{"trial_n":23,"n_dots":3.85,"target":"left","response":"right","rt":1866,"correct":false,"confidence":4},{"trial_n":24,"n_dots":3.95,"target":"left","response":"left","rt":1946,"correct":true,"confidence":5},{"trial_n":25,"n_dots":3.95,"target":"left","response":"left","rt":1543,"correct":true,"confidence":5},{"trial_n":26,"n_dots":3.85,"target":"right","response":"right","rt":1080,"correct":true,"confidence":5},{"trial_n":27,"n_dots":3.85,"target":"right","response":"left","rt":1547,"correct":false,"confidence":4},{"trial_n":28,"n_dots":3.95,"target":"left","response":"left","rt":1231,"correct":true,"confidence":5},{"trial_n":29,"n_dots":3.95,"target":"left","response":"left","rt":1042,"correct":true,"confidence":4},{"trial_n":30,"n_dots":3.85,"target":"right","response":"right","rt":1380,"correct":true,"confidence":2},{"trial_n":31,"n_dots":3.85,"target":"right","response":"right","rt":765,"correct":true,"confidence":5},{"trial_n":32,"n_dots":3.75,"target":"left","response":"right","rt":1136,"correct":false,"confidence":3},{"trial_n":33,"n_dots":3.85,"target":"left","response":"left","rt":1127,"correct":true,"confidence":5},{"trial_n":34,"n_dots":3.85,"target":"left","response":"left","rt":919.00000000003,"correct":true,"confidence":4},{"trial_n":35,"n_dots":3.75,"target":"right","response":"right","rt":929,"correct":true,"confidence":3},{"trial_n":36,"n_dots":3.75,"target":"left","response":"left","rt":814,"correct":true,"confidence":4},{"trial_n":37,"n_dots":3.65,"target":"left","response":"right","rt":967,"correct":false,"confidence":4},{"trial_n":38,"n_dots":3.75,"target":"right","response":"left","rt":712.00000000003,"correct":false,"confidence":4},{"trial_n":39,"n_dots":3.85,"target":"left","response":"right","rt":605.99999999997,"correct":false,"confidence":5},{"trial_n":40,"n_dots":3.95,"target":"left","response":"left","rt":943,"correct":true,"confidence":5},{"trial_n":41,"n_dots":3.95,"target":"right","response":"right","rt":1586,"correct":true,"confidence":2},{"trial_n":42,"n_dots":3.85,"target":"right","response":"right","rt":1033,"correct":true,"confidence":3},{"trial_n":43,"n_dots":3.85,"target":"right","response":"left","rt":879,"correct":false,"confidence":3},{"trial_n":44,"n_dots":3.95,"target":"right","response":"right","rt":2738,"correct":true,"confidence":2},{"trial_n":45,"n_dots":3.95,"target":"left","response":"left","rt":1154,"correct":true,"confidence":4},{"trial_n":46,"n_dots":3.85,"target":"left","response":"left","rt":543,"correct":true,"confidence":4},{"trial_n":47,"n_dots":3.85,"target":"left","response":"right","rt":779,"correct":false,"confidence":5},{"trial_n":48,"n_dots":3.95,"target":"left","response":"left","rt":516,"correct":true,"confidence":5},{"trial_n":49,"n_dots":3.95,"target":"left","response":"left","rt":895,"correct":true,"confidence":4},{"trial_n":50,"n_dots":3.85,"target":"right","response":"right","rt":1214.0000000001,"correct":true,"confidence":3},{"trial_n":51,"n_dots":3.85,"target":"right","response":"left","rt":802.99999999988,"correct":false,"confidence":4},{"trial_n":52,"n_dots":3.95,"target":"left","response":"right","rt":1584,"correct":false,"confidence":3},{"trial_n":53,"n_dots":4.05,"target":"left","response":"right","rt":2404,"correct":false,"confidence":3},{"trial_n":54,"n_dots":4.15,"target":"right","response":"left","rt":897,"correct":false,"confidence":4},{"trial_n":55,"n_dots":4.25,"target":"right","response":"right","rt":989,"correct":true,"confidence":5},{"trial_n":56,"n_dots":4.25,"target":"right","response":"right","rt":940,"correct":true,"confidence":5},{"trial_n":57,"n_dots":4.15,"target":"right","response":"right","rt":747.00000000012,"correct":true,"confidence":3},{"trial_n":58,"n_dots":4.15,"target":"right","response":"right","rt":706,"correct":true,"confidence":5},{"trial_n":59,"n_dots":4.05,"target":"left","response":"left","rt":529,"correct":true,"confidence":5},{"trial_n":60,"n_dots":4.05,"target":"right","response":"right","rt":539,"correct":true,"confidence":5},{"trial_n":61,"n_dots":3.95,"target":"right","response":"right","rt":903,"correct":true,"confidence":4},{"trial_n":62,"n_dots":3.95,"target":"left","response":"left","rt":655,"correct":true,"confidence":5},{"trial_n":63,"n_dots":3.85,"target":"left","response":"right","rt":551,"correct":false,"confidence":4},{"trial_n":64,"n_dots":3.95,"target":"right","response":"right","rt":1454,"correct":true,"confidence":3},{"trial_n":65,"n_dots":3.95,"target":"right","response":"left","rt":663,"correct":false,"confidence":4},{"trial_n":66,"n_dots":4.05,"target":"left","response":"left","rt":839,"correct":true,"confidence":5},{"trial_n":67,"n_dots":4.05,"target":"left","response":"left","rt":877,"correct":true,"confidence":5},{"trial_n":68,"n_dots":3.95,"target":"right","response":"right","rt":527,"correct":true,"confidence":5},{"trial_n":69,"n_dots":3.95,"target":"right","response":"right","rt":1627,"correct":true,"confidence":4},{"trial_n":70,"n_dots":3.85,"target":"left","response":"left","rt":605,"correct":true,"confidence":5},{"trial_n":71,"n_dots":3.85,"target":"right","response":"right","rt":750,"correct":true,"confidence":3},{"trial_n":72,"n_dots":3.75,"target":"right","response":"left","rt":942,"correct":false,"confidence":3},{"trial_n":73,"n_dots":3.85,"target":"left","response":"left","rt":884,"correct":true,"confidence":4},{"trial_n":74,"n_dots":3.85,"target":"right","response":"right","rt":705,"correct":true,"confidence":5},{"trial_n":75,"n_dots":3.75,"target":"right","response":"left","rt":656,"correct":false,"confidence":4},{"trial_n":76,"n_dots":3.85,"target":"right","response":"right","rt":543,"correct":true,"confidence":4},{"trial_n":77,"n_dots":3.85,"target":"left","response":"left","rt":881,"correct":true,"confidence":5},{"trial_n":78,"n_dots":3.75,"target":"right","response":"left","rt":1261,"correct":false,"confidence":2},{"trial_n":79,"n_dots":3.85,"target":"right","response":"left","rt":784.99999999977,"correct":false,"confidence":4},{"trial_n":80,"n_dots":3.95,"target":"right","response":"right","rt":689,"correct":true,"confidence":3},{"trial_n":81,"n_dots":3.95,"target":"right","response":"right","rt":780,"correct":true,"confidence":2},{"trial_n":82,"n_dots":3.85,"target":"right","response":"left","rt":771,"correct":false,"confidence":3},{"trial_n":83,"n_dots":3.95,"target":"left","response":"left","rt":875,"correct":true,"confidence":2},{"trial_n":84,"n_dots":3.95,"target":"right","response":"left","rt":867,"correct":false,"confidence":3},{"trial_n":85,"n_dots":4.05,"target":"left","response":"left","rt":725.00000000023,"correct":true,"confidence":4},{"trial_n":86,"n_dots":4.05,"target":"right","response":"right","rt":930,"correct":true,"confidence":2},{"trial_n":87,"n_dots":3.95,"target":"left","response":"left","rt":620,"correct":true,"confidence":5},{"trial_n":88,"n_dots":3.95,"target":"right","response":"left","rt":900,"correct":false,"confidence":4},{"trial_n":89,"n_dots":4.05,"target":"left","response":"left","rt":1116,"correct":true,"confidence":5},{"trial_n":90,"n_dots":4.05,"target":"left","response":"left","rt":578,"correct":true,"confidence":5},{"trial_n":91,"n_dots":3.95,"target":"right","response":"right","rt":731,"correct":true,"confidence":4},{"trial_n":92,"n_dots":3.95,"target":"right","response":"left","rt":474,"correct":false,"confidence":3},{"trial_n":93,"n_dots":4.05,"target":"right","response":"right","rt":652,"correct":true,"confidence":3},{"trial_n":94,"n_dots":4.05,"target":"right","response":"left","rt":706.99999999977,"correct":false,"confidence":2},{"trial_n":95,"n_dots":4.15,"target":"right","response":"right","rt":697.99999999977,"correct":true,"confidence":4},{"trial_n":96,"n_dots":4.15,"target":"right","response":"right","rt":617,"correct":true,"confidence":3},{"trial_n":97,"n_dots":4.05,"target":"left","response":"left","rt":684.00000000023,"correct":true,"confidence":1},{"trial_n":98,"n_dots":4.05,"target":"left","response":"right","rt":893,"correct":false,"confidence":2},{"trial_n":99,"n_dots":4.15,"target":"right","response":"right","rt":853,"correct":true,"confidence":3},{"trial_n":100,"n_dots":4.15,"target":"right","response":"left","rt":481,"correct":false,"confidence":2},{"trial_n":101,"n_dots":4.25,"target":"right","response":"left","rt":1405,"correct":false,"confidence":4},{"trial_n":102,"n_dots":4.35,"target":"right","response":"right","rt":1044,"correct":true,"confidence":5},{"trial_n":103,"n_dots":4.35,"target":"left","response":"left","rt":699,"correct":true,"confidence":3},{"trial_n":104,"n_dots":4.25,"target":"left","response":"left","rt":1063,"correct":true,"confidence":2},{"trial_n":105,"n_dots":4.25,"target":"left","response":"left","rt":808,"correct":true,"confidence":3},{"trial_n":106,"n_dots":4.15,"target":"right","response":"right","rt":583,"correct":true,"confidence":5},{"trial_n":107,"n_dots":4.15,"target":"right","response":"right","rt":1526,"correct":true,"confidence":2},{"trial_n":108,"n_dots":4.05,"target":"left","response":"left","rt":629,"correct":true,"confidence":5},{"trial_n":109,"n_dots":4.05,"target":"right","response":"left","rt":847,"correct":false,"confidence":2},{"trial_n":110,"n_dots":4.15,"target":"left","response":"left","rt":582,"correct":true,"confidence":4},{"trial_n":111,"n_dots":4.15,"target":"left","response":"left","rt":428,"correct":true,"confidence":5},{"trial_n":112,"n_dots":4.05,"target":"left","response":"left","rt":513,"correct":true,"confidence":5},{"trial_n":113,"n_dots":4.05,"target":"right","response":"right","rt":661,"correct":true,"confidence":4},{"trial_n":114,"n_dots":3.95,"target":"left","response":"left","rt":449.00000000047,"correct":true,"confidence":4},{"trial_n":115,"n_dots":3.95,"target":"left","response":"left","rt":638,"correct":true,"confidence":5},{"trial_n":116,"n_dots":3.85,"target":"left","response":"left","rt":417,"correct":true,"confidence":5},{"trial_n":117,"n_dots":3.85,"target":"right","response":"left","rt":555,"correct":false,"confidence":5},{"trial_n":118,"n_dots":3.95,"target":"left","response":"left","rt":612,"correct":true,"confidence":4},{"trial_n":119,"n_dots":3.95,"target":"left","response":"left","rt":522,"correct":true,"confidence":5},{"trial_n":120,"n_dots":3.85,"target":"right","response":"right","rt":1317,"correct":true,"confidence":5}]