[{"trial_n":1,"min":25,"max":230,"target":"present","response":"present","rt":6826,"correct":true,"confidence":-1},{"trial_n":2,"min":25,"max":230,"target":"present","response":"present","rt":1357,"correct":true,"confidence":-1},{"trial_n":3,"min":41,"max":214,"target":"absent","response":"absent","rt":494,"correct":true,"confidence":-1},{"trial_n":4,"min":41,"max":214,"target":"absent","response":"absent","rt":469,"correct":true,"confidence":-1},{"trial_n":5,"min":57,"max":198,"target":"present","response":"present","rt":555,"correct":true,"confidence":-1},{"trial_n":6,"min":57,"max":198,"target":"absent","response":"absent","rt":467,"correct":true,"confidence":-1},{"trial_n":7,"min":73,"max":182,"target":"absent","response":"absent","rt":458,"correct":true,"confidence":-1},{"trial_n":8,"min":73,"max":182,"target":"absent","response":"absent","rt":303,"correct":true,"confidence":-1},{"trial_n":9,"min":89,"max":166,"target":"present","response":"absent","rt":234,"correct":false,"confidence":-1},{"trial_n":10,"min":73,"max":182,"target":"present","response":"present","rt":3402,"correct":true,"confidence":-1},{"trial_n":11,"min":73,"max":182,"target":"absent","response":"absent","rt":1964,"correct":true,"confidence":-1},{"trial_n":12,"min":81,"max":174,"target":"present","response":"absent","rt":915,"correct":false,"confidence":-1},{"trial_n":13,"min":73,"max":182,"target":"absent","response":"present","rt":584,"correct":false,"confidence":-1},{"trial_n":14,"min":65,"max":190,"target":"absent","response":"absent","rt":656,"correct":true,"confidence":-1},{"trial_n":15,"min":65,"max":190,"target":"absent","response":"absent","rt":770.00000000001,"correct":true,"confidence":-1},{"trial_n":16,"min":73,"max":182,"target":"absent","response":"absent","rt":721,"correct":true,"confidence":-1},{"trial_n":17,"min":73,"max":182,"target":"absent","response":"absent","rt":432.00000000001,"correct":true,"confidence":-1},{"trial_n":18,"min":81,"max":174,"target":"absent","response":"absent","rt":378.99999999999,"correct":true,"confidence":-1},{"trial_n":19,"min":81,"max":174,"target":"present","response":"present","rt":532,"correct":true,"confidence":-1},{"trial_n":20,"min":89,"max":166,"target":"present","response":"present","rt":592,"correct":true,"confidence":-1},{"trial_n":21,"min":89,"max":166,"target":"absent","response":"absent","rt":1097,"correct":true,"confidence":4},{"trial_n":22,"min":93,"max":162,"target":"present","response":"absent","rt":4360,"correct":false,"confidence":3},{"trial_n":23,"min":89,"max":166,"target":"present","response":"present","rt":1000,"correct":true,"confidence":4},{"trial_n":24,"min":89,"max":166,"target":"absent","response":"present","rt":1182,"correct":false,"confidence":4},{"trial_n":25,"min":85,"max":170,"target":"present","response":"present","rt":713,"correct":true,"confidence":5},{"trial_n":26,"min":85,"max":170,"target":"present","response":"present","rt":714,"correct":true,"confidence":5},{"trial_n":27,"min":89,"max":166,"target":"absent","response":"present","rt":897,"correct":false,"confidence":4},{"trial_n":28,"min":85,"max":170,"target":"present","response":"absent","rt":765,"correct":false,"confidence":3},{"trial_n":29,"min":81,"max":174,"target":"present","response":"present","rt":537.99999999999,"correct":true,"confidence":4},{"trial_n":30,"min":81,"max":174,"target":"present","response":"absent","rt":657.99999999999,"correct":false,"confidence":3},{"trial_n":31,"min":79,"max":176,"target":"absent","response":"present","rt":682,"correct":false,"confidence":3},{"trial_n":32,"min":77,"max":178,"target":"present","response":"present","rt":1115,"correct":true,"confidence":3},{"trial_n":33,"min":77,"max":178,"target":"absent","response":"present","rt":283,"correct":false,"confidence":4},{"trial_n":34,"min":75,"max":180,"target":"present","response":"present","rt":686,"correct":true,"confidence":3},{"trial_n":35,"min":75,"max":180,"target":"absent","response":"absent","rt":821.00000000001,"correct":true,"confidence":4},{"trial_n":36,"min":77,"max":178,"target":"absent","response":"absent","rt":793.99999999999,"correct":true,"confidence":5},{"trial_n":37,"min":77,"max":178,"target":"absent","response":"absent","rt":741,"correct":true,"confidence":5},{"trial_n":38,"min":79,"max":176,"target":"present","response":"present","rt":436,"correct":true,"confidence":3},{"trial_n":39,"min":79,"max":176,"target":"present","response":"absent","rt":689,"correct":false,"confidence":3},{"trial_n":40,"min":77,"max":178,"target":"absent","response":"absent","rt":794,"correct":true,"confidence":3},{"trial_n":41,"min":77,"max":178,"target":"present","response":"present","rt":653.00000000001,"correct":true,"confidence":4},{"trial_n":42,"min":78,"max":177,"target":"present","response":"present","rt":491,"correct":true,"confidence":4},{"trial_n":43,"min":78,"max":177,"target":"absent","response":"absent","rt":581,"correct":true,"confidence":3},{"trial_n":44,"min":79,"max":176,"target":"present","response":"absent","rt":1609,"correct":false,"confidence":3},{"trial_n":45,"min":78,"max":177,"target":"absent","response":"present","rt":303,"correct":false,"confidence":4},{"trial_n":46,"min":77,"max":178,"target":"absent","response":"absent","rt":790,"correct":true,"confidence":5},{"trial_n":47,"min":77,"max":178,"target":"absent","response":"present","rt":869,"correct":false,"confidence":4},{"trial_n":48,"min":76,"max":179,"target":"absent","response":"absent","rt":884,"correct":true,"confidence":4},{"trial_n":49,"min":76,"max":179,"target":"present","response":"present","rt":470.99999999997,"correct":true,"confidence":4},{"trial_n":50,"min":77,"max":178,"target":"present","response":"absent","rt":705.00000000003,"correct":false,"confidence":4},{"trial_n":51,"min":76,"max":179,"target":"present","response":"present","rt":564,"correct":true,"confidence":3},{"trial_n":52,"min":76,"max":179,"target":"absent","response":"absent","rt":600,"correct":true,"confidence":4},{"trial_n":53,"min":77,"max":178,"target":"absent","response":"present","rt":360.00000000003,"correct":false,"confidence":4},{"trial_n":54,"min":76,"max":179,"target":"present","response":"present","rt":1076,"correct":true,"confidence":4},{"trial_n":55,"min":76,"max":179,"target":"absent","response":"absent","rt":681,"correct":true,"confidence":4},{"trial_n":56,"min":77,"max":178,"target":"absent","response":"present","rt":544.00000000003,"correct":false,"confidence":4},{"trial_n":57,"min":76,"max":179,"target":"present","response":"present","rt":514,"correct":true,"confidence":4},{"trial_n":58,"min":76,"max":179,"target":"absent","response":"absent","rt":571,"correct":true,"confidence":5},{"trial_n":59,"min":77,"max":178,"target":"present","response":"absent","rt":773,"correct":false,"confidence":4},{"trial_n":60,"min":76,"max":179,"target":"present","response":"present","rt":399,"correct":true,"confidence":4},{"trial_n":61,"min":76,"max":179,"target":"present","response":"present","rt":437,"correct":true,"confidence":4},{"trial_n":62,"min":77,"max":178,"target":"present","response":"present","rt":560,"correct":true,"confidence":4},{"trial_n":63,"min":77,"max":178,"target":"absent","response":"absent","rt":601,"correct":true,"confidence":4},{"trial_n":64,"min":78,"max":177,"target":"present","response":"present","rt":459.99999999997,"correct":true,"confidence":4},{"trial_n":65,"min":78,"max":177,"target":"present","response":"absent","rt":740,"correct":false,"confidence":4},{"trial_n":66,"min":77,"max":178,"target":"present","response":"absent","rt":905,"correct":false,"confidence":4},{"trial_n":67,"min":76,"max":179,"target":"present","response":"absent","rt":657,"correct":false,"confidence":4},{"trial_n":68,"min":75,"max":180,"target":"present","response":"absent","rt":795.99999999997,"correct":false,"confidence":4},{"trial_n":69,"min":74,"max":181,"target":"absent","response":"absent","rt":1508,"correct":true,"confidence":4},{"trial_n":70,"min":74,"max":181,"target":"absent","response":"absent","rt":522,"correct":true,"confidence":4},{"trial_n":71,"min":41,"max":214,"target":"present","response":"absent","rt":3424,"correct":false,"confidence":-1},{"trial_n":72,"min":41,"max":214,"target":"present","response":"absent","rt":848,"correct":false,"confidence":-1},{"trial_n":73,"min":25,"max":230,"target":"absent","response":"present","rt":608,"correct":false,"confidence":-1},{"trial_n":74,"min":9,"max":246,"target":"absent","response":"present","rt":1058,"correct":false,"confidence":-1},{"trial_n":75,"min":0,"max":255,"target":"present","response":"absent","rt":2604,"correct":false,"confidence":-1},{"trial_n":76,"min":0,"max":255,"target":"absent","response":"absent","rt":2872,"correct":true,"confidence":-1},{"trial_n":77,"min":0,"max":255,"target":"absent","response":"absent","rt":852,"correct":true,"confidence":-1},{"trial_n":78,"min":16,"max":239,"target":"present","response":"present","rt":380,"correct":true,"confidence":-1},{"trial_n":79,"min":16,"max":239,"target":"present","response":"present","rt":399,"correct":true,"confidence":-1},{"trial_n":80,"min":32,"max":223,"target":"present","response":"present","rt":424,"correct":true,"confidence":-1},{"trial_n":81,"min":32,"max":223,"target":"absent","response":"absent","rt":668,"correct":true,"confidence":-1},{"trial_n":82,"min":40,"max":215,"target":"absent","response":"absent","rt":410,"correct":true,"confidence":-1},{"trial_n":83,"min":40,"max":215,"target":"absent","response":"absent","rt":636,"correct":true,"confidence":-1},{"trial_n":84,"min":48,"max":207,"target":"present","response":"present","rt":248,"correct":true,"confidence":-1},{"trial_n":85,"min":48,"max":207,"target":"absent","response":"absent","rt":595,"correct":true,"confidence":-1},{"trial_n":86,"min":56,"max":199,"target":"absent","response":"absent","rt":462,"correct":true,"confidence":-1},{"trial_n":87,"min":56,"max":199,"target":"absent","response":"absent","rt":428.99999999994,"correct":true,"confidence":-1},{"trial_n":88,"min":64,"max":191,"target":"present","response":"present","rt":484.00000000006,"correct":true,"confidence":-1},{"trial_n":89,"min":64,"max":191,"target":"present","response":"absent","rt":904,"correct":false,"confidence":-1},{"trial_n":90,"min":56,"max":199,"target":"absent","response":"present","rt":444,"correct":false,"confidence":-1},{"trial_n":91,"min":52,"max":203,"target":"absent","response":"absent","rt":710,"correct":true,"confidence":3},{"trial_n":92,"min":52,"max":203,"target":"present","response":"present","rt":408,"correct":true,"confidence":3},{"trial_n":93,"min":56,"max":199,"target":"absent","response":"absent","rt":227,"correct":true,"confidence":4},{"trial_n":94,"min":56,"max":199,"target":"absent","response":"absent","rt":465.99999999994,"correct":true,"confidence":4},{"trial_n":95,"min":60,"max":195,"target":"present","response":"present","rt":640,"correct":true,"confidence":3},{"trial_n":96,"min":60,"max":195,"target":"absent","response":"absent","rt":615,"correct":true,"confidence":4},{"trial_n":97,"min":64,"max":191,"target":"present","response":"absent","rt":1903,"correct":false,"confidence":3},{"trial_n":98,"min":60,"max":195,"target":"absent","response":"present","rt":320,"correct":false,"confidence":4},{"trial_n":99,"min":56,"max":199,"target":"absent","response":"present","rt":562.00000000006,"correct":false,"confidence":3},{"trial_n":100,"min":52,"max":203,"target":"absent","response":"absent","rt":467,"correct":true,"confidence":4},{"trial_n":101,"min":52,"max":203,"target":"absent","response":"absent","rt":703,"correct":true,"confidence":4},{"trial_n":102,"min":54,"max":201,"target":"present","response":"present","rt":296.99999999994,"correct":true,"confidence":4},{"trial_n":103,"min":54,"max":201,"target":"present","response":"present","rt":264,"correct":true,"confidence":4},{"trial_n":104,"min":56,"max":199,"target":"present","response":"present","rt":706,"correct":true,"confidence":4},{"trial_n":105,"min":56,"max":199,"target":"absent","response":"absent","rt":362,"correct":true,"confidence":4},{"trial_n":106,"min":58,"max":197,"target":"present","response":"absent","rt":627,"correct":false,"confidence":3},{"trial_n":107,"min":56,"max":199,"target":"present","response":"present","rt":122,"correct":true,"confidence":4},{"trial_n":108,"min":56,"max":199,"target":"absent","response":"absent","rt":671,"correct":true,"confidence":4},{"trial_n":109,"min":58,"max":197,"target":"present","response":"absent","rt":1054.0000000001,"correct":false,"confidence":4},{"trial_n":110,"min":56,"max":199,"target":"present","response":"present","rt":395,"correct":true,"confidence":4},{"trial_n":111,"min":56,"max":199,"target":"present","response":"present","rt":517,"correct":true,"confidence":4},{"trial_n":112,"min":57,"max":198,"target":"present","response":"present","rt":2282,"correct":true,"confidence":4},{"trial_n":113,"min":57,"max":198,"target":"present","response":"present","rt":504,"correct":true,"confidence":3},{"trial_n":114,"min":58,"max":197,"target":"absent","response":"absent","rt":386.00000000006,"correct":true,"confidence":4},{"trial_n":115,"min":58,"max":197,"target":"present","response":"absent","rt":823,"correct":false,"confidence":4},{"trial_n":116,"min":57,"max":198,"target":"present","response":"present","rt":95,"correct":true,"confidence":3},{"trial_n":117,"min":57,"max":198,"target":"absent","response":"absent","rt":152,"correct":true,"confidence":3},{"trial_n":118,"min":58,"max":197,"target":"absent","response":"absent","rt":409,"correct":true,"confidence":4},{"trial_n":119,"min":58,"max":197,"target":"absent","response":"present","rt":534,"correct":false,"confidence":3},{"trial_n":120,"min":57,"max":198,"target":"absent","response":"absent","rt":370,"correct":true,"confidence":4},{"trial_n":121,"min":57,"max":198,"target":"present","response":"present","rt":360,"correct":true,"confidence":3},{"trial_n":122,"min":58,"max":197,"target":"present","response":"present","rt":361,"correct":true,"confidence":4},{"trial_n":123,"min":58,"max":197,"target":"present","response":"present","rt":306,"correct":true,"confidence":4},{"trial_n":124,"min":59,"max":196,"target":"present","response":"present","rt":380,"correct":true,"confidence":4},{"trial_n":125,"min":59,"max":196,"target":"absent","response":"absent","rt":467.00000000006,"correct":true,"confidence":4},{"trial_n":126,"min":60,"max":195,"target":"absent","response":"present","rt":555.99999999994,"correct":false,"confidence":4},{"trial_n":127,"min":59,"max":196,"target":"present","response":"present","rt":247,"correct":true,"confidence":4},{"trial_n":128,"min":59,"max":196,"target":"absent","response":"absent","rt":334,"correct":true,"confidence":4},{"trial_n":129,"min":60,"max":195,"target":"present","response":"present","rt":506,"correct":true,"confidence":4},{"trial_n":130,"min":60,"max":195,"target":"absent","response":"absent","rt":290,"correct":true,"confidence":4},{"trial_n":131,"min":61,"max":194,"target":"present","response":"present","rt":485,"correct":true,"confidence":4},{"trial_n":132,"min":61,"max":194,"target":"present","response":"present","rt":322,"correct":true,"confidence":3},{"trial_n":133,"min":62,"max":193,"target":"present","response":"present","rt":437,"correct":true,"confidence":4},{"trial_n":134,"min":62,"max":193,"target":"present","response":"present","rt":108.99999999994,"correct":true,"confidence":4},{"trial_n":135,"min":63,"max":192,"target":"present","response":"present","rt":609,"correct":true,"confidence":4},{"trial_n":136,"min":63,"max":192,"target":"absent","response":"absent","rt":443.99999999994,"correct":true,"confidence":4},{"trial_n":137,"min":64,"max":191,"target":"absent","response":"present","rt":433,"correct":false,"confidence":4},{"trial_n":138,"min":63,"max":192,"target":"absent","response":"present","rt":339.99999999994,"correct":false,"confidence":4},{"trial_n":139,"min":62,"max":193,"target":"absent","response":"absent","rt":652,"correct":true,"confidence":4},{"trial_n":140,"min":62,"max":193,"target":"present","response":"present","rt":527,"correct":true,"confidence":4}]