[{"trial_n":1,"span":8,"encoder":"17257097","distractor":"17257047","target":"present","response":"present","rt":"7690","correct":true,"confidence":-1},{"trial_n":2,"span":8,"encoder":"73701575","distractor":"77701575","target":"present","response":"absent","rt":"1380","correct":false,"confidence":-1},{"trial_n":3,"span":6,"encoder":"631691","distractor":"631091","target":"absent","response":"present","rt":"1435","correct":false,"confidence":-1},{"trial_n":4,"span":4,"encoder":"7091","distractor":"7591","target":"absent","response":"absent","rt":"1394","correct":true,"confidence":-1},{"trial_n":5,"span":4,"encoder":"8704","distractor":"8724","target":"present","response":"present","rt":"1203","correct":true,"confidence":-1},{"trial_n":6,"span":6,"encoder":"023806","distractor":"043806","target":"absent","response":"absent","rt":"1499","correct":true,"confidence":-1},{"trial_n":7,"span":6,"encoder":"163009","distractor":"163019","target":"absent","response":"present","rt":"1827","correct":false,"confidence":-1},{"trial_n":8,"span":4,"encoder":"9588","distractor":"9584","target":"absent","response":"absent","rt":"1274","correct":true,"confidence":-1},{"trial_n":9,"span":4,"encoder":"6583","distractor":"6783","target":"absent","response":"present","rt":"1079","correct":false,"confidence":-1},{"trial_n":10,"span":2,"encoder":"89","distractor":"39","target":"absent","response":"present","rt":"1007","correct":false,"confidence":-1},{"trial_n":11,"span":2,"encoder":"17","distractor":"13","target":"present","response":"absent","rt":"1772","correct":false,"confidence":-1},{"trial_n":12,"span":2,"encoder":"23","distractor":"53","target":"absent","response":"present","rt":"1636","correct":false,"confidence":-1},{"trial_n":13,"span":2,"encoder":"64","distractor":"74","target":"absent","response":"absent","rt":"1381","correct":true,"confidence":-1},{"trial_n":14,"span":2,"encoder":"97","distractor":"96","target":"absent","response":"present","rt":"1035","correct":false,"confidence":-1},{"trial_n":15,"span":2,"encoder":"93","distractor":"23","target":"present","response":"absent","rt":"857","correct":false,"confidence":-1},{"trial_n":16,"span":2,"encoder":"57","distractor":"87","target":"absent","response":"absent","rt":"1140","correct":true,"confidence":-1},{"trial_n":17,"span":2,"encoder":"31","distractor":"61","target":"present","response":"present","rt":"548","correct":true,"confidence":-1},{"trial_n":18,"span":3,"encoder":"170","distractor":"870","target":"present","response":"present","rt":"1208","correct":true,"confidence":-1},{"trial_n":19,"span":3,"encoder":"399","distractor":"999","target":"absent","response":"present","rt":"1146","correct":false,"confidence":-1},{"trial_n":20,"span":2,"encoder":"30","distractor":"60","target":"present","response":"present","rt":"1223","correct":true,"confidence":-1},{"trial_n":21,"span":2,"encoder":"87","distractor":"47","target":"absent","response":"absent","rt":"1322","correct":true,"confidence":5},{"trial_n":22,"span":3,"encoder":"426","distractor":"726","target":"absent","response":"absent","rt":"1689.0000000001","correct":true,"confidence":3},{"trial_n":23,"span":3,"encoder":"514","distractor":"516","target":"present","response":"present","rt":"1078.0000000001","correct":true,"confidence":5},{"trial_n":24,"span":4,"encoder":"7772","distractor":"7472","target":"present","response":"present","rt":"3943","correct":true,"confidence":3},{"trial_n":25,"span":4,"encoder":"7109","distractor":"7189","target":"present","response":"present","rt":"1798","correct":true,"confidence":5},{"trial_n":26,"span":5,"encoder":"97316","distractor":"97016","target":"present","response":"present","rt":"1414.0000000001","correct":true,"confidence":3},{"trial_n":27,"span":5,"encoder":"52372","distractor":"52376","target":"absent","response":"absent","rt":"1351","correct":true,"confidence":2},{"trial_n":28,"span":6,"encoder":"455950","distractor":"455350","target":"present","response":"present","rt":"2463","correct":true,"confidence":4},{"trial_n":29,"span":6,"encoder":"530696","distractor":"530596","target":"present","response":"present","rt":"2207","correct":true,"confidence":5},{"trial_n":30,"span":7,"encoder":"5642061","distractor":"5642071","target":"present","response":"present","rt":"1045.0000000001","correct":true,"confidence":5},{"trial_n":31,"span":7,"encoder":"0291261","distractor":"0251261","target":"absent","response":"present","rt":"2102","correct":false,"confidence":3},{"trial_n":32,"span":6,"encoder":"764516","distractor":"764546","target":"absent","response":"absent","rt":"2141","correct":true,"confidence":1},{"trial_n":33,"span":6,"encoder":"310487","distractor":"310187","target":"present","response":"present","rt":"1126","correct":true,"confidence":4},{"trial_n":34,"span":7,"encoder":"1801053","distractor":"1801051","target":"absent","response":"absent","rt":"1562.0000000001","correct":true,"confidence":5},{"trial_n":35,"span":7,"encoder":"8500221","distractor":"5500221","target":"absent","response":"present","rt":"2040.0000000001","correct":false,"confidence":3},{"trial_n":36,"span":6,"encoder":"525460","distractor":"525470","target":"absent","response":"absent","rt":"1777","correct":true,"confidence":5},{"trial_n":37,"span":6,"encoder":"506480","distractor":"506080","target":"absent","response":"present","rt":"1171.9999999999","correct":false,"confidence":4},{"trial_n":38,"span":5,"encoder":"28805","distractor":"28005","target":"present","response":"present","rt":"1240","correct":true,"confidence":5},{"trial_n":39,"span":5,"encoder":"48416","distractor":"44416","target":"present","response":"absent","rt":"3213","correct":false,"confidence":2},{"trial_n":40,"span":4,"encoder":"8871","distractor":"8271","target":"absent","response":"absent","rt":"1128","correct":true,"confidence":4},{"trial_n":41,"span":4,"encoder":"2762","distractor":"2562","target":"absent","response":"absent","rt":"1885","correct":true,"confidence":5},{"trial_n":42,"span":5,"encoder":"13142","distractor":"13143","target":"present","response":"present","rt":"1193","correct":true,"confidence":4},{"trial_n":43,"span":5,"encoder":"10289","distractor":"10287","target":"present","response":"present","rt":"1071","correct":true,"confidence":5},{"trial_n":44,"span":6,"encoder":"840963","distractor":"850963","target":"present","response":"present","rt":"1210","correct":true,"confidence":5},{"trial_n":45,"span":6,"encoder":"756287","distractor":"756257","target":"absent","response":"absent","rt":"1557","correct":true,"confidence":5},{"trial_n":46,"span":7,"encoder":"9813246","distractor":"9913246","target":"absent","response":"present","rt":"975","correct":false,"confidence":5},{"trial_n":47,"span":6,"encoder":"095067","distractor":"095061","target":"present","response":"absent","rt":"3726","correct":false,"confidence":1},{"trial_n":48,"span":5,"encoder":"02117","distractor":"02017","target":"present","response":"present","rt":"1294","correct":true,"confidence":3},{"trial_n":49,"span":5,"encoder":"87395","distractor":"87095","target":"present","response":"absent","rt":"1489.9999999999","correct":false,"confidence":1},{"trial_n":50,"span":4,"encoder":"3197","distractor":"3107","target":"absent","response":"absent","rt":"1561.0000000001","correct":true,"confidence":3},{"trial_n":51,"span":4,"encoder":"0951","distractor":"0952","target":"absent","response":"absent","rt":"1586","correct":true,"confidence":5},{"trial_n":52,"span":5,"encoder":"40331","distractor":"40321","target":"absent","response":"absent","rt":"1539","correct":true,"confidence":2},{"trial_n":53,"span":5,"encoder":"12931","distractor":"12934","target":"present","response":"present","rt":"1176","correct":true,"confidence":3},{"trial_n":54,"span":6,"encoder":"403290","distractor":"403090","target":"absent","response":"present","rt":"1513","correct":false,"confidence":3},{"trial_n":55,"span":5,"encoder":"47091","distractor":"77091","target":"present","response":"present","rt":"1099","correct":true,"confidence":5},{"trial_n":56,"span":5,"encoder":"35418","distractor":"05418","target":"present","response":"present","rt":"1339","correct":true,"confidence":3},{"trial_n":57,"span":6,"encoder":"339134","distractor":"339131","target":"present","response":"present","rt":"1093","correct":true,"confidence":5},{"trial_n":58,"span":6,"encoder":"386556","distractor":"386546","target":"present","response":"present","rt":"2946","correct":true,"confidence":2},{"trial_n":59,"span":7,"encoder":"0245709","distractor":"0249709","target":"present","response":"absent","rt":"2281.9999999999","correct":false,"confidence":3},{"trial_n":60,"span":6,"encoder":"574945","distractor":"574955","target":"absent","response":"absent","rt":"3822","correct":true,"confidence":2},{"trial_n":61,"span":6,"encoder":"254605","distractor":"252605","target":"present","response":"absent","rt":"6660","correct":false,"confidence":1},{"trial_n":62,"span":5,"encoder":"73045","distractor":"77045","target":"present","response":"present","rt":"1064","correct":true,"confidence":1},{"trial_n":63,"span":5,"encoder":"11483","distractor":"11482","target":"present","response":"absent","rt":"1576","correct":false,"confidence":4},{"trial_n":64,"span":4,"encoder":"7150","distractor":"6150","target":"present","response":"present","rt":"937","correct":true,"confidence":5},{"trial_n":65,"span":4,"encoder":"1360","distractor":"1361","target":"absent","response":"present","rt":"1266.9999999999","correct":false,"confidence":5},{"trial_n":66,"span":3,"encoder":"860","distractor":"820","target":"absent","response":"absent","rt":"1029","correct":true,"confidence":5},{"trial_n":67,"span":3,"encoder":"321","distractor":"221","target":"absent","response":"absent","rt":"1134","correct":true,"confidence":5},{"trial_n":68,"span":4,"encoder":"3985","distractor":"3085","target":"absent","response":"present","rt":"901","correct":false,"confidence":2},{"trial_n":69,"span":3,"encoder":"706","distractor":"700","target":"present","response":"present","rt":"1295.0000000001","correct":true,"confidence":4},{"trial_n":70,"span":3,"encoder":"926","distractor":"986","target":"present","response":"present","rt":"866","correct":true,"confidence":5},{"trial_n":71,"span":8,"encoder":"61957015","distractor":"61957018","target":"present","response":"present","rt":"6628","correct":true,"confidence":-1},{"trial_n":72,"span":8,"encoder":"88802579","distractor":"48802579","target":"present","response":"present","rt":"4409.0000000001","correct":true,"confidence":-1},{"trial_n":73,"span":9,"encoder":"280159880","distractor":"280159580","target":"absent","response":"present","rt":"2651","correct":false,"confidence":-1},{"trial_n":74,"span":8,"encoder":"85952744","distractor":"85952444","target":"absent","response":"absent","rt":"2219","correct":true,"confidence":-1},{"trial_n":75,"span":8,"encoder":"48634224","distractor":"48034224","target":"present","response":"absent","rt":"1618","correct":false,"confidence":-1},{"trial_n":76,"span":7,"encoder":"9978106","distractor":"9978109","target":"absent","response":"present","rt":"2672","correct":false,"confidence":-1},{"trial_n":77,"span":6,"encoder":"235710","distractor":"295710","target":"present","response":"present","rt":"3185","correct":true,"confidence":-1},{"trial_n":78,"span":6,"encoder":"110696","distractor":"110296","target":"present","response":"present","rt":"2183","correct":true,"confidence":-1},{"trial_n":79,"span":7,"encoder":"6104885","distractor":"6105885","target":"present","response":"present","rt":"3281","correct":true,"confidence":-1},{"trial_n":80,"span":7,"encoder":"3112227","distractor":"3192227","target":"present","response":"absent","rt":"3530","correct":false,"confidence":-1},{"trial_n":81,"span":6,"encoder":"949539","distractor":"949519","target":"absent","response":"absent","rt":"3957","correct":true,"confidence":-1},{"trial_n":82,"span":6,"encoder":"650973","distractor":"655973","target":"absent","response":"present","rt":"827","correct":false,"confidence":-1},{"trial_n":83,"span":5,"encoder":"10164","distractor":"60164","target":"present","response":"absent","rt":"1183","correct":false,"confidence":-1},{"trial_n":84,"span":4,"encoder":"9933","distractor":"9932","target":"present","response":"present","rt":"1635","correct":true,"confidence":-1},{"trial_n":85,"span":4,"encoder":"7496","distractor":"7296","target":"absent","response":"absent","rt":"1570","correct":true,"confidence":-1},{"trial_n":86,"span":5,"encoder":"26550","distractor":"26520","target":"present","response":"present","rt":"2176","correct":true,"confidence":-1},{"trial_n":87,"span":5,"encoder":"41922","distractor":"41925","target":"present","response":"present","rt":"1621","correct":true,"confidence":-1},{"trial_n":88,"span":6,"encoder":"284480","distractor":"280480","target":"present","response":"present","rt":"2367","correct":true,"confidence":-1},{"trial_n":89,"span":6,"encoder":"166463","distractor":"126463","target":"present","response":"present","rt":"2488.0000000001","correct":true,"confidence":-1},{"trial_n":90,"span":7,"encoder":"2165275","distractor":"0165275","target":"present","response":"absent","rt":"3424","correct":false,"confidence":-1},{"trial_n":91,"span":6,"encoder":"140057","distractor":"140357","target":"present","response":"present","rt":"1748.0000000001","correct":true,"confidence":5},{"trial_n":92,"span":6,"encoder":"868674","distractor":"868874","target":"absent","response":"absent","rt":"1622","correct":true,"confidence":1},{"trial_n":93,"span":7,"encoder":"7371584","distractor":"7311584","target":"present","response":"present","rt":"3164","correct":true,"confidence":5},{"trial_n":94,"span":7,"encoder":"2140686","distractor":"2140386","target":"absent","response":"present","rt":"4735","correct":false,"confidence":2},{"trial_n":95,"span":6,"encoder":"150218","distractor":"153218","target":"absent","response":"absent","rt":"3692.0000000001","correct":true,"confidence":2},{"trial_n":96,"span":6,"encoder":"889810","distractor":"889110","target":"absent","response":"absent","rt":"5020","correct":true,"confidence":5},{"trial_n":97,"span":7,"encoder":"1625489","distractor":"1624489","target":"absent","response":"absent","rt":"6250","correct":true,"confidence":4},{"trial_n":98,"span":7,"encoder":"3597928","distractor":"3592928","target":"absent","response":"present","rt":"7187","correct":false,"confidence":4},{"trial_n":99,"span":6,"encoder":"490917","distractor":"490517","target":"present","response":"present","rt":"7514","correct":true,"confidence":1},{"trial_n":100,"span":6,"encoder":"374458","distractor":"334458","target":"absent","response":"absent","rt":"2826","correct":true,"confidence":5},{"trial_n":101,"span":7,"encoder":"9764447","distractor":"9764747","target":"absent","response":"absent","rt":"2095.0000000002","correct":true,"confidence":4},{"trial_n":102,"span":7,"encoder":"5940908","distractor":"9940908","target":"present","response":"absent","rt":"9016","correct":false,"confidence":2},{"trial_n":103,"span":6,"encoder":"178789","distractor":"178759","target":"absent","response":"present","rt":"4615","correct":false,"confidence":4},{"trial_n":104,"span":5,"encoder":"67937","distractor":"67931","target":"absent","response":"present","rt":"4748","correct":false,"confidence":2},{"trial_n":105,"span":4,"encoder":"1979","distractor":"1179","target":"absent","response":"absent","rt":"5007","correct":true,"confidence":3},{"trial_n":106,"span":4,"encoder":"1451","distractor":"3451","target":"absent","response":"absent","rt":"2397","correct":true,"confidence":2},{"trial_n":107,"span":5,"encoder":"77746","distractor":"77646","target":"absent","response":"absent","rt":"3304.0000000002","correct":true,"confidence":5},{"trial_n":108,"span":5,"encoder":"37095","distractor":"37395","target":"present","response":"present","rt":"3471.9999999998","correct":true,"confidence":5},{"trial_n":109,"span":6,"encoder":"108447","distractor":"108443","target":"present","response":"present","rt":"5398.0000000002","correct":true,"confidence":4},{"trial_n":110,"span":6,"encoder":"707479","distractor":"797479","target":"absent","response":"absent","rt":"2800","correct":true,"confidence":5},{"trial_n":111,"span":7,"encoder":"9667508","distractor":"9660508","target":"absent","response":"present","rt":"4308","correct":false,"confidence":1},{"trial_n":112,"span":6,"encoder":"295946","distractor":"495946","target":"present","response":"present","rt":"8070.9999999998","correct":true,"confidence":1},{"trial_n":113,"span":6,"encoder":"784001","distractor":"784000","target":"present","response":"present","rt":"4668","correct":true,"confidence":3},{"trial_n":114,"span":7,"encoder":"4318097","distractor":"4318077","target":"absent","response":"absent","rt":"5012","correct":true,"confidence":4},{"trial_n":115,"span":7,"encoder":"7844904","distractor":"7844902","target":"absent","response":"absent","rt":"4808.9999999998","correct":true,"confidence":4},{"trial_n":116,"span":8,"encoder":"24184621","distractor":"24184921","target":"present","response":"present","rt":"3174","correct":true,"confidence":5},{"trial_n":117,"span":8,"encoder":"08434091","distractor":"08464091","target":"absent","response":"present","rt":"5164","correct":false,"confidence":1},{"trial_n":118,"span":7,"encoder":"1818342","distractor":"1818352","target":"present","response":"present","rt":"5160","correct":true,"confidence":3},{"trial_n":119,"span":7,"encoder":"1974566","distractor":"1774566","target":"absent","response":"absent","rt":"3151","correct":true,"confidence":2},{"trial_n":120,"span":8,"encoder":"88019020","distractor":"88012020","target":"present","response":"present","rt":"3906","correct":true,"confidence":5},{"trial_n":121,"span":8,"encoder":"15535812","distractor":"15535842","target":"present","response":"present","rt":"1013.9999999998","correct":true,"confidence":1},{"trial_n":122,"span":9,"encoder":"027556576","distractor":"027556176","target":"absent","response":"absent","rt":"2123","correct":true,"confidence":5},{"trial_n":123,"span":9,"encoder":"055960187","distractor":"055960087","target":"present","response":"present","rt":"3680.0000000002","correct":true,"confidence":1},{"trial_n":124,"span":10,"encoder":"6421417196","distractor":"6421417194","target":"present","response":"absent","rt":"3214.0000000002","correct":false,"confidence":2},{"trial_n":125,"span":9,"encoder":"267546036","distractor":"268546036","target":"absent","response":"absent","rt":"4146","correct":true,"confidence":3},{"trial_n":126,"span":9,"encoder":"989553883","distractor":"969553883","target":"absent","response":"absent","rt":"3421.9999999998","correct":true,"confidence":4},{"trial_n":127,"span":10,"encoder":"5685012348","distractor":"5685012338","target":"present","response":"present","rt":"4272","correct":true,"confidence":2},{"trial_n":128,"span":10,"encoder":"6584282292","distractor":"6594282292","target":"present","response":"absent","rt":"4243","correct":false,"confidence":1},{"trial_n":129,"span":9,"encoder":"505011221","distractor":"505011921","target":"absent","response":"present","rt":"6899","correct":false,"confidence":3},{"trial_n":130,"span":8,"encoder":"73462861","distractor":"03462861","target":"absent","response":"present","rt":"5511.9999999998","correct":false,"confidence":1},{"trial_n":131,"span":7,"encoder":"1236694","distractor":"1276694","target":"present","response":"present","rt":"6778","correct":true,"confidence":5},{"trial_n":132,"span":7,"encoder":"6838819","distractor":"6838810","target":"absent","response":"absent","rt":"4438","correct":true,"confidence":5},{"trial_n":133,"span":8,"encoder":"03281073","distractor":"83281073","target":"absent","response":"absent","rt":"4758","correct":true,"confidence":4},{"trial_n":134,"span":8,"encoder":"64338996","distractor":"64438996","target":"absent","response":"present","rt":"12584","correct":false,"confidence":2},{"trial_n":135,"span":7,"encoder":"0563928","distractor":"0563918","target":"present","response":"present","rt":"8459.9999999998","correct":true,"confidence":1},{"trial_n":136,"span":7,"encoder":"5484489","distractor":"5414489","target":"present","response":"absent","rt":"3000","correct":false,"confidence":2},{"trial_n":137,"span":6,"encoder":"514574","distractor":"519574","target":"present","response":"present","rt":"4273","correct":true,"confidence":3},{"trial_n":138,"span":6,"encoder":"918963","distractor":"918964","target":"absent","response":"absent","rt":"3491","correct":true,"confidence":4},{"trial_n":139,"span":7,"encoder":"3997367","distractor":"3997327","target":"present","response":"present","rt":"2749.0000000002","correct":true,"confidence":5},{"trial_n":140,"span":7,"encoder":"8510700","distractor":"8510701","target":"present","response":"present","rt":"2298","correct":true,"confidence":5}]