[{"trial_n":1,"n_dots":4.25,"target":"left","response":"left","rt":3165.1999999881,"correct":true,"confidence":-1},{"trial_n":2,"n_dots":4.25,"target":"right","response":"right","rt":382.10000002384,"correct":true,"confidence":-1},{"trial_n":3,"n_dots":3.85,"target":"right","response":"right","rt":326.10000002384,"correct":true,"confidence":-1},{"trial_n":4,"n_dots":3.85,"target":"left","response":"left","rt":80.800000011921,"correct":true,"confidence":-1},{"trial_n":5,"n_dots":3.45,"target":"left","response":"right","rt":398.10000002384,"correct":false,"confidence":-1},{"trial_n":6,"n_dots":3.85,"target":"right","response":"left","rt":404.30000001192,"correct":false,"confidence":-1},{"trial_n":7,"n_dots":4.25,"target":"left","response":"left","rt":448.10000002384,"correct":true,"confidence":-1},{"trial_n":8,"n_dots":4.25,"target":"left","response":"left","rt":317.89999997616,"correct":true,"confidence":-1},{"trial_n":9,"n_dots":4.05,"target":"right","response":"right","rt":430,"correct":true,"confidence":-1},{"trial_n":10,"n_dots":4.05,"target":"right","response":"left","rt":266.30000001192,"correct":false,"confidence":-1},{"trial_n":11,"n_dots":4.25,"target":"right","response":"right","rt":64.299999952316,"correct":true,"confidence":-1},{"trial_n":12,"n_dots":4.25,"target":"left","response":"left","rt":396.19999998808,"correct":true,"confidence":-1},{"trial_n":13,"n_dots":4.15,"target":"right","response":"left","rt":109.39999997616,"correct":false,"confidence":-1},{"trial_n":14,"n_dots":4.25,"target":"left","response":"left","rt":241.20000004768,"correct":true,"confidence":-1},{"trial_n":15,"n_dots":4.25,"target":"right","response":"left","rt":144.19999998808,"correct":false,"confidence":-1},{"trial_n":16,"n_dots":4.35,"target":"right","response":"right","rt":157.40000003576,"correct":true,"confidence":-1},{"trial_n":17,"n_dots":4.35,"target":"left","response":"left","rt":384.30000001192,"correct":true,"confidence":-1},{"trial_n":18,"n_dots":4.25,"target":"left","response":"left","rt":7,"correct":true,"confidence":-1},{"trial_n":19,"n_dots":4.25,"target":"right","response":"left","rt":25.699999988079,"correct":false,"confidence":-1},{"trial_n":20,"n_dots":4.35,"target":"right","response":"right","rt":174.69999998808,"correct":true,"confidence":-1},{"trial_n":21,"n_dots":4.35,"target":"left","response":"left","rt":436.60000002384,"correct":true,"confidence":3},{"trial_n":22,"n_dots":4.25,"target":"left","response":"left","rt":212.80000001192,"correct":true,"confidence":5},{"trial_n":23,"n_dots":4.25,"target":"left","response":"left","rt":319,"correct":true,"confidence":5},{"trial_n":24,"n_dots":4.15,"target":"left","response":"left","rt":229.60000002384,"correct":true,"confidence":5},{"trial_n":25,"n_dots":4.15,"target":"right","response":"right","rt":213.69999998808,"correct":true,"confidence":4},{"trial_n":26,"n_dots":4.05,"target":"left","response":"left","rt":6.5,"correct":true,"confidence":3},{"trial_n":27,"n_dots":4.05,"target":"left","response":"left","rt":4.8999999761581,"correct":true,"confidence":5},{"trial_n":28,"n_dots":3.95,"target":"left","response":"left","rt":242.5,"correct":true,"confidence":5},{"trial_n":29,"n_dots":3.95,"target":"left","response":"left","rt":193,"correct":true,"confidence":4},{"trial_n":30,"n_dots":3.85,"target":"left","response":"left","rt":24.300000011921,"correct":true,"confidence":5},{"trial_n":31,"n_dots":3.85,"target":"right","response":"right","rt":244.60000002384,"correct":true,"confidence":3},{"trial_n":32,"n_dots":3.75,"target":"right","response":"left","rt":242.30000001192,"correct":false,"confidence":4},{"trial_n":33,"n_dots":3.85,"target":"right","response":"right","rt":349.29999995232,"correct":true,"confidence":5},{"trial_n":34,"n_dots":3.85,"target":"left","response":"left","rt":172.30000001192,"correct":true,"confidence":4},{"trial_n":35,"n_dots":3.75,"target":"left","response":"left","rt":225.80000001192,"correct":true,"confidence":3},{"trial_n":36,"n_dots":3.75,"target":"right","response":"right","rt":220.09999996424,"correct":true,"confidence":3},{"trial_n":37,"n_dots":3.65,"target":"left","response":"left","rt":23,"correct":true,"confidence":3},{"trial_n":38,"n_dots":3.65,"target":"left","response":"left","rt":553.09999996424,"correct":true,"confidence":3},{"trial_n":39,"n_dots":3.55,"target":"right","response":"right","rt":199.69999998808,"correct":true,"confidence":4},{"trial_n":40,"n_dots":3.55,"target":"left","response":"left","rt":379.30000001192,"correct":true,"confidence":3},{"trial_n":41,"n_dots":3.45,"target":"left","response":"left","rt":77.800000011921,"correct":true,"confidence":4},{"trial_n":42,"n_dots":3.45,"target":"right","response":"right","rt":172.89999997616,"correct":true,"confidence":4},{"trial_n":43,"n_dots":3.35,"target":"left","response":"left","rt":106.59999996424,"correct":true,"confidence":3},{"trial_n":44,"n_dots":3.35,"target":"left","response":"right","rt":16.399999976158,"correct":false,"confidence":3},{"trial_n":45,"n_dots":3.45,"target":"right","response":"right","rt":59.600000023842,"correct":true,"confidence":3},{"trial_n":46,"n_dots":3.45,"target":"right","response":"right","rt":216.19999998808,"correct":true,"confidence":3},{"trial_n":47,"n_dots":3.35,"target":"right","response":"right","rt":162.69999998808,"correct":true,"confidence":3},{"trial_n":48,"n_dots":3.35,"target":"right","response":"right","rt":182.60000002384,"correct":true,"confidence":3},{"trial_n":49,"n_dots":3.25,"target":"left","response":"left","rt":138.19999998808,"correct":true,"confidence":3},{"trial_n":50,"n_dots":3.25,"target":"left","response":"left","rt":169.30000001192,"correct":true,"confidence":3},{"trial_n":51,"n_dots":3.15,"target":"right","response":"right","rt":111.5,"correct":true,"confidence":3},{"trial_n":52,"n_dots":3.15,"target":"left","response":"right","rt":67.5,"correct":false,"confidence":3},{"trial_n":53,"n_dots":3.25,"target":"right","response":"left","rt":176.10000002384,"correct":false,"confidence":3},{"trial_n":54,"n_dots":3.35,"target":"right","response":"right","rt":165.69999998808,"correct":true,"confidence":3},{"trial_n":55,"n_dots":3.35,"target":"left","response":"left","rt":279.30000001192,"correct":true,"confidence":3},{"trial_n":56,"n_dots":3.25,"target":"right","response":"right","rt":165.5,"correct":true,"confidence":3},{"trial_n":57,"n_dots":3.25,"target":"right","response":"right","rt":11.599999964237,"correct":true,"confidence":3},{"trial_n":58,"n_dots":3.15,"target":"left","response":"left","rt":88.199999988079,"correct":true,"confidence":3},{"trial_n":59,"n_dots":3.15,"target":"right","response":"right","rt":652.69999998808,"correct":true,"confidence":3},{"trial_n":60,"n_dots":3.05,"target":"left","response":"left","rt":7.7999999523163,"correct":true,"confidence":3},{"trial_n":61,"n_dots":3.05,"target":"right","response":"right","rt":199,"correct":true,"confidence":3},{"trial_n":62,"n_dots":2.95,"target":"left","response":"left","rt":688.19999998808,"correct":true,"confidence":3},{"trial_n":63,"n_dots":2.95,"target":"right","response":"right","rt":507.39999997616,"correct":true,"confidence":3},{"trial_n":64,"n_dots":2.85,"target":"right","response":"left","rt":17.300000011921,"correct":false,"confidence":3},{"trial_n":65,"n_dots":2.95,"target":"right","response":"right","rt":27.5,"correct":true,"confidence":3},{"trial_n":66,"n_dots":2.95,"target":"right","response":"left","rt":2.6000000238419,"correct":false,"confidence":3},{"trial_n":67,"n_dots":3.05,"target":"left","response":"left","rt":77.900000035763,"correct":true,"confidence":3},{"trial_n":68,"n_dots":3.05,"target":"left","response":"right","rt":105.89999997616,"correct":false,"confidence":3},{"trial_n":69,"n_dots":3.15,"target":"left","response":"left","rt":793.69999998808,"correct":true,"confidence":3},{"trial_n":70,"n_dots":3.15,"target":"left","response":"right","rt":305.20000004768,"correct":false,"confidence":3},{"trial_n":71,"n_dots":3.25,"target":"right","response":"left","rt":250,"correct":false,"confidence":3},{"trial_n":72,"n_dots":3.35,"target":"left","response":"right","rt":145.30000001192,"correct":false,"confidence":3},{"trial_n":73,"n_dots":3.45,"target":"left","response":"left","rt":63.599999964237,"correct":true,"confidence":3},{"trial_n":74,"n_dots":3.45,"target":"left","response":"right","rt":29.599999964237,"correct":false,"confidence":3},{"trial_n":75,"n_dots":3.55,"target":"right","response":"left","rt":605.80000001192,"correct":false,"confidence":3},{"trial_n":76,"n_dots":3.65,"target":"right","response":"right","rt":978.29999995232,"correct":true,"confidence":3},{"trial_n":77,"n_dots":3.65,"target":"right","response":"right","rt":11.199999988079,"correct":true,"confidence":3},{"trial_n":78,"n_dots":3.55,"target":"left","response":"left","rt":26.300000011921,"correct":true,"confidence":3},{"trial_n":79,"n_dots":3.55,"target":"left","response":"right","rt":477.20000004768,"correct":false,"confidence":3},{"trial_n":80,"n_dots":3.65,"target":"left","response":"left","rt":530.29999995232,"correct":true,"confidence":3},{"trial_n":81,"n_dots":3.65,"target":"left","response":"left","rt":476.89999997616,"correct":true,"confidence":3},{"trial_n":82,"n_dots":3.55,"target":"left","response":"left","rt":252,"correct":true,"confidence":3},{"trial_n":83,"n_dots":3.55,"target":"right","response":"left","rt":636.30000001192,"correct":false,"confidence":3},{"trial_n":84,"n_dots":3.65,"target":"left","response":"left","rt":562.19999998808,"correct":true,"confidence":1},{"trial_n":85,"n_dots":3.65,"target":"left","response":"left","rt":1047.3999999762,"correct":true,"confidence":3},{"trial_n":86,"n_dots":3.55,"target":"right","response":"left","rt":131.5,"correct":false,"confidence":3},{"trial_n":87,"n_dots":3.65,"target":"right","response":"left","rt":4.5999999642372,"correct":false,"confidence":3},{"trial_n":88,"n_dots":3.75,"target":"left","response":"left","rt":270.19999998808,"correct":true,"confidence":3},{"trial_n":89,"n_dots":3.75,"target":"right","response":"right","rt":75.700000047684,"correct":true,"confidence":3},{"trial_n":90,"n_dots":3.65,"target":"left","response":"left","rt":78.5,"correct":true,"confidence":3},{"trial_n":91,"n_dots":3.65,"target":"left","response":"left","rt":433,"correct":true,"confidence":3},{"trial_n":92,"n_dots":3.55,"target":"right","response":"right","rt":182.39999997616,"correct":true,"confidence":3},{"trial_n":93,"n_dots":3.55,"target":"left","response":"left","rt":39.599999964237,"correct":true,"confidence":3},{"trial_n":94,"n_dots":3.45,"target":"right","response":"left","rt":12.699999988079,"correct":false,"confidence":3},{"trial_n":95,"n_dots":3.55,"target":"right","response":"left","rt":3.6000000238419,"correct":false,"confidence":3},{"trial_n":96,"n_dots":3.65,"target":"left","response":"left","rt":23.100000023842,"correct":true,"confidence":3},{"trial_n":97,"n_dots":3.65,"target":"right","response":"left","rt":6.0999999642372,"correct":false,"confidence":3},{"trial_n":98,"n_dots":3.75,"target":"left","response":"left","rt":409.69999998808,"correct":true,"confidence":3},{"trial_n":99,"n_dots":3.75,"target":"right","response":"left","rt":90.099999964237,"correct":false,"confidence":3},{"trial_n":100,"n_dots":3.85,"target":"left","response":"left","rt":460.69999998808,"correct":true,"confidence":3},{"trial_n":101,"n_dots":3.85,"target":"right","response":"right","rt":409,"correct":true,"confidence":1},{"trial_n":102,"n_dots":3.75,"target":"right","response":"left","rt":462.90000003576,"correct":false,"confidence":3},{"trial_n":103,"n_dots":3.85,"target":"left","response":"left","rt":35.800000011921,"correct":true,"confidence":3},{"trial_n":104,"n_dots":3.85,"target":"left","response":"left","rt":446,"correct":true,"confidence":3},{"trial_n":105,"n_dots":3.75,"target":"left","response":"left","rt":277.10000002384,"correct":true,"confidence":3},{"trial_n":106,"n_dots":3.75,"target":"right","response":"right","rt":312.40000003576,"correct":true,"confidence":3},{"trial_n":107,"n_dots":3.65,"target":"right","response":"left","rt":177.40000003576,"correct":false,"confidence":3},{"trial_n":108,"n_dots":3.75,"target":"right","response":"right","rt":382.89999997616,"correct":true,"confidence":3},{"trial_n":109,"n_dots":3.75,"target":"right","response":"right","rt":47.299999952316,"correct":true,"confidence":3},{"trial_n":110,"n_dots":3.65,"target":"right","response":"left","rt":26.200000047684,"correct":false,"confidence":3},{"trial_n":111,"n_dots":3.75,"target":"left","response":"right","rt":286.59999996424,"correct":false,"confidence":3},{"trial_n":112,"n_dots":3.85,"target":"right","response":"right","rt":70.899999976158,"correct":true,"confidence":3},{"trial_n":113,"n_dots":3.85,"target":"right","response":"right","rt":302.59999996424,"correct":true,"confidence":3},{"trial_n":114,"n_dots":3.75,"target":"left","response":"left","rt":343.20000004768,"correct":true,"confidence":3},{"trial_n":115,"n_dots":3.75,"target":"right","response":"right","rt":234.80000001192,"correct":true,"confidence":3},{"trial_n":116,"n_dots":3.65,"target":"left","response":"left","rt":45.5,"correct":true,"confidence":3},{"trial_n":117,"n_dots":3.65,"target":"right","response":"right","rt":146.90000003576,"correct":true,"confidence":3},{"trial_n":118,"n_dots":3.55,"target":"right","response":"right","rt":81.299999952316,"correct":true,"confidence":3},{"trial_n":119,"n_dots":3.55,"target":"right","response":"right","rt":79.100000023842,"correct":true,"confidence":3},{"trial_n":120,"n_dots":3.45,"target":"right","response":"right","rt":228.60000002384,"correct":true,"confidence":3}]