[{"trial_n":1,"min":25,"max":230,"target":"present","response":"present","rt":5491.3999998569,"correct":true,"confidence":-1},{"trial_n":2,"min":25,"max":230,"target":"present","response":"present","rt":1516.5,"correct":true,"confidence":-1},{"trial_n":3,"min":41,"max":214,"target":"absent","response":"absent","rt":508.90000009537,"correct":true,"confidence":-1},{"trial_n":4,"min":41,"max":214,"target":"absent","response":"absent","rt":269.40000009537,"correct":true,"confidence":-1},{"trial_n":5,"min":57,"max":198,"target":"present","response":"present","rt":288,"correct":true,"confidence":-1},{"trial_n":6,"min":57,"max":198,"target":"present","response":"absent","rt":521,"correct":false,"confidence":-1},{"trial_n":7,"min":41,"max":214,"target":"absent","response":"absent","rt":346.5,"correct":true,"confidence":-1},{"trial_n":8,"min":41,"max":214,"target":"present","response":"present","rt":320.59999990463,"correct":true,"confidence":-1},{"trial_n":9,"min":57,"max":198,"target":"present","response":"present","rt":299.79999995232,"correct":true,"confidence":-1},{"trial_n":10,"min":57,"max":198,"target":"present","response":"present","rt":144.20000004768,"correct":true,"confidence":-1},{"trial_n":11,"min":65,"max":190,"target":"present","response":"absent","rt":460.89999985695,"correct":false,"confidence":-1},{"trial_n":12,"min":57,"max":198,"target":"absent","response":"absent","rt":411,"correct":true,"confidence":-1},{"trial_n":13,"min":57,"max":198,"target":"absent","response":"absent","rt":238.30000019073,"correct":true,"confidence":-1},{"trial_n":14,"min":65,"max":190,"target":"present","response":"present","rt":349.69999980927,"correct":true,"confidence":-1},{"trial_n":15,"min":65,"max":190,"target":"absent","response":"absent","rt":365.5,"correct":true,"confidence":-1},{"trial_n":16,"min":73,"max":182,"target":"present","response":"absent","rt":566.40000009537,"correct":false,"confidence":-1},{"trial_n":17,"min":65,"max":190,"target":"present","response":"present","rt":445.89999985695,"correct":true,"confidence":-1},{"trial_n":18,"min":65,"max":190,"target":"present","response":"present","rt":379.40000009537,"correct":true,"confidence":-1},{"trial_n":19,"min":73,"max":182,"target":"present","response":"present","rt":347.09999990463,"correct":true,"confidence":-1},{"trial_n":20,"min":73,"max":182,"target":"absent","response":"absent","rt":428.59999990463,"correct":true,"confidence":-1},{"trial_n":21,"min":77,"max":178,"target":"absent","response":"present","rt":2678.8999998569,"correct":false,"confidence":1},{"trial_n":22,"min":73,"max":182,"target":"present","response":"present","rt":617,"correct":true,"confidence":3},{"trial_n":23,"min":73,"max":182,"target":"absent","response":"absent","rt":570.89999985695,"correct":true,"confidence":4},{"trial_n":24,"min":77,"max":178,"target":"present","response":"present","rt":694.09999990463,"correct":true,"confidence":3},{"trial_n":25,"min":77,"max":178,"target":"present","response":"present","rt":1177.5999999046,"correct":true,"confidence":1},{"trial_n":26,"min":81,"max":174,"target":"absent","response":"present","rt":598.5,"correct":false,"confidence":1},{"trial_n":27,"min":77,"max":178,"target":"absent","response":"absent","rt":488.09999990463,"correct":true,"confidence":4},{"trial_n":28,"min":77,"max":178,"target":"absent","response":"absent","rt":554.59999990463,"correct":true,"confidence":3},{"trial_n":29,"min":81,"max":174,"target":"absent","response":"absent","rt":568.29999995232,"correct":true,"confidence":3},{"trial_n":30,"min":81,"max":174,"target":"absent","response":"absent","rt":600,"correct":true,"confidence":3},{"trial_n":31,"min":83,"max":172,"target":"absent","response":"absent","rt":760.70000004768,"correct":true,"confidence":4},{"trial_n":32,"min":83,"max":172,"target":"absent","response":"absent","rt":646,"correct":true,"confidence":4},{"trial_n":33,"min":85,"max":170,"target":"present","response":"present","rt":2021,"correct":true,"confidence":2},{"trial_n":34,"min":85,"max":170,"target":"present","response":"present","rt":1105.7000000477,"correct":true,"confidence":3},{"trial_n":35,"min":87,"max":168,"target":"present","response":"absent","rt":914,"correct":false,"confidence":3},{"trial_n":36,"min":85,"max":170,"target":"present","response":"absent","rt":490.59999990463,"correct":false,"confidence":4},{"trial_n":37,"min":83,"max":172,"target":"present","response":"absent","rt":835.5,"correct":false,"confidence":3},{"trial_n":38,"min":81,"max":174,"target":"absent","response":"present","rt":631.90000009537,"correct":false,"confidence":3},{"trial_n":39,"min":79,"max":176,"target":"absent","response":"absent","rt":537.79999995232,"correct":true,"confidence":3},{"trial_n":40,"min":79,"max":176,"target":"absent","response":"absent","rt":580.09999990463,"correct":true,"confidence":3},{"trial_n":41,"min":80,"max":175,"target":"present","response":"absent","rt":692.79999995232,"correct":false,"confidence":4},{"trial_n":42,"min":79,"max":176,"target":"absent","response":"absent","rt":473.5,"correct":true,"confidence":4},{"trial_n":43,"min":79,"max":176,"target":"absent","response":"absent","rt":502.09999990463,"correct":true,"confidence":4},{"trial_n":44,"min":80,"max":175,"target":"absent","response":"absent","rt":473.10000014305,"correct":true,"confidence":4},{"trial_n":45,"min":80,"max":175,"target":"present","response":"absent","rt":534.60000014305,"correct":false,"confidence":4},{"trial_n":46,"min":79,"max":176,"target":"present","response":"present","rt":758,"correct":true,"confidence":4},{"trial_n":47,"min":79,"max":176,"target":"absent","response":"absent","rt":521.70000004768,"correct":true,"confidence":4},{"trial_n":48,"min":80,"max":175,"target":"present","response":"present","rt":678.5,"correct":true,"confidence":4},{"trial_n":49,"min":80,"max":175,"target":"present","response":"present","rt":773.70000004768,"correct":true,"confidence":3},{"trial_n":50,"min":81,"max":174,"target":"present","response":"present","rt":708.20000004768,"correct":true,"confidence":2},{"trial_n":51,"min":81,"max":174,"target":"absent","response":"present","rt":631.20000004768,"correct":false,"confidence":3},{"trial_n":52,"min":80,"max":175,"target":"present","response":"present","rt":568.70000004768,"correct":true,"confidence":3},{"trial_n":53,"min":80,"max":175,"target":"absent","response":"absent","rt":806.90000009537,"correct":true,"confidence":4},{"trial_n":54,"min":81,"max":174,"target":"absent","response":"absent","rt":536.39999985695,"correct":true,"confidence":3},{"trial_n":55,"min":81,"max":174,"target":"absent","response":"absent","rt":617.09999990463,"correct":true,"confidence":4},{"trial_n":56,"min":82,"max":173,"target":"present","response":"absent","rt":553.89999985695,"correct":false,"confidence":4},{"trial_n":57,"min":81,"max":174,"target":"absent","response":"absent","rt":570,"correct":true,"confidence":4},{"trial_n":58,"min":81,"max":174,"target":"present","response":"present","rt":662.89999985695,"correct":true,"confidence":2},{"trial_n":59,"min":82,"max":173,"target":"present","response":"absent","rt":630.40000009537,"correct":false,"confidence":1},{"trial_n":60,"min":81,"max":174,"target":"absent","response":"present","rt":584.70000004768,"correct":false,"confidence":1},{"trial_n":61,"min":80,"max":175,"target":"absent","response":"absent","rt":793,"correct":true,"confidence":3},{"trial_n":62,"min":80,"max":175,"target":"present","response":"present","rt":693.5,"correct":true,"confidence":5},{"trial_n":63,"min":81,"max":174,"target":"absent","response":"absent","rt":1720.2000000477,"correct":true,"confidence":3},{"trial_n":64,"min":81,"max":174,"target":"present","response":"present","rt":725.09999990463,"correct":true,"confidence":5},{"trial_n":65,"min":82,"max":173,"target":"absent","response":"absent","rt":615.19999980927,"correct":true,"confidence":3},{"trial_n":66,"min":82,"max":173,"target":"present","response":"present","rt":1540.4000000954,"correct":true,"confidence":5},{"trial_n":67,"min":83,"max":172,"target":"present","response":"present","rt":1416.5,"correct":true,"confidence":5},{"trial_n":68,"min":83,"max":172,"target":"absent","response":"absent","rt":790.09999990463,"correct":true,"confidence":2},{"trial_n":69,"min":84,"max":171,"target":"present","response":"absent","rt":772.5,"correct":false,"confidence":2},{"trial_n":70,"min":83,"max":172,"target":"absent","response":"present","rt":1292.1000001431,"correct":false,"confidence":5},{"trial_n":71,"min":41,"max":214,"target":"present","response":"present","rt":3929.6000001431,"correct":true,"confidence":-1},{"trial_n":72,"min":41,"max":214,"target":"present","response":"present","rt":546.60000014305,"correct":true,"confidence":-1},{"trial_n":73,"min":57,"max":198,"target":"absent","response":"absent","rt":310.29999995232,"correct":true,"confidence":-1},{"trial_n":74,"min":57,"max":198,"target":"absent","response":"absent","rt":266.40000009537,"correct":true,"confidence":-1},{"trial_n":75,"min":73,"max":182,"target":"present","response":"present","rt":121.39999985695,"correct":true,"confidence":-1},{"trial_n":76,"min":73,"max":182,"target":"absent","response":"absent","rt":198.90000009537,"correct":true,"confidence":-1},{"trial_n":77,"min":89,"max":166,"target":"present","response":"absent","rt":167.90000009537,"correct":false,"confidence":-1},{"trial_n":78,"min":73,"max":182,"target":"present","response":"absent","rt":453.89999985695,"correct":false,"confidence":-1},{"trial_n":79,"min":57,"max":198,"target":"present","response":"present","rt":309.40000009537,"correct":true,"confidence":-1},{"trial_n":80,"min":57,"max":198,"target":"present","response":"present","rt":75.099999904633,"correct":true,"confidence":-1},{"trial_n":81,"min":65,"max":190,"target":"present","response":"present","rt":231.40000009537,"correct":true,"confidence":-1},{"trial_n":82,"min":65,"max":190,"target":"present","response":"present","rt":168.79999995232,"correct":true,"confidence":-1},{"trial_n":83,"min":73,"max":182,"target":"present","response":"present","rt":232.29999995232,"correct":true,"confidence":-1},{"trial_n":84,"min":73,"max":182,"target":"present","response":"present","rt":184.40000009537,"correct":true,"confidence":-1},{"trial_n":85,"min":81,"max":174,"target":"present","response":"absent","rt":458.39999985695,"correct":false,"confidence":-1},{"trial_n":86,"min":73,"max":182,"target":"present","response":"present","rt":344.20000004768,"correct":true,"confidence":-1},{"trial_n":87,"min":73,"max":182,"target":"absent","response":"absent","rt":328.10000014305,"correct":true,"confidence":-1},{"trial_n":88,"min":81,"max":174,"target":"absent","response":"absent","rt":407.09999990463,"correct":true,"confidence":-1},{"trial_n":89,"min":81,"max":174,"target":"absent","response":"present","rt":352.5,"correct":false,"confidence":-1},{"trial_n":90,"min":73,"max":182,"target":"present","response":"present","rt":310.10000014305,"correct":true,"confidence":-1},{"trial_n":91,"min":73,"max":182,"target":"absent","response":"absent","rt":464.90000009537,"correct":true,"confidence":2},{"trial_n":92,"min":77,"max":178,"target":"present","response":"present","rt":249.60000014305,"correct":true,"confidence":5},{"trial_n":93,"min":77,"max":178,"target":"absent","response":"absent","rt":1262.0999999046,"correct":true,"confidence":1},{"trial_n":94,"min":81,"max":174,"target":"absent","response":"absent","rt":517.90000009537,"correct":true,"confidence":1},{"trial_n":95,"min":81,"max":174,"target":"present","response":"present","rt":577,"correct":true,"confidence":4},{"trial_n":96,"min":85,"max":170,"target":"present","response":"present","rt":845.79999995232,"correct":true,"confidence":1},{"trial_n":97,"min":85,"max":170,"target":"absent","response":"absent","rt":713.5,"correct":true,"confidence":3},{"trial_n":98,"min":89,"max":166,"target":"present","response":"absent","rt":530.59999990463,"correct":false,"confidence":1},{"trial_n":99,"min":85,"max":170,"target":"present","response":"present","rt":719.29999995232,"correct":true,"confidence":1},{"trial_n":100,"min":85,"max":170,"target":"absent","response":"present","rt":417,"correct":false,"confidence":1},{"trial_n":101,"min":83,"max":172,"target":"present","response":"present","rt":425.80000019073,"correct":true,"confidence":1},{"trial_n":102,"min":83,"max":172,"target":"present","response":"present","rt":328.09999990463,"correct":true,"confidence":3},{"trial_n":103,"min":85,"max":170,"target":"absent","response":"present","rt":358.5,"correct":false,"confidence":1},{"trial_n":104,"min":83,"max":172,"target":"absent","response":"absent","rt":675.5,"correct":true,"confidence":4},{"trial_n":105,"min":83,"max":172,"target":"present","response":"present","rt":262.90000009537,"correct":true,"confidence":4},{"trial_n":106,"min":85,"max":170,"target":"absent","response":"absent","rt":633.89999985695,"correct":true,"confidence":1},{"trial_n":107,"min":85,"max":170,"target":"absent","response":"absent","rt":483.29999995232,"correct":true,"confidence":1},{"trial_n":108,"min":87,"max":168,"target":"absent","response":"absent","rt":1952,"correct":true,"confidence":1},{"trial_n":109,"min":87,"max":168,"target":"absent","response":"present","rt":1495.6000001431,"correct":false,"confidence":1},{"trial_n":110,"min":85,"max":170,"target":"absent","response":"present","rt":3521.9000000954,"correct":false,"confidence":1},{"trial_n":111,"min":84,"max":171,"target":"absent","response":"present","rt":1608.2999999523,"correct":false,"confidence":1},{"trial_n":112,"min":83,"max":172,"target":"present","response":"present","rt":589.79999995232,"correct":true,"confidence":4},{"trial_n":113,"min":83,"max":172,"target":"absent","response":"absent","rt":551.70000004768,"correct":true,"confidence":3},{"trial_n":114,"min":84,"max":171,"target":"present","response":"present","rt":500.20000004768,"correct":true,"confidence":1},{"trial_n":115,"min":84,"max":171,"target":"present","response":"absent","rt":1590,"correct":false,"confidence":3},{"trial_n":116,"min":83,"max":172,"target":"absent","response":"absent","rt":834.5,"correct":true,"confidence":4},{"trial_n":117,"min":83,"max":172,"target":"absent","response":"absent","rt":1489,"correct":true,"confidence":4},{"trial_n":118,"min":84,"max":171,"target":"present","response":"present","rt":406.20000004768,"correct":true,"confidence":3},{"trial_n":119,"min":84,"max":171,"target":"present","response":"absent","rt":723.20000004768,"correct":false,"confidence":1},{"trial_n":120,"min":83,"max":172,"target":"present","response":"present","rt":421.79999995232,"correct":true,"confidence":4},{"trial_n":121,"min":83,"max":172,"target":"present","response":"present","rt":514.39999985695,"correct":true,"confidence":2},{"trial_n":122,"min":84,"max":171,"target":"present","response":"absent","rt":1960.2000000477,"correct":false,"confidence":1},{"trial_n":123,"min":83,"max":172,"target":"absent","response":"absent","rt":1178.2999999523,"correct":true,"confidence":3},{"trial_n":124,"min":83,"max":172,"target":"absent","response":"present","rt":769,"correct":false,"confidence":3},{"trial_n":125,"min":82,"max":173,"target":"present","response":"present","rt":846.5,"correct":true,"confidence":1},{"trial_n":126,"min":82,"max":173,"target":"absent","response":"present","rt":311.90000009537,"correct":false,"confidence":4},{"trial_n":127,"min":81,"max":174,"target":"absent","response":"present","rt":371.90000009537,"correct":false,"confidence":1},{"trial_n":128,"min":80,"max":175,"target":"present","response":"present","rt":719.59999990463,"correct":true,"confidence":1},{"trial_n":129,"min":80,"max":175,"target":"absent","response":"present","rt":281.5,"correct":false,"confidence":1},{"trial_n":130,"min":79,"max":176,"target":"absent","response":"absent","rt":1103,"correct":true,"confidence":4},{"trial_n":131,"min":79,"max":176,"target":"absent","response":"absent","rt":529.89999985695,"correct":true,"confidence":4},{"trial_n":132,"min":80,"max":175,"target":"absent","response":"absent","rt":1350.5999999046,"correct":true,"confidence":4},{"trial_n":133,"min":80,"max":175,"target":"present","response":"present","rt":391.19999980927,"correct":true,"confidence":1},{"trial_n":134,"min":81,"max":174,"target":"present","response":"present","rt":185.80000019073,"correct":true,"confidence":4},{"trial_n":135,"min":81,"max":174,"target":"absent","response":"present","rt":645,"correct":false,"confidence":1},{"trial_n":136,"min":80,"max":175,"target":"absent","response":"absent","rt":925.20000004768,"correct":true,"confidence":3},{"trial_n":137,"min":80,"max":175,"target":"present","response":"absent","rt":1552.2999999523,"correct":false,"confidence":3},{"trial_n":138,"min":79,"max":176,"target":"absent","response":"absent","rt":2324.6999998093,"correct":true,"confidence":1},{"trial_n":139,"min":79,"max":176,"target":"absent","response":"present","rt":955.5,"correct":false,"confidence":1},{"trial_n":140,"min":78,"max":177,"target":"present","response":"present","rt":657.09999990463,"correct":true,"confidence":5}]