[{"trial_n":1,"span":8,"encoder":"48074392","distractor":"88074392","target":"present","response":"present","rt":"2859.099999994","correct":true,"confidence":-1},{"trial_n":2,"span":8,"encoder":"96940656","distractor":"46940656","target":"present","response":"absent","rt":"3114.099999994","correct":false,"confidence":-1},{"trial_n":3,"span":6,"encoder":"489739","distractor":"489731","target":"absent","response":"absent","rt":"2063.8999999762","correct":true,"confidence":-1},{"trial_n":4,"span":6,"encoder":"997376","distractor":"897376","target":"absent","response":"absent","rt":"2250.900000006","correct":true,"confidence":-1},{"trial_n":5,"span":8,"encoder":"95207676","distractor":"95205676","target":"present","response":"present","rt":"2136","correct":true,"confidence":-1},{"trial_n":6,"span":8,"encoder":"57934854","distractor":"57914854","target":"present","response":"present","rt":"980.09999999404","correct":true,"confidence":-1},{"trial_n":7,"span":10,"encoder":"4312887279","distractor":"4312884279","target":"absent","response":"present","rt":"1048.2999999821","correct":false,"confidence":-1},{"trial_n":8,"span":8,"encoder":"27651020","distractor":"27651021","target":"absent","response":"absent","rt":"1941.599999994","correct":true,"confidence":-1},{"trial_n":9,"span":8,"encoder":"05204759","distractor":"05204459","target":"absent","response":"absent","rt":"1426.3999999762","correct":true,"confidence":-1},{"trial_n":10,"span":10,"encoder":"5095267734","distractor":"5095267724","target":"present","response":"present","rt":"2159.099999994","correct":true,"confidence":-1},{"trial_n":11,"span":10,"encoder":"9679680665","distractor":"9679685665","target":"present","response":"present","rt":"1231.400000006","correct":true,"confidence":-1},{"trial_n":12,"span":11,"encoder":"91164418091","distractor":"91164418591","target":"present","response":"present","rt":"3056","correct":true,"confidence":-1},{"trial_n":13,"span":11,"encoder":"67205878794","distractor":"67205874794","target":"present","response":"present","rt":"1925.2999999821","correct":true,"confidence":-1},{"trial_n":14,"span":12,"encoder":"900240735358","distractor":"800240735358","target":"absent","response":"absent","rt":"2494","correct":true,"confidence":-1},{"trial_n":15,"span":12,"encoder":"109008271471","distractor":"109008278471","target":"present","response":"present","rt":"1411.2999999821","correct":true,"confidence":-1},{"trial_n":16,"span":13,"encoder":"6304733340535","distractor":"6304733040535","target":"present","response":"present","rt":"1631.900000006","correct":true,"confidence":-1},{"trial_n":17,"span":13,"encoder":"1413766727215","distractor":"1413766727415","target":"present","response":"absent","rt":"2181.6999999881","correct":false,"confidence":-1},{"trial_n":18,"span":12,"encoder":"822107710225","distractor":"822127710225","target":"present","response":"present","rt":"2913.1999999881","correct":true,"confidence":-1},{"trial_n":19,"span":12,"encoder":"169986760757","distractor":"169986762757","target":"absent","response":"present","rt":"1200.5","correct":false,"confidence":-1},{"trial_n":20,"span":11,"encoder":"14619619318","distractor":"14619619314","target":"present","response":"present","rt":"2822.5","correct":true,"confidence":-1},{"trial_n":21,"span":11,"encoder":"54477007526","distractor":"54477017526","target":"absent","response":"absent","rt":"2003.3000000119","correct":true,"confidence":3},{"trial_n":22,"span":12,"encoder":"023653848191","distractor":"023653848194","target":"present","response":"present","rt":"1939.599999994","correct":true,"confidence":3},{"trial_n":23,"span":12,"encoder":"257475549790","distractor":"257675549790","target":"absent","response":"present","rt":"1661.1999999881","correct":false,"confidence":3},{"trial_n":24,"span":11,"encoder":"77948639193","distractor":"77940639193","target":"absent","response":"present","rt":"3212.8000000119","correct":false,"confidence":2},{"trial_n":25,"span":10,"encoder":"3666672588","distractor":"3661672588","target":"absent","response":"absent","rt":"1705.8000000119","correct":true,"confidence":4},{"trial_n":26,"span":10,"encoder":"2546015620","distractor":"2546035620","target":"present","response":"present","rt":"1771.6999999881","correct":true,"confidence":4},{"trial_n":27,"span":11,"encoder":"12186144732","distractor":"12386144732","target":"absent","response":"present","rt":"2569.599999994","correct":false,"confidence":2},{"trial_n":28,"span":10,"encoder":"4510778977","distractor":"0510778977","target":"present","response":"absent","rt":"3442.6999999881","correct":false,"confidence":4},{"trial_n":29,"span":9,"encoder":"051365614","distractor":"051365214","target":"absent","response":"present","rt":"3335.2999999821","correct":false,"confidence":3},{"trial_n":30,"span":8,"encoder":"74315945","distractor":"74515945","target":"present","response":"absent","rt":"2082.400000006","correct":false,"confidence":3},{"trial_n":31,"span":7,"encoder":"3383942","distractor":"5383942","target":"present","response":"present","rt":"2881.1999999881","correct":true,"confidence":3},{"trial_n":32,"span":7,"encoder":"3534004","distractor":"3234004","target":"present","response":"present","rt":"2556.2999999821","correct":true,"confidence":2},{"trial_n":33,"span":8,"encoder":"00780030","distractor":"00750030","target":"present","response":"present","rt":"8107.8000000119","correct":true,"confidence":3},{"trial_n":34,"span":8,"encoder":"84400205","distractor":"84900205","target":"present","response":"present","rt":"1822.599999994","correct":true,"confidence":4},{"trial_n":35,"span":9,"encoder":"241508803","distractor":"241588803","target":"present","response":"present","rt":"1559.2999999821","correct":true,"confidence":4},{"trial_n":36,"span":9,"encoder":"436945995","distractor":"436945985","target":"present","response":"present","rt":"2413.5","correct":true,"confidence":3},{"trial_n":37,"span":10,"encoder":"5266313468","distractor":"5266343468","target":"absent","response":"present","rt":"2447.599999994","correct":false,"confidence":3},{"trial_n":38,"span":9,"encoder":"755359171","distractor":"755359141","target":"present","response":"present","rt":"2905.3000000119","correct":true,"confidence":2},{"trial_n":39,"span":9,"encoder":"481673971","distractor":"481676971","target":"present","response":"present","rt":"2312.8999999762","correct":true,"confidence":3},{"trial_n":40,"span":10,"encoder":"6991529725","distractor":"0991529725","target":"absent","response":"absent","rt":"2193.3000000119","correct":true,"confidence":3},{"trial_n":41,"span":10,"encoder":"1814717046","distractor":"1114717046","target":"absent","response":"present","rt":"1734","correct":false,"confidence":3},{"trial_n":42,"span":9,"encoder":"359727164","distractor":"359127164","target":"absent","response":"present","rt":"1717","correct":false,"confidence":4},{"trial_n":43,"span":8,"encoder":"51014443","distractor":"51414443","target":"absent","response":"present","rt":"2036.8999999762","correct":false,"confidence":3},{"trial_n":44,"span":7,"encoder":"3923986","distractor":"3923916","target":"absent","response":"absent","rt":"2235.6999999881","correct":true,"confidence":4},{"trial_n":45,"span":7,"encoder":"0783582","distractor":"0783589","target":"absent","response":"absent","rt":"4296.2999999821","correct":true,"confidence":2},{"trial_n":46,"span":8,"encoder":"48020258","distractor":"48120258","target":"present","response":"present","rt":"2036.1999999881","correct":true,"confidence":4},{"trial_n":47,"span":8,"encoder":"85430298","distractor":"85431298","target":"present","response":"absent","rt":"5290.6999999881","correct":false,"confidence":3},{"trial_n":48,"span":7,"encoder":"4985171","distractor":"4985174","target":"present","response":"present","rt":"1366.3000000119","correct":true,"confidence":4},{"trial_n":49,"span":7,"encoder":"8073500","distractor":"8023500","target":"present","response":"present","rt":"1263.8000000119","correct":true,"confidence":4},{"trial_n":50,"span":8,"encoder":"72030059","distractor":"72030055","target":"absent","response":"absent","rt":"3171.6999999881","correct":true,"confidence":3},{"trial_n":51,"span":8,"encoder":"53009335","distractor":"53009235","target":"absent","response":"present","rt":"7821","correct":false,"confidence":3},{"trial_n":52,"span":7,"encoder":"0146508","distractor":"0146528","target":"present","response":"present","rt":"2467.599999994","correct":true,"confidence":2},{"trial_n":53,"span":7,"encoder":"0465898","distractor":"0365898","target":"present","response":"present","rt":"1780.6000000238","correct":true,"confidence":4},{"trial_n":54,"span":8,"encoder":"74126446","distractor":"74127446","target":"absent","response":"absent","rt":"6805.2999999821","correct":true,"confidence":2},{"trial_n":55,"span":8,"encoder":"29983051","distractor":"29983951","target":"absent","response":"present","rt":"2656.5","correct":false,"confidence":3},{"trial_n":56,"span":7,"encoder":"1714467","distractor":"1714477","target":"absent","response":"absent","rt":"2753.1000000238","correct":true,"confidence":4},{"trial_n":57,"span":7,"encoder":"7773596","distractor":"7773396","target":"absent","response":"absent","rt":"2887.8000000119","correct":true,"confidence":3},{"trial_n":58,"span":8,"encoder":"72407561","distractor":"72407568","target":"present","response":"present","rt":"6106","correct":true,"confidence":1},{"trial_n":59,"span":8,"encoder":"28988002","distractor":"08988002","target":"absent","response":"present","rt":"2202","correct":false,"confidence":3},{"trial_n":60,"span":7,"encoder":"7830184","distractor":"7030184","target":"absent","response":"present","rt":"1854","correct":false,"confidence":3},{"trial_n":61,"span":6,"encoder":"228381","distractor":"229381","target":"absent","response":"absent","rt":"3209.599999994","correct":true,"confidence":5},{"trial_n":62,"span":6,"encoder":"560195","distractor":"560193","target":"present","response":"present","rt":"3807.2000000179","correct":true,"confidence":4},{"trial_n":63,"span":7,"encoder":"0446294","distractor":"0446394","target":"absent","response":"absent","rt":"2963.7000000179","correct":true,"confidence":4},{"trial_n":64,"span":7,"encoder":"7188895","distractor":"7688895","target":"absent","response":"present","rt":"2555.5","correct":false,"confidence":3},{"trial_n":65,"span":6,"encoder":"797697","distractor":"797797","target":"absent","response":"present","rt":"1459.599999994","correct":false,"confidence":4},{"trial_n":66,"span":5,"encoder":"09718","distractor":"09918","target":"present","response":"present","rt":"2560.5","correct":true,"confidence":4},{"trial_n":67,"span":5,"encoder":"85079","distractor":"89079","target":"present","response":"present","rt":"1674.7000000179","correct":true,"confidence":4},{"trial_n":68,"span":6,"encoder":"054383","distractor":"054303","target":"present","response":"present","rt":"1821.3999999762","correct":true,"confidence":5},{"trial_n":69,"span":6,"encoder":"037891","distractor":"077891","target":"absent","response":"present","rt":"4625.599999994","correct":false,"confidence":3},{"trial_n":70,"span":5,"encoder":"01495","distractor":"02495","target":"absent","response":"absent","rt":"3499.900000006","correct":true,"confidence":5},{"trial_n":71,"span":8,"encoder":"03699567","distractor":"03699547","target":"present","response":"present","rt":"5096","correct":true,"confidence":-1},{"trial_n":72,"span":8,"encoder":"42944905","distractor":"22944905","target":"present","response":"present","rt":"2596.400000006","correct":true,"confidence":-1},{"trial_n":73,"span":9,"encoder":"791277990","distractor":"791279990","target":"absent","response":"absent","rt":"3291.099999994","correct":true,"confidence":-1},{"trial_n":74,"span":9,"encoder":"072700084","distractor":"072750084","target":"absent","response":"absent","rt":"2360","correct":true,"confidence":-1},{"trial_n":75,"span":10,"encoder":"9396817097","distractor":"9396887097","target":"present","response":"absent","rt":"8605.8000000119","correct":false,"confidence":-1},{"trial_n":76,"span":9,"encoder":"522797592","distractor":"522197592","target":"present","response":"present","rt":"2070.3999999762","correct":true,"confidence":-1},{"trial_n":77,"span":9,"encoder":"150157590","distractor":"157157590","target":"present","response":"present","rt":"3916.1000000238","correct":true,"confidence":-1},{"trial_n":78,"span":10,"encoder":"6199523346","distractor":"6199543346","target":"absent","response":"present","rt":"1777.400000006","correct":false,"confidence":-1},{"trial_n":79,"span":9,"encoder":"856503324","distractor":"853503324","target":"absent","response":"absent","rt":"3691.900000006","correct":true,"confidence":-1},{"trial_n":80,"span":9,"encoder":"757784328","distractor":"757787328","target":"absent","response":"absent","rt":"11124.699999988","correct":true,"confidence":-1},{"trial_n":81,"span":10,"encoder":"3218594292","distractor":"3238594292","target":"absent","response":"absent","rt":"3219.5","correct":true,"confidence":-1},{"trial_n":82,"span":10,"encoder":"5724681116","distractor":"5724681119","target":"present","response":"present","rt":"2716","correct":true,"confidence":-1},{"trial_n":83,"span":11,"encoder":"56250247280","distractor":"56250847280","target":"absent","response":"present","rt":"6015.3000000119","correct":false,"confidence":-1},{"trial_n":84,"span":10,"encoder":"6427664611","distractor":"6827664611","target":"absent","response":"absent","rt":"5052.3000000119","correct":true,"confidence":-1},{"trial_n":85,"span":10,"encoder":"4640068594","distractor":"4640018594","target":"absent","response":"absent","rt":"6379.5","correct":true,"confidence":-1},{"trial_n":86,"span":11,"encoder":"49301367794","distractor":"49701367794","target":"present","response":"present","rt":"5693.099999994","correct":true,"confidence":-1},{"trial_n":87,"span":11,"encoder":"34948532843","distractor":"54948532843","target":"absent","response":"absent","rt":"1685.7999999821","correct":true,"confidence":-1},{"trial_n":88,"span":12,"encoder":"866190249172","distractor":"860190249172","target":"absent","response":"present","rt":"3851.7000000179","correct":false,"confidence":-1},{"trial_n":89,"span":11,"encoder":"22518311063","distractor":"22512311063","target":"present","response":"present","rt":"889.09999999404","correct":true,"confidence":-1},{"trial_n":90,"span":11,"encoder":"77944086949","distractor":"77984086949","target":"absent","response":"absent","rt":"3600.5","correct":true,"confidence":-1},{"trial_n":91,"span":12,"encoder":"691557620291","distractor":"691557620295","target":"absent","response":"absent","rt":"1335.6000000238","correct":true,"confidence":5},{"trial_n":92,"span":12,"encoder":"496208630775","distractor":"496208630773","target":"present","response":"present","rt":"4499.599999994","correct":true,"confidence":2},{"trial_n":93,"span":13,"encoder":"5861462961117","distractor":"5868462961117","target":"absent","response":"absent","rt":"5493.599999994","correct":true,"confidence":3},{"trial_n":94,"span":13,"encoder":"7799693266243","distractor":"7749693266243","target":"present","response":"present","rt":"7740.7999999821","correct":true,"confidence":3},{"trial_n":95,"span":14,"encoder":"50541463143936","distractor":"50591463143936","target":"present","response":"present","rt":"6598","correct":true,"confidence":3},{"trial_n":96,"span":14,"encoder":"31019129318030","distractor":"31019129218030","target":"present","response":"present","rt":"4698.3000000119","correct":true,"confidence":2},{"trial_n":97,"span":15,"encoder":"223599910463554","distractor":"223599910963554","target":"absent","response":"present","rt":"8246.2000000179","correct":false,"confidence":3},{"trial_n":98,"span":14,"encoder":"64318055106956","distractor":"64318055176956","target":"present","response":"absent","rt":"6477.3000000119","correct":false,"confidence":3},{"trial_n":99,"span":13,"encoder":"0241897103564","distractor":"0241867103564","target":"present","response":"present","rt":"14460.800000012","correct":true,"confidence":3},{"trial_n":100,"span":13,"encoder":"1199199508601","distractor":"1199599508601","target":"present","response":"absent","rt":"5377.8000000119","correct":false,"confidence":4},{"trial_n":101,"span":12,"encoder":"128342661645","distractor":"128342661644","target":"present","response":"absent","rt":"7688.8000000119","correct":false,"confidence":3},{"trial_n":102,"span":11,"encoder":"20669446288","distractor":"20669436288","target":"absent","response":"absent","rt":"24855.700000018","correct":true,"confidence":2},{"trial_n":103,"span":11,"encoder":"67768420495","distractor":"67368420495","target":"present","response":"absent","rt":"5349.8000000119","correct":false,"confidence":3},{"trial_n":104,"span":10,"encoder":"3061303766","distractor":"4061303766","target":"absent","response":"absent","rt":"11581.600000024","correct":true,"confidence":2},{"trial_n":105,"span":10,"encoder":"9415239415","distractor":"9495239415","target":"absent","response":"absent","rt":"4002","correct":true,"confidence":3},{"trial_n":106,"span":11,"encoder":"15672013566","distractor":"15672013568","target":"absent","response":"absent","rt":"9783.1999999881","correct":true,"confidence":3},{"trial_n":107,"span":11,"encoder":"05542551133","distractor":"05242551133","target":"absent","response":"absent","rt":"4693","correct":true,"confidence":4},{"trial_n":108,"span":12,"encoder":"431961669690","distractor":"441961669690","target":"present","response":"absent","rt":"6768","correct":false,"confidence":4},{"trial_n":109,"span":11,"encoder":"71044304620","distractor":"71084304620","target":"absent","response":"present","rt":"2831.400000006","correct":false,"confidence":3},{"trial_n":110,"span":10,"encoder":"0596622989","distractor":"0596022989","target":"absent","response":"present","rt":"1976.1999999881","correct":false,"confidence":3},{"trial_n":111,"span":9,"encoder":"093853772","distractor":"193853772","target":"present","response":"absent","rt":"5742.599999994","correct":false,"confidence":2},{"trial_n":112,"span":8,"encoder":"28490579","distractor":"28493579","target":"present","response":"absent","rt":"6229.7999999821","correct":false,"confidence":3},{"trial_n":113,"span":7,"encoder":"0758619","distractor":"0778619","target":"present","response":"present","rt":"5074.2000000179","correct":true,"confidence":2},{"trial_n":114,"span":7,"encoder":"1656360","distractor":"1456360","target":"absent","response":"absent","rt":"5662.5","correct":true,"confidence":1},{"trial_n":115,"span":8,"encoder":"48699060","distractor":"48499060","target":"present","response":"absent","rt":"18383.599999994","correct":false,"confidence":3},{"trial_n":116,"span":7,"encoder":"0183227","distractor":"0133227","target":"absent","response":"present","rt":"8807.1000000238","correct":false,"confidence":3},{"trial_n":117,"span":6,"encoder":"932026","distractor":"932076","target":"present","response":"present","rt":"4689.7000000179","correct":true,"confidence":4},{"trial_n":118,"span":6,"encoder":"699921","distractor":"799921","target":"absent","response":"absent","rt":"5322","correct":true,"confidence":4},{"trial_n":119,"span":7,"encoder":"2377276","distractor":"2577276","target":"present","response":"present","rt":"4405.7000000179","correct":true,"confidence":3},{"trial_n":120,"span":7,"encoder":"7418837","distractor":"7418887","target":"absent","response":"absent","rt":"5537.8000000119","correct":true,"confidence":4},{"trial_n":121,"span":8,"encoder":"20576306","distractor":"40576306","target":"present","response":"present","rt":"3605.900000006","correct":true,"confidence":3},{"trial_n":122,"span":8,"encoder":"38188329","distractor":"38488329","target":"present","response":"present","rt":"4037.8999999762","correct":true,"confidence":3},{"trial_n":123,"span":9,"encoder":"532405260","distractor":"532406260","target":"present","response":"present","rt":"8989","correct":true,"confidence":2},{"trial_n":124,"span":9,"encoder":"215154503","distractor":"215151503","target":"absent","response":"absent","rt":"3865.2999999821","correct":true,"confidence":5},{"trial_n":125,"span":10,"encoder":"9458523657","distractor":"9458523654","target":"present","response":"present","rt":"2873.8999999762","correct":true,"confidence":4},{"trial_n":126,"span":10,"encoder":"0973279913","distractor":"0673279913","target":"present","response":"absent","rt":"3874.400000006","correct":false,"confidence":2},{"trial_n":127,"span":9,"encoder":"856403102","distractor":"856453102","target":"present","response":"present","rt":"5451.599999994","correct":true,"confidence":3},{"trial_n":128,"span":9,"encoder":"232527280","distractor":"232527290","target":"absent","response":"present","rt":"6582.599999994","correct":false,"confidence":3},{"trial_n":129,"span":8,"encoder":"95230526","distractor":"95230506","target":"absent","response":"absent","rt":"2964.099999994","correct":true,"confidence":5},{"trial_n":130,"span":8,"encoder":"95915506","distractor":"95515506","target":"present","response":"present","rt":"5208.1999999881","correct":true,"confidence":3},{"trial_n":131,"span":9,"encoder":"164850491","distractor":"144850491","target":"present","response":"present","rt":"5827","correct":true,"confidence":3},{"trial_n":132,"span":9,"encoder":"014440261","distractor":"014440861","target":"present","response":"present","rt":"2875.3999999762","correct":true,"confidence":4},{"trial_n":133,"span":10,"encoder":"4438839660","distractor":"4438039660","target":"absent","response":"absent","rt":"3640.2999999821","correct":true,"confidence":5},{"trial_n":134,"span":10,"encoder":"6900524032","distractor":"7900524032","target":"present","response":"absent","rt":"6044.400000006","correct":false,"confidence":3},{"trial_n":135,"span":9,"encoder":"071766266","distractor":"071766766","target":"absent","response":"absent","rt":"8013.1999999881","correct":true,"confidence":3},{"trial_n":136,"span":9,"encoder":"118193581","distractor":"118193281","target":"absent","response":"present","rt":"3997.3000000119","correct":false,"confidence":2},{"trial_n":137,"span":8,"encoder":"93078749","distractor":"93078779","target":"absent","response":"absent","rt":"3108.8000000119","correct":true,"confidence":4},{"trial_n":138,"span":8,"encoder":"05774303","distractor":"05774309","target":"present","response":"present","rt":"2362.2000000179","correct":true,"confidence":5},{"trial_n":139,"span":9,"encoder":"496384762","distractor":"496382762","target":"absent","response":"present","rt":"4301.8000000119","correct":false,"confidence":3},{"trial_n":140,"span":8,"encoder":"59526709","distractor":"59526769","target":"present","response":"present","rt":"2201.599999994","correct":true,"confidence":3}]