[{"trial_n":1,"span":8,"encoder":"95606600","distractor":"95600600","target":"present","response":"present","rt":"2788","correct":true,"confidence":-1},{"trial_n":2,"span":8,"encoder":"43623958","distractor":"43123958","target":"present","response":"present","rt":"2043","correct":true,"confidence":-1},{"trial_n":3,"span":10,"encoder":"8905981450","distractor":"8905921450","target":"absent","response":"absent","rt":"1935","correct":true,"confidence":-1},{"trial_n":4,"span":10,"encoder":"4213265439","distractor":"4223265439","target":"absent","response":"absent","rt":"2572","correct":true,"confidence":-1},{"trial_n":5,"span":12,"encoder":"157814671775","distractor":"657814671775","target":"present","response":"absent","rt":"1491","correct":false,"confidence":-1},{"trial_n":6,"span":10,"encoder":"3656392977","distractor":"3656392077","target":"present","response":"absent","rt":"751","correct":false,"confidence":-1},{"trial_n":7,"span":8,"encoder":"35672730","distractor":"33672730","target":"present","response":"absent","rt":"6553","correct":false,"confidence":-1},{"trial_n":8,"span":6,"encoder":"104743","distractor":"101743","target":"absent","response":"present","rt":"1385","correct":false,"confidence":-1},{"trial_n":9,"span":4,"encoder":"4295","distractor":"4275","target":"present","response":"present","rt":"1627","correct":true,"confidence":-1},{"trial_n":10,"span":4,"encoder":"0923","distractor":"0223","target":"absent","response":"present","rt":"1975","correct":false,"confidence":-1},{"trial_n":11,"span":2,"encoder":"27","distractor":"28","target":"absent","response":"present","rt":"1234","correct":false,"confidence":-1},{"trial_n":12,"span":2,"encoder":"17","distractor":"27","target":"present","response":"present","rt":"731.00000000001","correct":true,"confidence":-1},{"trial_n":13,"span":2,"encoder":"62","distractor":"32","target":"present","response":"present","rt":"1438","correct":true,"confidence":-1},{"trial_n":14,"span":3,"encoder":"564","distractor":"567","target":"absent","response":"absent","rt":"1721","correct":true,"confidence":-1},{"trial_n":15,"span":3,"encoder":"991","distractor":"891","target":"absent","response":"absent","rt":"1590","correct":true,"confidence":-1},{"trial_n":16,"span":4,"encoder":"9392","distractor":"9398","target":"absent","response":"absent","rt":"1180","correct":true,"confidence":-1},{"trial_n":17,"span":4,"encoder":"0971","distractor":"0970","target":"present","response":"present","rt":"1679","correct":true,"confidence":-1},{"trial_n":18,"span":5,"encoder":"02598","distractor":"02398","target":"present","response":"absent","rt":"2205","correct":false,"confidence":-1},{"trial_n":19,"span":4,"encoder":"6429","distractor":"6421","target":"present","response":"present","rt":"1238","correct":true,"confidence":-1},{"trial_n":20,"span":4,"encoder":"9139","distractor":"9138","target":"present","response":"present","rt":"1208","correct":true,"confidence":-1},{"trial_n":21,"span":5,"encoder":"55594","distractor":"55894","target":"present","response":"absent","rt":"1492","correct":false,"confidence":3},{"trial_n":22,"span":4,"encoder":"6621","distractor":"6641","target":"absent","response":"present","rt":"2668","correct":false,"confidence":4},{"trial_n":23,"span":3,"encoder":"883","distractor":"885","target":"absent","response":"absent","rt":"1470","correct":true,"confidence":3},{"trial_n":24,"span":3,"encoder":"795","distractor":"791","target":"absent","response":"absent","rt":"2631","correct":true,"confidence":3},{"trial_n":25,"span":4,"encoder":"6572","distractor":"6571","target":"absent","response":"absent","rt":"3161","correct":true,"confidence":4},{"trial_n":26,"span":4,"encoder":"1443","distractor":"1493","target":"absent","response":"absent","rt":"1845","correct":true,"confidence":4},{"trial_n":27,"span":5,"encoder":"27896","distractor":"22896","target":"present","response":"present","rt":"2042","correct":true,"confidence":4},{"trial_n":28,"span":5,"encoder":"48226","distractor":"40226","target":"present","response":"absent","rt":"1557","correct":false,"confidence":4},{"trial_n":29,"span":4,"encoder":"0411","distractor":"0421","target":"absent","response":"absent","rt":"2745","correct":true,"confidence":4},{"trial_n":30,"span":4,"encoder":"6944","distractor":"6946","target":"present","response":"absent","rt":"1916","correct":false,"confidence":4},{"trial_n":31,"span":3,"encoder":"775","distractor":"705","target":"absent","response":"absent","rt":"1203","correct":true,"confidence":3},{"trial_n":32,"span":3,"encoder":"036","distractor":"033","target":"absent","response":"absent","rt":"1576","correct":true,"confidence":4},{"trial_n":33,"span":4,"encoder":"2490","distractor":"2410","target":"present","response":"absent","rt":"1123","correct":false,"confidence":4},{"trial_n":34,"span":3,"encoder":"186","distractor":"686","target":"absent","response":"absent","rt":"1306","correct":true,"confidence":4},{"trial_n":35,"span":3,"encoder":"929","distractor":"959","target":"absent","response":"absent","rt":"2476","correct":true,"confidence":4},{"trial_n":36,"span":4,"encoder":"8933","distractor":"8733","target":"present","response":"absent","rt":"5284","correct":false,"confidence":4},{"trial_n":37,"span":3,"encoder":"019","distractor":"419","target":"absent","response":"absent","rt":"1235","correct":true,"confidence":4},{"trial_n":38,"span":3,"encoder":"058","distractor":"558","target":"present","response":"present","rt":"1447","correct":true,"confidence":3},{"trial_n":39,"span":4,"encoder":"9764","distractor":"9761","target":"present","response":"present","rt":"1511","correct":true,"confidence":3},{"trial_n":40,"span":4,"encoder":"6690","distractor":"6610","target":"present","response":"present","rt":"1227","correct":true,"confidence":3},{"trial_n":41,"span":5,"encoder":"19642","distractor":"19672","target":"absent","response":"absent","rt":"1821","correct":true,"confidence":4},{"trial_n":42,"span":5,"encoder":"28201","distractor":"28601","target":"present","response":"present","rt":"1391","correct":true,"confidence":3},{"trial_n":43,"span":6,"encoder":"360517","distractor":"363517","target":"absent","response":"present","rt":"1564","correct":false,"confidence":3},{"trial_n":44,"span":5,"encoder":"17289","distractor":"16289","target":"present","response":"present","rt":"1794","correct":true,"confidence":4},{"trial_n":45,"span":5,"encoder":"56390","distractor":"56350","target":"absent","response":"absent","rt":"1371","correct":true,"confidence":4},{"trial_n":46,"span":6,"encoder":"873222","distractor":"863222","target":"absent","response":"absent","rt":"1535.0000000001","correct":true,"confidence":5},{"trial_n":47,"span":6,"encoder":"133356","distractor":"133306","target":"absent","response":"absent","rt":"2260","correct":true,"confidence":4},{"trial_n":48,"span":7,"encoder":"9512511","distractor":"9512512","target":"present","response":"present","rt":"1244","correct":true,"confidence":3},{"trial_n":49,"span":7,"encoder":"6667017","distractor":"6667012","target":"present","response":"present","rt":"4080","correct":true,"confidence":3},{"trial_n":50,"span":8,"encoder":"29765220","distractor":"29965220","target":"present","response":"present","rt":"1057","correct":true,"confidence":3},{"trial_n":51,"span":8,"encoder":"38067776","distractor":"38867776","target":"absent","response":"present","rt":"1302.0000000001","correct":false,"confidence":3},{"trial_n":52,"span":7,"encoder":"4082788","distractor":"4082988","target":"present","response":"present","rt":"1058","correct":true,"confidence":3},{"trial_n":53,"span":7,"encoder":"9700869","distractor":"0700869","target":"present","response":"present","rt":"1899","correct":true,"confidence":3},{"trial_n":54,"span":8,"encoder":"91219168","distractor":"91619168","target":"present","response":"present","rt":"1088","correct":true,"confidence":3},{"trial_n":55,"span":8,"encoder":"11324511","distractor":"11324011","target":"absent","response":"present","rt":"1146","correct":false,"confidence":3},{"trial_n":56,"span":7,"encoder":"2055719","distractor":"2055769","target":"present","response":"present","rt":"1437.0000000001","correct":true,"confidence":3},{"trial_n":57,"span":7,"encoder":"7478621","distractor":"7479621","target":"present","response":"present","rt":"817.99999999994","correct":true,"confidence":3},{"trial_n":58,"span":8,"encoder":"28622666","distractor":"28922666","target":"absent","response":"present","rt":"1226","correct":false,"confidence":3},{"trial_n":59,"span":7,"encoder":"7891997","distractor":"7891927","target":"absent","response":"present","rt":"922","correct":false,"confidence":3},{"trial_n":60,"span":6,"encoder":"843886","distractor":"843884","target":"absent","response":"present","rt":"1361","correct":false,"confidence":3},{"trial_n":61,"span":5,"encoder":"71560","distractor":"71160","target":"present","response":"present","rt":"868","correct":true,"confidence":3},{"trial_n":62,"span":5,"encoder":"76861","distractor":"26861","target":"absent","response":"present","rt":"789","correct":false,"confidence":3},{"trial_n":63,"span":4,"encoder":"1085","distractor":"1185","target":"present","response":"present","rt":"976","correct":true,"confidence":3},{"trial_n":64,"span":4,"encoder":"4689","distractor":"4619","target":"absent","response":"present","rt":"871","correct":false,"confidence":3},{"trial_n":65,"span":3,"encoder":"254","distractor":"224","target":"absent","response":"absent","rt":"1730","correct":true,"confidence":3},{"trial_n":66,"span":3,"encoder":"162","distractor":"169","target":"present","response":"absent","rt":"1901.9999999999","correct":false,"confidence":3},{"trial_n":67,"span":2,"encoder":"71","distractor":"74","target":"absent","response":"absent","rt":"1726","correct":true,"confidence":3},{"trial_n":68,"span":2,"encoder":"53","distractor":"57","target":"present","response":"present","rt":"1196","correct":true,"confidence":3},{"trial_n":69,"span":3,"encoder":"396","distractor":"393","target":"present","response":"present","rt":"1235","correct":true,"confidence":3},{"trial_n":70,"span":3,"encoder":"522","distractor":"622","target":"absent","response":"present","rt":"1227","correct":false,"confidence":3},{"trial_n":71,"span":8,"encoder":"41135542","distractor":"41115542","target":"present","response":"present","rt":"9591","correct":true,"confidence":-1},{"trial_n":72,"span":8,"encoder":"17244910","distractor":"16244910","target":"present","response":"absent","rt":"538","correct":false,"confidence":-1},{"trial_n":73,"span":7,"encoder":"4052646","distractor":"4012646","target":"absent","response":"present","rt":"63884","correct":false,"confidence":-1},{"trial_n":74,"span":6,"encoder":"264489","distractor":"268489","target":"absent","response":"absent","rt":"7382.0000000001","correct":true,"confidence":-1},{"trial_n":75,"span":6,"encoder":"633724","distractor":"133724","target":"present","response":"present","rt":"1776.0000000001","correct":true,"confidence":-1},{"trial_n":76,"span":7,"encoder":"0583762","distractor":"0783762","target":"present","response":"absent","rt":"2551","correct":false,"confidence":-1},{"trial_n":77,"span":6,"encoder":"772556","distractor":"772056","target":"present","response":"absent","rt":"1041","correct":false,"confidence":-1},{"trial_n":78,"span":5,"encoder":"22238","distractor":"22038","target":"present","response":"present","rt":"1903","correct":true,"confidence":-1},{"trial_n":79,"span":5,"encoder":"37640","distractor":"37646","target":"present","response":"present","rt":"862","correct":true,"confidence":-1},{"trial_n":80,"span":6,"encoder":"172963","distractor":"172968","target":"absent","response":"absent","rt":"336.99999999988","correct":true,"confidence":-1},{"trial_n":81,"span":6,"encoder":"348421","distractor":"348423","target":"absent","response":"absent","rt":"284","correct":true,"confidence":-1},{"trial_n":82,"span":7,"encoder":"4372731","distractor":"4372331","target":"absent","response":"present","rt":"293","correct":false,"confidence":-1},{"trial_n":83,"span":6,"encoder":"390531","distractor":"390631","target":"absent","response":"absent","rt":"335.99999999988","correct":true,"confidence":-1},{"trial_n":84,"span":6,"encoder":"465797","distractor":"468797","target":"present","response":"absent","rt":"930.00000000012","correct":false,"confidence":-1},{"trial_n":85,"span":5,"encoder":"74534","distractor":"75534","target":"present","response":"absent","rt":"394.00000000012","correct":false,"confidence":-1},{"trial_n":86,"span":4,"encoder":"4958","distractor":"4951","target":"absent","response":"absent","rt":"412","correct":true,"confidence":-1},{"trial_n":87,"span":4,"encoder":"2430","distractor":"2730","target":"present","response":"absent","rt":"1450","correct":false,"confidence":-1},{"trial_n":88,"span":3,"encoder":"521","distractor":"591","target":"present","response":"absent","rt":"494.00000000012","correct":false,"confidence":-1},{"trial_n":89,"span":2,"encoder":"70","distractor":"77","target":"absent","response":"present","rt":"1548","correct":false,"confidence":-1},{"trial_n":90,"span":2,"encoder":"04","distractor":"03","target":"absent","response":"present","rt":"1216","correct":false,"confidence":-1},{"trial_n":91,"span":2,"encoder":"37","distractor":"67","target":"absent","response":"absent","rt":"1336","correct":true,"confidence":3},{"trial_n":92,"span":2,"encoder":"40","distractor":"43","target":"absent","response":"present","rt":"2109.0000000001","correct":false,"confidence":3},{"trial_n":93,"span":2,"encoder":"90","distractor":"10","target":"present","response":"present","rt":"733","correct":true,"confidence":3},{"trial_n":94,"span":2,"encoder":"81","distractor":"61","target":"absent","response":"absent","rt":"970","correct":true,"confidence":4},{"trial_n":95,"span":3,"encoder":"191","distractor":"190","target":"present","response":"present","rt":"782.00000000012","correct":true,"confidence":4},{"trial_n":96,"span":3,"encoder":"901","distractor":"101","target":"present","response":"present","rt":"1195","correct":true,"confidence":4},{"trial_n":97,"span":4,"encoder":"6217","distractor":"6214","target":"present","response":"present","rt":"988.99999999988","correct":true,"confidence":3},{"trial_n":98,"span":4,"encoder":"5482","distractor":"5412","target":"absent","response":"absent","rt":"986.99999999988","correct":true,"confidence":4},{"trial_n":99,"span":5,"encoder":"15372","distractor":"15672","target":"absent","response":"absent","rt":"2102","correct":true,"confidence":4},{"trial_n":100,"span":5,"encoder":"63632","distractor":"63637","target":"present","response":"present","rt":"1579","correct":true,"confidence":3},{"trial_n":101,"span":6,"encoder":"228403","distractor":"228103","target":"absent","response":"absent","rt":"1763","correct":true,"confidence":3},{"trial_n":102,"span":6,"encoder":"699196","distractor":"099196","target":"present","response":"absent","rt":"1150","correct":false,"confidence":4},{"trial_n":103,"span":5,"encoder":"01652","distractor":"00652","target":"present","response":"present","rt":"752","correct":true,"confidence":3},{"trial_n":104,"span":5,"encoder":"60380","distractor":"60389","target":"absent","response":"present","rt":"784","correct":false,"confidence":3},{"trial_n":105,"span":4,"encoder":"1281","distractor":"1291","target":"present","response":"present","rt":"940","correct":true,"confidence":3},{"trial_n":106,"span":4,"encoder":"0233","distractor":"7233","target":"absent","response":"absent","rt":"1497","correct":true,"confidence":3},{"trial_n":107,"span":5,"encoder":"16333","distractor":"16334","target":"absent","response":"absent","rt":"1203","correct":true,"confidence":4},{"trial_n":108,"span":5,"encoder":"72895","distractor":"72885","target":"absent","response":"absent","rt":"1463.9999999999","correct":true,"confidence":4},{"trial_n":109,"span":6,"encoder":"522309","distractor":"522409","target":"present","response":"present","rt":"2484","correct":true,"confidence":4},{"trial_n":110,"span":6,"encoder":"391301","distractor":"391001","target":"absent","response":"absent","rt":"1940.0000000001","correct":true,"confidence":3},{"trial_n":111,"span":7,"encoder":"5989210","distractor":"5589210","target":"absent","response":"present","rt":"1464","correct":false,"confidence":3},{"trial_n":112,"span":6,"encoder":"370971","distractor":"370977","target":"present","response":"absent","rt":"1300","correct":false,"confidence":4},{"trial_n":113,"span":5,"encoder":"25807","distractor":"25803","target":"absent","response":"absent","rt":"1447","correct":true,"confidence":3},{"trial_n":114,"span":5,"encoder":"19871","distractor":"19371","target":"absent","response":"absent","rt":"1624","correct":true,"confidence":3},{"trial_n":115,"span":6,"encoder":"092487","distractor":"092407","target":"present","response":"absent","rt":"1664.9999999999","correct":false,"confidence":4},{"trial_n":116,"span":5,"encoder":"10196","distractor":"10194","target":"present","response":"present","rt":"2233","correct":true,"confidence":3},{"trial_n":117,"span":5,"encoder":"77784","distractor":"77764","target":"absent","response":"absent","rt":"1570","correct":true,"confidence":4},{"trial_n":118,"span":6,"encoder":"921827","distractor":"921817","target":"present","response":"absent","rt":"934","correct":false,"confidence":4},{"trial_n":119,"span":5,"encoder":"49880","distractor":"49884","target":"present","response":"present","rt":"1738","correct":true,"confidence":3},{"trial_n":120,"span":5,"encoder":"71174","distractor":"75174","target":"absent","response":"absent","rt":"2195","correct":true,"confidence":4},{"trial_n":121,"span":6,"encoder":"044987","distractor":"054987","target":"present","response":"absent","rt":"8041","correct":false,"confidence":3},{"trial_n":122,"span":5,"encoder":"75293","distractor":"78293","target":"absent","response":"present","rt":"1440","correct":false,"confidence":4},{"trial_n":123,"span":4,"encoder":"8755","distractor":"8745","target":"absent","response":"absent","rt":"1874.0000000001","correct":true,"confidence":4},{"trial_n":124,"span":4,"encoder":"2140","distractor":"3140","target":"present","response":"present","rt":"1470","correct":true,"confidence":3},{"trial_n":125,"span":5,"encoder":"37837","distractor":"37867","target":"absent","response":"absent","rt":"1299","correct":true,"confidence":4},{"trial_n":126,"span":5,"encoder":"16134","distractor":"16164","target":"absent","response":"absent","rt":"1438","correct":true,"confidence":4},{"trial_n":127,"span":6,"encoder":"583416","distractor":"583216","target":"present","response":"present","rt":"1926.0000000001","correct":true,"confidence":4},{"trial_n":128,"span":6,"encoder":"964798","distractor":"924798","target":"absent","response":"absent","rt":"1409","correct":true,"confidence":4},{"trial_n":129,"span":7,"encoder":"1160790","distractor":"1160390","target":"present","response":"present","rt":"1439.9999999999","correct":true,"confidence":3},{"trial_n":130,"span":7,"encoder":"5556050","distractor":"5559050","target":"present","response":"absent","rt":"1343","correct":false,"confidence":4},{"trial_n":131,"span":6,"encoder":"385552","distractor":"385052","target":"present","response":"present","rt":"1878","correct":true,"confidence":3},{"trial_n":132,"span":6,"encoder":"737548","distractor":"737448","target":"present","response":"present","rt":"1651","correct":true,"confidence":4},{"trial_n":133,"span":7,"encoder":"9621856","distractor":"9641856","target":"absent","response":"absent","rt":"1372","correct":true,"confidence":4},{"trial_n":134,"span":7,"encoder":"8068322","distractor":"8068922","target":"absent","response":"absent","rt":"1182","correct":true,"confidence":4},{"trial_n":135,"span":8,"encoder":"62082202","distractor":"62082702","target":"present","response":"absent","rt":"2844.9999999999","correct":false,"confidence":3},{"trial_n":136,"span":7,"encoder":"7422473","distractor":"5422473","target":"absent","response":"absent","rt":"1210","correct":true,"confidence":4},{"trial_n":137,"span":7,"encoder":"4992465","distractor":"4962465","target":"present","response":"present","rt":"799.00000000012","correct":true,"confidence":3},{"trial_n":138,"span":8,"encoder":"55323790","distractor":"55323190","target":"absent","response":"present","rt":"1241","correct":false,"confidence":3},{"trial_n":139,"span":7,"encoder":"9908674","distractor":"9908774","target":"present","response":"absent","rt":"2448.0000000001","correct":false,"confidence":4},{"trial_n":140,"span":6,"encoder":"084723","distractor":"084721","target":"present","response":"present","rt":"1912.0000000001","correct":true,"confidence":4}]