[{"trial_n":1,"min":25,"max":230,"target":"present","response":"absent","rt":5698.4000000004,"correct":false,"confidence":-1},{"trial_n":2,"min":25,"max":230,"target":"present","response":"present","rt":1485.9000000004,"correct":true,"confidence":-1},{"trial_n":3,"min":25,"max":230,"target":"absent","response":"absent","rt":1002.3000000007,"correct":true,"confidence":-1},{"trial_n":4,"min":41,"max":214,"target":"absent","response":"absent","rt":863.70000000112,"correct":true,"confidence":-1},{"trial_n":5,"min":41,"max":214,"target":"present","response":"present","rt":1139.9000000004,"correct":true,"confidence":-1},{"trial_n":6,"min":57,"max":198,"target":"present","response":"absent","rt":686.70000000112,"correct":false,"confidence":-1},{"trial_n":7,"min":41,"max":214,"target":"absent","response":"present","rt":1879.0999999996,"correct":false,"confidence":-1},{"trial_n":8,"min":25,"max":230,"target":"present","response":"absent","rt":687.20000000112,"correct":false,"confidence":-1},{"trial_n":9,"min":9,"max":246,"target":"absent","response":"absent","rt":1507.0999999996,"correct":true,"confidence":-1},{"trial_n":10,"min":9,"max":246,"target":"present","response":"present","rt":825.80000000075,"correct":true,"confidence":-1},{"trial_n":11,"min":17,"max":238,"target":"present","response":"absent","rt":568.69999999925,"correct":false,"confidence":-1},{"trial_n":12,"min":9,"max":246,"target":"absent","response":"present","rt":796.39999999851,"correct":false,"confidence":-1},{"trial_n":13,"min":1,"max":254,"target":"present","response":"absent","rt":648.80000000075,"correct":false,"confidence":-1},{"trial_n":14,"min":0,"max":255,"target":"present","response":"present","rt":883.90000000037,"correct":true,"confidence":-1},{"trial_n":15,"min":0,"max":255,"target":"present","response":"present","rt":1091.0999999996,"correct":true,"confidence":-1},{"trial_n":16,"min":8,"max":247,"target":"absent","response":"absent","rt":766.30000000075,"correct":true,"confidence":-1},{"trial_n":17,"min":8,"max":247,"target":"present","response":"present","rt":969.20000000112,"correct":true,"confidence":-1},{"trial_n":18,"min":16,"max":239,"target":"present","response":"present","rt":983.90000000037,"correct":true,"confidence":-1},{"trial_n":19,"min":16,"max":239,"target":"present","response":"present","rt":1280.9000000004,"correct":true,"confidence":-1},{"trial_n":20,"min":24,"max":231,"target":"present","response":"present","rt":963.59999999963,"correct":true,"confidence":-1},{"trial_n":21,"min":24,"max":231,"target":"present","response":"present","rt":931.09999999963,"correct":true,"confidence":3},{"trial_n":22,"min":28,"max":227,"target":"present","response":"present","rt":977.80000000075,"correct":true,"confidence":5},{"trial_n":23,"min":28,"max":227,"target":"present","response":"present","rt":1097.8000000007,"correct":true,"confidence":5},{"trial_n":24,"min":32,"max":223,"target":"present","response":"present","rt":1048.3000000007,"correct":true,"confidence":5},{"trial_n":25,"min":32,"max":223,"target":"absent","response":"absent","rt":1028.9000000004,"correct":true,"confidence":5},{"trial_n":26,"min":36,"max":219,"target":"present","response":"present","rt":1038.5,"correct":true,"confidence":3},{"trial_n":27,"min":36,"max":219,"target":"present","response":"present","rt":1019.1999999993,"correct":true,"confidence":3},{"trial_n":28,"min":40,"max":215,"target":"present","response":"present","rt":1047.9000000004,"correct":true,"confidence":3},{"trial_n":29,"min":40,"max":215,"target":"present","response":"present","rt":1216.5999999996,"correct":true,"confidence":3},{"trial_n":30,"min":44,"max":211,"target":"absent","response":"absent","rt":1283.8000000007,"correct":true,"confidence":4},{"trial_n":31,"min":44,"max":211,"target":"present","response":"present","rt":1059.8000000007,"correct":true,"confidence":3},{"trial_n":32,"min":46,"max":209,"target":"absent","response":"absent","rt":2022.9000000004,"correct":true,"confidence":3},{"trial_n":33,"min":46,"max":209,"target":"present","response":"present","rt":901.09999999963,"correct":true,"confidence":4},{"trial_n":34,"min":48,"max":207,"target":"absent","response":"absent","rt":998.59999999963,"correct":true,"confidence":4},{"trial_n":35,"min":48,"max":207,"target":"absent","response":"absent","rt":1215.0999999996,"correct":true,"confidence":4},{"trial_n":36,"min":50,"max":205,"target":"absent","response":"absent","rt":1293.5,"correct":true,"confidence":4},{"trial_n":37,"min":50,"max":205,"target":"absent","response":"absent","rt":1176.5,"correct":true,"confidence":3},{"trial_n":38,"min":52,"max":203,"target":"absent","response":"absent","rt":1125.5,"correct":true,"confidence":3},{"trial_n":39,"min":52,"max":203,"target":"absent","response":"present","rt":1235.3999999985,"correct":false,"confidence":2},{"trial_n":40,"min":50,"max":205,"target":"present","response":"present","rt":1019.8999999985,"correct":true,"confidence":4},{"trial_n":41,"min":50,"max":205,"target":"absent","response":"absent","rt":1325.5,"correct":true,"confidence":3},{"trial_n":42,"min":51,"max":204,"target":"present","response":"present","rt":931.19999999925,"correct":true,"confidence":5},{"trial_n":43,"min":51,"max":204,"target":"present","response":"present","rt":1100,"correct":true,"confidence":5},{"trial_n":44,"min":52,"max":203,"target":"present","response":"present","rt":999.09999999963,"correct":true,"confidence":5},{"trial_n":45,"min":52,"max":203,"target":"absent","response":"absent","rt":1118.8000000007,"correct":true,"confidence":1},{"trial_n":46,"min":53,"max":202,"target":"absent","response":"absent","rt":960.5,"correct":true,"confidence":4},{"trial_n":47,"min":53,"max":202,"target":"absent","response":"absent","rt":1067.9000000004,"correct":true,"confidence":4},{"trial_n":48,"min":54,"max":201,"target":"absent","response":"absent","rt":1304.8000000007,"correct":true,"confidence":4},{"trial_n":49,"min":54,"max":201,"target":"absent","response":"absent","rt":1155.0999999996,"correct":true,"confidence":4},{"trial_n":50,"min":55,"max":200,"target":"present","response":"present","rt":1099.7999999989,"correct":true,"confidence":5},{"trial_n":51,"min":55,"max":200,"target":"absent","response":"absent","rt":1452.2000000011,"correct":true,"confidence":3},{"trial_n":52,"min":56,"max":199,"target":"present","response":"present","rt":929.89999999851,"correct":true,"confidence":4},{"trial_n":53,"min":56,"max":199,"target":"absent","response":"absent","rt":900.5,"correct":true,"confidence":4},{"trial_n":54,"min":57,"max":198,"target":"absent","response":"absent","rt":1255.2999999989,"correct":true,"confidence":5},{"trial_n":55,"min":57,"max":198,"target":"absent","response":"absent","rt":1125.7999999989,"correct":true,"confidence":5},{"trial_n":56,"min":58,"max":197,"target":"present","response":"present","rt":1099.1999999993,"correct":true,"confidence":3},{"trial_n":57,"min":58,"max":197,"target":"absent","response":"absent","rt":1078.9000000004,"correct":true,"confidence":5},{"trial_n":58,"min":59,"max":196,"target":"absent","response":"present","rt":1195.5,"correct":false,"confidence":1},{"trial_n":59,"min":58,"max":197,"target":"absent","response":"absent","rt":1076.4000000004,"correct":true,"confidence":4},{"trial_n":60,"min":58,"max":197,"target":"absent","response":"absent","rt":1568.5999999996,"correct":true,"confidence":4},{"trial_n":61,"min":59,"max":196,"target":"absent","response":"absent","rt":2092.8000000007,"correct":true,"confidence":4},{"trial_n":62,"min":59,"max":196,"target":"present","response":"present","rt":1264.9000000004,"correct":true,"confidence":3},{"trial_n":63,"min":60,"max":195,"target":"absent","response":"absent","rt":1383.9000000004,"correct":true,"confidence":4},{"trial_n":64,"min":60,"max":195,"target":"present","response":"present","rt":822.70000000112,"correct":true,"confidence":5},{"trial_n":65,"min":61,"max":194,"target":"present","response":"present","rt":1132,"correct":true,"confidence":5},{"trial_n":66,"min":61,"max":194,"target":"absent","response":"absent","rt":5585.9000000004,"correct":true,"confidence":1},{"trial_n":67,"min":62,"max":193,"target":"absent","response":"absent","rt":1362,"correct":true,"confidence":3},{"trial_n":68,"min":62,"max":193,"target":"absent","response":"present","rt":1156,"correct":false,"confidence":4},{"trial_n":69,"min":61,"max":194,"target":"present","response":"present","rt":1452.6999999993,"correct":true,"confidence":4},{"trial_n":70,"min":61,"max":194,"target":"present","response":"present","rt":1236.7999999989,"correct":true,"confidence":3},{"trial_n":71,"min":41,"max":214,"target":"present","response":"absent","rt":2017.9000000004,"correct":false,"confidence":-1},{"trial_n":72,"min":41,"max":214,"target":"present","response":"present","rt":1592.0999999996,"correct":true,"confidence":-1},{"trial_n":73,"min":41,"max":214,"target":"absent","response":"absent","rt":966.90000000037,"correct":true,"confidence":-1},{"trial_n":74,"min":57,"max":198,"target":"absent","response":"present","rt":1255.5,"correct":false,"confidence":-1},{"trial_n":75,"min":41,"max":214,"target":"present","response":"present","rt":1429.8000000007,"correct":true,"confidence":-1},{"trial_n":76,"min":41,"max":214,"target":"present","response":"present","rt":1186.4000000004,"correct":true,"confidence":-1},{"trial_n":77,"min":57,"max":198,"target":"absent","response":"absent","rt":959.09999999963,"correct":true,"confidence":-1},{"trial_n":78,"min":57,"max":198,"target":"absent","response":"present","rt":1089,"correct":false,"confidence":-1},{"trial_n":79,"min":41,"max":214,"target":"present","response":"absent","rt":1430.3000000007,"correct":false,"confidence":-1},{"trial_n":80,"min":25,"max":230,"target":"absent","response":"absent","rt":1331,"correct":true,"confidence":-1},{"trial_n":81,"min":25,"max":230,"target":"present","response":"present","rt":978,"correct":true,"confidence":-1},{"trial_n":82,"min":33,"max":222,"target":"absent","response":"present","rt":995.39999999851,"correct":false,"confidence":-1},{"trial_n":83,"min":25,"max":230,"target":"absent","response":"absent","rt":849.70000000112,"correct":true,"confidence":-1},{"trial_n":84,"min":25,"max":230,"target":"absent","response":"absent","rt":932.80000000075,"correct":true,"confidence":-1},{"trial_n":85,"min":33,"max":222,"target":"present","response":"present","rt":998.5,"correct":true,"confidence":-1},{"trial_n":86,"min":33,"max":222,"target":"present","response":"present","rt":1184.7000000011,"correct":true,"confidence":-1},{"trial_n":87,"min":41,"max":214,"target":"absent","response":"present","rt":948.70000000112,"correct":false,"confidence":-1},{"trial_n":88,"min":33,"max":222,"target":"absent","response":"absent","rt":1470.2999999989,"correct":true,"confidence":-1},{"trial_n":89,"min":33,"max":222,"target":"present","response":"present","rt":585.40000000037,"correct":true,"confidence":-1},{"trial_n":90,"min":41,"max":214,"target":"present","response":"absent","rt":425.40000000037,"correct":false,"confidence":-1},{"trial_n":91,"min":37,"max":218,"target":"present","response":"present","rt":1074.8000000007,"correct":true,"confidence":5},{"trial_n":92,"min":37,"max":218,"target":"present","response":"absent","rt":2596.9000000004,"correct":false,"confidence":1},{"trial_n":93,"min":33,"max":222,"target":"absent","response":"absent","rt":1180.3000000007,"correct":true,"confidence":5},{"trial_n":94,"min":33,"max":222,"target":"present","response":"present","rt":797,"correct":true,"confidence":3},{"trial_n":95,"min":37,"max":218,"target":"present","response":"present","rt":1160.8000000007,"correct":true,"confidence":4},{"trial_n":96,"min":37,"max":218,"target":"absent","response":"absent","rt":1563.9000000004,"correct":true,"confidence":4},{"trial_n":97,"min":41,"max":214,"target":"present","response":"present","rt":1022.4000000004,"correct":true,"confidence":5},{"trial_n":98,"min":41,"max":214,"target":"present","response":"present","rt":1424.3000000007,"correct":true,"confidence":5},{"trial_n":99,"min":45,"max":210,"target":"absent","response":"absent","rt":1263.6999999993,"correct":true,"confidence":4},{"trial_n":100,"min":45,"max":210,"target":"present","response":"present","rt":2470.2999999989,"correct":true,"confidence":4},{"trial_n":101,"min":47,"max":208,"target":"absent","response":"absent","rt":2047.7000000011,"correct":true,"confidence":5},{"trial_n":102,"min":47,"max":208,"target":"present","response":"present","rt":897.80000000075,"correct":true,"confidence":3},{"trial_n":103,"min":49,"max":206,"target":"absent","response":"absent","rt":1513.1999999993,"correct":true,"confidence":3},{"trial_n":104,"min":49,"max":206,"target":"present","response":"absent","rt":2794.4000000004,"correct":false,"confidence":1},{"trial_n":105,"min":47,"max":208,"target":"present","response":"present","rt":935.5,"correct":true,"confidence":4},{"trial_n":106,"min":47,"max":208,"target":"absent","response":"absent","rt":1210.5999999996,"correct":true,"confidence":4},{"trial_n":107,"min":49,"max":206,"target":"present","response":"present","rt":3179,"correct":true,"confidence":4},{"trial_n":108,"min":49,"max":206,"target":"present","response":"present","rt":1525.3000000007,"correct":true,"confidence":5},{"trial_n":109,"min":51,"max":204,"target":"absent","response":"absent","rt":1307.7000000011,"correct":true,"confidence":4},{"trial_n":110,"min":51,"max":204,"target":"absent","response":"absent","rt":1347.4000000004,"correct":true,"confidence":4},{"trial_n":111,"min":52,"max":203,"target":"present","response":"present","rt":965.30000000075,"correct":true,"confidence":3},{"trial_n":112,"min":52,"max":203,"target":"present","response":"present","rt":1908.8999999985,"correct":true,"confidence":3},{"trial_n":113,"min":53,"max":202,"target":"present","response":"present","rt":1061.6000000015,"correct":true,"confidence":3},{"trial_n":114,"min":53,"max":202,"target":"present","response":"present","rt":982.29999999888,"correct":true,"confidence":4},{"trial_n":115,"min":54,"max":201,"target":"present","response":"present","rt":1250.1999999993,"correct":true,"confidence":2},{"trial_n":116,"min":54,"max":201,"target":"absent","response":"absent","rt":1149.6999999993,"correct":true,"confidence":4},{"trial_n":117,"min":55,"max":200,"target":"present","response":"present","rt":895.69999999925,"correct":true,"confidence":4},{"trial_n":118,"min":55,"max":200,"target":"absent","response":"absent","rt":1209.3999999985,"correct":true,"confidence":4},{"trial_n":119,"min":56,"max":199,"target":"present","response":"present","rt":2459,"correct":true,"confidence":1},{"trial_n":120,"min":56,"max":199,"target":"absent","response":"absent","rt":1005.3000000007,"correct":true,"confidence":3},{"trial_n":121,"min":57,"max":198,"target":"present","response":"present","rt":1291.6999999993,"correct":true,"confidence":3},{"trial_n":122,"min":57,"max":198,"target":"absent","response":"absent","rt":1120.6999999993,"correct":true,"confidence":3},{"trial_n":123,"min":58,"max":197,"target":"absent","response":"absent","rt":1004.5,"correct":true,"confidence":4},{"trial_n":124,"min":58,"max":197,"target":"present","response":"present","rt":727.90000000037,"correct":true,"confidence":3},{"trial_n":125,"min":59,"max":196,"target":"absent","response":"present","rt":1180.6000000015,"correct":false,"confidence":1},{"trial_n":126,"min":58,"max":197,"target":"absent","response":"absent","rt":1110.8999999985,"correct":true,"confidence":4},{"trial_n":127,"min":58,"max":197,"target":"absent","response":"present","rt":1551.5,"correct":false,"confidence":1},{"trial_n":128,"min":57,"max":198,"target":"present","response":"absent","rt":1140.6000000015,"correct":false,"confidence":4},{"trial_n":129,"min":56,"max":199,"target":"absent","response":"absent","rt":1327.0999999996,"correct":true,"confidence":4},{"trial_n":130,"min":56,"max":199,"target":"absent","response":"absent","rt":895.70000000112,"correct":true,"confidence":4},{"trial_n":131,"min":57,"max":198,"target":"absent","response":"absent","rt":1880.4000000004,"correct":true,"confidence":4},{"trial_n":132,"min":57,"max":198,"target":"present","response":"present","rt":1051.8000000007,"correct":true,"confidence":3},{"trial_n":133,"min":58,"max":197,"target":"absent","response":"absent","rt":1061.5,"correct":true,"confidence":4},{"trial_n":134,"min":58,"max":197,"target":"absent","response":"absent","rt":1503.4000000004,"correct":true,"confidence":5},{"trial_n":135,"min":59,"max":196,"target":"absent","response":"absent","rt":1355.1999999993,"correct":true,"confidence":3},{"trial_n":136,"min":59,"max":196,"target":"present","response":"present","rt":854.69999999925,"correct":true,"confidence":4},{"trial_n":137,"min":60,"max":195,"target":"present","response":"present","rt":1552.6999999993,"correct":true,"confidence":3},{"trial_n":138,"min":60,"max":195,"target":"present","response":"absent","rt":1022,"correct":false,"confidence":1},{"trial_n":139,"min":59,"max":196,"target":"absent","response":"present","rt":2439.0999999996,"correct":false,"confidence":1},{"trial_n":140,"min":58,"max":197,"target":"absent","response":"absent","rt":1170.7999999989,"correct":true,"confidence":3}]