[{"trial_n":1,"span":8,"encoder":"64479089","distractor":"60479089","target":"present","response":"present","rt":"3252.6999999881","correct":true,"confidence":-1},{"trial_n":2,"span":8,"encoder":"83818331","distractor":"83818335","target":"present","response":"present","rt":"1391.8999999762","correct":true,"confidence":-1},{"trial_n":3,"span":10,"encoder":"3104919357","distractor":"3109919357","target":"absent","response":"present","rt":"1840.8999999762","correct":false,"confidence":-1},{"trial_n":4,"span":8,"encoder":"15743158","distractor":"15745158","target":"absent","response":"present","rt":"711.29999995232","correct":false,"confidence":-1},{"trial_n":5,"span":6,"encoder":"977844","distractor":"977804","target":"present","response":"absent","rt":"862.39999997616","correct":false,"confidence":-1},{"trial_n":6,"span":4,"encoder":"3221","distractor":"3201","target":"present","response":"present","rt":"402.59999996424","correct":true,"confidence":-1},{"trial_n":7,"span":4,"encoder":"3984","distractor":"3904","target":"present","response":"present","rt":"691.69999998808","correct":true,"confidence":-1},{"trial_n":8,"span":6,"encoder":"771975","distractor":"771978","target":"absent","response":"absent","rt":"1123.5999999642","correct":true,"confidence":-1},{"trial_n":9,"span":6,"encoder":"074525","distractor":"074515","target":"present","response":"present","rt":"681.30000001192","correct":true,"confidence":-1},{"trial_n":10,"span":8,"encoder":"57803505","distractor":"57843505","target":"absent","response":"absent","rt":"1646.5","correct":true,"confidence":-1},{"trial_n":11,"span":8,"encoder":"45888982","distractor":"45858982","target":"absent","response":"present","rt":"907.59999996424","correct":false,"confidence":-1},{"trial_n":12,"span":7,"encoder":"0816913","distractor":"8816913","target":"absent","response":"absent","rt":"290.80000001192","correct":true,"confidence":-1},{"trial_n":13,"span":7,"encoder":"7258536","distractor":"0258536","target":"present","response":"present","rt":"768.59999996424","correct":true,"confidence":-1},{"trial_n":14,"span":8,"encoder":"70744365","distractor":"70744465","target":"present","response":"present","rt":"563.69999998808","correct":true,"confidence":-1},{"trial_n":15,"span":8,"encoder":"94686987","distractor":"84686987","target":"absent","response":"absent","rt":"327.30000001192","correct":true,"confidence":-1},{"trial_n":16,"span":9,"encoder":"236079959","distractor":"236079951","target":"present","response":"present","rt":"397.39999997616","correct":true,"confidence":-1},{"trial_n":17,"span":9,"encoder":"600815265","distractor":"600015265","target":"absent","response":"absent","rt":"389.09999996424","correct":true,"confidence":-1},{"trial_n":18,"span":10,"encoder":"1313791719","distractor":"1318791719","target":"absent","response":"present","rt":"552.69999998808","correct":false,"confidence":-1},{"trial_n":19,"span":9,"encoder":"988512505","distractor":"988552505","target":"present","response":"absent","rt":"293.30000001192","correct":false,"confidence":-1},{"trial_n":20,"span":8,"encoder":"59810404","distractor":"59510404","target":"present","response":"present","rt":"297.69999998808","correct":true,"confidence":-1},{"trial_n":21,"span":8,"encoder":"09608974","distractor":"09608924","target":"present","response":"present","rt":"549.69999998808","correct":true,"confidence":3},{"trial_n":22,"span":9,"encoder":"402762094","distractor":"402764094","target":"present","response":"present","rt":"1721.6000000238","correct":true,"confidence":5},{"trial_n":23,"span":9,"encoder":"243084860","distractor":"243089860","target":"absent","response":"absent","rt":"2111.7000000477","correct":true,"confidence":3},{"trial_n":24,"span":10,"encoder":"9956058399","distractor":"9956958399","target":"absent","response":"absent","rt":"5091","correct":true,"confidence":5},{"trial_n":25,"span":10,"encoder":"5724102204","distractor":"5734102204","target":"absent","response":"present","rt":"1576.3999999762","correct":false,"confidence":5},{"trial_n":26,"span":9,"encoder":"968759317","distractor":"968759717","target":"present","response":"present","rt":"895.09999996424","correct":true,"confidence":4},{"trial_n":27,"span":9,"encoder":"585725906","distractor":"585725406","target":"absent","response":"absent","rt":"1815.5999999642","correct":true,"confidence":5},{"trial_n":28,"span":10,"encoder":"5723602987","distractor":"5723602981","target":"present","response":"present","rt":"2957.1999999881","correct":true,"confidence":5},{"trial_n":29,"span":10,"encoder":"0326811779","distractor":"0326811739","target":"absent","response":"absent","rt":"11745.100000024","correct":true,"confidence":1},{"trial_n":30,"span":11,"encoder":"63840960950","distractor":"63840960750","target":"absent","response":"absent","rt":"2065.5","correct":true,"confidence":5},{"trial_n":31,"span":11,"encoder":"97922409811","distractor":"97922409411","target":"absent","response":"absent","rt":"2497.8000000119","correct":true,"confidence":5},{"trial_n":32,"span":12,"encoder":"911936233548","distractor":"911936203548","target":"absent","response":"present","rt":"2243.9000000358","correct":false,"confidence":5},{"trial_n":33,"span":11,"encoder":"21362391965","distractor":"21362391960","target":"present","response":"absent","rt":"2546.7000000477","correct":false,"confidence":1},{"trial_n":34,"span":10,"encoder":"8765035534","distractor":"8762035534","target":"present","response":"absent","rt":"1867.3000000119","correct":false,"confidence":5},{"trial_n":35,"span":9,"encoder":"433867962","distractor":"333867962","target":"present","response":"present","rt":"1474.0999999642","correct":true,"confidence":1},{"trial_n":36,"span":9,"encoder":"331057492","distractor":"311057492","target":"absent","response":"present","rt":"1920","correct":false,"confidence":1},{"trial_n":37,"span":8,"encoder":"48995251","distractor":"48595251","target":"absent","response":"absent","rt":"3236.8000000119","correct":true,"confidence":5},{"trial_n":38,"span":8,"encoder":"67799880","distractor":"67799870","target":"absent","response":"present","rt":"2180.3999999762","correct":false,"confidence":5},{"trial_n":39,"span":7,"encoder":"0226153","distractor":"9226153","target":"present","response":"present","rt":"2548.2999999523","correct":true,"confidence":5},{"trial_n":40,"span":7,"encoder":"1526804","distractor":"1526834","target":"present","response":"present","rt":"2884.8000000119","correct":true,"confidence":1},{"trial_n":41,"span":8,"encoder":"92810090","distractor":"12810090","target":"absent","response":"absent","rt":"2330.8000000119","correct":true,"confidence":1},{"trial_n":42,"span":8,"encoder":"73140393","distractor":"73160393","target":"absent","response":"present","rt":"3502.2000000477","correct":false,"confidence":4},{"trial_n":43,"span":7,"encoder":"3571816","distractor":"3171816","target":"absent","response":"absent","rt":"44309.899999976","correct":true,"confidence":1},{"trial_n":44,"span":7,"encoder":"2858644","distractor":"2858944","target":"absent","response":"absent","rt":"2939.4000000358","correct":true,"confidence":5},{"trial_n":45,"span":8,"encoder":"43991803","distractor":"43993803","target":"present","response":"present","rt":"2277.6999999881","correct":true,"confidence":3},{"trial_n":46,"span":8,"encoder":"98637613","distractor":"91637613","target":"absent","response":"present","rt":"4562.6999999881","correct":false,"confidence":1},{"trial_n":47,"span":7,"encoder":"0178223","distractor":"0174223","target":"absent","response":"absent","rt":"1413.5","correct":true,"confidence":5},{"trial_n":48,"span":7,"encoder":"7510700","distractor":"7510790","target":"absent","response":"present","rt":"6769.3000000119","correct":false,"confidence":1},{"trial_n":49,"span":6,"encoder":"273773","distractor":"273873","target":"absent","response":"absent","rt":"2632.6999999881","correct":true,"confidence":1},{"trial_n":50,"span":6,"encoder":"249230","distractor":"249330","target":"present","response":"present","rt":"2623.8999999762","correct":true,"confidence":5},{"trial_n":51,"span":7,"encoder":"2171579","distractor":"2171979","target":"present","response":"present","rt":"1890.1999999881","correct":true,"confidence":5},{"trial_n":52,"span":7,"encoder":"3777511","distractor":"3777531","target":"absent","response":"absent","rt":"1554.3999999762","correct":true,"confidence":5},{"trial_n":53,"span":8,"encoder":"09507097","distractor":"09507067","target":"present","response":"absent","rt":"3397.5","correct":false,"confidence":1},{"trial_n":54,"span":7,"encoder":"0139216","distractor":"0139214","target":"present","response":"present","rt":"1935.1999999881","correct":true,"confidence":5},{"trial_n":55,"span":7,"encoder":"3174407","distractor":"3172407","target":"absent","response":"absent","rt":"1554.1999999881","correct":true,"confidence":5},{"trial_n":56,"span":8,"encoder":"37026663","distractor":"17026663","target":"present","response":"present","rt":"2255","correct":true,"confidence":3},{"trial_n":57,"span":8,"encoder":"21671055","distractor":"31671055","target":"present","response":"present","rt":"1671","correct":true,"confidence":5},{"trial_n":58,"span":9,"encoder":"221548587","distractor":"222548587","target":"present","response":"present","rt":"2843.6000000238","correct":true,"confidence":3},{"trial_n":59,"span":9,"encoder":"923315281","distractor":"923315291","target":"absent","response":"absent","rt":"5228.8999999762","correct":true,"confidence":1},{"trial_n":60,"span":10,"encoder":"2378332384","distractor":"7378332384","target":"present","response":"present","rt":"2656","correct":true,"confidence":4},{"trial_n":61,"span":10,"encoder":"7585385156","distractor":"7585383156","target":"present","response":"absent","rt":"3229.7000000477","correct":false,"confidence":1},{"trial_n":62,"span":9,"encoder":"638720259","distractor":"638720253","target":"present","response":"present","rt":"6866.9000000358","correct":true,"confidence":1},{"trial_n":63,"span":9,"encoder":"625501684","distractor":"625502684","target":"absent","response":"absent","rt":"13420.199999988","correct":true,"confidence":1},{"trial_n":64,"span":10,"encoder":"3678769155","distractor":"3678760155","target":"absent","response":"present","rt":"18008.600000024","correct":false,"confidence":1},{"trial_n":65,"span":9,"encoder":"430012282","distractor":"430012182","target":"present","response":"absent","rt":"1361.6999999881","correct":false,"confidence":1},{"trial_n":66,"span":8,"encoder":"31094853","distractor":"33094853","target":"present","response":"present","rt":"1450.8000000119","correct":true,"confidence":4},{"trial_n":67,"span":8,"encoder":"53945496","distractor":"53945495","target":"absent","response":"absent","rt":"2961.6999999881","correct":true,"confidence":1},{"trial_n":68,"span":9,"encoder":"751669475","distractor":"451669475","target":"present","response":"present","rt":"1243.8999999762","correct":true,"confidence":4},{"trial_n":69,"span":9,"encoder":"933573912","distractor":"931573912","target":"present","response":"absent","rt":"128615.69999999","correct":false,"confidence":1},{"trial_n":70,"span":8,"encoder":"39241200","distractor":"39240200","target":"present","response":"present","rt":"1929.2000000477","correct":true,"confidence":4},{"trial_n":71,"span":8,"encoder":"58616914","distractor":"58316914","target":"present","response":"present","rt":"3074.3000000119","correct":true,"confidence":-1},{"trial_n":72,"span":8,"encoder":"47767135","distractor":"47767133","target":"present","response":"present","rt":"1467.0999999642","correct":true,"confidence":-1},{"trial_n":73,"span":9,"encoder":"230132684","distractor":"430132684","target":"absent","response":"absent","rt":"1026.1999999881","correct":true,"confidence":-1},{"trial_n":74,"span":9,"encoder":"708211369","distractor":"704211369","target":"absent","response":"absent","rt":"1449.2000000477","correct":true,"confidence":-1},{"trial_n":75,"span":10,"encoder":"3784644011","distractor":"3784642011","target":"present","response":"present","rt":"2833.8000000119","correct":true,"confidence":-1},{"trial_n":76,"span":10,"encoder":"7792127834","distractor":"7792137834","target":"absent","response":"present","rt":"9790.1000000238","correct":false,"confidence":-1},{"trial_n":77,"span":9,"encoder":"916264377","distractor":"916364377","target":"absent","response":"absent","rt":"1786.1999999881","correct":true,"confidence":-1},{"trial_n":78,"span":9,"encoder":"819575683","distractor":"810575683","target":"absent","response":"present","rt":"2658.1999999881","correct":false,"confidence":-1},{"trial_n":79,"span":8,"encoder":"69824891","distractor":"69828891","target":"absent","response":"absent","rt":"88636.599999964","correct":true,"confidence":-1},{"trial_n":80,"span":8,"encoder":"56046254","distractor":"56016254","target":"absent","response":"present","rt":"952","correct":false,"confidence":-1},{"trial_n":81,"span":7,"encoder":"5680391","distractor":"1680391","target":"present","response":"absent","rt":"1103.3000000119","correct":false,"confidence":-1},{"trial_n":82,"span":6,"encoder":"093792","distractor":"093732","target":"absent","response":"present","rt":"1346.5999999642","correct":false,"confidence":-1},{"trial_n":83,"span":5,"encoder":"38511","distractor":"38513","target":"present","response":"present","rt":"613.79999995232","correct":true,"confidence":-1},{"trial_n":84,"span":5,"encoder":"20696","distractor":"20666","target":"present","response":"present","rt":"734.19999998808","correct":true,"confidence":-1},{"trial_n":85,"span":6,"encoder":"095725","distractor":"095525","target":"absent","response":"present","rt":"644.19999998808","correct":false,"confidence":-1},{"trial_n":86,"span":5,"encoder":"76190","distractor":"96190","target":"present","response":"present","rt":"533.69999998808","correct":true,"confidence":-1},{"trial_n":87,"span":5,"encoder":"67651","distractor":"67652","target":"present","response":"present","rt":"438.59999996424","correct":true,"confidence":-1},{"trial_n":88,"span":6,"encoder":"654876","distractor":"652876","target":"present","response":"present","rt":"577.19999998808","correct":true,"confidence":-1},{"trial_n":89,"span":6,"encoder":"552045","distractor":"552035","target":"absent","response":"present","rt":"617.40000003576","correct":false,"confidence":-1},{"trial_n":90,"span":5,"encoder":"50129","distractor":"51129","target":"absent","response":"absent","rt":"1118.2999999523","correct":true,"confidence":-1},{"trial_n":91,"span":5,"encoder":"77786","distractor":"27786","target":"absent","response":"absent","rt":"1559.8999999762","correct":true,"confidence":5},{"trial_n":92,"span":6,"encoder":"503729","distractor":"503529","target":"present","response":"present","rt":"14989.800000012","correct":true,"confidence":3},{"trial_n":93,"span":6,"encoder":"531748","distractor":"531798","target":"absent","response":"absent","rt":"9459.8000000119","correct":true,"confidence":5},{"trial_n":94,"span":7,"encoder":"9390602","distractor":"9390662","target":"present","response":"present","rt":"7655.6000000238","correct":true,"confidence":5},{"trial_n":95,"span":7,"encoder":"8680300","distractor":"8680100","target":"present","response":"present","rt":"7284.1999999881","correct":true,"confidence":1},{"trial_n":96,"span":8,"encoder":"50463183","distractor":"58463183","target":"present","response":"present","rt":"1572.1000000238","correct":true,"confidence":1},{"trial_n":97,"span":8,"encoder":"27299663","distractor":"27299665","target":"absent","response":"absent","rt":"2480","correct":true,"confidence":1},{"trial_n":98,"span":9,"encoder":"704640238","distractor":"704640234","target":"absent","response":"absent","rt":"2214.5","correct":true,"confidence":5},{"trial_n":99,"span":9,"encoder":"078236227","distractor":"078236727","target":"present","response":"present","rt":"2603.1999999881","correct":true,"confidence":5},{"trial_n":100,"span":10,"encoder":"1555736744","distractor":"1585736744","target":"present","response":"absent","rt":"5013.6999999881","correct":false,"confidence":3},{"trial_n":101,"span":9,"encoder":"814234147","distractor":"884234147","target":"present","response":"present","rt":"2365.1999999881","correct":true,"confidence":4},{"trial_n":102,"span":9,"encoder":"149180423","distractor":"149184423","target":"present","response":"present","rt":"10779.800000012","correct":true,"confidence":1},{"trial_n":103,"span":10,"encoder":"2712420455","distractor":"2712420425","target":"absent","response":"absent","rt":"1324.3999999762","correct":true,"confidence":5},{"trial_n":104,"span":10,"encoder":"3671127012","distractor":"3671127612","target":"present","response":"absent","rt":"16253.699999988","correct":false,"confidence":1},{"trial_n":105,"span":9,"encoder":"689688713","distractor":"689688773","target":"present","response":"present","rt":"10169.700000048","correct":true,"confidence":1},{"trial_n":106,"span":9,"encoder":"153290910","distractor":"163290910","target":"present","response":"absent","rt":"725.20000004768","correct":false,"confidence":1},{"trial_n":107,"span":8,"encoder":"04499441","distractor":"04492441","target":"present","response":"present","rt":"1820.6000000238","correct":true,"confidence":1},{"trial_n":108,"span":8,"encoder":"18916957","distractor":"18916987","target":"present","response":"present","rt":"559.30000001192","correct":true,"confidence":1},{"trial_n":109,"span":9,"encoder":"187246151","distractor":"187046151","target":"absent","response":"absent","rt":"8569.1000000238","correct":true,"confidence":1},{"trial_n":110,"span":9,"encoder":"624806738","distractor":"624876738","target":"present","response":"absent","rt":"41153.199999988","correct":false,"confidence":1},{"trial_n":111,"span":8,"encoder":"28497571","distractor":"20497571","target":"absent","response":"absent","rt":"1302.6999999881","correct":true,"confidence":1},{"trial_n":112,"span":8,"encoder":"73112139","distractor":"73172139","target":"absent","response":"present","rt":"533.19999998808","correct":false,"confidence":1},{"trial_n":113,"span":7,"encoder":"6845506","distractor":"6845406","target":"absent","response":"present","rt":"4581.3999999762","correct":false,"confidence":1},{"trial_n":114,"span":6,"encoder":"341113","distractor":"340113","target":"present","response":"absent","rt":"23015.5","correct":false,"confidence":1},{"trial_n":115,"span":5,"encoder":"38472","distractor":"38479","target":"present","response":"absent","rt":"20940.699999988","correct":false,"confidence":1},{"trial_n":116,"span":4,"encoder":"4090","distractor":"4080","target":"absent","response":"present","rt":"914","correct":false,"confidence":1},{"trial_n":117,"span":3,"encoder":"898","distractor":"899","target":"absent","response":"absent","rt":"1391.3000000119","correct":true,"confidence":1},{"trial_n":118,"span":3,"encoder":"997","distractor":"497","target":"absent","response":"absent","rt":"823.30000001192","correct":true,"confidence":5},{"trial_n":119,"span":4,"encoder":"7783","distractor":"3783","target":"present","response":"present","rt":"1982.5","correct":true,"confidence":5},{"trial_n":120,"span":4,"encoder":"3453","distractor":"3459","target":"present","response":"present","rt":"1035.6999999881","correct":true,"confidence":5},{"trial_n":121,"span":5,"encoder":"40473","distractor":"70473","target":"present","response":"present","rt":"1252.6999999881","correct":true,"confidence":5},{"trial_n":122,"span":5,"encoder":"27960","distractor":"27560","target":"absent","response":"absent","rt":"1500.5","correct":true,"confidence":5},{"trial_n":123,"span":6,"encoder":"011815","distractor":"411815","target":"absent","response":"absent","rt":"1141.4000000358","correct":true,"confidence":5},{"trial_n":124,"span":6,"encoder":"762004","distractor":"762804","target":"present","response":"present","rt":"2650.3000000119","correct":true,"confidence":5},{"trial_n":125,"span":7,"encoder":"9576681","distractor":"9572681","target":"absent","response":"absent","rt":"1581.5","correct":true,"confidence":1},{"trial_n":126,"span":7,"encoder":"1055279","distractor":"1855279","target":"present","response":"absent","rt":"5115.6999999881","correct":false,"confidence":1},{"trial_n":127,"span":6,"encoder":"612035","distractor":"612037","target":"present","response":"present","rt":"2722.3999999762","correct":true,"confidence":1},{"trial_n":128,"span":6,"encoder":"583432","distractor":"583439","target":"present","response":"present","rt":"2094","correct":true,"confidence":1},{"trial_n":129,"span":7,"encoder":"1561520","distractor":"0561520","target":"present","response":"present","rt":"2596.9000000358","correct":true,"confidence":5},{"trial_n":130,"span":7,"encoder":"7969539","distractor":"7960539","target":"absent","response":"present","rt":"2149","correct":false,"confidence":5},{"trial_n":131,"span":6,"encoder":"143266","distractor":"147266","target":"absent","response":"absent","rt":"2501.3000000119","correct":true,"confidence":5},{"trial_n":132,"span":6,"encoder":"005638","distractor":"005639","target":"present","response":"present","rt":"2342.1000000238","correct":true,"confidence":5},{"trial_n":133,"span":7,"encoder":"7056672","distractor":"7056372","target":"absent","response":"absent","rt":"2902.3000000119","correct":true,"confidence":5},{"trial_n":134,"span":7,"encoder":"3503376","distractor":"3503377","target":"absent","response":"present","rt":"1086.7000000477","correct":false,"confidence":1},{"trial_n":135,"span":6,"encoder":"680382","distractor":"686382","target":"absent","response":"absent","rt":"1495","correct":true,"confidence":5},{"trial_n":136,"span":6,"encoder":"033486","distractor":"033586","target":"present","response":"present","rt":"1744.2000000477","correct":true,"confidence":5},{"trial_n":137,"span":7,"encoder":"1759784","distractor":"1729784","target":"present","response":"present","rt":"1331","correct":true,"confidence":5},{"trial_n":138,"span":7,"encoder":"2340116","distractor":"5340116","target":"absent","response":"present","rt":"1025.4000000358","correct":false,"confidence":5},{"trial_n":139,"span":6,"encoder":"358277","distractor":"358257","target":"absent","response":"absent","rt":"2145.3999999762","correct":true,"confidence":5},{"trial_n":140,"span":6,"encoder":"826419","distractor":"822419","target":"absent","response":"absent","rt":"1337.1999999881","correct":true,"confidence":5}]