[{"trial_n":1,"span":8,"encoder":"95600845","distractor":"95200845","target":"present","response":"present","rt":"7557.8999998569","correct":true,"confidence":-1},{"trial_n":2,"span":8,"encoder":"27237100","distractor":"27237190","target":"present","response":"present","rt":"743.29999995232","correct":true,"confidence":-1},{"trial_n":3,"span":10,"encoder":"9979364660","distractor":"9079364660","target":"absent","response":"present","rt":"2036.5999999046","correct":false,"confidence":-1},{"trial_n":4,"span":8,"encoder":"73169577","distractor":"73269577","target":"absent","response":"present","rt":"846.29999995232","correct":false,"confidence":-1},{"trial_n":5,"span":6,"encoder":"408558","distractor":"408553","target":"present","response":"present","rt":"752","correct":true,"confidence":-1},{"trial_n":6,"span":6,"encoder":"276169","distractor":"976169","target":"present","response":"present","rt":"767.60000014305","correct":true,"confidence":-1},{"trial_n":7,"span":8,"encoder":"60863789","distractor":"60863589","target":"absent","response":"absent","rt":"934.09999990463","correct":true,"confidence":-1},{"trial_n":8,"span":8,"encoder":"94589015","distractor":"94589005","target":"absent","response":"absent","rt":"1302.8000001907","correct":true,"confidence":-1},{"trial_n":9,"span":10,"encoder":"6263565801","distractor":"6263665801","target":"present","response":"present","rt":"914.20000004768","correct":true,"confidence":-1},{"trial_n":10,"span":10,"encoder":"4386159206","distractor":"4385159206","target":"absent","response":"absent","rt":"1472.2999999523","correct":true,"confidence":-1},{"trial_n":11,"span":12,"encoder":"262284662726","distractor":"262284662736","target":"absent","response":"absent","rt":"1028.7000000477","correct":true,"confidence":-1},{"trial_n":12,"span":12,"encoder":"310332863235","distractor":"370332863235","target":"present","response":"absent","rt":"1126","correct":false,"confidence":-1},{"trial_n":13,"span":11,"encoder":"48120796087","distractor":"48120796007","target":"absent","response":"present","rt":"610.60000014305","correct":false,"confidence":-1},{"trial_n":14,"span":10,"encoder":"2770309208","distractor":"2370309208","target":"absent","response":"absent","rt":"986.29999995232","correct":true,"confidence":-1},{"trial_n":15,"span":10,"encoder":"7496649760","distractor":"7497649760","target":"present","response":"present","rt":"3371.7999999523","correct":true,"confidence":-1},{"trial_n":16,"span":11,"encoder":"34781984906","distractor":"34781987906","target":"present","response":"present","rt":"4766.2999999523","correct":true,"confidence":-1},{"trial_n":17,"span":11,"encoder":"30175523001","distractor":"30175623001","target":"present","response":"present","rt":"877.5","correct":true,"confidence":-1},{"trial_n":18,"span":12,"encoder":"061533733538","distractor":"061533733598","target":"present","response":"absent","rt":"971","correct":false,"confidence":-1},{"trial_n":19,"span":11,"encoder":"46070157434","distractor":"47070157434","target":"present","response":"present","rt":"742.5","correct":true,"confidence":-1},{"trial_n":20,"span":11,"encoder":"50303521030","distractor":"50307521030","target":"present","response":"present","rt":"1137.5","correct":true,"confidence":-1},{"trial_n":21,"span":12,"encoder":"243474035245","distractor":"244474035245","target":"present","response":"present","rt":"706.09999990463","correct":true,"confidence":1},{"trial_n":22,"span":12,"encoder":"444986715764","distractor":"443986715764","target":"present","response":"present","rt":"868.70000004768","correct":true,"confidence":3},{"trial_n":23,"span":13,"encoder":"4662739576708","distractor":"4862739576708","target":"absent","response":"absent","rt":"1692.0999999046","correct":true,"confidence":2},{"trial_n":24,"span":13,"encoder":"8552609067623","distractor":"8557609067623","target":"present","response":"present","rt":"844.29999995232","correct":true,"confidence":4},{"trial_n":25,"span":14,"encoder":"90295796035847","distractor":"90295791035847","target":"present","response":"present","rt":"1627.7000000477","correct":true,"confidence":3},{"trial_n":26,"span":14,"encoder":"73429680749981","distractor":"73429680789981","target":"absent","response":"present","rt":"1412.9000000954","correct":false,"confidence":4},{"trial_n":27,"span":13,"encoder":"4190351373357","distractor":"4190350373357","target":"absent","response":"present","rt":"867.5","correct":false,"confidence":1},{"trial_n":28,"span":12,"encoder":"065074642969","distractor":"065074642939","target":"absent","response":"absent","rt":"1802.9000000954","correct":true,"confidence":1},{"trial_n":29,"span":12,"encoder":"739936150981","distractor":"736936150981","target":"present","response":"present","rt":"1176.6000001431","correct":true,"confidence":1},{"trial_n":30,"span":13,"encoder":"7332292883707","distractor":"7332290883707","target":"present","response":"present","rt":"2156.2000000477","correct":true,"confidence":3},{"trial_n":31,"span":13,"encoder":"7274924034333","distractor":"7274924044333","target":"absent","response":"present","rt":"912.40000009537","correct":false,"confidence":1},{"trial_n":32,"span":12,"encoder":"657789691571","distractor":"657789671571","target":"absent","response":"absent","rt":"2621.0999999046","correct":true,"confidence":1},{"trial_n":33,"span":12,"encoder":"863538790896","distractor":"863438790896","target":"absent","response":"present","rt":"1336.3999998569","correct":false,"confidence":3},{"trial_n":34,"span":11,"encoder":"50158723242","distractor":"50153723242","target":"present","response":"absent","rt":"2604.7999999523","correct":false,"confidence":1},{"trial_n":35,"span":10,"encoder":"5667608488","distractor":"5667608478","target":"absent","response":"absent","rt":"3255.7000000477","correct":true,"confidence":5},{"trial_n":36,"span":10,"encoder":"2520265025","distractor":"2820265025","target":"absent","response":"present","rt":"1761.1000001431","correct":false,"confidence":3},{"trial_n":37,"span":9,"encoder":"351539121","distractor":"371539121","target":"present","response":"absent","rt":"1292.7000000477","correct":false,"confidence":1},{"trial_n":38,"span":8,"encoder":"74907141","distractor":"74907641","target":"present","response":"absent","rt":"5958.7999999523","correct":false,"confidence":1},{"trial_n":39,"span":7,"encoder":"3883656","distractor":"3853656","target":"present","response":"absent","rt":"4695.7000000477","correct":false,"confidence":1},{"trial_n":40,"span":6,"encoder":"601789","distractor":"611789","target":"present","response":"present","rt":"1560.8999998569","correct":true,"confidence":3},{"trial_n":41,"span":6,"encoder":"288354","distractor":"288364","target":"absent","response":"absent","rt":"1914.1000001431","correct":true,"confidence":1},{"trial_n":42,"span":7,"encoder":"2522385","distractor":"0522385","target":"absent","response":"present","rt":"1920.5999999046","correct":false,"confidence":5},{"trial_n":43,"span":6,"encoder":"350881","distractor":"250881","target":"present","response":"present","rt":"1655.0999999046","correct":true,"confidence":5},{"trial_n":44,"span":6,"encoder":"388839","distractor":"388829","target":"present","response":"present","rt":"1677.2000000477","correct":true,"confidence":3},{"trial_n":45,"span":7,"encoder":"4090015","distractor":"2090015","target":"absent","response":"absent","rt":"1850.1000001431","correct":true,"confidence":5},{"trial_n":46,"span":7,"encoder":"8783570","distractor":"8783530","target":"present","response":"present","rt":"2305.5999999046","correct":true,"confidence":4},{"trial_n":47,"span":8,"encoder":"06367937","distractor":"06167937","target":"present","response":"absent","rt":"1612.7999999523","correct":false,"confidence":3},{"trial_n":48,"span":7,"encoder":"4312803","distractor":"4312203","target":"present","response":"absent","rt":"4711.6999998093","correct":false,"confidence":3},{"trial_n":49,"span":6,"encoder":"985620","distractor":"685620","target":"absent","response":"present","rt":"1527","correct":false,"confidence":2},{"trial_n":50,"span":5,"encoder":"20080","distractor":"00080","target":"absent","response":"absent","rt":"2041.7000000477","correct":true,"confidence":1},{"trial_n":51,"span":5,"encoder":"48579","distractor":"48576","target":"present","response":"present","rt":"1302","correct":true,"confidence":4},{"trial_n":52,"span":6,"encoder":"339046","distractor":"399046","target":"absent","response":"present","rt":"1544","correct":false,"confidence":4},{"trial_n":53,"span":5,"encoder":"18634","distractor":"18635","target":"present","response":"present","rt":"1514.7000000477","correct":true,"confidence":4},{"trial_n":54,"span":5,"encoder":"94495","distractor":"94493","target":"present","response":"present","rt":"1032.7000000477","correct":true,"confidence":5},{"trial_n":55,"span":6,"encoder":"723720","distractor":"727720","target":"present","response":"present","rt":"1441.7000000477","correct":true,"confidence":5},{"trial_n":56,"span":6,"encoder":"790718","distractor":"490718","target":"present","response":"absent","rt":"1810.7000000477","correct":false,"confidence":3},{"trial_n":57,"span":5,"encoder":"27225","distractor":"77225","target":"present","response":"present","rt":"1082.2999999523","correct":true,"confidence":4},{"trial_n":58,"span":5,"encoder":"32326","distractor":"31326","target":"absent","response":"absent","rt":"2071.7000000477","correct":true,"confidence":4},{"trial_n":59,"span":6,"encoder":"414548","distractor":"414543","target":"present","response":"present","rt":"3016.7999999523","correct":true,"confidence":3},{"trial_n":60,"span":6,"encoder":"250636","distractor":"250536","target":"absent","response":"absent","rt":"3188.4000000954","correct":true,"confidence":3},{"trial_n":61,"span":7,"encoder":"6435998","distractor":"6335998","target":"present","response":"present","rt":"1485.3999998569","correct":true,"confidence":4},{"trial_n":62,"span":7,"encoder":"0353549","distractor":"0333549","target":"absent","response":"absent","rt":"1854.1999998093","correct":true,"confidence":3},{"trial_n":63,"span":8,"encoder":"08397226","distractor":"98397226","target":"absent","response":"absent","rt":"1565.2999999523","correct":true,"confidence":1},{"trial_n":64,"span":8,"encoder":"14963112","distractor":"14963212","target":"absent","response":"absent","rt":"1506.2000000477","correct":true,"confidence":3},{"trial_n":65,"span":9,"encoder":"227572732","distractor":"287572732","target":"absent","response":"present","rt":"2819.7999999523","correct":false,"confidence":3},{"trial_n":66,"span":8,"encoder":"76685176","distractor":"16685176","target":"absent","response":"absent","rt":"7357.7999999523","correct":true,"confidence":1},{"trial_n":67,"span":8,"encoder":"53341859","distractor":"53349859","target":"absent","response":"absent","rt":"1937","correct":true,"confidence":5},{"trial_n":68,"span":9,"encoder":"653905222","distractor":"653905225","target":"absent","response":"absent","rt":"1459.8000001907","correct":true,"confidence":4},{"trial_n":69,"span":9,"encoder":"171984743","distractor":"171914743","target":"absent","response":"absent","rt":"2762.6000001431","correct":true,"confidence":2},{"trial_n":70,"span":10,"encoder":"8303715155","distractor":"8305715155","target":"absent","response":"present","rt":"1371.7000000477","correct":false,"confidence":3},{"trial_n":71,"span":8,"encoder":"08946813","distractor":"08946817","target":"present","response":"present","rt":"2457.7000000477","correct":true,"confidence":-1},{"trial_n":72,"span":8,"encoder":"18273278","distractor":"17273278","target":"present","response":"absent","rt":"1269","correct":false,"confidence":-1},{"trial_n":73,"span":7,"encoder":"4762639","distractor":"4762631","target":"absent","response":"present","rt":"938.5","correct":false,"confidence":-1},{"trial_n":74,"span":6,"encoder":"792740","distractor":"702740","target":"absent","response":"absent","rt":"1481.2000000477","correct":true,"confidence":-1},{"trial_n":75,"span":6,"encoder":"833913","distractor":"833713","target":"present","response":"present","rt":"1032.1000001431","correct":true,"confidence":-1},{"trial_n":76,"span":7,"encoder":"9457975","distractor":"9457985","target":"present","response":"present","rt":"1398.0999999046","correct":true,"confidence":-1},{"trial_n":77,"span":7,"encoder":"9296346","distractor":"9299346","target":"absent","response":"absent","rt":"1005.2000000477","correct":true,"confidence":-1},{"trial_n":78,"span":8,"encoder":"04572501","distractor":"04572571","target":"present","response":"present","rt":"1607.7000000477","correct":true,"confidence":-1},{"trial_n":79,"span":8,"encoder":"31335135","distractor":"31435135","target":"present","response":"present","rt":"2617.8999998569","correct":true,"confidence":-1},{"trial_n":80,"span":9,"encoder":"659441930","distractor":"659441630","target":"present","response":"present","rt":"2064.5","correct":true,"confidence":-1},{"trial_n":81,"span":9,"encoder":"296124934","distractor":"296121934","target":"absent","response":"absent","rt":"1956.5999999046","correct":true,"confidence":-1},{"trial_n":82,"span":10,"encoder":"4629760286","distractor":"4629760586","target":"absent","response":"present","rt":"1159.8999998569","correct":false,"confidence":-1},{"trial_n":83,"span":9,"encoder":"318164674","distractor":"312164674","target":"present","response":"absent","rt":"629.20000004768","correct":false,"confidence":-1},{"trial_n":84,"span":8,"encoder":"35258800","distractor":"35256800","target":"present","response":"present","rt":"1960.1999998093","correct":true,"confidence":-1},{"trial_n":85,"span":8,"encoder":"67115589","distractor":"67115789","target":"present","response":"present","rt":"1789.7999999523","correct":true,"confidence":-1},{"trial_n":86,"span":9,"encoder":"864028058","distractor":"964028058","target":"absent","response":"present","rt":"1971.0999999046","correct":false,"confidence":-1},{"trial_n":87,"span":8,"encoder":"29887223","distractor":"29887243","target":"present","response":"present","rt":"927.5","correct":true,"confidence":-1},{"trial_n":88,"span":8,"encoder":"08962835","distractor":"08962535","target":"absent","response":"present","rt":"931","correct":false,"confidence":-1},{"trial_n":89,"span":7,"encoder":"1074638","distractor":"1074648","target":"present","response":"absent","rt":"438","correct":false,"confidence":-1},{"trial_n":90,"span":6,"encoder":"751624","distractor":"751664","target":"absent","response":"absent","rt":"1266.6999998093","correct":true,"confidence":-1},{"trial_n":91,"span":6,"encoder":"022335","distractor":"022035","target":"present","response":"present","rt":"1671.4000000954","correct":true,"confidence":4},{"trial_n":92,"span":7,"encoder":"9196495","distractor":"3196495","target":"present","response":"present","rt":"26127.700000048","correct":true,"confidence":1},{"trial_n":93,"span":7,"encoder":"8055112","distractor":"8055172","target":"absent","response":"absent","rt":"1335","correct":true,"confidence":5},{"trial_n":94,"span":8,"encoder":"97921083","distractor":"27921083","target":"present","response":"absent","rt":"3404.5999999046","correct":false,"confidence":1},{"trial_n":95,"span":7,"encoder":"9309162","distractor":"9309562","target":"absent","response":"absent","rt":"1720.3999998569","correct":true,"confidence":4},{"trial_n":96,"span":7,"encoder":"9724404","distractor":"9724464","target":"present","response":"present","rt":"1917.8999998569","correct":true,"confidence":4},{"trial_n":97,"span":8,"encoder":"79045136","distractor":"79045130","target":"absent","response":"absent","rt":"1421.7000000477","correct":true,"confidence":3},{"trial_n":98,"span":8,"encoder":"27284774","distractor":"27287774","target":"absent","response":"absent","rt":"1904.7999999523","correct":true,"confidence":3},{"trial_n":99,"span":9,"encoder":"299552521","distractor":"299552524","target":"present","response":"present","rt":"1652.6999998093","correct":true,"confidence":3},{"trial_n":100,"span":9,"encoder":"455376463","distractor":"455346463","target":"present","response":"absent","rt":"3340.2999999523","correct":false,"confidence":1},{"trial_n":101,"span":8,"encoder":"94194627","distractor":"98194627","target":"present","response":"absent","rt":"2064.1000001431","correct":false,"confidence":1},{"trial_n":102,"span":7,"encoder":"3201837","distractor":"3291837","target":"absent","response":"absent","rt":"6324.2000000477","correct":true,"confidence":1},{"trial_n":103,"span":7,"encoder":"1095376","distractor":"1091376","target":"absent","response":"absent","rt":"3174.6000001431","correct":true,"confidence":1},{"trial_n":104,"span":8,"encoder":"57768712","distractor":"67768712","target":"absent","response":"absent","rt":"1853.6000001431","correct":true,"confidence":1},{"trial_n":105,"span":8,"encoder":"07382856","distractor":"07386856","target":"absent","response":"absent","rt":"1735.5999999046","correct":true,"confidence":4},{"trial_n":106,"span":9,"encoder":"741811877","distractor":"751811877","target":"present","response":"absent","rt":"1805.3000001907","correct":false,"confidence":1},{"trial_n":107,"span":8,"encoder":"28648824","distractor":"29648824","target":"present","response":"absent","rt":"1756.8999998569","correct":false,"confidence":1},{"trial_n":108,"span":7,"encoder":"6480470","distractor":"6480474","target":"absent","response":"absent","rt":"1591.2000000477","correct":true,"confidence":3},{"trial_n":109,"span":7,"encoder":"6586210","distractor":"5586210","target":"absent","response":"absent","rt":"1037.8000001907","correct":true,"confidence":1},{"trial_n":110,"span":8,"encoder":"91981534","distractor":"91981544","target":"absent","response":"absent","rt":"2090.9000000954","correct":true,"confidence":4},{"trial_n":111,"span":8,"encoder":"85478050","distractor":"85378050","target":"present","response":"absent","rt":"2120.7999999523","correct":false,"confidence":3},{"trial_n":112,"span":7,"encoder":"9146801","distractor":"9196801","target":"absent","response":"present","rt":"3545.2999999523","correct":false,"confidence":2},{"trial_n":113,"span":6,"encoder":"987346","distractor":"287346","target":"absent","response":"absent","rt":"1857.2999999523","correct":true,"confidence":1},{"trial_n":114,"span":6,"encoder":"924508","distractor":"944508","target":"absent","response":"absent","rt":"2253.5","correct":true,"confidence":3},{"trial_n":115,"span":7,"encoder":"0436854","distractor":"0436814","target":"present","response":"present","rt":"6162.2000000477","correct":true,"confidence":1},{"trial_n":116,"span":7,"encoder":"9532197","distractor":"9532190","target":"absent","response":"absent","rt":"1552.5999999046","correct":true,"confidence":5},{"trial_n":117,"span":8,"encoder":"00224643","distractor":"00223643","target":"present","response":"absent","rt":"3369.7999999523","correct":false,"confidence":1},{"trial_n":118,"span":7,"encoder":"1148115","distractor":"9148115","target":"present","response":"present","rt":"3864.2999999523","correct":true,"confidence":3},{"trial_n":119,"span":7,"encoder":"4025511","distractor":"4045511","target":"absent","response":"absent","rt":"1735.2999999523","correct":true,"confidence":1},{"trial_n":120,"span":8,"encoder":"87269865","distractor":"87219865","target":"absent","response":"absent","rt":"1230.2000000477","correct":true,"confidence":1},{"trial_n":121,"span":8,"encoder":"32215630","distractor":"35215630","target":"present","response":"present","rt":"2620.1000001431","correct":true,"confidence":4},{"trial_n":122,"span":9,"encoder":"964888379","distractor":"904888379","target":"present","response":"absent","rt":"3306.2000000477","correct":false,"confidence":2},{"trial_n":123,"span":8,"encoder":"14960541","distractor":"74960541","target":"absent","response":"absent","rt":"878.70000004768","correct":true,"confidence":1},{"trial_n":124,"span":8,"encoder":"86314818","distractor":"86374818","target":"absent","response":"present","rt":"1419.7000000477","correct":false,"confidence":1},{"trial_n":125,"span":7,"encoder":"9452272","distractor":"5452272","target":"present","response":"present","rt":"2113.7999999523","correct":true,"confidence":1},{"trial_n":126,"span":7,"encoder":"3727991","distractor":"3787991","target":"absent","response":"absent","rt":"2316.2999999523","correct":true,"confidence":1},{"trial_n":127,"span":8,"encoder":"34495204","distractor":"34495704","target":"absent","response":"absent","rt":"2107.7999999523","correct":true,"confidence":3},{"trial_n":128,"span":8,"encoder":"25043613","distractor":"25093613","target":"present","response":"present","rt":"3684.5","correct":true,"confidence":3},{"trial_n":129,"span":9,"encoder":"388561143","distractor":"388561142","target":"present","response":"present","rt":"2448.9000000954","correct":true,"confidence":5},{"trial_n":130,"span":9,"encoder":"985852165","distractor":"965852165","target":"present","response":"absent","rt":"1674.2999999523","correct":false,"confidence":1},{"trial_n":131,"span":8,"encoder":"97040537","distractor":"97040937","target":"present","response":"present","rt":"1901.5999999046","correct":true,"confidence":4},{"trial_n":132,"span":8,"encoder":"22939774","distractor":"22935774","target":"absent","response":"present","rt":"2316.6000001431","correct":false,"confidence":2},{"trial_n":133,"span":7,"encoder":"0807179","distractor":"0807176","target":"present","response":"present","rt":"1923.4000000954","correct":true,"confidence":5},{"trial_n":134,"span":7,"encoder":"1269919","distractor":"1569919","target":"present","response":"present","rt":"3120.2000000477","correct":true,"confidence":2},{"trial_n":135,"span":8,"encoder":"56339691","distractor":"59339691","target":"absent","response":"present","rt":"4142.5","correct":false,"confidence":2},{"trial_n":136,"span":7,"encoder":"2661779","distractor":"2601779","target":"present","response":"present","rt":"2827.2000000477","correct":true,"confidence":2},{"trial_n":137,"span":7,"encoder":"7315051","distractor":"7315056","target":"present","response":"present","rt":"1826.5999999046","correct":true,"confidence":4},{"trial_n":138,"span":8,"encoder":"01778838","distractor":"01778238","target":"absent","response":"absent","rt":"2421","correct":true,"confidence":3},{"trial_n":139,"span":8,"encoder":"43775575","distractor":"43775535","target":"absent","response":"present","rt":"3177.2000000477","correct":false,"confidence":1},{"trial_n":140,"span":7,"encoder":"2641852","distractor":"7641852","target":"absent","response":"present","rt":"3582.7000000477","correct":false,"confidence":1}]