[{"trial_n":1,"min":25,"max":230,"target":"present","response":"present","rt":16089,"correct":true,"confidence":-1},{"trial_n":2,"min":25,"max":230,"target":"present","response":"present","rt":6801,"correct":true,"confidence":-1},{"trial_n":3,"min":41,"max":214,"target":"absent","response":"absent","rt":2501,"correct":true,"confidence":-1},{"trial_n":4,"min":41,"max":214,"target":"absent","response":"absent","rt":1654,"correct":true,"confidence":-1},{"trial_n":5,"min":57,"max":198,"target":"present","response":"absent","rt":756,"correct":false,"confidence":-1},{"trial_n":6,"min":41,"max":214,"target":"absent","response":"absent","rt":1214,"correct":true,"confidence":-1},{"trial_n":7,"min":41,"max":214,"target":"absent","response":"absent","rt":552,"correct":true,"confidence":-1},{"trial_n":8,"min":57,"max":198,"target":"present","response":"absent","rt":558.99999999999,"correct":false,"confidence":-1},{"trial_n":9,"min":41,"max":214,"target":"present","response":"absent","rt":536,"correct":false,"confidence":-1},{"trial_n":10,"min":25,"max":230,"target":"absent","response":"present","rt":692,"correct":false,"confidence":-1},{"trial_n":11,"min":17,"max":238,"target":"present","response":"absent","rt":539.00000000001,"correct":false,"confidence":-1},{"trial_n":12,"min":9,"max":246,"target":"absent","response":"absent","rt":707,"correct":true,"confidence":-1},{"trial_n":13,"min":9,"max":246,"target":"absent","response":"absent","rt":486,"correct":true,"confidence":-1},{"trial_n":14,"min":17,"max":238,"target":"absent","response":"absent","rt":422,"correct":true,"confidence":-1},{"trial_n":15,"min":17,"max":238,"target":"absent","response":"absent","rt":246,"correct":true,"confidence":-1},{"trial_n":16,"min":25,"max":230,"target":"absent","response":"absent","rt":354,"correct":true,"confidence":-1},{"trial_n":17,"min":25,"max":230,"target":"present","response":"present","rt":502,"correct":true,"confidence":-1},{"trial_n":18,"min":33,"max":222,"target":"absent","response":"absent","rt":531.99999999999,"correct":true,"confidence":-1},{"trial_n":19,"min":33,"max":222,"target":"present","response":"present","rt":509,"correct":true,"confidence":-1},{"trial_n":20,"min":41,"max":214,"target":"present","response":"absent","rt":423,"correct":false,"confidence":-1},{"trial_n":21,"min":37,"max":218,"target":"absent","response":"absent","rt":1715,"correct":true,"confidence":3},{"trial_n":22,"min":37,"max":218,"target":"absent","response":"absent","rt":16221,"correct":true,"confidence":1},{"trial_n":23,"min":41,"max":214,"target":"present","response":"present","rt":1024,"correct":true,"confidence":5},{"trial_n":24,"min":41,"max":214,"target":"absent","response":"absent","rt":1265,"correct":true,"confidence":1},{"trial_n":25,"min":45,"max":210,"target":"absent","response":"present","rt":1161,"correct":false,"confidence":3},{"trial_n":26,"min":41,"max":214,"target":"absent","response":"absent","rt":2408,"correct":true,"confidence":1},{"trial_n":27,"min":41,"max":214,"target":"absent","response":"absent","rt":2349,"correct":true,"confidence":1},{"trial_n":28,"min":45,"max":210,"target":"absent","response":"absent","rt":802,"correct":true,"confidence":4},{"trial_n":29,"min":45,"max":210,"target":"present","response":"present","rt":969,"correct":true,"confidence":5},{"trial_n":30,"min":49,"max":206,"target":"present","response":"present","rt":470,"correct":true,"confidence":5},{"trial_n":31,"min":49,"max":206,"target":"present","response":"present","rt":738,"correct":true,"confidence":5},{"trial_n":32,"min":51,"max":204,"target":"present","response":"present","rt":562,"correct":true,"confidence":5},{"trial_n":33,"min":51,"max":204,"target":"absent","response":"absent","rt":543,"correct":true,"confidence":4},{"trial_n":34,"min":53,"max":202,"target":"absent","response":"absent","rt":722,"correct":true,"confidence":3},{"trial_n":35,"min":53,"max":202,"target":"absent","response":"absent","rt":511,"correct":true,"confidence":5},{"trial_n":36,"min":55,"max":200,"target":"present","response":"present","rt":430,"correct":true,"confidence":5},{"trial_n":37,"min":55,"max":200,"target":"absent","response":"absent","rt":1251,"correct":true,"confidence":1},{"trial_n":38,"min":57,"max":198,"target":"present","response":"present","rt":590,"correct":true,"confidence":5},{"trial_n":39,"min":57,"max":198,"target":"present","response":"present","rt":893,"correct":true,"confidence":3},{"trial_n":40,"min":59,"max":196,"target":"present","response":"present","rt":784,"correct":true,"confidence":4},{"trial_n":41,"min":59,"max":196,"target":"absent","response":"absent","rt":844,"correct":true,"confidence":5},{"trial_n":42,"min":60,"max":195,"target":"absent","response":"absent","rt":948,"correct":true,"confidence":4},{"trial_n":43,"min":60,"max":195,"target":"present","response":"present","rt":520.99999999997,"correct":true,"confidence":4},{"trial_n":44,"min":61,"max":194,"target":"present","response":"present","rt":551.00000000003,"correct":true,"confidence":4},{"trial_n":45,"min":61,"max":194,"target":"present","response":"present","rt":1219,"correct":true,"confidence":3},{"trial_n":46,"min":62,"max":193,"target":"present","response":"present","rt":420,"correct":true,"confidence":5},{"trial_n":47,"min":62,"max":193,"target":"present","response":"present","rt":353.00000000003,"correct":true,"confidence":5},{"trial_n":48,"min":63,"max":192,"target":"present","response":"absent","rt":693.99999999997,"correct":false,"confidence":2},{"trial_n":49,"min":62,"max":193,"target":"present","response":"absent","rt":1649,"correct":false,"confidence":1},{"trial_n":50,"min":61,"max":194,"target":"absent","response":"absent","rt":632,"correct":true,"confidence":3},{"trial_n":51,"min":61,"max":194,"target":"absent","response":"absent","rt":624,"correct":true,"confidence":2},{"trial_n":52,"min":62,"max":193,"target":"present","response":"present","rt":644.00000000003,"correct":true,"confidence":4},{"trial_n":53,"min":62,"max":193,"target":"present","response":"present","rt":681.00000000003,"correct":true,"confidence":5},{"trial_n":54,"min":63,"max":192,"target":"present","response":"absent","rt":1271,"correct":false,"confidence":1},{"trial_n":55,"min":62,"max":193,"target":"absent","response":"absent","rt":1777,"correct":true,"confidence":3},{"trial_n":56,"min":62,"max":193,"target":"present","response":"present","rt":448,"correct":true,"confidence":4},{"trial_n":57,"min":63,"max":192,"target":"present","response":"present","rt":674,"correct":true,"confidence":4},{"trial_n":58,"min":63,"max":192,"target":"absent","response":"absent","rt":900.99999999997,"correct":true,"confidence":1},{"trial_n":59,"min":64,"max":191,"target":"present","response":"present","rt":282,"correct":true,"confidence":5},{"trial_n":60,"min":64,"max":191,"target":"absent","response":"absent","rt":943.99999999997,"correct":true,"confidence":1},{"trial_n":61,"min":65,"max":190,"target":"present","response":"present","rt":566,"correct":true,"confidence":5},{"trial_n":62,"min":65,"max":190,"target":"absent","response":"absent","rt":688,"correct":true,"confidence":5},{"trial_n":63,"min":66,"max":189,"target":"absent","response":"absent","rt":743,"correct":true,"confidence":5},{"trial_n":64,"min":66,"max":189,"target":"absent","response":"absent","rt":878,"correct":true,"confidence":5},{"trial_n":65,"min":67,"max":188,"target":"absent","response":"present","rt":1720,"correct":false,"confidence":1},{"trial_n":66,"min":66,"max":189,"target":"present","response":"present","rt":571,"correct":true,"confidence":4},{"trial_n":67,"min":66,"max":189,"target":"present","response":"absent","rt":268,"correct":false,"confidence":1},{"trial_n":68,"min":65,"max":190,"target":"present","response":"present","rt":385,"correct":true,"confidence":4},{"trial_n":69,"min":65,"max":190,"target":"absent","response":"absent","rt":2183,"correct":true,"confidence":1},{"trial_n":70,"min":66,"max":189,"target":"present","response":"present","rt":1832,"correct":true,"confidence":3},{"trial_n":71,"min":41,"max":214,"target":"present","response":"present","rt":5343,"correct":true,"confidence":-1},{"trial_n":72,"min":41,"max":214,"target":"present","response":"present","rt":2413,"correct":true,"confidence":-1},{"trial_n":73,"min":57,"max":198,"target":"absent","response":"absent","rt":792.00000000006,"correct":true,"confidence":-1},{"trial_n":74,"min":57,"max":198,"target":"absent","response":"absent","rt":924,"correct":true,"confidence":-1},{"trial_n":75,"min":73,"max":182,"target":"present","response":"present","rt":748,"correct":true,"confidence":-1},{"trial_n":76,"min":73,"max":182,"target":"absent","response":"absent","rt":917.99999999994,"correct":true,"confidence":-1},{"trial_n":77,"min":89,"max":166,"target":"absent","response":"absent","rt":734,"correct":true,"confidence":-1},{"trial_n":78,"min":89,"max":166,"target":"absent","response":"absent","rt":451,"correct":true,"confidence":-1},{"trial_n":79,"min":105,"max":150,"target":"absent","response":"absent","rt":504,"correct":true,"confidence":-1},{"trial_n":80,"min":105,"max":150,"target":"present","response":"present","rt":700,"correct":true,"confidence":-1},{"trial_n":81,"min":113,"max":142,"target":"present","response":"present","rt":939,"correct":true,"confidence":-1},{"trial_n":82,"min":113,"max":142,"target":"present","response":"present","rt":528,"correct":true,"confidence":-1},{"trial_n":83,"min":121,"max":134,"target":"present","response":"absent","rt":526,"correct":false,"confidence":-1},{"trial_n":84,"min":121,"max":134,"target":"present","response":"present","rt":873,"correct":true,"confidence":-1},{"trial_n":85,"min":121,"max":134,"target":"absent","response":"present","rt":12290,"correct":false,"confidence":-1},{"trial_n":86,"min":121,"max":134,"target":"present","response":"absent","rt":529,"correct":false,"confidence":-1},{"trial_n":87,"min":121,"max":134,"target":"present","response":"present","rt":869,"correct":true,"confidence":-1},{"trial_n":88,"min":121,"max":134,"target":"present","response":"present","rt":696.00000000006,"correct":true,"confidence":-1},{"trial_n":89,"min":121,"max":134,"target":"present","response":"absent","rt":835,"correct":false,"confidence":-1},{"trial_n":90,"min":121,"max":134,"target":"absent","response":"present","rt":557,"correct":false,"confidence":-1},{"trial_n":91,"min":117,"max":138,"target":"present","response":"absent","rt":722,"correct":false,"confidence":3},{"trial_n":92,"min":113,"max":142,"target":"present","response":"present","rt":1195,"correct":true,"confidence":1},{"trial_n":93,"min":113,"max":142,"target":"absent","response":"absent","rt":1205,"correct":true,"confidence":2},{"trial_n":94,"min":117,"max":138,"target":"absent","response":"absent","rt":1608,"correct":true,"confidence":1},{"trial_n":95,"min":117,"max":138,"target":"present","response":"present","rt":879,"correct":true,"confidence":1},{"trial_n":96,"min":121,"max":134,"target":"absent","response":"absent","rt":1133.9999999999,"correct":true,"confidence":1},{"trial_n":97,"min":121,"max":134,"target":"absent","response":"absent","rt":755.99999999988,"correct":true,"confidence":3},{"trial_n":98,"min":125,"max":130,"target":"absent","response":"absent","rt":2197,"correct":true,"confidence":2},{"trial_n":99,"min":125,"max":130,"target":"absent","response":"absent","rt":2038,"correct":true,"confidence":4},{"trial_n":100,"min":125,"max":130,"target":"present","response":"present","rt":865,"correct":true,"confidence":1},{"trial_n":101,"min":125,"max":130,"target":"present","response":"absent","rt":1658,"correct":false,"confidence":4},{"trial_n":102,"min":125,"max":130,"target":"absent","response":"present","rt":1151,"correct":false,"confidence":1},{"trial_n":103,"min":125,"max":130,"target":"present","response":"present","rt":906.99999999988,"correct":true,"confidence":1},{"trial_n":104,"min":125,"max":130,"target":"absent","response":"absent","rt":691,"correct":true,"confidence":3},{"trial_n":105,"min":125,"max":130,"target":"present","response":"absent","rt":3788.0000000001,"correct":false,"confidence":1},{"trial_n":106,"min":125,"max":130,"target":"absent","response":"absent","rt":1125,"correct":true,"confidence":5},{"trial_n":107,"min":125,"max":130,"target":"absent","response":"absent","rt":1671.0000000001,"correct":true,"confidence":4},{"trial_n":108,"min":125,"max":130,"target":"present","response":"absent","rt":1130.9999999998,"correct":false,"confidence":3},{"trial_n":109,"min":125,"max":130,"target":"absent","response":"present","rt":552.99999999988,"correct":false,"confidence":3},{"trial_n":110,"min":125,"max":130,"target":"present","response":"absent","rt":583,"correct":false,"confidence":4},{"trial_n":111,"min":124,"max":131,"target":"present","response":"present","rt":984.00000000023,"correct":true,"confidence":3},{"trial_n":112,"min":124,"max":131,"target":"present","response":"absent","rt":517,"correct":false,"confidence":4},{"trial_n":113,"min":123,"max":132,"target":"absent","response":"absent","rt":1108.9999999998,"correct":true,"confidence":5},{"trial_n":114,"min":123,"max":132,"target":"absent","response":"absent","rt":787,"correct":true,"confidence":5},{"trial_n":115,"min":124,"max":131,"target":"absent","response":"absent","rt":908,"correct":true,"confidence":5},{"trial_n":116,"min":124,"max":131,"target":"present","response":"present","rt":1601.0000000002,"correct":true,"confidence":5},{"trial_n":117,"min":125,"max":130,"target":"present","response":"present","rt":1152,"correct":true,"confidence":3},{"trial_n":118,"min":125,"max":130,"target":"present","response":"present","rt":657.00000000023,"correct":true,"confidence":5},{"trial_n":119,"min":126,"max":128,"target":"present","response":"present","rt":764,"correct":true,"confidence":5},{"trial_n":120,"min":126,"max":128,"target":"absent","response":"absent","rt":834,"correct":true,"confidence":5},{"trial_n":121,"min":126,"max":128,"target":"absent","response":"absent","rt":835,"correct":true,"confidence":4},{"trial_n":122,"min":126,"max":128,"target":"absent","response":"absent","rt":943,"correct":true,"confidence":5},{"trial_n":123,"min":126,"max":128,"target":"present","response":"present","rt":783.99999999977,"correct":true,"confidence":5},{"trial_n":124,"min":126,"max":128,"target":"present","response":"present","rt":1456,"correct":true,"confidence":3},{"trial_n":125,"min":126,"max":128,"target":"absent","response":"absent","rt":998,"correct":true,"confidence":2},{"trial_n":126,"min":126,"max":128,"target":"present","response":"present","rt":664,"correct":true,"confidence":5},{"trial_n":127,"min":126,"max":128,"target":"present","response":"present","rt":1122,"correct":true,"confidence":4},{"trial_n":128,"min":126,"max":128,"target":"present","response":"present","rt":1252,"correct":true,"confidence":5},{"trial_n":129,"min":126,"max":128,"target":"present","response":"present","rt":759.99999999977,"correct":true,"confidence":4},{"trial_n":130,"min":126,"max":128,"target":"present","response":"present","rt":954,"correct":true,"confidence":5},{"trial_n":131,"min":126,"max":128,"target":"present","response":"present","rt":524,"correct":true,"confidence":5},{"trial_n":132,"min":126,"max":128,"target":"present","response":"present","rt":430,"correct":true,"confidence":5},{"trial_n":133,"min":126,"max":128,"target":"absent","response":"absent","rt":655,"correct":true,"confidence":5},{"trial_n":134,"min":126,"max":128,"target":"absent","response":"absent","rt":955,"correct":true,"confidence":4},{"trial_n":135,"min":126,"max":128,"target":"absent","response":"present","rt":1598,"correct":false,"confidence":2},{"trial_n":136,"min":126,"max":128,"target":"absent","response":"absent","rt":819,"correct":true,"confidence":4},{"trial_n":137,"min":126,"max":128,"target":"absent","response":"absent","rt":573,"correct":true,"confidence":4},{"trial_n":138,"min":126,"max":128,"target":"absent","response":"absent","rt":1085.0000000002,"correct":true,"confidence":3},{"trial_n":139,"min":126,"max":128,"target":"absent","response":"absent","rt":781,"correct":true,"confidence":5},{"trial_n":140,"min":126,"max":128,"target":"absent","response":"present","rt":6242,"correct":false,"confidence":2}]