[{"trial_n":1,"n_dots":4.25,"target":"left","response":"left","rt":5582.7999999821,"correct":true,"confidence":-1},{"trial_n":2,"n_dots":4.25,"target":"left","response":"left","rt":838.29999998212,"correct":true,"confidence":-1},{"trial_n":3,"n_dots":3.85,"target":"right","response":"right","rt":797.09999999404,"correct":true,"confidence":-1},{"trial_n":4,"n_dots":3.85,"target":"left","response":"left","rt":741.40000000596,"correct":true,"confidence":-1},{"trial_n":5,"n_dots":3.45,"target":"left","response":"left","rt":1084.900000006,"correct":true,"confidence":-1},{"trial_n":6,"n_dots":3.45,"target":"left","response":"right","rt":627.5,"correct":false,"confidence":-1},{"trial_n":7,"n_dots":3.85,"target":"left","response":"left","rt":790.19999998808,"correct":true,"confidence":-1},{"trial_n":8,"n_dots":3.85,"target":"right","response":"right","rt":550.20000001788,"correct":true,"confidence":-1},{"trial_n":9,"n_dots":3.65,"target":"left","response":"left","rt":701.39999997616,"correct":true,"confidence":-1},{"trial_n":10,"n_dots":3.65,"target":"right","response":"left","rt":669.09999999404,"correct":false,"confidence":-1},{"trial_n":11,"n_dots":3.85,"target":"left","response":"left","rt":436.09999999404,"correct":true,"confidence":-1},{"trial_n":12,"n_dots":3.85,"target":"right","response":"right","rt":525.20000001788,"correct":true,"confidence":-1},{"trial_n":13,"n_dots":3.75,"target":"right","response":"right","rt":508,"correct":true,"confidence":-1},{"trial_n":14,"n_dots":3.75,"target":"left","response":"right","rt":337,"correct":false,"confidence":-1},{"trial_n":15,"n_dots":3.85,"target":"left","response":"left","rt":480.59999999404,"correct":true,"confidence":-1},{"trial_n":16,"n_dots":3.85,"target":"left","response":"left","rt":437,"correct":true,"confidence":-1},{"trial_n":17,"n_dots":3.75,"target":"left","response":"left","rt":893,"correct":true,"confidence":-1},{"trial_n":18,"n_dots":3.75,"target":"right","response":"right","rt":368.70000001788,"correct":true,"confidence":-1},{"trial_n":19,"n_dots":3.65,"target":"left","response":"left","rt":294.5,"correct":true,"confidence":-1},{"trial_n":20,"n_dots":3.65,"target":"right","response":"right","rt":267.39999997616,"correct":true,"confidence":-1},{"trial_n":21,"n_dots":3.55,"target":"right","response":"right","rt":476.09999999404,"correct":true,"confidence":4},{"trial_n":22,"n_dots":3.55,"target":"left","response":"right","rt":613,"correct":false,"confidence":3},{"trial_n":23,"n_dots":3.65,"target":"right","response":"right","rt":717.40000000596,"correct":true,"confidence":3},{"trial_n":24,"n_dots":3.65,"target":"right","response":"right","rt":751,"correct":true,"confidence":3},{"trial_n":25,"n_dots":3.55,"target":"left","response":"left","rt":741.60000002384,"correct":true,"confidence":4},{"trial_n":26,"n_dots":3.55,"target":"left","response":"right","rt":617.90000000596,"correct":false,"confidence":3},{"trial_n":27,"n_dots":3.65,"target":"right","response":"right","rt":518.30000001192,"correct":true,"confidence":2},{"trial_n":28,"n_dots":3.65,"target":"left","response":"left","rt":541.89999997616,"correct":true,"confidence":3},{"trial_n":29,"n_dots":3.55,"target":"right","response":"right","rt":1719.5,"correct":true,"confidence":3},{"trial_n":30,"n_dots":3.55,"target":"right","response":"right","rt":326.30000001192,"correct":true,"confidence":3},{"trial_n":31,"n_dots":3.45,"target":"right","response":"left","rt":830.5,"correct":false,"confidence":2},{"trial_n":32,"n_dots":3.55,"target":"right","response":"left","rt":692.90000000596,"correct":false,"confidence":3},{"trial_n":33,"n_dots":3.65,"target":"left","response":"left","rt":803.5,"correct":true,"confidence":3},{"trial_n":34,"n_dots":3.65,"target":"right","response":"right","rt":288,"correct":true,"confidence":3},{"trial_n":35,"n_dots":3.55,"target":"right","response":"right","rt":516,"correct":true,"confidence":3},{"trial_n":36,"n_dots":3.55,"target":"left","response":"left","rt":884.10000002384,"correct":true,"confidence":3},{"trial_n":37,"n_dots":3.45,"target":"left","response":"right","rt":568,"correct":false,"confidence":3},{"trial_n":38,"n_dots":3.55,"target":"right","response":"right","rt":1003.5,"correct":true,"confidence":3},{"trial_n":39,"n_dots":3.55,"target":"right","response":"right","rt":594.90000000596,"correct":true,"confidence":3},{"trial_n":40,"n_dots":3.45,"target":"right","response":"right","rt":493.69999998808,"correct":true,"confidence":3},{"trial_n":41,"n_dots":3.45,"target":"right","response":"right","rt":455,"correct":true,"confidence":3},{"trial_n":42,"n_dots":3.35,"target":"right","response":"right","rt":450.29999998212,"correct":true,"confidence":3},{"trial_n":43,"n_dots":3.35,"target":"left","response":"left","rt":536,"correct":true,"confidence":3},{"trial_n":44,"n_dots":3.25,"target":"left","response":"right","rt":595.09999999404,"correct":false,"confidence":3},{"trial_n":45,"n_dots":3.35,"target":"right","response":"left","rt":439.10000002384,"correct":false,"confidence":3},{"trial_n":46,"n_dots":3.45,"target":"left","response":"right","rt":541.70000001788,"correct":false,"confidence":1},{"trial_n":47,"n_dots":3.55,"target":"right","response":"right","rt":445.69999998808,"correct":true,"confidence":3},{"trial_n":48,"n_dots":3.55,"target":"right","response":"right","rt":394.90000000596,"correct":true,"confidence":3},{"trial_n":49,"n_dots":3.45,"target":"right","response":"left","rt":418.29999998212,"correct":false,"confidence":3},{"trial_n":50,"n_dots":3.55,"target":"right","response":"left","rt":306.79999998212,"correct":false,"confidence":3},{"trial_n":51,"n_dots":3.65,"target":"left","response":"left","rt":417.90000000596,"correct":true,"confidence":3},{"trial_n":52,"n_dots":3.65,"target":"left","response":"left","rt":407.09999999404,"correct":true,"confidence":3},{"trial_n":53,"n_dots":3.55,"target":"right","response":"right","rt":447,"correct":true,"confidence":3},{"trial_n":54,"n_dots":3.55,"target":"right","response":"right","rt":374.20000001788,"correct":true,"confidence":3},{"trial_n":55,"n_dots":3.45,"target":"left","response":"left","rt":277.5,"correct":true,"confidence":3},{"trial_n":56,"n_dots":3.45,"target":"left","response":"left","rt":351,"correct":true,"confidence":3},{"trial_n":57,"n_dots":3.35,"target":"left","response":"right","rt":401.69999998808,"correct":false,"confidence":3},{"trial_n":58,"n_dots":3.45,"target":"right","response":"left","rt":750.59999999404,"correct":false,"confidence":1},{"trial_n":59,"n_dots":3.55,"target":"left","response":"left","rt":303.30000001192,"correct":true,"confidence":3},{"trial_n":60,"n_dots":3.55,"target":"right","response":"right","rt":381.5,"correct":true,"confidence":3},{"trial_n":61,"n_dots":3.45,"target":"right","response":"right","rt":499.80000001192,"correct":true,"confidence":3},{"trial_n":62,"n_dots":3.45,"target":"right","response":"right","rt":294.10000002384,"correct":true,"confidence":4},{"trial_n":63,"n_dots":3.35,"target":"left","response":"right","rt":417,"correct":false,"confidence":3},{"trial_n":64,"n_dots":3.45,"target":"right","response":"right","rt":433.80000001192,"correct":true,"confidence":4},{"trial_n":65,"n_dots":3.45,"target":"right","response":"right","rt":1278.099999994,"correct":true,"confidence":3},{"trial_n":66,"n_dots":3.35,"target":"right","response":"right","rt":363,"correct":true,"confidence":4},{"trial_n":67,"n_dots":3.35,"target":"right","response":"right","rt":510,"correct":true,"confidence":3},{"trial_n":68,"n_dots":3.25,"target":"left","response":"left","rt":420.09999999404,"correct":true,"confidence":3},{"trial_n":69,"n_dots":3.25,"target":"left","response":"left","rt":401.5,"correct":true,"confidence":3},{"trial_n":70,"n_dots":3.15,"target":"left","response":"left","rt":451,"correct":true,"confidence":1},{"trial_n":71,"n_dots":3.15,"target":"left","response":"right","rt":301.69999998808,"correct":false,"confidence":3},{"trial_n":72,"n_dots":3.25,"target":"right","response":"right","rt":290.59999999404,"correct":true,"confidence":2},{"trial_n":73,"n_dots":3.25,"target":"left","response":"left","rt":336,"correct":true,"confidence":3},{"trial_n":74,"n_dots":3.15,"target":"right","response":"right","rt":568,"correct":true,"confidence":3},{"trial_n":75,"n_dots":3.15,"target":"left","response":"right","rt":534.09999999404,"correct":false,"confidence":3},{"trial_n":76,"n_dots":3.25,"target":"right","response":"right","rt":394.90000000596,"correct":true,"confidence":3},{"trial_n":77,"n_dots":3.25,"target":"left","response":"right","rt":426.09999999404,"correct":false,"confidence":3},{"trial_n":78,"n_dots":3.35,"target":"right","response":"right","rt":410.5,"correct":true,"confidence":3},{"trial_n":79,"n_dots":3.35,"target":"left","response":"left","rt":394.09999999404,"correct":true,"confidence":3},{"trial_n":80,"n_dots":3.25,"target":"right","response":"right","rt":417.79999998212,"correct":true,"confidence":3},{"trial_n":81,"n_dots":3.25,"target":"right","response":"right","rt":676.30000001192,"correct":true,"confidence":3},{"trial_n":82,"n_dots":3.15,"target":"right","response":"right","rt":676.30000001192,"correct":true,"confidence":3},{"trial_n":83,"n_dots":3.15,"target":"left","response":"right","rt":551.60000002384,"correct":false,"confidence":1},{"trial_n":84,"n_dots":3.25,"target":"right","response":"right","rt":503,"correct":true,"confidence":3},{"trial_n":85,"n_dots":3.25,"target":"right","response":"left","rt":723.19999998808,"correct":false,"confidence":3},{"trial_n":86,"n_dots":3.35,"target":"right","response":"right","rt":359.59999999404,"correct":true,"confidence":3},{"trial_n":87,"n_dots":3.35,"target":"left","response":"left","rt":345.30000001192,"correct":true,"confidence":3},{"trial_n":88,"n_dots":3.25,"target":"left","response":"right","rt":583.09999999404,"correct":false,"confidence":3},{"trial_n":89,"n_dots":3.35,"target":"left","response":"right","rt":534.19999998808,"correct":false,"confidence":3},{"trial_n":90,"n_dots":3.45,"target":"left","response":"left","rt":477.79999998212,"correct":true,"confidence":3},{"trial_n":91,"n_dots":3.45,"target":"right","response":"right","rt":528,"correct":true,"confidence":3},{"trial_n":92,"n_dots":3.35,"target":"left","response":"left","rt":567.59999999404,"correct":true,"confidence":3},{"trial_n":93,"n_dots":3.35,"target":"right","response":"right","rt":518.19999998808,"correct":true,"confidence":3},{"trial_n":94,"n_dots":3.25,"target":"left","response":"left","rt":518.09999999404,"correct":true,"confidence":3},{"trial_n":95,"n_dots":3.25,"target":"left","response":"right","rt":484.10000002384,"correct":false,"confidence":3},{"trial_n":96,"n_dots":3.35,"target":"right","response":"right","rt":450.69999998808,"correct":true,"confidence":3},{"trial_n":97,"n_dots":3.35,"target":"right","response":"left","rt":502.80000001192,"correct":false,"confidence":3},{"trial_n":98,"n_dots":3.45,"target":"left","response":"left","rt":396.09999999404,"correct":true,"confidence":3},{"trial_n":99,"n_dots":3.45,"target":"right","response":"right","rt":575.70000001788,"correct":true,"confidence":3},{"trial_n":100,"n_dots":3.35,"target":"left","response":"left","rt":485.90000000596,"correct":true,"confidence":3},{"trial_n":101,"n_dots":3.35,"target":"left","response":"left","rt":539.30000001192,"correct":true,"confidence":3},{"trial_n":102,"n_dots":3.25,"target":"right","response":"right","rt":400.69999998808,"correct":true,"confidence":3},{"trial_n":103,"n_dots":3.25,"target":"left","response":"left","rt":536.80000001192,"correct":true,"confidence":3},{"trial_n":104,"n_dots":3.15,"target":"left","response":"right","rt":660.40000000596,"correct":false,"confidence":3},{"trial_n":105,"n_dots":3.25,"target":"left","response":"right","rt":451,"correct":false,"confidence":3},{"trial_n":106,"n_dots":3.35,"target":"right","response":"right","rt":423.40000000596,"correct":true,"confidence":3},{"trial_n":107,"n_dots":3.35,"target":"left","response":"left","rt":387.40000000596,"correct":true,"confidence":3},{"trial_n":108,"n_dots":3.25,"target":"right","response":"right","rt":490.80000001192,"correct":true,"confidence":3},{"trial_n":109,"n_dots":3.25,"target":"left","response":"left","rt":355.09999999404,"correct":true,"confidence":3},{"trial_n":110,"n_dots":3.15,"target":"left","response":"left","rt":414.69999998808,"correct":true,"confidence":1},{"trial_n":111,"n_dots":3.15,"target":"right","response":"right","rt":430.5,"correct":true,"confidence":3},{"trial_n":112,"n_dots":3.05,"target":"right","response":"right","rt":402.5,"correct":true,"confidence":2},{"trial_n":113,"n_dots":3.05,"target":"right","response":"left","rt":666.90000000596,"correct":false,"confidence":2},{"trial_n":114,"n_dots":3.15,"target":"left","response":"left","rt":567.20000001788,"correct":true,"confidence":3},{"trial_n":115,"n_dots":3.15,"target":"left","response":"left","rt":650.09999999404,"correct":true,"confidence":1},{"trial_n":116,"n_dots":3.05,"target":"left","response":"right","rt":550.20000001788,"correct":false,"confidence":3},{"trial_n":117,"n_dots":3.15,"target":"left","response":"right","rt":816.09999999404,"correct":false,"confidence":3},{"trial_n":118,"n_dots":3.25,"target":"right","response":"right","rt":1072.6999999881,"correct":true,"confidence":3},{"trial_n":119,"n_dots":3.25,"target":"left","response":"left","rt":423.89999997616,"correct":true,"confidence":3},{"trial_n":120,"n_dots":3.15,"target":"right","response":"right","rt":500.19999998808,"correct":true,"confidence":3}]