[{"trial_n":1,"min":25,"max":230,"target":"present","response":"present","rt":12054.5,"correct":true,"confidence":-1},{"trial_n":2,"min":25,"max":230,"target":"present","response":"present","rt":775.79999999702,"correct":true,"confidence":-1},{"trial_n":3,"min":41,"max":214,"target":"absent","response":"absent","rt":1134.1000000015,"correct":true,"confidence":-1},{"trial_n":4,"min":41,"max":214,"target":"absent","response":"absent","rt":557.40000000224,"correct":true,"confidence":-1},{"trial_n":5,"min":57,"max":198,"target":"present","response":"present","rt":1243.6999999993,"correct":true,"confidence":-1},{"trial_n":6,"min":57,"max":198,"target":"absent","response":"absent","rt":838.80000000075,"correct":true,"confidence":-1},{"trial_n":7,"min":73,"max":182,"target":"absent","response":"absent","rt":673.79999999702,"correct":true,"confidence":-1},{"trial_n":8,"min":73,"max":182,"target":"absent","response":"absent","rt":503.80000000075,"correct":true,"confidence":-1},{"trial_n":9,"min":89,"max":166,"target":"present","response":"absent","rt":5800,"correct":false,"confidence":-1},{"trial_n":10,"min":73,"max":182,"target":"absent","response":"absent","rt":578.80000000075,"correct":true,"confidence":-1},{"trial_n":11,"min":73,"max":182,"target":"absent","response":"absent","rt":1154.6999999993,"correct":true,"confidence":-1},{"trial_n":12,"min":81,"max":174,"target":"absent","response":"absent","rt":482.59999999776,"correct":true,"confidence":-1},{"trial_n":13,"min":81,"max":174,"target":"present","response":"present","rt":2274.9000000022,"correct":true,"confidence":-1},{"trial_n":14,"min":89,"max":166,"target":"present","response":"present","rt":1524.299999997,"correct":true,"confidence":-1},{"trial_n":15,"min":89,"max":166,"target":"present","response":"present","rt":1018.8999999985,"correct":true,"confidence":-1},{"trial_n":16,"min":97,"max":158,"target":"absent","response":"absent","rt":480.79999999702,"correct":true,"confidence":-1},{"trial_n":17,"min":97,"max":158,"target":"absent","response":"absent","rt":923,"correct":true,"confidence":-1},{"trial_n":18,"min":105,"max":150,"target":"present","response":"absent","rt":3124.6999999993,"correct":false,"confidence":-1},{"trial_n":19,"min":97,"max":158,"target":"absent","response":"absent","rt":11537.699999999,"correct":true,"confidence":-1},{"trial_n":20,"min":97,"max":158,"target":"present","response":"absent","rt":507.5,"correct":false,"confidence":-1},{"trial_n":21,"min":93,"max":162,"target":"absent","response":"absent","rt":2239.200000003,"correct":true,"confidence":2},{"trial_n":22,"min":93,"max":162,"target":"present","response":"present","rt":1694,"correct":true,"confidence":2},{"trial_n":23,"min":97,"max":158,"target":"absent","response":"absent","rt":4062,"correct":true,"confidence":2},{"trial_n":24,"min":97,"max":158,"target":"absent","response":"present","rt":1649,"correct":false,"confidence":2},{"trial_n":25,"min":93,"max":162,"target":"present","response":"present","rt":2696.299999997,"correct":true,"confidence":2},{"trial_n":26,"min":93,"max":162,"target":"absent","response":"absent","rt":785.20000000298,"correct":true,"confidence":2},{"trial_n":27,"min":97,"max":158,"target":"absent","response":"absent","rt":1524.5999999978,"correct":true,"confidence":2},{"trial_n":28,"min":97,"max":158,"target":"absent","response":"absent","rt":1467.1999999993,"correct":true,"confidence":1},{"trial_n":29,"min":101,"max":154,"target":"absent","response":"present","rt":1321.8000000007,"correct":false,"confidence":2},{"trial_n":30,"min":97,"max":158,"target":"absent","response":"absent","rt":2281,"correct":true,"confidence":1},{"trial_n":31,"min":97,"max":158,"target":"present","response":"absent","rt":1047.6000000015,"correct":false,"confidence":3},{"trial_n":32,"min":95,"max":160,"target":"present","response":"absent","rt":618.60000000149,"correct":false,"confidence":3},{"trial_n":33,"min":93,"max":162,"target":"absent","response":"absent","rt":634,"correct":true,"confidence":3},{"trial_n":34,"min":93,"max":162,"target":"present","response":"present","rt":1509.9000000022,"correct":true,"confidence":2},{"trial_n":35,"min":95,"max":160,"target":"present","response":"absent","rt":842.19999999925,"correct":false,"confidence":3},{"trial_n":36,"min":93,"max":162,"target":"present","response":"absent","rt":720.19999999925,"correct":false,"confidence":2},{"trial_n":37,"min":91,"max":164,"target":"absent","response":"absent","rt":552.39999999851,"correct":true,"confidence":2},{"trial_n":38,"min":91,"max":164,"target":"absent","response":"present","rt":1554.5,"correct":false,"confidence":2},{"trial_n":39,"min":89,"max":166,"target":"absent","response":"absent","rt":962.39999999851,"correct":true,"confidence":2},{"trial_n":40,"min":89,"max":166,"target":"absent","response":"absent","rt":1199.8000000007,"correct":true,"confidence":2},{"trial_n":41,"min":90,"max":165,"target":"present","response":"absent","rt":647,"correct":false,"confidence":2},{"trial_n":42,"min":89,"max":166,"target":"present","response":"present","rt":1173.1000000015,"correct":true,"confidence":2},{"trial_n":43,"min":89,"max":166,"target":"absent","response":"absent","rt":575.5,"correct":true,"confidence":2},{"trial_n":44,"min":90,"max":165,"target":"absent","response":"absent","rt":698.5,"correct":true,"confidence":2},{"trial_n":45,"min":90,"max":165,"target":"present","response":"present","rt":1309.8999999985,"correct":true,"confidence":2},{"trial_n":46,"min":91,"max":164,"target":"present","response":"absent","rt":800.69999999925,"correct":false,"confidence":2},{"trial_n":47,"min":90,"max":165,"target":"present","response":"absent","rt":964.5,"correct":false,"confidence":2},{"trial_n":48,"min":89,"max":166,"target":"present","response":"present","rt":1355.5,"correct":true,"confidence":2},{"trial_n":49,"min":89,"max":166,"target":"present","response":"absent","rt":646.39999999851,"correct":false,"confidence":2},{"trial_n":50,"min":88,"max":167,"target":"absent","response":"absent","rt":1651.6999999993,"correct":true,"confidence":2},{"trial_n":51,"min":88,"max":167,"target":"absent","response":"absent","rt":867.19999999925,"correct":true,"confidence":2},{"trial_n":52,"min":89,"max":166,"target":"present","response":"absent","rt":762.40000000224,"correct":false,"confidence":1},{"trial_n":53,"min":88,"max":167,"target":"absent","response":"absent","rt":59.800000000745,"correct":true,"confidence":1},{"trial_n":54,"min":88,"max":167,"target":"present","response":"absent","rt":78.89999999851,"correct":false,"confidence":1},{"trial_n":55,"min":87,"max":168,"target":"present","response":"absent","rt":139.69999999925,"correct":false,"confidence":1},{"trial_n":56,"min":86,"max":169,"target":"present","response":"absent","rt":406.30000000075,"correct":false,"confidence":1},{"trial_n":57,"min":85,"max":170,"target":"absent","response":"present","rt":1124.5999999978,"correct":false,"confidence":1},{"trial_n":58,"min":84,"max":171,"target":"present","response":"absent","rt":3709.6999999993,"correct":false,"confidence":1},{"trial_n":59,"min":83,"max":172,"target":"present","response":"present","rt":1612.5999999978,"correct":true,"confidence":1},{"trial_n":60,"min":83,"max":172,"target":"present","response":"present","rt":1124.799999997,"correct":true,"confidence":1},{"trial_n":61,"min":84,"max":171,"target":"absent","response":"present","rt":2777.3000000007,"correct":false,"confidence":1},{"trial_n":62,"min":83,"max":172,"target":"absent","response":"present","rt":2482.5,"correct":false,"confidence":1},{"trial_n":63,"min":82,"max":173,"target":"present","response":"present","rt":1741,"correct":true,"confidence":2},{"trial_n":64,"min":82,"max":173,"target":"present","response":"absent","rt":1356.6999999993,"correct":false,"confidence":1},{"trial_n":65,"min":81,"max":174,"target":"absent","response":"absent","rt":1115,"correct":true,"confidence":1},{"trial_n":66,"min":81,"max":174,"target":"present","response":"present","rt":1400,"correct":true,"confidence":1},{"trial_n":67,"min":82,"max":173,"target":"present","response":"present","rt":1597,"correct":true,"confidence":2},{"trial_n":68,"min":82,"max":173,"target":"present","response":"absent","rt":1616.1999999993,"correct":false,"confidence":1},{"trial_n":69,"min":81,"max":174,"target":"present","response":"absent","rt":1084.8999999985,"correct":false,"confidence":1},{"trial_n":70,"min":80,"max":175,"target":"absent","response":"absent","rt":1142.3000000007,"correct":true,"confidence":1},{"trial_n":71,"min":41,"max":214,"target":"present","response":"absent","rt":5182.8000000007,"correct":false,"confidence":-1},{"trial_n":72,"min":41,"max":214,"target":"present","response":"present","rt":679.30000000075,"correct":true,"confidence":-1},{"trial_n":73,"min":41,"max":214,"target":"absent","response":"absent","rt":399.79999999702,"correct":true,"confidence":-1},{"trial_n":74,"min":57,"max":198,"target":"absent","response":"absent","rt":451.09999999776,"correct":true,"confidence":-1},{"trial_n":75,"min":57,"max":198,"target":"present","response":"present","rt":450,"correct":true,"confidence":-1},{"trial_n":76,"min":73,"max":182,"target":"present","response":"absent","rt":1022.8000000007,"correct":false,"confidence":-1},{"trial_n":77,"min":57,"max":198,"target":"present","response":"present","rt":97.199999999255,"correct":true,"confidence":-1},{"trial_n":78,"min":57,"max":198,"target":"absent","response":"absent","rt":140.90000000224,"correct":true,"confidence":-1},{"trial_n":79,"min":73,"max":182,"target":"present","response":"present","rt":257.69999999925,"correct":true,"confidence":-1},{"trial_n":80,"min":73,"max":182,"target":"present","response":"present","rt":388.89999999851,"correct":true,"confidence":-1},{"trial_n":81,"min":81,"max":174,"target":"absent","response":"present","rt":1274.6000000015,"correct":false,"confidence":-1},{"trial_n":82,"min":73,"max":182,"target":"absent","response":"absent","rt":446.60000000149,"correct":true,"confidence":-1},{"trial_n":83,"min":73,"max":182,"target":"present","response":"present","rt":555.30000000075,"correct":true,"confidence":-1},{"trial_n":84,"min":81,"max":174,"target":"present","response":"present","rt":366.80000000075,"correct":true,"confidence":-1},{"trial_n":85,"min":81,"max":174,"target":"absent","response":"present","rt":599.39999999851,"correct":false,"confidence":-1},{"trial_n":86,"min":73,"max":182,"target":"present","response":"present","rt":430.60000000149,"correct":true,"confidence":-1},{"trial_n":87,"min":73,"max":182,"target":"present","response":"absent","rt":480.89999999851,"correct":false,"confidence":-1},{"trial_n":88,"min":65,"max":190,"target":"absent","response":"absent","rt":738.89999999851,"correct":true,"confidence":-1},{"trial_n":89,"min":65,"max":190,"target":"present","response":"present","rt":365.69999999925,"correct":true,"confidence":-1},{"trial_n":90,"min":73,"max":182,"target":"absent","response":"absent","rt":405.59999999776,"correct":true,"confidence":-1},{"trial_n":91,"min":73,"max":182,"target":"present","response":"present","rt":404.30000000075,"correct":true,"confidence":2},{"trial_n":92,"min":77,"max":178,"target":"present","response":"present","rt":354.69999999925,"correct":true,"confidence":2},{"trial_n":93,"min":77,"max":178,"target":"absent","response":"present","rt":597.09999999776,"correct":false,"confidence":2},{"trial_n":94,"min":73,"max":182,"target":"present","response":"present","rt":576.89999999851,"correct":true,"confidence":2},{"trial_n":95,"min":73,"max":182,"target":"absent","response":"absent","rt":574.39999999851,"correct":true,"confidence":2},{"trial_n":96,"min":77,"max":178,"target":"present","response":"present","rt":522.30000000075,"correct":true,"confidence":2},{"trial_n":97,"min":77,"max":178,"target":"absent","response":"absent","rt":566,"correct":true,"confidence":2},{"trial_n":98,"min":81,"max":174,"target":"absent","response":"absent","rt":1148.299999997,"correct":true,"confidence":1},{"trial_n":99,"min":81,"max":174,"target":"present","response":"present","rt":340,"correct":true,"confidence":2},{"trial_n":100,"min":85,"max":170,"target":"absent","response":"present","rt":614.09999999776,"correct":false,"confidence":2},{"trial_n":101,"min":83,"max":172,"target":"present","response":"present","rt":490.5,"correct":true,"confidence":2},{"trial_n":102,"min":83,"max":172,"target":"present","response":"present","rt":216.89999999851,"correct":true,"confidence":2},{"trial_n":103,"min":85,"max":170,"target":"present","response":"present","rt":535.39999999851,"correct":true,"confidence":2},{"trial_n":104,"min":85,"max":170,"target":"absent","response":"present","rt":689.10000000149,"correct":false,"confidence":2},{"trial_n":105,"min":83,"max":172,"target":"absent","response":"present","rt":129.19999999925,"correct":false,"confidence":2},{"trial_n":106,"min":81,"max":174,"target":"present","response":"present","rt":143.29999999702,"correct":true,"confidence":2},{"trial_n":107,"min":81,"max":174,"target":"absent","response":"present","rt":496.80000000075,"correct":false,"confidence":2},{"trial_n":108,"min":79,"max":176,"target":"present","response":"present","rt":533,"correct":true,"confidence":2},{"trial_n":109,"min":79,"max":176,"target":"absent","response":"absent","rt":507.69999999925,"correct":true,"confidence":1},{"trial_n":110,"min":81,"max":174,"target":"present","response":"present","rt":480.29999999702,"correct":true,"confidence":2},{"trial_n":111,"min":81,"max":174,"target":"present","response":"present","rt":166.09999999776,"correct":true,"confidence":1},{"trial_n":112,"min":82,"max":173,"target":"present","response":"present","rt":967.29999999702,"correct":true,"confidence":1},{"trial_n":113,"min":82,"max":173,"target":"present","response":"present","rt":306,"correct":true,"confidence":2},{"trial_n":114,"min":83,"max":172,"target":"absent","response":"absent","rt":362.20000000298,"correct":true,"confidence":1},{"trial_n":115,"min":83,"max":172,"target":"absent","response":"absent","rt":620,"correct":true,"confidence":1},{"trial_n":116,"min":84,"max":171,"target":"absent","response":"absent","rt":776,"correct":true,"confidence":1},{"trial_n":117,"min":84,"max":171,"target":"present","response":"present","rt":352.60000000149,"correct":true,"confidence":1},{"trial_n":118,"min":85,"max":170,"target":"present","response":"absent","rt":891.89999999851,"correct":false,"confidence":1},{"trial_n":119,"min":84,"max":171,"target":"absent","response":"absent","rt":908,"correct":true,"confidence":1},{"trial_n":120,"min":84,"max":171,"target":"present","response":"present","rt":922.29999999702,"correct":true,"confidence":1},{"trial_n":121,"min":85,"max":170,"target":"absent","response":"present","rt":416.89999999851,"correct":false,"confidence":1},{"trial_n":122,"min":84,"max":171,"target":"absent","response":"absent","rt":315.40000000224,"correct":true,"confidence":1},{"trial_n":123,"min":84,"max":171,"target":"present","response":"absent","rt":340.29999999702,"correct":false,"confidence":1},{"trial_n":124,"min":83,"max":172,"target":"absent","response":"present","rt":320.19999999925,"correct":false,"confidence":1},{"trial_n":125,"min":82,"max":173,"target":"absent","response":"present","rt":326.29999999702,"correct":false,"confidence":1},{"trial_n":126,"min":81,"max":174,"target":"absent","response":"present","rt":405.89999999851,"correct":false,"confidence":1},{"trial_n":127,"min":80,"max":175,"target":"absent","response":"absent","rt":486.19999999925,"correct":true,"confidence":1},{"trial_n":128,"min":80,"max":175,"target":"absent","response":"absent","rt":468.59999999776,"correct":true,"confidence":1},{"trial_n":129,"min":81,"max":174,"target":"present","response":"present","rt":591.69999999925,"correct":true,"confidence":1},{"trial_n":130,"min":81,"max":174,"target":"present","response":"present","rt":596.10000000149,"correct":true,"confidence":1},{"trial_n":131,"min":82,"max":173,"target":"absent","response":"absent","rt":388.5,"correct":true,"confidence":1},{"trial_n":132,"min":82,"max":173,"target":"absent","response":"present","rt":800.59999999776,"correct":false,"confidence":1},{"trial_n":133,"min":81,"max":174,"target":"present","response":"present","rt":526.69999999925,"correct":true,"confidence":1},{"trial_n":134,"min":81,"max":174,"target":"present","response":"present","rt":657.5,"correct":true,"confidence":1},{"trial_n":135,"min":82,"max":173,"target":"absent","response":"absent","rt":536.39999999851,"correct":true,"confidence":1},{"trial_n":136,"min":82,"max":173,"target":"absent","response":"present","rt":337.89999999851,"correct":false,"confidence":1},{"trial_n":137,"min":81,"max":174,"target":"present","response":"absent","rt":115.39999999851,"correct":false,"confidence":1},{"trial_n":138,"min":80,"max":175,"target":"absent","response":"absent","rt":260.69999999925,"correct":true,"confidence":1},{"trial_n":139,"min":80,"max":175,"target":"absent","response":"absent","rt":215.69999999925,"correct":true,"confidence":1},{"trial_n":140,"min":81,"max":174,"target":"present","response":"present","rt":274.90000000224,"correct":true,"confidence":2}]