[{"trial_n":1,"min":25,"max":230,"target":"present","response":"present","rt":4279.6999998093,"correct":true,"confidence":-1},{"trial_n":2,"min":25,"max":230,"target":"present","response":"absent","rt":764.29999995232,"correct":false,"confidence":-1},{"trial_n":3,"min":9,"max":246,"target":"absent","response":"absent","rt":762.5,"correct":true,"confidence":-1},{"trial_n":4,"min":9,"max":246,"target":"absent","response":"absent","rt":637.5,"correct":true,"confidence":-1},{"trial_n":5,"min":25,"max":230,"target":"present","response":"present","rt":736.40000009537,"correct":true,"confidence":-1},{"trial_n":6,"min":25,"max":230,"target":"present","response":"present","rt":659.30000019073,"correct":true,"confidence":-1},{"trial_n":7,"min":41,"max":214,"target":"present","response":"present","rt":692.29999995232,"correct":true,"confidence":-1},{"trial_n":8,"min":41,"max":214,"target":"absent","response":"absent","rt":556.59999990463,"correct":true,"confidence":-1},{"trial_n":9,"min":57,"max":198,"target":"absent","response":"absent","rt":1327.5999999046,"correct":true,"confidence":-1},{"trial_n":10,"min":57,"max":198,"target":"absent","response":"absent","rt":1433.9000000954,"correct":true,"confidence":-1},{"trial_n":11,"min":65,"max":190,"target":"absent","response":"absent","rt":453.70000004768,"correct":true,"confidence":-1},{"trial_n":12,"min":65,"max":190,"target":"absent","response":"absent","rt":444.40000009537,"correct":true,"confidence":-1},{"trial_n":13,"min":73,"max":182,"target":"present","response":"present","rt":1247,"correct":true,"confidence":-1},{"trial_n":14,"min":73,"max":182,"target":"present","response":"present","rt":562.29999995232,"correct":true,"confidence":-1},{"trial_n":15,"min":81,"max":174,"target":"present","response":"present","rt":414.10000014305,"correct":true,"confidence":-1},{"trial_n":16,"min":81,"max":174,"target":"present","response":"present","rt":387,"correct":true,"confidence":-1},{"trial_n":17,"min":89,"max":166,"target":"present","response":"present","rt":524.5,"correct":true,"confidence":-1},{"trial_n":18,"min":89,"max":166,"target":"absent","response":"absent","rt":851.20000004768,"correct":true,"confidence":-1},{"trial_n":19,"min":97,"max":158,"target":"absent","response":"absent","rt":602,"correct":true,"confidence":-1},{"trial_n":20,"min":97,"max":158,"target":"absent","response":"absent","rt":418.70000004768,"correct":true,"confidence":-1},{"trial_n":21,"min":101,"max":154,"target":"present","response":"absent","rt":1479.9000000954,"correct":false,"confidence":4},{"trial_n":22,"min":97,"max":158,"target":"absent","response":"absent","rt":789.70000004768,"correct":true,"confidence":5},{"trial_n":23,"min":97,"max":158,"target":"absent","response":"absent","rt":616.20000004768,"correct":true,"confidence":4},{"trial_n":24,"min":101,"max":154,"target":"present","response":"absent","rt":624.89999985695,"correct":false,"confidence":4},{"trial_n":25,"min":97,"max":158,"target":"present","response":"absent","rt":597.29999995232,"correct":false,"confidence":4},{"trial_n":26,"min":93,"max":162,"target":"present","response":"present","rt":1814.2999999523,"correct":true,"confidence":2},{"trial_n":27,"min":93,"max":162,"target":"present","response":"present","rt":723.29999995232,"correct":true,"confidence":1},{"trial_n":28,"min":97,"max":158,"target":"present","response":"present","rt":771,"correct":true,"confidence":2},{"trial_n":29,"min":97,"max":158,"target":"absent","response":"present","rt":747.90000009537,"correct":false,"confidence":3},{"trial_n":30,"min":93,"max":162,"target":"absent","response":"absent","rt":1096.8999998569,"correct":true,"confidence":1},{"trial_n":31,"min":93,"max":162,"target":"present","response":"present","rt":1282.9000000954,"correct":true,"confidence":4},{"trial_n":32,"min":95,"max":160,"target":"absent","response":"present","rt":608.29999995232,"correct":false,"confidence":3},{"trial_n":33,"min":93,"max":162,"target":"absent","response":"present","rt":794.5,"correct":false,"confidence":4},{"trial_n":34,"min":91,"max":164,"target":"present","response":"present","rt":601,"correct":true,"confidence":4},{"trial_n":35,"min":91,"max":164,"target":"absent","response":"present","rt":608.20000004768,"correct":false,"confidence":3},{"trial_n":36,"min":89,"max":166,"target":"absent","response":"present","rt":1014,"correct":false,"confidence":4},{"trial_n":37,"min":87,"max":168,"target":"absent","response":"present","rt":677.09999990463,"correct":false,"confidence":3},{"trial_n":38,"min":85,"max":170,"target":"absent","response":"present","rt":552.5,"correct":false,"confidence":4},{"trial_n":39,"min":83,"max":172,"target":"present","response":"present","rt":557.09999990463,"correct":true,"confidence":3},{"trial_n":40,"min":83,"max":172,"target":"absent","response":"present","rt":756.70000004768,"correct":false,"confidence":4},{"trial_n":41,"min":82,"max":173,"target":"present","response":"present","rt":901.09999990463,"correct":true,"confidence":4},{"trial_n":42,"min":82,"max":173,"target":"absent","response":"absent","rt":2826.7999999523,"correct":true,"confidence":3},{"trial_n":43,"min":83,"max":172,"target":"present","response":"present","rt":811.10000014305,"correct":true,"confidence":4},{"trial_n":44,"min":83,"max":172,"target":"present","response":"present","rt":593.90000009537,"correct":true,"confidence":4},{"trial_n":45,"min":84,"max":171,"target":"present","response":"present","rt":769,"correct":true,"confidence":4},{"trial_n":46,"min":84,"max":171,"target":"absent","response":"absent","rt":948.90000009537,"correct":true,"confidence":3},{"trial_n":47,"min":85,"max":170,"target":"present","response":"present","rt":938.20000004768,"correct":true,"confidence":4},{"trial_n":48,"min":85,"max":170,"target":"absent","response":"present","rt":2218.7999999523,"correct":false,"confidence":3},{"trial_n":49,"min":84,"max":171,"target":"absent","response":"present","rt":2141.5,"correct":false,"confidence":3},{"trial_n":50,"min":83,"max":172,"target":"absent","response":"present","rt":946.5,"correct":false,"confidence":4},{"trial_n":51,"min":82,"max":173,"target":"present","response":"present","rt":866.59999990463,"correct":true,"confidence":2},{"trial_n":52,"min":82,"max":173,"target":"present","response":"present","rt":852.79999995232,"correct":true,"confidence":2},{"trial_n":53,"min":83,"max":172,"target":"absent","response":"present","rt":1018.4000000954,"correct":false,"confidence":3},{"trial_n":54,"min":82,"max":173,"target":"absent","response":"absent","rt":819.5,"correct":true,"confidence":4},{"trial_n":55,"min":82,"max":173,"target":"absent","response":"present","rt":673.90000009537,"correct":false,"confidence":3},{"trial_n":56,"min":81,"max":174,"target":"present","response":"present","rt":1059.5999999046,"correct":true,"confidence":4},{"trial_n":57,"min":81,"max":174,"target":"present","response":"present","rt":1063.4000000954,"correct":true,"confidence":3},{"trial_n":58,"min":82,"max":173,"target":"present","response":"present","rt":845.10000014305,"correct":true,"confidence":4},{"trial_n":59,"min":82,"max":173,"target":"absent","response":"present","rt":865.29999995232,"correct":false,"confidence":3},{"trial_n":60,"min":81,"max":174,"target":"present","response":"present","rt":931.10000014305,"correct":true,"confidence":4},{"trial_n":61,"min":81,"max":174,"target":"absent","response":"present","rt":618.29999995232,"correct":false,"confidence":3},{"trial_n":62,"min":80,"max":175,"target":"present","response":"present","rt":958.5,"correct":true,"confidence":5},{"trial_n":63,"min":80,"max":175,"target":"absent","response":"absent","rt":890.70000004768,"correct":true,"confidence":3},{"trial_n":64,"min":81,"max":174,"target":"present","response":"present","rt":622.89999985695,"correct":true,"confidence":4},{"trial_n":65,"min":81,"max":174,"target":"absent","response":"absent","rt":1102.5,"correct":true,"confidence":3},{"trial_n":66,"min":82,"max":173,"target":"absent","response":"present","rt":847.70000004768,"correct":false,"confidence":3},{"trial_n":67,"min":81,"max":174,"target":"present","response":"present","rt":721.59999990463,"correct":true,"confidence":5},{"trial_n":68,"min":81,"max":174,"target":"present","response":"absent","rt":768.29999995232,"correct":false,"confidence":3},{"trial_n":69,"min":80,"max":175,"target":"present","response":"present","rt":639.5,"correct":true,"confidence":3},{"trial_n":70,"min":80,"max":175,"target":"present","response":"absent","rt":906.79999995232,"correct":false,"confidence":3},{"trial_n":71,"min":41,"max":214,"target":"present","response":"absent","rt":2590.2999999523,"correct":false,"confidence":-1},{"trial_n":72,"min":41,"max":214,"target":"present","response":"absent","rt":957.09999990463,"correct":false,"confidence":-1},{"trial_n":73,"min":25,"max":230,"target":"absent","response":"absent","rt":2604.5,"correct":true,"confidence":-1},{"trial_n":74,"min":25,"max":230,"target":"absent","response":"absent","rt":725.59999990463,"correct":true,"confidence":-1},{"trial_n":75,"min":41,"max":214,"target":"present","response":"present","rt":639.90000009537,"correct":true,"confidence":-1},{"trial_n":76,"min":41,"max":214,"target":"absent","response":"absent","rt":1056.1000001431,"correct":true,"confidence":-1},{"trial_n":77,"min":57,"max":198,"target":"absent","response":"absent","rt":486.90000009537,"correct":true,"confidence":-1},{"trial_n":78,"min":57,"max":198,"target":"absent","response":"absent","rt":441.10000014305,"correct":true,"confidence":-1},{"trial_n":79,"min":73,"max":182,"target":"absent","response":"absent","rt":997.09999990463,"correct":true,"confidence":-1},{"trial_n":80,"min":73,"max":182,"target":"present","response":"present","rt":873.39999985695,"correct":true,"confidence":-1},{"trial_n":81,"min":81,"max":174,"target":"absent","response":"absent","rt":1233.3999998569,"correct":true,"confidence":-1},{"trial_n":82,"min":81,"max":174,"target":"present","response":"absent","rt":320.5,"correct":false,"confidence":-1},{"trial_n":83,"min":73,"max":182,"target":"present","response":"present","rt":822.70000004768,"correct":true,"confidence":-1},{"trial_n":84,"min":73,"max":182,"target":"absent","response":"absent","rt":183.10000014305,"correct":true,"confidence":-1},{"trial_n":85,"min":81,"max":174,"target":"absent","response":"absent","rt":667.59999990463,"correct":true,"confidence":-1},{"trial_n":86,"min":81,"max":174,"target":"present","response":"absent","rt":247.29999995232,"correct":false,"confidence":-1},{"trial_n":87,"min":73,"max":182,"target":"absent","response":"present","rt":671,"correct":false,"confidence":-1},{"trial_n":88,"min":65,"max":190,"target":"absent","response":"absent","rt":674.5,"correct":true,"confidence":-1},{"trial_n":89,"min":65,"max":190,"target":"present","response":"absent","rt":410.89999985695,"correct":false,"confidence":-1},{"trial_n":90,"min":57,"max":198,"target":"present","response":"present","rt":693.20000004768,"correct":true,"confidence":-1},{"trial_n":91,"min":57,"max":198,"target":"present","response":"present","rt":623.69999980927,"correct":true,"confidence":5},{"trial_n":92,"min":61,"max":194,"target":"absent","response":"absent","rt":1512,"correct":true,"confidence":4},{"trial_n":93,"min":61,"max":194,"target":"present","response":"present","rt":652.09999990463,"correct":true,"confidence":5},{"trial_n":94,"min":65,"max":190,"target":"absent","response":"absent","rt":1056,"correct":true,"confidence":5},{"trial_n":95,"min":65,"max":190,"target":"present","response":"present","rt":2018,"correct":true,"confidence":2},{"trial_n":96,"min":69,"max":186,"target":"absent","response":"absent","rt":1004.4000000954,"correct":true,"confidence":3},{"trial_n":97,"min":69,"max":186,"target":"absent","response":"absent","rt":1077.0999999046,"correct":true,"confidence":3},{"trial_n":98,"min":73,"max":182,"target":"present","response":"present","rt":555.90000009537,"correct":true,"confidence":5},{"trial_n":99,"min":73,"max":182,"target":"present","response":"present","rt":753.80000019073,"correct":true,"confidence":2},{"trial_n":100,"min":77,"max":178,"target":"present","response":"present","rt":535.5,"correct":true,"confidence":4},{"trial_n":101,"min":77,"max":178,"target":"absent","response":"present","rt":729.60000014305,"correct":false,"confidence":2},{"trial_n":102,"min":75,"max":180,"target":"present","response":"absent","rt":620.29999995232,"correct":false,"confidence":1},{"trial_n":103,"min":73,"max":182,"target":"absent","response":"absent","rt":1092.5,"correct":true,"confidence":3},{"trial_n":104,"min":73,"max":182,"target":"present","response":"present","rt":1054.5999999046,"correct":true,"confidence":3},{"trial_n":105,"min":75,"max":180,"target":"present","response":"present","rt":505.40000009537,"correct":true,"confidence":5},{"trial_n":106,"min":75,"max":180,"target":"present","response":"present","rt":812.09999990463,"correct":true,"confidence":4},{"trial_n":107,"min":77,"max":178,"target":"present","response":"present","rt":737.10000014305,"correct":true,"confidence":4},{"trial_n":108,"min":77,"max":178,"target":"present","response":"present","rt":940.59999990463,"correct":true,"confidence":3},{"trial_n":109,"min":79,"max":176,"target":"absent","response":"present","rt":1022.7999999523,"correct":false,"confidence":3},{"trial_n":110,"min":77,"max":178,"target":"present","response":"absent","rt":716.5,"correct":false,"confidence":4},{"trial_n":111,"min":76,"max":179,"target":"present","response":"present","rt":505.29999995232,"correct":true,"confidence":3},{"trial_n":112,"min":76,"max":179,"target":"absent","response":"present","rt":1357.7000000477,"correct":false,"confidence":2},{"trial_n":113,"min":75,"max":180,"target":"present","response":"present","rt":694.5,"correct":true,"confidence":3},{"trial_n":114,"min":75,"max":180,"target":"present","response":"present","rt":638.79999995232,"correct":true,"confidence":3},{"trial_n":115,"min":76,"max":179,"target":"absent","response":"present","rt":957.69999980927,"correct":false,"confidence":3},{"trial_n":116,"min":75,"max":180,"target":"absent","response":"present","rt":684.60000014305,"correct":false,"confidence":3},{"trial_n":117,"min":74,"max":181,"target":"absent","response":"present","rt":1339.5,"correct":false,"confidence":3},{"trial_n":118,"min":73,"max":182,"target":"present","response":"present","rt":549.69999980927,"correct":true,"confidence":4},{"trial_n":119,"min":73,"max":182,"target":"absent","response":"present","rt":792.29999995232,"correct":false,"confidence":2},{"trial_n":120,"min":72,"max":183,"target":"absent","response":"present","rt":750.70000004768,"correct":false,"confidence":3},{"trial_n":121,"min":71,"max":184,"target":"present","response":"present","rt":739,"correct":true,"confidence":3},{"trial_n":122,"min":71,"max":184,"target":"present","response":"present","rt":561.79999995232,"correct":true,"confidence":4},{"trial_n":123,"min":72,"max":183,"target":"absent","response":"present","rt":1006.3999998569,"correct":false,"confidence":4},{"trial_n":124,"min":71,"max":184,"target":"present","response":"present","rt":629.90000009537,"correct":true,"confidence":2},{"trial_n":125,"min":71,"max":184,"target":"present","response":"absent","rt":845.29999995232,"correct":false,"confidence":3},{"trial_n":126,"min":70,"max":185,"target":"present","response":"present","rt":927.89999985695,"correct":true,"confidence":4},{"trial_n":127,"min":70,"max":185,"target":"absent","response":"present","rt":679.39999985695,"correct":false,"confidence":1},{"trial_n":128,"min":69,"max":186,"target":"absent","response":"absent","rt":3300,"correct":true,"confidence":3},{"trial_n":129,"min":69,"max":186,"target":"present","response":"absent","rt":1153.7999999523,"correct":false,"confidence":4},{"trial_n":130,"min":68,"max":187,"target":"present","response":"present","rt":814.20000004768,"correct":true,"confidence":3},{"trial_n":131,"min":68,"max":187,"target":"absent","response":"present","rt":750.40000009537,"correct":false,"confidence":3},{"trial_n":132,"min":67,"max":188,"target":"present","response":"absent","rt":1973.2999999523,"correct":false,"confidence":3},{"trial_n":133,"min":66,"max":189,"target":"absent","response":"absent","rt":779,"correct":true,"confidence":4},{"trial_n":134,"min":66,"max":189,"target":"absent","response":"absent","rt":1208.8999998569,"correct":true,"confidence":3},{"trial_n":135,"min":67,"max":188,"target":"absent","response":"absent","rt":885,"correct":true,"confidence":3},{"trial_n":136,"min":67,"max":188,"target":"present","response":"present","rt":1072,"correct":true,"confidence":1},{"trial_n":137,"min":68,"max":187,"target":"present","response":"absent","rt":724.09999990463,"correct":false,"confidence":3},{"trial_n":138,"min":67,"max":188,"target":"absent","response":"absent","rt":724.80000019073,"correct":true,"confidence":4},{"trial_n":139,"min":67,"max":188,"target":"absent","response":"absent","rt":786.5,"correct":true,"confidence":3},{"trial_n":140,"min":68,"max":187,"target":"absent","response":"absent","rt":745.69999980927,"correct":true,"confidence":4}]