[{"trial_n":1,"min":25,"max":230,"target":"present","response":"present","rt":8418.900000006,"correct":true,"confidence":-1},{"trial_n":2,"min":25,"max":230,"target":"present","response":"present","rt":666.40000000596,"correct":true,"confidence":-1},{"trial_n":3,"min":41,"max":214,"target":"absent","response":"absent","rt":1232.5,"correct":true,"confidence":-1},{"trial_n":4,"min":41,"max":214,"target":"absent","response":"absent","rt":476.59999999404,"correct":true,"confidence":-1},{"trial_n":5,"min":57,"max":198,"target":"present","response":"present","rt":258,"correct":true,"confidence":-1},{"trial_n":6,"min":57,"max":198,"target":"absent","response":"absent","rt":400.90000000596,"correct":true,"confidence":-1},{"trial_n":7,"min":73,"max":182,"target":"present","response":"present","rt":227,"correct":true,"confidence":-1},{"trial_n":8,"min":73,"max":182,"target":"absent","response":"absent","rt":611.90000000596,"correct":true,"confidence":-1},{"trial_n":9,"min":89,"max":166,"target":"present","response":"present","rt":862.19999998808,"correct":true,"confidence":-1},{"trial_n":10,"min":89,"max":166,"target":"present","response":"present","rt":726.09999999404,"correct":true,"confidence":-1},{"trial_n":11,"min":97,"max":158,"target":"absent","response":"absent","rt":399,"correct":true,"confidence":-1},{"trial_n":12,"min":97,"max":158,"target":"absent","response":"absent","rt":521.80000001192,"correct":true,"confidence":-1},{"trial_n":13,"min":105,"max":150,"target":"absent","response":"absent","rt":561.59999999404,"correct":true,"confidence":-1},{"trial_n":14,"min":105,"max":150,"target":"present","response":"absent","rt":459.69999998808,"correct":false,"confidence":-1},{"trial_n":15,"min":97,"max":158,"target":"absent","response":"absent","rt":463.90000000596,"correct":true,"confidence":-1},{"trial_n":16,"min":97,"max":158,"target":"absent","response":"absent","rt":420.60000002384,"correct":true,"confidence":-1},{"trial_n":17,"min":105,"max":150,"target":"present","response":"absent","rt":382.60000002384,"correct":false,"confidence":-1},{"trial_n":18,"min":97,"max":158,"target":"absent","response":"absent","rt":783.59999999404,"correct":true,"confidence":-1},{"trial_n":19,"min":97,"max":158,"target":"present","response":"absent","rt":593,"correct":false,"confidence":-1},{"trial_n":20,"min":89,"max":166,"target":"absent","response":"present","rt":1195.2000000179,"correct":false,"confidence":-1},{"trial_n":21,"min":85,"max":170,"target":"present","response":"present","rt":448.59999999404,"correct":true,"confidence":4},{"trial_n":22,"min":85,"max":170,"target":"present","response":"present","rt":1975.5,"correct":true,"confidence":2},{"trial_n":23,"min":89,"max":166,"target":"present","response":"present","rt":1902.1999999881,"correct":true,"confidence":3},{"trial_n":24,"min":89,"max":166,"target":"absent","response":"absent","rt":1174.8000000119,"correct":true,"confidence":2},{"trial_n":25,"min":93,"max":162,"target":"absent","response":"present","rt":1202.5,"correct":false,"confidence":3},{"trial_n":26,"min":89,"max":166,"target":"present","response":"absent","rt":704,"correct":false,"confidence":4},{"trial_n":27,"min":85,"max":170,"target":"absent","response":"present","rt":909.30000001192,"correct":false,"confidence":4},{"trial_n":28,"min":81,"max":174,"target":"absent","response":"absent","rt":2195.599999994,"correct":true,"confidence":3},{"trial_n":29,"min":81,"max":174,"target":"present","response":"present","rt":775.30000001192,"correct":true,"confidence":5},{"trial_n":30,"min":85,"max":170,"target":"absent","response":"absent","rt":799.80000001192,"correct":true,"confidence":3},{"trial_n":31,"min":85,"max":170,"target":"absent","response":"present","rt":906.59999999404,"correct":false,"confidence":3},{"trial_n":32,"min":83,"max":172,"target":"present","response":"present","rt":771.30000001192,"correct":true,"confidence":5},{"trial_n":33,"min":83,"max":172,"target":"present","response":"present","rt":941.59999999404,"correct":true,"confidence":5},{"trial_n":34,"min":85,"max":170,"target":"present","response":"absent","rt":1253.400000006,"correct":false,"confidence":4},{"trial_n":35,"min":83,"max":172,"target":"absent","response":"absent","rt":687.20000001788,"correct":true,"confidence":3},{"trial_n":36,"min":83,"max":172,"target":"present","response":"present","rt":639.40000000596,"correct":true,"confidence":5},{"trial_n":37,"min":85,"max":170,"target":"present","response":"absent","rt":452.69999998808,"correct":false,"confidence":4},{"trial_n":38,"min":83,"max":172,"target":"absent","response":"absent","rt":651.19999998808,"correct":true,"confidence":4},{"trial_n":39,"min":83,"max":172,"target":"absent","response":"absent","rt":628.79999998212,"correct":true,"confidence":1},{"trial_n":40,"min":85,"max":170,"target":"absent","response":"present","rt":3994.5,"correct":false,"confidence":2},{"trial_n":41,"min":84,"max":171,"target":"present","response":"present","rt":782.5,"correct":true,"confidence":3},{"trial_n":42,"min":84,"max":171,"target":"present","response":"present","rt":845.09999999404,"correct":true,"confidence":3},{"trial_n":43,"min":85,"max":170,"target":"absent","response":"absent","rt":628.60000002384,"correct":true,"confidence":4},{"trial_n":44,"min":85,"max":170,"target":"absent","response":"absent","rt":463.40000000596,"correct":true,"confidence":4},{"trial_n":45,"min":86,"max":169,"target":"present","response":"absent","rt":829.30000001192,"correct":false,"confidence":1},{"trial_n":46,"min":85,"max":170,"target":"present","response":"present","rt":2859.599999994,"correct":true,"confidence":3},{"trial_n":47,"min":85,"max":170,"target":"present","response":"present","rt":895.5,"correct":true,"confidence":4},{"trial_n":48,"min":86,"max":169,"target":"absent","response":"absent","rt":3530.2000000179,"correct":true,"confidence":1},{"trial_n":49,"min":86,"max":169,"target":"present","response":"present","rt":589.40000000596,"correct":true,"confidence":3},{"trial_n":50,"min":87,"max":168,"target":"absent","response":"absent","rt":584.80000001192,"correct":true,"confidence":4},{"trial_n":51,"min":87,"max":168,"target":"absent","response":"absent","rt":942.90000000596,"correct":true,"confidence":3},{"trial_n":52,"min":88,"max":167,"target":"present","response":"absent","rt":981.09999999404,"correct":false,"confidence":3},{"trial_n":53,"min":87,"max":168,"target":"present","response":"present","rt":686.60000002384,"correct":true,"confidence":5},{"trial_n":54,"min":87,"max":168,"target":"present","response":"present","rt":876.30000001192,"correct":true,"confidence":5},{"trial_n":55,"min":88,"max":167,"target":"present","response":"present","rt":696.10000002384,"correct":true,"confidence":5},{"trial_n":56,"min":88,"max":167,"target":"absent","response":"absent","rt":481.20000001788,"correct":true,"confidence":4},{"trial_n":57,"min":89,"max":166,"target":"present","response":"absent","rt":643.80000001192,"correct":false,"confidence":4},{"trial_n":58,"min":88,"max":167,"target":"present","response":"absent","rt":645.80000001192,"correct":false,"confidence":4},{"trial_n":59,"min":87,"max":168,"target":"absent","response":"absent","rt":595.09999999404,"correct":true,"confidence":4},{"trial_n":60,"min":87,"max":168,"target":"absent","response":"absent","rt":628.59999999404,"correct":true,"confidence":4},{"trial_n":61,"min":88,"max":167,"target":"present","response":"present","rt":608.90000000596,"correct":true,"confidence":5},{"trial_n":62,"min":88,"max":167,"target":"present","response":"absent","rt":697.40000000596,"correct":false,"confidence":5},{"trial_n":63,"min":87,"max":168,"target":"present","response":"absent","rt":4487.900000006,"correct":false,"confidence":1},{"trial_n":64,"min":86,"max":169,"target":"absent","response":"absent","rt":810.39999997616,"correct":true,"confidence":4},{"trial_n":65,"min":86,"max":169,"target":"absent","response":"absent","rt":1314,"correct":true,"confidence":4},{"trial_n":66,"min":87,"max":168,"target":"absent","response":"absent","rt":894,"correct":true,"confidence":1},{"trial_n":67,"min":87,"max":168,"target":"absent","response":"absent","rt":2699.400000006,"correct":true,"confidence":1},{"trial_n":68,"min":88,"max":167,"target":"present","response":"present","rt":759.79999998212,"correct":true,"confidence":5},{"trial_n":69,"min":88,"max":167,"target":"present","response":"absent","rt":4086.1000000238,"correct":false,"confidence":1},{"trial_n":70,"min":87,"max":168,"target":"absent","response":"absent","rt":722.40000000596,"correct":true,"confidence":4},{"trial_n":71,"min":41,"max":214,"target":"present","response":"present","rt":8653.6999999881,"correct":true,"confidence":-1},{"trial_n":72,"min":41,"max":214,"target":"present","response":"present","rt":368.09999999404,"correct":true,"confidence":-1},{"trial_n":73,"min":57,"max":198,"target":"absent","response":"absent","rt":427.70000001788,"correct":true,"confidence":-1},{"trial_n":74,"min":57,"max":198,"target":"absent","response":"absent","rt":559.79999998212,"correct":true,"confidence":-1},{"trial_n":75,"min":73,"max":182,"target":"present","response":"absent","rt":489.70000001788,"correct":false,"confidence":-1},{"trial_n":76,"min":57,"max":198,"target":"present","response":"present","rt":471.69999998808,"correct":true,"confidence":-1},{"trial_n":77,"min":57,"max":198,"target":"absent","response":"absent","rt":399.19999998808,"correct":true,"confidence":-1},{"trial_n":78,"min":73,"max":182,"target":"present","response":"present","rt":518.30000001192,"correct":true,"confidence":-1},{"trial_n":79,"min":73,"max":182,"target":"present","response":"present","rt":501.20000001788,"correct":true,"confidence":-1},{"trial_n":80,"min":89,"max":166,"target":"present","response":"present","rt":1458.1999999881,"correct":true,"confidence":-1},{"trial_n":81,"min":89,"max":166,"target":"present","response":"present","rt":448.70000001788,"correct":true,"confidence":-1},{"trial_n":82,"min":97,"max":158,"target":"absent","response":"absent","rt":527.69999998808,"correct":true,"confidence":-1},{"trial_n":83,"min":97,"max":158,"target":"present","response":"absent","rt":1259.2000000179,"correct":false,"confidence":-1},{"trial_n":84,"min":89,"max":166,"target":"absent","response":"present","rt":590.89999997616,"correct":false,"confidence":-1},{"trial_n":85,"min":81,"max":174,"target":"absent","response":"present","rt":1088,"correct":false,"confidence":-1},{"trial_n":86,"min":73,"max":182,"target":"absent","response":"absent","rt":581.40000000596,"correct":true,"confidence":-1},{"trial_n":87,"min":73,"max":182,"target":"present","response":"present","rt":368.80000001192,"correct":true,"confidence":-1},{"trial_n":88,"min":81,"max":174,"target":"present","response":"present","rt":384.09999999404,"correct":true,"confidence":-1},{"trial_n":89,"min":81,"max":174,"target":"absent","response":"present","rt":975.60000002384,"correct":false,"confidence":-1},{"trial_n":90,"min":73,"max":182,"target":"present","response":"present","rt":450.90000000596,"correct":true,"confidence":-1},{"trial_n":91,"min":73,"max":182,"target":"present","response":"present","rt":448.09999999404,"correct":true,"confidence":5},{"trial_n":92,"min":77,"max":178,"target":"absent","response":"absent","rt":2036.8000000119,"correct":true,"confidence":4},{"trial_n":93,"min":77,"max":178,"target":"absent","response":"present","rt":1417.400000006,"correct":false,"confidence":4},{"trial_n":94,"min":73,"max":182,"target":"absent","response":"absent","rt":761.29999998212,"correct":true,"confidence":5},{"trial_n":95,"min":73,"max":182,"target":"absent","response":"absent","rt":778.5,"correct":true,"confidence":5},{"trial_n":96,"min":77,"max":178,"target":"absent","response":"absent","rt":767.69999998808,"correct":true,"confidence":5},{"trial_n":97,"min":77,"max":178,"target":"absent","response":"absent","rt":974,"correct":true,"confidence":5},{"trial_n":98,"min":81,"max":174,"target":"absent","response":"absent","rt":789.69999998808,"correct":true,"confidence":5},{"trial_n":99,"min":81,"max":174,"target":"present","response":"present","rt":946.59999999404,"correct":true,"confidence":5},{"trial_n":100,"min":85,"max":170,"target":"present","response":"present","rt":390.19999998808,"correct":true,"confidence":5},{"trial_n":101,"min":85,"max":170,"target":"present","response":"present","rt":1869.7000000179,"correct":true,"confidence":4},{"trial_n":102,"min":87,"max":168,"target":"absent","response":"absent","rt":820.5,"correct":true,"confidence":5},{"trial_n":103,"min":87,"max":168,"target":"absent","response":"absent","rt":1400.099999994,"correct":true,"confidence":4},{"trial_n":104,"min":89,"max":166,"target":"absent","response":"absent","rt":1066.8000000119,"correct":true,"confidence":3},{"trial_n":105,"min":89,"max":166,"target":"absent","response":"absent","rt":881.19999998808,"correct":true,"confidence":3},{"trial_n":106,"min":91,"max":164,"target":"present","response":"absent","rt":895.20000001788,"correct":false,"confidence":3},{"trial_n":107,"min":89,"max":166,"target":"absent","response":"absent","rt":1395.400000006,"correct":true,"confidence":1},{"trial_n":108,"min":89,"max":166,"target":"present","response":"present","rt":1071.099999994,"correct":true,"confidence":4},{"trial_n":109,"min":91,"max":164,"target":"present","response":"present","rt":699.19999998808,"correct":true,"confidence":4},{"trial_n":110,"min":91,"max":164,"target":"absent","response":"absent","rt":1405,"correct":true,"confidence":2},{"trial_n":111,"min":92,"max":163,"target":"present","response":"present","rt":665.40000000596,"correct":true,"confidence":4},{"trial_n":112,"min":92,"max":163,"target":"absent","response":"absent","rt":788.59999999404,"correct":true,"confidence":1},{"trial_n":113,"min":93,"max":162,"target":"absent","response":"absent","rt":835.69999998808,"correct":true,"confidence":3},{"trial_n":114,"min":93,"max":162,"target":"present","response":"present","rt":504.5,"correct":true,"confidence":5},{"trial_n":115,"min":94,"max":161,"target":"absent","response":"absent","rt":1289.599999994,"correct":true,"confidence":3},{"trial_n":116,"min":94,"max":161,"target":"absent","response":"present","rt":962.29999998212,"correct":false,"confidence":3},{"trial_n":117,"min":93,"max":162,"target":"absent","response":"absent","rt":889,"correct":true,"confidence":4},{"trial_n":118,"min":93,"max":162,"target":"present","response":"absent","rt":724.10000002384,"correct":false,"confidence":3},{"trial_n":119,"min":92,"max":163,"target":"present","response":"present","rt":947.69999998808,"correct":true,"confidence":4},{"trial_n":120,"min":92,"max":163,"target":"present","response":"present","rt":1059.900000006,"correct":true,"confidence":3},{"trial_n":121,"min":93,"max":162,"target":"absent","response":"present","rt":610.10000002384,"correct":false,"confidence":4},{"trial_n":122,"min":92,"max":163,"target":"absent","response":"absent","rt":872.80000001192,"correct":true,"confidence":1},{"trial_n":123,"min":92,"max":163,"target":"present","response":"present","rt":647.69999998808,"correct":true,"confidence":3},{"trial_n":124,"min":93,"max":162,"target":"present","response":"present","rt":871.59999999404,"correct":true,"confidence":3},{"trial_n":125,"min":93,"max":162,"target":"present","response":"present","rt":621.79999998212,"correct":true,"confidence":3},{"trial_n":126,"min":94,"max":161,"target":"present","response":"present","rt":775.10000002384,"correct":true,"confidence":3},{"trial_n":127,"min":94,"max":161,"target":"present","response":"present","rt":557.5,"correct":true,"confidence":4},{"trial_n":128,"min":95,"max":160,"target":"present","response":"present","rt":1236.6000000238,"correct":true,"confidence":3},{"trial_n":129,"min":95,"max":160,"target":"absent","response":"absent","rt":763.60000002384,"correct":true,"confidence":4},{"trial_n":130,"min":96,"max":159,"target":"present","response":"present","rt":1122,"correct":true,"confidence":4},{"trial_n":131,"min":96,"max":159,"target":"present","response":"present","rt":658.5,"correct":true,"confidence":3},{"trial_n":132,"min":97,"max":158,"target":"present","response":"present","rt":2145.3000000119,"correct":true,"confidence":2},{"trial_n":133,"min":97,"max":158,"target":"present","response":"present","rt":888.5,"correct":true,"confidence":3},{"trial_n":134,"min":98,"max":157,"target":"absent","response":"present","rt":883.5,"correct":false,"confidence":2},{"trial_n":135,"min":97,"max":158,"target":"present","response":"present","rt":879.30000001192,"correct":true,"confidence":2},{"trial_n":136,"min":97,"max":158,"target":"absent","response":"present","rt":743,"correct":false,"confidence":2},{"trial_n":137,"min":96,"max":159,"target":"absent","response":"absent","rt":333.69999998808,"correct":true,"confidence":2},{"trial_n":138,"min":96,"max":159,"target":"present","response":"present","rt":1003.2000000179,"correct":true,"confidence":3},{"trial_n":139,"min":97,"max":158,"target":"absent","response":"present","rt":1388.2999999821,"correct":false,"confidence":3},{"trial_n":140,"min":96,"max":159,"target":"absent","response":"present","rt":1283.099999994,"correct":false,"confidence":1}]