[{"trial_n":1,"n_dots":4.25,"target":"left","response":"right","rt":11644,"correct":false,"confidence":-1},{"trial_n":2,"n_dots":4.25,"target":"left","response":"right","rt":1080,"correct":false,"confidence":-1},{"trial_n":3,"n_dots":4.65,"target":"right","response":"right","rt":514.79999995232,"correct":true,"confidence":-1},{"trial_n":4,"n_dots":4.65,"target":"right","response":"right","rt":801.69999980927,"correct":true,"confidence":-1},{"trial_n":5,"n_dots":4.25,"target":"right","response":"right","rt":769.09999990463,"correct":true,"confidence":-1},{"trial_n":6,"n_dots":4.25,"target":"right","response":"right","rt":513.79999995232,"correct":true,"confidence":-1},{"trial_n":7,"n_dots":3.85,"target":"right","response":"right","rt":309.89999985695,"correct":true,"confidence":-1},{"trial_n":8,"n_dots":3.85,"target":"left","response":"left","rt":542.40000009537,"correct":true,"confidence":-1},{"trial_n":9,"n_dots":3.65,"target":"left","response":"left","rt":162.79999995232,"correct":true,"confidence":-1},{"trial_n":10,"n_dots":3.65,"target":"left","response":"left","rt":592.5,"correct":true,"confidence":-1},{"trial_n":11,"n_dots":3.45,"target":"right","response":"right","rt":178.59999990463,"correct":true,"confidence":-1},{"trial_n":12,"n_dots":3.45,"target":"right","response":"right","rt":1029.1999998093,"correct":true,"confidence":-1},{"trial_n":13,"n_dots":3.35,"target":"right","response":"right","rt":536.79999995232,"correct":true,"confidence":-1},{"trial_n":14,"n_dots":3.35,"target":"left","response":"left","rt":225.09999990463,"correct":true,"confidence":-1},{"trial_n":15,"n_dots":3.25,"target":"left","response":"left","rt":571.5,"correct":true,"confidence":-1},{"trial_n":16,"n_dots":3.25,"target":"right","response":"right","rt":95.399999856949,"correct":true,"confidence":-1},{"trial_n":17,"n_dots":3.15,"target":"right","response":"right","rt":992.79999995232,"correct":true,"confidence":-1},{"trial_n":18,"n_dots":3.15,"target":"left","response":"left","rt":296.10000014305,"correct":true,"confidence":-1},{"trial_n":19,"n_dots":3.05,"target":"right","response":"right","rt":152.19999980927,"correct":true,"confidence":-1},{"trial_n":20,"n_dots":3.05,"target":"right","response":"right","rt":90.899999856949,"correct":true,"confidence":-1},{"trial_n":21,"n_dots":2.95,"target":"left","response":"left","rt":158.79999995232,"correct":true,"confidence":3},{"trial_n":22,"n_dots":2.95,"target":"right","response":"right","rt":296.29999995232,"correct":true,"confidence":3},{"trial_n":23,"n_dots":2.85,"target":"right","response":"right","rt":352.5,"correct":true,"confidence":2},{"trial_n":24,"n_dots":2.85,"target":"left","response":"right","rt":312.89999985695,"correct":false,"confidence":3},{"trial_n":25,"n_dots":2.95,"target":"right","response":"right","rt":102.70000004768,"correct":true,"confidence":3},{"trial_n":26,"n_dots":2.95,"target":"left","response":"right","rt":668.79999995232,"correct":false,"confidence":2},{"trial_n":27,"n_dots":3.05,"target":"left","response":"right","rt":98,"correct":false,"confidence":4},{"trial_n":28,"n_dots":3.15,"target":"right","response":"right","rt":52.799999952316,"correct":true,"confidence":4},{"trial_n":29,"n_dots":3.15,"target":"right","response":"right","rt":1.0999999046326,"correct":true,"confidence":2},{"trial_n":30,"n_dots":3.05,"target":"right","response":"right","rt":126.29999995232,"correct":true,"confidence":4},{"trial_n":31,"n_dots":3.05,"target":"right","response":"right","rt":115.59999990463,"correct":true,"confidence":4},{"trial_n":32,"n_dots":2.95,"target":"right","response":"right","rt":278.10000014305,"correct":true,"confidence":4},{"trial_n":33,"n_dots":2.95,"target":"left","response":"left","rt":370.40000009537,"correct":true,"confidence":2},{"trial_n":34,"n_dots":2.85,"target":"right","response":"right","rt":290.5,"correct":true,"confidence":3},{"trial_n":35,"n_dots":2.85,"target":"left","response":"left","rt":141.20000004768,"correct":true,"confidence":2},{"trial_n":36,"n_dots":2.75,"target":"right","response":"right","rt":11.299999952316,"correct":true,"confidence":2},{"trial_n":37,"n_dots":2.75,"target":"right","response":"right","rt":3.7000000476837,"correct":true,"confidence":3},{"trial_n":38,"n_dots":2.65,"target":"right","response":"right","rt":123.89999985695,"correct":true,"confidence":2},{"trial_n":39,"n_dots":2.65,"target":"right","response":"right","rt":773,"correct":true,"confidence":1},{"trial_n":40,"n_dots":2.55,"target":"right","response":"right","rt":198.70000004768,"correct":true,"confidence":1},{"trial_n":41,"n_dots":2.55,"target":"right","response":"left","rt":81.200000047684,"correct":false,"confidence":3},{"trial_n":42,"n_dots":2.65,"target":"left","response":"left","rt":853.89999985695,"correct":true,"confidence":3},{"trial_n":43,"n_dots":2.65,"target":"right","response":"right","rt":2,"correct":true,"confidence":3},{"trial_n":44,"n_dots":2.55,"target":"left","response":"right","rt":586.29999995232,"correct":false,"confidence":2},{"trial_n":45,"n_dots":2.65,"target":"left","response":"right","rt":28.400000095367,"correct":false,"confidence":2},{"trial_n":46,"n_dots":2.75,"target":"right","response":"right","rt":692.90000009537,"correct":true,"confidence":2},{"trial_n":47,"n_dots":2.75,"target":"left","response":"left","rt":662,"correct":true,"confidence":4},{"trial_n":48,"n_dots":2.65,"target":"left","response":"left","rt":20,"correct":true,"confidence":4},{"trial_n":49,"n_dots":2.65,"target":"left","response":"left","rt":85.400000095367,"correct":true,"confidence":2},{"trial_n":50,"n_dots":2.55,"target":"left","response":"left","rt":3.5999999046326,"correct":true,"confidence":4},{"trial_n":51,"n_dots":2.55,"target":"left","response":"right","rt":169.20000004768,"correct":false,"confidence":1},{"trial_n":52,"n_dots":2.65,"target":"left","response":"left","rt":237.89999985695,"correct":true,"confidence":3},{"trial_n":53,"n_dots":2.65,"target":"left","response":"right","rt":446.5,"correct":false,"confidence":1},{"trial_n":54,"n_dots":2.75,"target":"left","response":"right","rt":533.59999990463,"correct":false,"confidence":1},{"trial_n":55,"n_dots":2.85,"target":"left","response":"left","rt":29.900000095367,"correct":true,"confidence":3},{"trial_n":56,"n_dots":2.85,"target":"left","response":"right","rt":156.20000004768,"correct":false,"confidence":2},{"trial_n":57,"n_dots":2.95,"target":"right","response":"right","rt":68.799999952316,"correct":true,"confidence":1},{"trial_n":58,"n_dots":2.95,"target":"right","response":"right","rt":95.5,"correct":true,"confidence":2},{"trial_n":59,"n_dots":2.85,"target":"right","response":"left","rt":186.10000014305,"correct":false,"confidence":3},{"trial_n":60,"n_dots":2.95,"target":"right","response":"right","rt":196.70000004768,"correct":true,"confidence":1},{"trial_n":61,"n_dots":2.95,"target":"left","response":"left","rt":536.79999995232,"correct":true,"confidence":1},{"trial_n":62,"n_dots":2.85,"target":"right","response":"right","rt":589.29999995232,"correct":true,"confidence":2},{"trial_n":63,"n_dots":2.85,"target":"right","response":"left","rt":120.5,"correct":false,"confidence":1},{"trial_n":64,"n_dots":2.95,"target":"right","response":"right","rt":402,"correct":true,"confidence":3},{"trial_n":65,"n_dots":2.95,"target":"right","response":"right","rt":140.79999995232,"correct":true,"confidence":1},{"trial_n":66,"n_dots":2.85,"target":"left","response":"left","rt":183.79999995232,"correct":true,"confidence":3},{"trial_n":67,"n_dots":2.85,"target":"left","response":"right","rt":549.20000004768,"correct":false,"confidence":1},{"trial_n":68,"n_dots":2.95,"target":"left","response":"left","rt":136,"correct":true,"confidence":4},{"trial_n":69,"n_dots":2.95,"target":"left","response":"left","rt":78.100000143051,"correct":true,"confidence":4},{"trial_n":70,"n_dots":2.85,"target":"right","response":"left","rt":105.80000019073,"correct":false,"confidence":1},{"trial_n":71,"n_dots":2.95,"target":"left","response":"right","rt":139.80000019073,"correct":false,"confidence":3},{"trial_n":72,"n_dots":3.05,"target":"right","response":"right","rt":465.90000009537,"correct":true,"confidence":4},{"trial_n":73,"n_dots":3.05,"target":"left","response":"right","rt":189.70000004768,"correct":false,"confidence":1},{"trial_n":74,"n_dots":3.15,"target":"left","response":"right","rt":1790.2999999523,"correct":false,"confidence":3},{"trial_n":75,"n_dots":3.25,"target":"right","response":"right","rt":115.29999995232,"correct":true,"confidence":3},{"trial_n":76,"n_dots":3.25,"target":"right","response":"right","rt":226.5,"correct":true,"confidence":1},{"trial_n":77,"n_dots":3.15,"target":"left","response":"right","rt":2308.6000001431,"correct":false,"confidence":1},{"trial_n":78,"n_dots":3.25,"target":"left","response":"left","rt":256.40000009537,"correct":true,"confidence":1},{"trial_n":79,"n_dots":3.25,"target":"right","response":"right","rt":126.59999990463,"correct":true,"confidence":3},{"trial_n":80,"n_dots":3.15,"target":"right","response":"right","rt":64.900000095367,"correct":true,"confidence":1},{"trial_n":81,"n_dots":3.15,"target":"right","response":"left","rt":107.60000014305,"correct":false,"confidence":1},{"trial_n":82,"n_dots":3.25,"target":"left","response":"left","rt":645,"correct":true,"confidence":1},{"trial_n":83,"n_dots":3.25,"target":"left","response":"left","rt":846.10000014305,"correct":true,"confidence":3},{"trial_n":84,"n_dots":3.15,"target":"right","response":"right","rt":5.6999998092651,"correct":true,"confidence":1},{"trial_n":85,"n_dots":3.15,"target":"left","response":"right","rt":57.599999904633,"correct":false,"confidence":1},{"trial_n":86,"n_dots":3.25,"target":"right","response":"right","rt":662.5,"correct":true,"confidence":2},{"trial_n":87,"n_dots":3.25,"target":"right","response":"right","rt":37.099999904633,"correct":true,"confidence":2},{"trial_n":88,"n_dots":3.15,"target":"right","response":"right","rt":90.299999952316,"correct":true,"confidence":1},{"trial_n":89,"n_dots":3.15,"target":"left","response":"left","rt":743.89999985695,"correct":true,"confidence":4},{"trial_n":90,"n_dots":3.05,"target":"right","response":"left","rt":37.5,"correct":false,"confidence":1},{"trial_n":91,"n_dots":3.15,"target":"right","response":"left","rt":34.600000143051,"correct":false,"confidence":1},{"trial_n":92,"n_dots":3.25,"target":"left","response":"left","rt":744.70000004768,"correct":true,"confidence":1},{"trial_n":93,"n_dots":3.25,"target":"right","response":"right","rt":148.19999980927,"correct":true,"confidence":3},{"trial_n":94,"n_dots":3.15,"target":"left","response":"left","rt":95.900000095367,"correct":true,"confidence":4},{"trial_n":95,"n_dots":3.15,"target":"left","response":"right","rt":60,"correct":false,"confidence":1},{"trial_n":96,"n_dots":3.25,"target":"left","response":"right","rt":4.5,"correct":false,"confidence":3},{"trial_n":97,"n_dots":3.35,"target":"right","response":"right","rt":80,"correct":true,"confidence":4},{"trial_n":98,"n_dots":3.35,"target":"left","response":"left","rt":1026.5,"correct":true,"confidence":2},{"trial_n":99,"n_dots":3.25,"target":"left","response":"left","rt":722.70000004768,"correct":true,"confidence":3},{"trial_n":100,"n_dots":3.25,"target":"right","response":"left","rt":671.70000004768,"correct":false,"confidence":3},{"trial_n":101,"n_dots":3.35,"target":"right","response":"right","rt":35,"correct":true,"confidence":3},{"trial_n":102,"n_dots":3.35,"target":"left","response":"left","rt":214.5,"correct":true,"confidence":2},{"trial_n":103,"n_dots":3.25,"target":"left","response":"left","rt":86.100000143051,"correct":true,"confidence":4},{"trial_n":104,"n_dots":3.25,"target":"left","response":"right","rt":196.29999995232,"correct":false,"confidence":1},{"trial_n":105,"n_dots":3.35,"target":"right","response":"right","rt":515.90000009537,"correct":true,"confidence":1},{"trial_n":106,"n_dots":3.35,"target":"left","response":"left","rt":262.39999985695,"correct":true,"confidence":2},{"trial_n":107,"n_dots":3.25,"target":"left","response":"right","rt":886.40000009537,"correct":false,"confidence":1},{"trial_n":108,"n_dots":3.35,"target":"left","response":"left","rt":680.80000019073,"correct":true,"confidence":1},{"trial_n":109,"n_dots":3.35,"target":"left","response":"left","rt":192,"correct":true,"confidence":1},{"trial_n":110,"n_dots":3.25,"target":"left","response":"left","rt":426.59999990463,"correct":true,"confidence":1},{"trial_n":111,"n_dots":3.25,"target":"left","response":"left","rt":262.69999980927,"correct":true,"confidence":1},{"trial_n":112,"n_dots":3.15,"target":"left","response":"left","rt":206.80000019073,"correct":true,"confidence":1},{"trial_n":113,"n_dots":3.15,"target":"right","response":"right","rt":685.40000009537,"correct":true,"confidence":1},{"trial_n":114,"n_dots":3.05,"target":"left","response":"left","rt":474.20000004768,"correct":true,"confidence":1},{"trial_n":115,"n_dots":3.05,"target":"right","response":"right","rt":141.59999990463,"correct":true,"confidence":1},{"trial_n":116,"n_dots":2.95,"target":"right","response":"left","rt":413.19999980927,"correct":false,"confidence":1},{"trial_n":117,"n_dots":3.05,"target":"left","response":"left","rt":288.40000009537,"correct":true,"confidence":1},{"trial_n":118,"n_dots":3.05,"target":"right","response":"right","rt":39.299999952316,"correct":true,"confidence":1},{"trial_n":119,"n_dots":2.95,"target":"left","response":"left","rt":165.70000004768,"correct":true,"confidence":1},{"trial_n":120,"n_dots":2.95,"target":"right","response":"right","rt":0.59999990463257,"correct":true,"confidence":1}]