[{"trial_n":1,"span":8,"encoder":"38035371","distractor":"38035391","target":"present","response":"present","rt":"9041.7999999821","correct":true,"confidence":-1},{"trial_n":2,"span":8,"encoder":"44929012","distractor":"44921012","target":"present","response":"absent","rt":"3986","correct":false,"confidence":-1},{"trial_n":3,"span":6,"encoder":"445538","distractor":"455538","target":"absent","response":"absent","rt":"1800.2999999821","correct":true,"confidence":-1},{"trial_n":4,"span":6,"encoder":"820295","distractor":"828295","target":"absent","response":"present","rt":"1675.400000006","correct":false,"confidence":-1},{"trial_n":5,"span":4,"encoder":"2211","distractor":"2217","target":"present","response":"present","rt":"1114.2999999821","correct":true,"confidence":-1},{"trial_n":6,"span":4,"encoder":"0194","distractor":"0794","target":"absent","response":"present","rt":"1045.5","correct":false,"confidence":-1},{"trial_n":7,"span":2,"encoder":"52","distractor":"02","target":"absent","response":"present","rt":"1320.8000000119","correct":false,"confidence":-1},{"trial_n":8,"span":2,"encoder":"62","distractor":"66","target":"present","response":"present","rt":"1457.7999999821","correct":true,"confidence":-1},{"trial_n":9,"span":2,"encoder":"10","distractor":"11","target":"absent","response":"absent","rt":"842.19999998808","correct":true,"confidence":-1},{"trial_n":10,"span":4,"encoder":"8677","distractor":"8670","target":"absent","response":"absent","rt":"1481.1000000238","correct":true,"confidence":-1},{"trial_n":11,"span":4,"encoder":"2974","distractor":"2984","target":"absent","response":"present","rt":"958.69999998808","correct":false,"confidence":-1},{"trial_n":12,"span":3,"encoder":"677","distractor":"077","target":"absent","response":"present","rt":"1597.599999994","correct":false,"confidence":-1},{"trial_n":13,"span":2,"encoder":"76","distractor":"71","target":"present","response":"present","rt":"732.10000002384","correct":true,"confidence":-1},{"trial_n":14,"span":2,"encoder":"82","distractor":"81","target":"absent","response":"absent","rt":"828.59999999404","correct":true,"confidence":-1},{"trial_n":15,"span":3,"encoder":"956","distractor":"906","target":"present","response":"present","rt":"807.5","correct":true,"confidence":-1},{"trial_n":16,"span":3,"encoder":"422","distractor":"428","target":"present","response":"present","rt":"698.20000001788","correct":true,"confidence":-1},{"trial_n":17,"span":4,"encoder":"7609","distractor":"7601","target":"absent","response":"absent","rt":"962.69999998808","correct":true,"confidence":-1},{"trial_n":18,"span":4,"encoder":"9417","distractor":"6417","target":"absent","response":"present","rt":"825.69999998808","correct":false,"confidence":-1},{"trial_n":19,"span":3,"encoder":"220","distractor":"226","target":"absent","response":"absent","rt":"828.79999998212","correct":true,"confidence":-1},{"trial_n":20,"span":3,"encoder":"053","distractor":"051","target":"present","response":"present","rt":"893.80000001192","correct":true,"confidence":-1},{"trial_n":21,"span":4,"encoder":"2757","distractor":"2857","target":"present","response":"present","rt":"1408.900000006","correct":true,"confidence":4},{"trial_n":22,"span":4,"encoder":"9988","distractor":"9984","target":"absent","response":"absent","rt":"1237.2000000179","correct":true,"confidence":5},{"trial_n":23,"span":5,"encoder":"10041","distractor":"60041","target":"present","response":"present","rt":"1330.8000000119","correct":true,"confidence":5},{"trial_n":24,"span":5,"encoder":"81028","distractor":"81828","target":"present","response":"present","rt":"2549.400000006","correct":true,"confidence":5},{"trial_n":25,"span":6,"encoder":"334249","distractor":"334240","target":"absent","response":"absent","rt":"1454.2999999821","correct":true,"confidence":5},{"trial_n":26,"span":6,"encoder":"880922","distractor":"800922","target":"present","response":"present","rt":"3641.3000000119","correct":true,"confidence":3},{"trial_n":27,"span":7,"encoder":"2880799","distractor":"2880790","target":"present","response":"present","rt":"1626.3999999762","correct":true,"confidence":5},{"trial_n":28,"span":7,"encoder":"5950615","distractor":"5951615","target":"absent","response":"absent","rt":"1486.599999994","correct":true,"confidence":2},{"trial_n":29,"span":8,"encoder":"55265453","distractor":"53265453","target":"present","response":"absent","rt":"1810.099999994","correct":false,"confidence":1},{"trial_n":30,"span":7,"encoder":"3387894","distractor":"3384894","target":"present","response":"present","rt":"3049.3000000119","correct":true,"confidence":3},{"trial_n":31,"span":7,"encoder":"6548441","distractor":"6848441","target":"absent","response":"present","rt":"4497.1999999881","correct":false,"confidence":5},{"trial_n":32,"span":6,"encoder":"922634","distractor":"992634","target":"present","response":"present","rt":"2647.900000006","correct":true,"confidence":5},{"trial_n":33,"span":6,"encoder":"040733","distractor":"040133","target":"absent","response":"absent","rt":"2775.6999999881","correct":true,"confidence":5},{"trial_n":34,"span":7,"encoder":"5481156","distractor":"5481126","target":"present","response":"present","rt":"4834.3000000119","correct":true,"confidence":5},{"trial_n":35,"span":7,"encoder":"5879557","distractor":"5879556","target":"present","response":"present","rt":"3113.3999999762","correct":true,"confidence":5},{"trial_n":36,"span":8,"encoder":"17857915","distractor":"17856915","target":"present","response":"present","rt":"1342.6999999881","correct":true,"confidence":1},{"trial_n":37,"span":8,"encoder":"46266369","distractor":"46266469","target":"present","response":"present","rt":"1880.400000006","correct":true,"confidence":3},{"trial_n":38,"span":9,"encoder":"209057549","distractor":"209007549","target":"present","response":"present","rt":"4318.8000000119","correct":true,"confidence":3},{"trial_n":39,"span":9,"encoder":"836743146","distractor":"836743147","target":"present","response":"present","rt":"1330.1999999881","correct":true,"confidence":3},{"trial_n":40,"span":10,"encoder":"6165739515","distractor":"6165739615","target":"absent","response":"present","rt":"3396.6000000238","correct":false,"confidence":5},{"trial_n":41,"span":9,"encoder":"879557997","distractor":"679557997","target":"absent","response":"present","rt":"1520.7999999821","correct":false,"confidence":4},{"trial_n":42,"span":8,"encoder":"96368640","distractor":"96368660","target":"absent","response":"absent","rt":"3161.599999994","correct":true,"confidence":5},{"trial_n":43,"span":8,"encoder":"82742577","distractor":"82742517","target":"present","response":"present","rt":"2154.099999994","correct":true,"confidence":5},{"trial_n":44,"span":9,"encoder":"845803487","distractor":"745803487","target":"absent","response":"present","rt":"2123.1000000238","correct":false,"confidence":5},{"trial_n":45,"span":8,"encoder":"37906780","distractor":"37906781","target":"absent","response":"absent","rt":"1826.400000006","correct":true,"confidence":5},{"trial_n":46,"span":8,"encoder":"14946972","distractor":"14916972","target":"absent","response":"absent","rt":"386.90000000596","correct":true,"confidence":1},{"trial_n":47,"span":9,"encoder":"792480377","distractor":"792480327","target":"absent","response":"present","rt":"1982.599999994","correct":false,"confidence":2},{"trial_n":48,"span":8,"encoder":"51508768","distractor":"51108768","target":"present","response":"present","rt":"4126.2999999821","correct":true,"confidence":5},{"trial_n":49,"span":8,"encoder":"67542717","distractor":"77542717","target":"absent","response":"present","rt":"2758.3999999762","correct":false,"confidence":1},{"trial_n":50,"span":7,"encoder":"7459807","distractor":"7459107","target":"present","response":"present","rt":"1401.6999999881","correct":true,"confidence":3},{"trial_n":51,"span":7,"encoder":"5384605","distractor":"5314605","target":"absent","response":"present","rt":"1219.599999994","correct":false,"confidence":3},{"trial_n":52,"span":6,"encoder":"324640","distractor":"224640","target":"absent","response":"present","rt":"1233","correct":false,"confidence":2},{"trial_n":53,"span":5,"encoder":"62479","distractor":"62470","target":"present","response":"present","rt":"2904.099999994","correct":true,"confidence":5},{"trial_n":54,"span":5,"encoder":"64229","distractor":"64629","target":"absent","response":"absent","rt":"3305.900000006","correct":true,"confidence":5},{"trial_n":55,"span":6,"encoder":"521151","distractor":"531151","target":"absent","response":"present","rt":"1632.400000006","correct":false,"confidence":5},{"trial_n":56,"span":5,"encoder":"32156","distractor":"32159","target":"present","response":"present","rt":"1346.900000006","correct":true,"confidence":5},{"trial_n":57,"span":5,"encoder":"70086","distractor":"71086","target":"absent","response":"present","rt":"1090","correct":false,"confidence":5},{"trial_n":58,"span":4,"encoder":"3717","distractor":"3747","target":"present","response":"present","rt":"1127.3000000119","correct":true,"confidence":5},{"trial_n":59,"span":4,"encoder":"1289","distractor":"0289","target":"present","response":"present","rt":"1257.1999999881","correct":true,"confidence":5},{"trial_n":60,"span":5,"encoder":"85271","distractor":"85211","target":"present","response":"present","rt":"1803.900000006","correct":true,"confidence":5},{"trial_n":61,"span":5,"encoder":"58366","distractor":"50366","target":"present","response":"present","rt":"1512.3999999762","correct":true,"confidence":5},{"trial_n":62,"span":6,"encoder":"125314","distractor":"125394","target":"present","response":"present","rt":"2204.1999999881","correct":true,"confidence":5},{"trial_n":63,"span":6,"encoder":"390995","distractor":"320995","target":"absent","response":"present","rt":"2222.099999994","correct":false,"confidence":4},{"trial_n":64,"span":5,"encoder":"35819","distractor":"65819","target":"present","response":"present","rt":"1648.7999999821","correct":true,"confidence":2},{"trial_n":65,"span":5,"encoder":"70659","distractor":"70689","target":"present","response":"present","rt":"1138.900000006","correct":true,"confidence":5},{"trial_n":66,"span":6,"encoder":"005829","distractor":"005629","target":"absent","response":"present","rt":"938.80000001192","correct":false,"confidence":5},{"trial_n":67,"span":5,"encoder":"81439","distractor":"81430","target":"absent","response":"present","rt":"1806.3999999762","correct":false,"confidence":5},{"trial_n":68,"span":4,"encoder":"9191","distractor":"9591","target":"present","response":"present","rt":"912.19999998808","correct":true,"confidence":5},{"trial_n":69,"span":4,"encoder":"2219","distractor":"2213","target":"absent","response":"absent","rt":"1527.099999994","correct":true,"confidence":5},{"trial_n":70,"span":5,"encoder":"01439","distractor":"51439","target":"present","response":"present","rt":"1380.8000000119","correct":true,"confidence":5},{"trial_n":71,"span":8,"encoder":"09310728","distractor":"09390728","target":"present","response":"present","rt":"9160.6999999881","correct":true,"confidence":-1},{"trial_n":72,"span":8,"encoder":"99829291","distractor":"99821291","target":"present","response":"absent","rt":"4137.099999994","correct":false,"confidence":-1},{"trial_n":73,"span":7,"encoder":"9538224","distractor":"9738224","target":"absent","response":"absent","rt":"4301.6999999881","correct":true,"confidence":-1},{"trial_n":74,"span":7,"encoder":"0658674","distractor":"0658675","target":"absent","response":"present","rt":"5703.599999994","correct":false,"confidence":-1},{"trial_n":75,"span":6,"encoder":"722678","distractor":"792678","target":"present","response":"present","rt":"3212.1999999881","correct":true,"confidence":-1},{"trial_n":76,"span":6,"encoder":"242981","distractor":"142981","target":"absent","response":"absent","rt":"6846.099999994","correct":true,"confidence":-1},{"trial_n":77,"span":7,"encoder":"4702762","distractor":"4702702","target":"present","response":"absent","rt":"3685.6999999881","correct":false,"confidence":-1},{"trial_n":78,"span":6,"encoder":"926528","distractor":"920528","target":"present","response":"present","rt":"2917.5","correct":true,"confidence":-1},{"trial_n":79,"span":6,"encoder":"815933","distractor":"885933","target":"absent","response":"absent","rt":"4212.900000006","correct":true,"confidence":-1},{"trial_n":80,"span":7,"encoder":"5014210","distractor":"5014250","target":"absent","response":"present","rt":"3475.7000000179","correct":false,"confidence":-1},{"trial_n":81,"span":6,"encoder":"368121","distractor":"768121","target":"absent","response":"present","rt":"3216.1999999881","correct":false,"confidence":-1},{"trial_n":82,"span":5,"encoder":"83888","distractor":"83848","target":"absent","response":"absent","rt":"1626.1999999881","correct":true,"confidence":-1},{"trial_n":83,"span":5,"encoder":"24112","distractor":"21112","target":"present","response":"present","rt":"1981.5","correct":true,"confidence":-1},{"trial_n":84,"span":6,"encoder":"804187","distractor":"804787","target":"absent","response":"present","rt":"3680.599999994","correct":false,"confidence":-1},{"trial_n":85,"span":5,"encoder":"87158","distractor":"87168","target":"absent","response":"absent","rt":"3683.2000000179","correct":true,"confidence":-1},{"trial_n":86,"span":5,"encoder":"54823","distractor":"94823","target":"absent","response":"absent","rt":"2918.099999994","correct":true,"confidence":-1},{"trial_n":87,"span":6,"encoder":"332418","distractor":"432418","target":"absent","response":"absent","rt":"2365.900000006","correct":true,"confidence":-1},{"trial_n":88,"span":6,"encoder":"800659","distractor":"820659","target":"present","response":"present","rt":"2515.7000000179","correct":true,"confidence":-1},{"trial_n":89,"span":7,"encoder":"8968038","distractor":"8928038","target":"absent","response":"absent","rt":"8603.900000006","correct":true,"confidence":-1},{"trial_n":90,"span":7,"encoder":"0447471","distractor":"0442471","target":"present","response":"present","rt":"3238.8000000119","correct":true,"confidence":-1},{"trial_n":91,"span":8,"encoder":"35403967","distractor":"35423967","target":"present","response":"present","rt":"5778.599999994","correct":true,"confidence":3},{"trial_n":92,"span":8,"encoder":"02139662","distractor":"82139662","target":"absent","response":"absent","rt":"6703.1999999881","correct":true,"confidence":3},{"trial_n":93,"span":9,"encoder":"384226164","distractor":"384226166","target":"present","response":"present","rt":"1804.5","correct":true,"confidence":5},{"trial_n":94,"span":9,"encoder":"403418022","distractor":"403418522","target":"present","response":"present","rt":"3807","correct":true,"confidence":4},{"trial_n":95,"span":10,"encoder":"4214517682","distractor":"4214517683","target":"absent","response":"absent","rt":"1816.1999999881","correct":true,"confidence":5},{"trial_n":96,"span":10,"encoder":"4701101213","distractor":"6701101213","target":"absent","response":"absent","rt":"4459.599999994","correct":true,"confidence":5},{"trial_n":97,"span":11,"encoder":"68028418132","distractor":"68028418131","target":"present","response":"absent","rt":"3503.1999999881","correct":false,"confidence":2},{"trial_n":98,"span":10,"encoder":"4827077730","distractor":"4827977730","target":"absent","response":"absent","rt":"4204.400000006","correct":true,"confidence":1},{"trial_n":99,"span":10,"encoder":"7934368549","distractor":"7934368541","target":"absent","response":"absent","rt":"1870.6999999881","correct":true,"confidence":5},{"trial_n":100,"span":11,"encoder":"91915829194","distractor":"91915829198","target":"present","response":"present","rt":"1876.6999999881","correct":true,"confidence":5},{"trial_n":101,"span":11,"encoder":"04640791807","distractor":"04640691807","target":"absent","response":"present","rt":"9429.3000000119","correct":false,"confidence":1},{"trial_n":102,"span":10,"encoder":"0967039126","distractor":"0867039126","target":"present","response":"present","rt":"3879.599999994","correct":true,"confidence":3},{"trial_n":103,"span":10,"encoder":"6113475486","distractor":"6113275486","target":"present","response":"present","rt":"2970.5","correct":true,"confidence":1},{"trial_n":104,"span":11,"encoder":"13659880774","distractor":"13659880074","target":"present","response":"present","rt":"2490.1000000238","correct":true,"confidence":1},{"trial_n":105,"span":11,"encoder":"42020217838","distractor":"42020267838","target":"present","response":"present","rt":"2760.1999999881","correct":true,"confidence":1},{"trial_n":106,"span":12,"encoder":"780212977106","distractor":"770212977106","target":"present","response":"absent","rt":"3999.099999994","correct":false,"confidence":4},{"trial_n":107,"span":11,"encoder":"25131401871","distractor":"25131401801","target":"present","response":"present","rt":"2184.2999999821","correct":true,"confidence":1},{"trial_n":108,"span":11,"encoder":"80601657367","distractor":"80601657067","target":"present","response":"absent","rt":"7058.1999999881","correct":false,"confidence":1},{"trial_n":109,"span":10,"encoder":"0098065805","distractor":"0091065805","target":"present","response":"present","rt":"4771","correct":true,"confidence":1},{"trial_n":110,"span":10,"encoder":"4975218676","distractor":"4975118676","target":"present","response":"present","rt":"2146.900000006","correct":true,"confidence":1},{"trial_n":111,"span":11,"encoder":"08933928586","distractor":"08933978586","target":"absent","response":"absent","rt":"1907.400000006","correct":true,"confidence":1},{"trial_n":112,"span":11,"encoder":"31649753803","distractor":"71649753803","target":"present","response":"present","rt":"2533.3000000119","correct":true,"confidence":3},{"trial_n":113,"span":12,"encoder":"161826577935","distractor":"162826577935","target":"present","response":"absent","rt":"3851.6999999881","correct":false,"confidence":1},{"trial_n":114,"span":11,"encoder":"46881758718","distractor":"46881756718","target":"absent","response":"present","rt":"3655.3000000119","correct":false,"confidence":1},{"trial_n":115,"span":10,"encoder":"5432033252","distractor":"5432333252","target":"absent","response":"absent","rt":"10482.199999988","correct":true,"confidence":1},{"trial_n":116,"span":10,"encoder":"6864412096","distractor":"6868412096","target":"absent","response":"present","rt":"2014","correct":false,"confidence":3},{"trial_n":117,"span":9,"encoder":"144098776","distractor":"144099776","target":"present","response":"present","rt":"3915.8999999762","correct":true,"confidence":2},{"trial_n":118,"span":9,"encoder":"922212478","distractor":"922212678","target":"present","response":"present","rt":"2931.1999999881","correct":true,"confidence":2},{"trial_n":119,"span":10,"encoder":"2911597575","distractor":"2911599575","target":"absent","response":"present","rt":"2287.099999994","correct":false,"confidence":1},{"trial_n":120,"span":9,"encoder":"690451756","distractor":"690651756","target":"absent","response":"present","rt":"2575","correct":false,"confidence":3},{"trial_n":121,"span":8,"encoder":"91274995","distractor":"91272995","target":"present","response":"present","rt":"3734.3000000119","correct":true,"confidence":4},{"trial_n":122,"span":8,"encoder":"88890526","distractor":"88690526","target":"absent","response":"absent","rt":"3683.400000006","correct":true,"confidence":3},{"trial_n":123,"span":9,"encoder":"596226023","distractor":"596224023","target":"present","response":"present","rt":"4576.7999999821","correct":true,"confidence":1},{"trial_n":124,"span":9,"encoder":"888355259","distractor":"888355229","target":"present","response":"present","rt":"7544.1000000238","correct":true,"confidence":2},{"trial_n":125,"span":10,"encoder":"9896475482","distractor":"1896475482","target":"absent","response":"absent","rt":"3210.8000000119","correct":true,"confidence":5},{"trial_n":126,"span":10,"encoder":"4443304823","distractor":"5443304823","target":"absent","response":"absent","rt":"2226.099999994","correct":true,"confidence":5},{"trial_n":127,"span":11,"encoder":"83840122601","distractor":"73840122601","target":"present","response":"present","rt":"3021.2999999821","correct":true,"confidence":4},{"trial_n":128,"span":11,"encoder":"97100480767","distractor":"97100440767","target":"absent","response":"present","rt":"5599.7999999821","correct":false,"confidence":1},{"trial_n":129,"span":10,"encoder":"8972683628","distractor":"8972693628","target":"absent","response":"present","rt":"4064.8000000119","correct":false,"confidence":3},{"trial_n":130,"span":9,"encoder":"368823121","distractor":"360823121","target":"present","response":"present","rt":"3814.400000006","correct":true,"confidence":3},{"trial_n":131,"span":9,"encoder":"989721812","distractor":"969721812","target":"present","response":"present","rt":"2943.599999994","correct":true,"confidence":5},{"trial_n":132,"span":10,"encoder":"9099889628","distractor":"9099889638","target":"absent","response":"absent","rt":"5767.099999994","correct":true,"confidence":5},{"trial_n":133,"span":10,"encoder":"3356390636","distractor":"3356380636","target":"absent","response":"absent","rt":"6521.599999994","correct":true,"confidence":1},{"trial_n":134,"span":11,"encoder":"58195884006","distractor":"58095884006","target":"present","response":"absent","rt":"3343.3000000119","correct":false,"confidence":3},{"trial_n":135,"span":10,"encoder":"7987211850","distractor":"0987211850","target":"absent","response":"present","rt":"4225.8999999762","correct":false,"confidence":1},{"trial_n":136,"span":9,"encoder":"334416436","distractor":"334418436","target":"present","response":"present","rt":"3480.1000000238","correct":true,"confidence":3},{"trial_n":137,"span":9,"encoder":"749250851","distractor":"149250851","target":"present","response":"absent","rt":"3298.1999999881","correct":false,"confidence":1},{"trial_n":138,"span":8,"encoder":"49476659","distractor":"49475659","target":"absent","response":"present","rt":"4043.5","correct":false,"confidence":3},{"trial_n":139,"span":7,"encoder":"0640276","distractor":"0640076","target":"present","response":"present","rt":"2724.5","correct":true,"confidence":1},{"trial_n":140,"span":7,"encoder":"5869429","distractor":"5889429","target":"absent","response":"absent","rt":"2762.7999999821","correct":true,"confidence":5}]