[{"trial_n":1,"n_dots":4.25,"target":"right","response":"right","rt":4758.6999999993,"correct":true,"confidence":-1},{"trial_n":2,"n_dots":4.25,"target":"right","response":"left","rt":1074.799999997,"correct":false,"confidence":-1},{"trial_n":3,"n_dots":4.65,"target":"right","response":"right","rt":894.80000000075,"correct":true,"confidence":-1},{"trial_n":4,"n_dots":4.65,"target":"right","response":"right","rt":459.60000000149,"correct":true,"confidence":-1},{"trial_n":5,"n_dots":4.25,"target":"left","response":"left","rt":710.89999999851,"correct":true,"confidence":-1},{"trial_n":6,"n_dots":4.25,"target":"left","response":"left","rt":350.70000000298,"correct":true,"confidence":-1},{"trial_n":7,"n_dots":3.85,"target":"right","response":"right","rt":821.89999999851,"correct":true,"confidence":-1},{"trial_n":8,"n_dots":3.85,"target":"right","response":"right","rt":538.89999999851,"correct":true,"confidence":-1},{"trial_n":9,"n_dots":3.65,"target":"left","response":"left","rt":270.5,"correct":true,"confidence":-1},{"trial_n":10,"n_dots":3.65,"target":"right","response":"left","rt":701.69999999925,"correct":false,"confidence":-1},{"trial_n":11,"n_dots":3.85,"target":"right","response":"right","rt":213.90000000224,"correct":true,"confidence":-1},{"trial_n":12,"n_dots":3.85,"target":"left","response":"left","rt":1454.799999997,"correct":true,"confidence":-1},{"trial_n":13,"n_dots":3.75,"target":"right","response":"right","rt":1619,"correct":true,"confidence":-1},{"trial_n":14,"n_dots":3.75,"target":"left","response":"left","rt":323.79999999702,"correct":true,"confidence":-1},{"trial_n":15,"n_dots":3.65,"target":"left","response":"left","rt":118,"correct":true,"confidence":-1},{"trial_n":16,"n_dots":3.65,"target":"right","response":"right","rt":686.19999999925,"correct":true,"confidence":-1},{"trial_n":17,"n_dots":3.55,"target":"left","response":"left","rt":394.39999999851,"correct":true,"confidence":-1},{"trial_n":18,"n_dots":3.55,"target":"left","response":"left","rt":933.60000000149,"correct":true,"confidence":-1},{"trial_n":19,"n_dots":3.45,"target":"left","response":"left","rt":212.5,"correct":true,"confidence":-1},{"trial_n":20,"n_dots":3.45,"target":"right","response":"left","rt":9206.0999999978,"correct":false,"confidence":-1},{"trial_n":21,"n_dots":3.55,"target":"right","response":"right","rt":296,"correct":true,"confidence":3},{"trial_n":22,"n_dots":3.55,"target":"left","response":"left","rt":709.29999999702,"correct":true,"confidence":3},{"trial_n":23,"n_dots":3.45,"target":"right","response":"right","rt":872.89999999851,"correct":true,"confidence":4},{"trial_n":24,"n_dots":3.45,"target":"right","response":"right","rt":1746,"correct":true,"confidence":2},{"trial_n":25,"n_dots":3.35,"target":"right","response":"left","rt":396.89999999851,"correct":false,"confidence":3},{"trial_n":26,"n_dots":3.45,"target":"left","response":"left","rt":177,"correct":true,"confidence":4},{"trial_n":27,"n_dots":3.45,"target":"left","response":"left","rt":514.60000000149,"correct":true,"confidence":2},{"trial_n":28,"n_dots":3.35,"target":"left","response":"left","rt":1142.3000000007,"correct":true,"confidence":2},{"trial_n":29,"n_dots":3.35,"target":"right","response":"right","rt":431.90000000224,"correct":true,"confidence":3},{"trial_n":30,"n_dots":3.25,"target":"right","response":"left","rt":905.89999999851,"correct":false,"confidence":2},{"trial_n":31,"n_dots":3.35,"target":"right","response":"right","rt":759.30000000075,"correct":true,"confidence":3},{"trial_n":32,"n_dots":3.35,"target":"right","response":"right","rt":532.30000000075,"correct":true,"confidence":2},{"trial_n":33,"n_dots":3.25,"target":"left","response":"right","rt":596.80000000075,"correct":false,"confidence":2},{"trial_n":34,"n_dots":3.35,"target":"left","response":"left","rt":221.29999999702,"correct":true,"confidence":2},{"trial_n":35,"n_dots":3.35,"target":"left","response":"left","rt":326.80000000075,"correct":true,"confidence":2},{"trial_n":36,"n_dots":3.25,"target":"right","response":"right","rt":132.5,"correct":true,"confidence":2},{"trial_n":37,"n_dots":3.25,"target":"right","response":"right","rt":197,"correct":true,"confidence":3},{"trial_n":38,"n_dots":3.15,"target":"right","response":"right","rt":278.19999999925,"correct":true,"confidence":3},{"trial_n":39,"n_dots":3.15,"target":"left","response":"left","rt":691,"correct":true,"confidence":3},{"trial_n":40,"n_dots":3.05,"target":"left","response":"left","rt":845.90000000224,"correct":true,"confidence":3},{"trial_n":41,"n_dots":3.05,"target":"right","response":"right","rt":582.20000000298,"correct":true,"confidence":2},{"trial_n":42,"n_dots":2.95,"target":"right","response":"right","rt":896.5,"correct":true,"confidence":2},{"trial_n":43,"n_dots":2.95,"target":"left","response":"right","rt":609,"correct":false,"confidence":2},{"trial_n":44,"n_dots":3.05,"target":"left","response":"right","rt":300.5,"correct":false,"confidence":2},{"trial_n":45,"n_dots":3.15,"target":"left","response":"right","rt":502.30000000075,"correct":false,"confidence":2},{"trial_n":46,"n_dots":3.25,"target":"left","response":"right","rt":14785,"correct":false,"confidence":2},{"trial_n":47,"n_dots":3.35,"target":"left","response":"right","rt":425.80000000075,"correct":false,"confidence":2},{"trial_n":48,"n_dots":3.45,"target":"left","response":"right","rt":6019.3000000007,"correct":false,"confidence":2},{"trial_n":49,"n_dots":3.55,"target":"right","response":"right","rt":691.19999999925,"correct":true,"confidence":2},{"trial_n":50,"n_dots":3.55,"target":"left","response":"left","rt":516.10000000149,"correct":true,"confidence":2},{"trial_n":51,"n_dots":3.45,"target":"left","response":"right","rt":508.30000000075,"correct":false,"confidence":2},{"trial_n":52,"n_dots":3.55,"target":"left","response":"left","rt":755.19999999925,"correct":true,"confidence":3},{"trial_n":53,"n_dots":3.55,"target":"left","response":"left","rt":669.90000000224,"correct":true,"confidence":2},{"trial_n":54,"n_dots":3.45,"target":"left","response":"right","rt":205.5,"correct":false,"confidence":2},{"trial_n":55,"n_dots":3.55,"target":"right","response":"right","rt":211.69999999925,"correct":true,"confidence":2},{"trial_n":56,"n_dots":3.55,"target":"left","response":"right","rt":713.79999999702,"correct":false,"confidence":1},{"trial_n":57,"n_dots":3.65,"target":"right","response":"right","rt":436.5,"correct":true,"confidence":1},{"trial_n":58,"n_dots":3.65,"target":"right","response":"left","rt":1068.0999999978,"correct":false,"confidence":2},{"trial_n":59,"n_dots":3.75,"target":"left","response":"left","rt":8501.8000000007,"correct":true,"confidence":1},{"trial_n":60,"n_dots":3.75,"target":"right","response":"left","rt":1.5999999977648,"correct":false,"confidence":2},{"trial_n":61,"n_dots":3.85,"target":"left","response":"left","rt":2672.6999999993,"correct":true,"confidence":3},{"trial_n":62,"n_dots":3.85,"target":"left","response":"left","rt":350,"correct":true,"confidence":3},{"trial_n":63,"n_dots":3.75,"target":"left","response":"left","rt":272,"correct":true,"confidence":3},{"trial_n":64,"n_dots":3.75,"target":"right","response":"right","rt":250.80000000075,"correct":true,"confidence":2},{"trial_n":65,"n_dots":3.65,"target":"right","response":"left","rt":3287.0999999978,"correct":false,"confidence":1},{"trial_n":66,"n_dots":3.75,"target":"right","response":"left","rt":301.30000000075,"correct":false,"confidence":3},{"trial_n":67,"n_dots":3.85,"target":"left","response":"left","rt":1552.5999999978,"correct":true,"confidence":1},{"trial_n":68,"n_dots":3.85,"target":"right","response":"right","rt":747.69999999925,"correct":true,"confidence":2},{"trial_n":69,"n_dots":3.75,"target":"right","response":"right","rt":30.5,"correct":true,"confidence":2},{"trial_n":70,"n_dots":3.75,"target":"right","response":"right","rt":227.80000000075,"correct":true,"confidence":3},{"trial_n":71,"n_dots":3.65,"target":"left","response":"left","rt":358.30000000075,"correct":true,"confidence":3},{"trial_n":72,"n_dots":3.65,"target":"right","response":"right","rt":829.10000000149,"correct":true,"confidence":3},{"trial_n":73,"n_dots":3.55,"target":"left","response":"left","rt":115.69999999925,"correct":true,"confidence":2},{"trial_n":74,"n_dots":3.55,"target":"left","response":"left","rt":504.79999999702,"correct":true,"confidence":3},{"trial_n":75,"n_dots":3.45,"target":"left","response":"left","rt":927.09999999776,"correct":true,"confidence":3},{"trial_n":76,"n_dots":3.45,"target":"right","response":"right","rt":422.60000000149,"correct":true,"confidence":3},{"trial_n":77,"n_dots":3.35,"target":"right","response":"right","rt":968.80000000075,"correct":true,"confidence":3},{"trial_n":78,"n_dots":3.35,"target":"left","response":"left","rt":649.69999999925,"correct":true,"confidence":2},{"trial_n":79,"n_dots":3.25,"target":"left","response":"right","rt":1220.8999999985,"correct":false,"confidence":1},{"trial_n":80,"n_dots":3.35,"target":"left","response":"left","rt":872.59999999776,"correct":true,"confidence":2},{"trial_n":81,"n_dots":3.35,"target":"left","response":"left","rt":766.39999999851,"correct":true,"confidence":2},{"trial_n":82,"n_dots":3.25,"target":"left","response":"left","rt":1464.6999999993,"correct":true,"confidence":3},{"trial_n":83,"n_dots":3.25,"target":"left","response":"right","rt":1790.6999999993,"correct":false,"confidence":1},{"trial_n":84,"n_dots":3.35,"target":"right","response":"right","rt":2330.5999999978,"correct":true,"confidence":1},{"trial_n":85,"n_dots":3.35,"target":"left","response":"left","rt":1415.8999999985,"correct":true,"confidence":1},{"trial_n":86,"n_dots":3.25,"target":"left","response":"right","rt":1371.0999999978,"correct":false,"confidence":1},{"trial_n":87,"n_dots":3.35,"target":"left","response":"right","rt":3257.0999999978,"correct":false,"confidence":1},{"trial_n":88,"n_dots":3.45,"target":"right","response":"right","rt":32,"correct":true,"confidence":1},{"trial_n":89,"n_dots":3.45,"target":"right","response":"right","rt":256.89999999851,"correct":true,"confidence":1},{"trial_n":90,"n_dots":3.35,"target":"right","response":"right","rt":1257.299999997,"correct":true,"confidence":1},{"trial_n":91,"n_dots":3.35,"target":"right","response":"right","rt":296.89999999851,"correct":true,"confidence":1},{"trial_n":92,"n_dots":3.25,"target":"right","response":"right","rt":111.79999999702,"correct":true,"confidence":1},{"trial_n":93,"n_dots":3.25,"target":"left","response":"right","rt":949.09999999776,"correct":false,"confidence":1},{"trial_n":94,"n_dots":3.35,"target":"left","response":"left","rt":769.39999999851,"correct":true,"confidence":1},{"trial_n":95,"n_dots":3.35,"target":"right","response":"right","rt":115,"correct":true,"confidence":1},{"trial_n":96,"n_dots":3.25,"target":"right","response":"right","rt":163.79999999702,"correct":true,"confidence":1},{"trial_n":97,"n_dots":3.25,"target":"right","response":"right","rt":538.59999999776,"correct":true,"confidence":1},{"trial_n":98,"n_dots":3.15,"target":"right","response":"left","rt":169.19999999925,"correct":false,"confidence":1},{"trial_n":99,"n_dots":3.25,"target":"left","response":"left","rt":155.60000000149,"correct":true,"confidence":1},{"trial_n":100,"n_dots":3.25,"target":"right","response":"right","rt":292.5,"correct":true,"confidence":1},{"trial_n":101,"n_dots":3.15,"target":"left","response":"left","rt":314.80000000075,"correct":true,"confidence":1},{"trial_n":102,"n_dots":3.15,"target":"left","response":"left","rt":1127.8999999985,"correct":true,"confidence":1},{"trial_n":103,"n_dots":3.05,"target":"right","response":"right","rt":1033.299999997,"correct":true,"confidence":1},{"trial_n":104,"n_dots":3.05,"target":"left","response":"left","rt":679.60000000149,"correct":true,"confidence":1},{"trial_n":105,"n_dots":2.95,"target":"left","response":"right","rt":488.09999999776,"correct":false,"confidence":1},{"trial_n":106,"n_dots":3.05,"target":"left","response":"left","rt":55.10000000149,"correct":true,"confidence":1},{"trial_n":107,"n_dots":3.05,"target":"right","response":"right","rt":1039.5,"correct":true,"confidence":1},{"trial_n":108,"n_dots":2.95,"target":"right","response":"left","rt":236.10000000149,"correct":false,"confidence":1},{"trial_n":109,"n_dots":3.05,"target":"right","response":"right","rt":7351.299999997,"correct":true,"confidence":1},{"trial_n":110,"n_dots":3.05,"target":"right","response":"left","rt":622.79999999702,"correct":false,"confidence":1},{"trial_n":111,"n_dots":3.15,"target":"left","response":"left","rt":727.29999999702,"correct":true,"confidence":1},{"trial_n":112,"n_dots":3.15,"target":"left","response":"left","rt":701.10000000149,"correct":true,"confidence":1},{"trial_n":113,"n_dots":3.05,"target":"right","response":"right","rt":593.19999999925,"correct":true,"confidence":1},{"trial_n":114,"n_dots":3.05,"target":"right","response":"right","rt":438.30000000075,"correct":true,"confidence":1},{"trial_n":115,"n_dots":2.95,"target":"left","response":"right","rt":693.19999999925,"correct":false,"confidence":1},{"trial_n":116,"n_dots":3.05,"target":"left","response":"right","rt":625.60000000149,"correct":false,"confidence":1},{"trial_n":117,"n_dots":3.15,"target":"right","response":"right","rt":869.60000000149,"correct":true,"confidence":1},{"trial_n":118,"n_dots":3.15,"target":"right","response":"right","rt":517.19999999925,"correct":true,"confidence":1},{"trial_n":119,"n_dots":3.05,"target":"right","response":"right","rt":13.89999999851,"correct":true,"confidence":1},{"trial_n":120,"n_dots":3.05,"target":"right","response":"right","rt":633,"correct":true,"confidence":1}]