[{"trial_n":1,"span":8,"encoder":"02965588","distractor":"02965580","target":"present","response":"present","rt":"11147.299999952","correct":true,"confidence":-1},{"trial_n":2,"span":8,"encoder":"59614339","distractor":"79614339","target":"present","response":"present","rt":"2380.6999998093","correct":true,"confidence":-1},{"trial_n":3,"span":10,"encoder":"5203405022","distractor":"5203435022","target":"absent","response":"absent","rt":"3423.5999999046","correct":true,"confidence":-1},{"trial_n":4,"span":10,"encoder":"7278061644","distractor":"7268061644","target":"absent","response":"present","rt":"2274.0999999046","correct":false,"confidence":-1},{"trial_n":5,"span":8,"encoder":"67903064","distractor":"67913064","target":"present","response":"present","rt":"1847.6000001431","correct":true,"confidence":-1},{"trial_n":6,"span":8,"encoder":"69609458","distractor":"69669458","target":"present","response":"present","rt":"1824.2000000477","correct":true,"confidence":-1},{"trial_n":7,"span":10,"encoder":"8997328605","distractor":"8997308605","target":"absent","response":"present","rt":"1985.5","correct":false,"confidence":-1},{"trial_n":8,"span":8,"encoder":"58374104","distractor":"58374103","target":"absent","response":"present","rt":"1202.9000000954","correct":false,"confidence":-1},{"trial_n":9,"span":6,"encoder":"015725","distractor":"015025","target":"absent","response":"present","rt":"1159.1999998093","correct":false,"confidence":-1},{"trial_n":10,"span":4,"encoder":"9035","distractor":"9031","target":"present","response":"present","rt":"1946.3999998569","correct":true,"confidence":-1},{"trial_n":11,"span":4,"encoder":"7158","distractor":"0158","target":"present","response":"present","rt":"1268.1000001431","correct":true,"confidence":-1},{"trial_n":12,"span":5,"encoder":"69334","distractor":"69339","target":"absent","response":"absent","rt":"1966.5","correct":true,"confidence":-1},{"trial_n":13,"span":5,"encoder":"90194","distractor":"91194","target":"present","response":"present","rt":"1498.2999999523","correct":true,"confidence":-1},{"trial_n":14,"span":6,"encoder":"616191","distractor":"216191","target":"present","response":"present","rt":"3564.5","correct":true,"confidence":-1},{"trial_n":15,"span":6,"encoder":"306129","distractor":"306829","target":"present","response":"present","rt":"2054.3999998569","correct":true,"confidence":-1},{"trial_n":16,"span":7,"encoder":"3739103","distractor":"3739107","target":"present","response":"present","rt":"2116","correct":true,"confidence":-1},{"trial_n":17,"span":7,"encoder":"9008568","distractor":"9008578","target":"present","response":"present","rt":"2558.3999998569","correct":true,"confidence":-1},{"trial_n":18,"span":8,"encoder":"04499964","distractor":"04499864","target":"present","response":"present","rt":"1831.2999999523","correct":true,"confidence":-1},{"trial_n":19,"span":8,"encoder":"22472006","distractor":"22432006","target":"present","response":"present","rt":"2185.2999999523","correct":true,"confidence":-1},{"trial_n":20,"span":9,"encoder":"085949860","distractor":"005949860","target":"present","response":"present","rt":"932.89999985695","correct":true,"confidence":-1},{"trial_n":21,"span":9,"encoder":"252692634","distractor":"252192634","target":"present","response":"present","rt":"1015.7999999523","correct":true,"confidence":1},{"trial_n":22,"span":10,"encoder":"5979794969","distractor":"9979794969","target":"present","response":"present","rt":"2502.7999999523","correct":true,"confidence":4},{"trial_n":23,"span":10,"encoder":"4445533087","distractor":"4445531087","target":"present","response":"present","rt":"3394.1000001431","correct":true,"confidence":3},{"trial_n":24,"span":11,"encoder":"64335587812","distractor":"64333587812","target":"absent","response":"present","rt":"2063.7000000477","correct":false,"confidence":1},{"trial_n":25,"span":10,"encoder":"6464065949","distractor":"6264065949","target":"absent","response":"present","rt":"3599.1000001431","correct":false,"confidence":4},{"trial_n":26,"span":9,"encoder":"771651003","distractor":"771651203","target":"absent","response":"absent","rt":"4333.0999999046","correct":true,"confidence":3},{"trial_n":27,"span":9,"encoder":"215137974","distractor":"215132974","target":"present","response":"absent","rt":"7504.5","correct":false,"confidence":1},{"trial_n":28,"span":8,"encoder":"77718860","distractor":"77718460","target":"present","response":"present","rt":"2877.6000001431","correct":true,"confidence":5},{"trial_n":29,"span":8,"encoder":"07500183","distractor":"37500183","target":"absent","response":"absent","rt":"3971.7999999523","correct":true,"confidence":2},{"trial_n":30,"span":9,"encoder":"207656327","distractor":"297656327","target":"present","response":"absent","rt":"2159.7999999523","correct":false,"confidence":3},{"trial_n":31,"span":8,"encoder":"32067262","distractor":"32067269","target":"absent","response":"absent","rt":"3023.2999999523","correct":true,"confidence":4},{"trial_n":32,"span":8,"encoder":"87988552","distractor":"87984552","target":"absent","response":"absent","rt":"2709","correct":true,"confidence":3},{"trial_n":33,"span":9,"encoder":"762658235","distractor":"782658235","target":"absent","response":"present","rt":"1256.2000000477","correct":false,"confidence":1},{"trial_n":34,"span":8,"encoder":"51632274","distractor":"51632273","target":"present","response":"present","rt":"2847.7999999523","correct":true,"confidence":3},{"trial_n":35,"span":8,"encoder":"52206690","distractor":"52296690","target":"absent","response":"present","rt":"1345.4000000954","correct":false,"confidence":3},{"trial_n":36,"span":7,"encoder":"8773754","distractor":"9773754","target":"present","response":"present","rt":"2340.2000000477","correct":true,"confidence":4},{"trial_n":37,"span":7,"encoder":"4194624","distractor":"4194664","target":"present","response":"present","rt":"2205.3999998569","correct":true,"confidence":4},{"trial_n":38,"span":8,"encoder":"08154142","distractor":"08154442","target":"absent","response":"absent","rt":"3681.2000000477","correct":true,"confidence":4},{"trial_n":39,"span":8,"encoder":"55802046","distractor":"55802086","target":"present","response":"present","rt":"3628.9000000954","correct":true,"confidence":2},{"trial_n":40,"span":9,"encoder":"714465095","distractor":"724465095","target":"absent","response":"absent","rt":"2498.2999999523","correct":true,"confidence":4},{"trial_n":41,"span":9,"encoder":"536488157","distractor":"556488157","target":"absent","response":"present","rt":"2661.8999998569","correct":false,"confidence":1},{"trial_n":42,"span":8,"encoder":"69696429","distractor":"69696129","target":"present","response":"absent","rt":"4214.5","correct":false,"confidence":2},{"trial_n":43,"span":7,"encoder":"4764839","distractor":"4704839","target":"absent","response":"absent","rt":"3233.7000000477","correct":true,"confidence":5},{"trial_n":44,"span":7,"encoder":"9094867","distractor":"9094863","target":"absent","response":"absent","rt":"2551.8000001907","correct":true,"confidence":5},{"trial_n":45,"span":8,"encoder":"23199341","distractor":"23199348","target":"present","response":"present","rt":"9773.8000001907","correct":true,"confidence":3},{"trial_n":46,"span":8,"encoder":"84763189","distractor":"84763179","target":"absent","response":"absent","rt":"3648.7000000477","correct":true,"confidence":4},{"trial_n":47,"span":9,"encoder":"712674728","distractor":"712674128","target":"absent","response":"present","rt":"1288.2999999523","correct":false,"confidence":1},{"trial_n":48,"span":8,"encoder":"56175034","distractor":"56125034","target":"present","response":"absent","rt":"1247.1000001431","correct":false,"confidence":1},{"trial_n":49,"span":7,"encoder":"9965035","distractor":"9665035","target":"present","response":"present","rt":"2477.7000000477","correct":true,"confidence":3},{"trial_n":50,"span":7,"encoder":"9491905","distractor":"3491905","target":"absent","response":"present","rt":"1760.2999999523","correct":false,"confidence":1},{"trial_n":51,"span":6,"encoder":"694580","distractor":"694570","target":"absent","response":"present","rt":"3254.1000001431","correct":false,"confidence":2},{"trial_n":52,"span":5,"encoder":"47380","distractor":"47780","target":"present","response":"present","rt":"3214.7999999523","correct":true,"confidence":3},{"trial_n":53,"span":5,"encoder":"80590","distractor":"88590","target":"absent","response":"absent","rt":"2607.5","correct":true,"confidence":4},{"trial_n":54,"span":6,"encoder":"285556","distractor":"285536","target":"present","response":"present","rt":"2779.9000000954","correct":true,"confidence":3},{"trial_n":55,"span":6,"encoder":"231937","distractor":"232937","target":"absent","response":"present","rt":"3848.2999999523","correct":false,"confidence":1},{"trial_n":56,"span":5,"encoder":"38704","distractor":"38404","target":"absent","response":"absent","rt":"1620.5","correct":true,"confidence":5},{"trial_n":57,"span":5,"encoder":"35898","distractor":"37898","target":"absent","response":"absent","rt":"2644.2000000477","correct":true,"confidence":5},{"trial_n":58,"span":6,"encoder":"080811","distractor":"280811","target":"present","response":"absent","rt":"3031.6999998093","correct":false,"confidence":5},{"trial_n":59,"span":5,"encoder":"95282","distractor":"95292","target":"absent","response":"absent","rt":"2133.6000001431","correct":true,"confidence":5},{"trial_n":60,"span":5,"encoder":"81578","distractor":"81568","target":"absent","response":"absent","rt":"2347.0999999046","correct":true,"confidence":5},{"trial_n":61,"span":6,"encoder":"331721","distractor":"331725","target":"present","response":"present","rt":"2874.7000000477","correct":true,"confidence":4},{"trial_n":62,"span":6,"encoder":"550207","distractor":"550202","target":"absent","response":"absent","rt":"1614.6000001431","correct":true,"confidence":5},{"trial_n":63,"span":7,"encoder":"3104572","distractor":"3174572","target":"absent","response":"present","rt":"3503.0999999046","correct":false,"confidence":4},{"trial_n":64,"span":6,"encoder":"404920","distractor":"404928","target":"present","response":"present","rt":"2887.3999998569","correct":true,"confidence":5},{"trial_n":65,"span":6,"encoder":"216155","distractor":"218155","target":"present","response":"present","rt":"6396.7999999523","correct":true,"confidence":5},{"trial_n":66,"span":7,"encoder":"0391750","distractor":"8391750","target":"present","response":"present","rt":"2197","correct":true,"confidence":4},{"trial_n":67,"span":7,"encoder":"7934083","distractor":"1934083","target":"present","response":"present","rt":"2996.6000001431","correct":true,"confidence":1},{"trial_n":68,"span":8,"encoder":"01622003","distractor":"01622903","target":"absent","response":"present","rt":"3203.5999999046","correct":false,"confidence":3},{"trial_n":69,"span":7,"encoder":"5984823","distractor":"5984423","target":"absent","response":"present","rt":"2545.7000000477","correct":false,"confidence":3},{"trial_n":70,"span":6,"encoder":"770206","distractor":"790206","target":"absent","response":"absent","rt":"2235.3000001907","correct":true,"confidence":5},{"trial_n":71,"span":8,"encoder":"64186785","distractor":"64186781","target":"present","response":"present","rt":"9345.7000000477","correct":true,"confidence":-1},{"trial_n":72,"span":8,"encoder":"03007652","distractor":"03007642","target":"present","response":"present","rt":"482.09999990463","correct":true,"confidence":-1},{"trial_n":73,"span":9,"encoder":"847231181","distractor":"840231181","target":"absent","response":"present","rt":"4215","correct":false,"confidence":-1},{"trial_n":74,"span":8,"encoder":"04565338","distractor":"04565378","target":"absent","response":"absent","rt":"1496.7999999523","correct":true,"confidence":-1},{"trial_n":75,"span":8,"encoder":"31721132","distractor":"31741132","target":"present","response":"absent","rt":"1392.0999999046","correct":false,"confidence":-1},{"trial_n":76,"span":7,"encoder":"2895680","distractor":"9895680","target":"absent","response":"present","rt":"774.5","correct":false,"confidence":-1},{"trial_n":77,"span":6,"encoder":"713032","distractor":"713052","target":"absent","response":"absent","rt":"339.29999995232","correct":true,"confidence":-1},{"trial_n":78,"span":6,"encoder":"080872","distractor":"000872","target":"present","response":"present","rt":"845.10000014305","correct":true,"confidence":-1},{"trial_n":79,"span":7,"encoder":"2572583","distractor":"2552583","target":"present","response":"absent","rt":"751.09999990463","correct":false,"confidence":-1},{"trial_n":80,"span":6,"encoder":"182527","distractor":"182507","target":"present","response":"present","rt":"541.40000009537","correct":true,"confidence":-1},{"trial_n":81,"span":6,"encoder":"397677","distractor":"390677","target":"absent","response":"absent","rt":"497.20000004768","correct":true,"confidence":-1},{"trial_n":82,"span":7,"encoder":"3858119","distractor":"3558119","target":"absent","response":"present","rt":"601.40000009537","correct":false,"confidence":-1},{"trial_n":83,"span":6,"encoder":"649820","distractor":"649826","target":"absent","response":"absent","rt":"698.20000004768","correct":true,"confidence":-1},{"trial_n":84,"span":6,"encoder":"130080","distractor":"138080","target":"present","response":"absent","rt":"505.09999990463","correct":false,"confidence":-1},{"trial_n":85,"span":5,"encoder":"44405","distractor":"41405","target":"present","response":"present","rt":"1745.7000000477","correct":true,"confidence":-1},{"trial_n":86,"span":5,"encoder":"93808","distractor":"93108","target":"absent","response":"present","rt":"431.59999990463","correct":false,"confidence":-1},{"trial_n":87,"span":4,"encoder":"3494","distractor":"3454","target":"present","response":"absent","rt":"398.09999990463","correct":false,"confidence":-1},{"trial_n":88,"span":3,"encoder":"100","distractor":"150","target":"present","response":"present","rt":"2187.7000000477","correct":true,"confidence":-1},{"trial_n":89,"span":3,"encoder":"199","distractor":"139","target":"absent","response":"absent","rt":"950.5","correct":true,"confidence":-1},{"trial_n":90,"span":4,"encoder":"8602","distractor":"8632","target":"absent","response":"absent","rt":"1344.8999998569","correct":true,"confidence":-1},{"trial_n":91,"span":4,"encoder":"2730","distractor":"2330","target":"present","response":"present","rt":"2747.8999998569","correct":true,"confidence":5},{"trial_n":92,"span":5,"encoder":"91763","distractor":"99763","target":"present","response":"present","rt":"1656.9000000954","correct":true,"confidence":5},{"trial_n":93,"span":5,"encoder":"16483","distractor":"17483","target":"absent","response":"absent","rt":"1507.7999999523","correct":true,"confidence":5},{"trial_n":94,"span":6,"encoder":"660165","distractor":"660166","target":"absent","response":"absent","rt":"2001.5","correct":true,"confidence":5},{"trial_n":95,"span":6,"encoder":"613080","distractor":"613089","target":"present","response":"present","rt":"1985","correct":true,"confidence":4},{"trial_n":96,"span":7,"encoder":"9284723","distractor":"9264723","target":"absent","response":"absent","rt":"3912.5999999046","correct":true,"confidence":4},{"trial_n":97,"span":7,"encoder":"4792936","distractor":"4742936","target":"present","response":"present","rt":"4312.6000001431","correct":true,"confidence":4},{"trial_n":98,"span":8,"encoder":"20265624","distractor":"20235624","target":"present","response":"present","rt":"3031.5","correct":true,"confidence":4},{"trial_n":99,"span":8,"encoder":"34944779","distractor":"84944779","target":"absent","response":"absent","rt":"3044.7999999523","correct":true,"confidence":4},{"trial_n":100,"span":9,"encoder":"924976669","distractor":"904976669","target":"present","response":"present","rt":"4658","correct":true,"confidence":4},{"trial_n":101,"span":9,"encoder":"154678136","distractor":"754678136","target":"present","response":"absent","rt":"5183.5","correct":false,"confidence":1},{"trial_n":102,"span":8,"encoder":"59055465","distractor":"59055466","target":"absent","response":"absent","rt":"4059.8999998569","correct":true,"confidence":4},{"trial_n":103,"span":8,"encoder":"34541224","distractor":"34541244","target":"present","response":"present","rt":"1507.2999999523","correct":true,"confidence":5},{"trial_n":104,"span":9,"encoder":"092979806","distractor":"092979406","target":"absent","response":"absent","rt":"2976.1999998093","correct":true,"confidence":5},{"trial_n":105,"span":9,"encoder":"766045343","distractor":"766445343","target":"present","response":"present","rt":"9981.0999999046","correct":true,"confidence":1},{"trial_n":106,"span":10,"encoder":"3037260049","distractor":"3137260049","target":"present","response":"present","rt":"4420.5999999046","correct":true,"confidence":3},{"trial_n":107,"span":10,"encoder":"6411046686","distractor":"6411046286","target":"absent","response":"absent","rt":"5133.3999998569","correct":true,"confidence":3},{"trial_n":108,"span":11,"encoder":"85981940108","distractor":"85981940101","target":"absent","response":"present","rt":"4195.2999999523","correct":false,"confidence":1},{"trial_n":109,"span":10,"encoder":"7188963765","distractor":"7188969765","target":"present","response":"present","rt":"1858.6000001431","correct":true,"confidence":5},{"trial_n":110,"span":10,"encoder":"2497575927","distractor":"8497575927","target":"present","response":"present","rt":"6430.3000001907","correct":true,"confidence":2},{"trial_n":111,"span":11,"encoder":"77425010364","distractor":"77425010368","target":"present","response":"present","rt":"1737.0999999046","correct":true,"confidence":5},{"trial_n":112,"span":11,"encoder":"68190020539","distractor":"38190020539","target":"present","response":"present","rt":"4486.2999999523","correct":true,"confidence":2},{"trial_n":113,"span":12,"encoder":"150199498300","distractor":"120199498300","target":"present","response":"absent","rt":"5576.5","correct":false,"confidence":2},{"trial_n":114,"span":11,"encoder":"55318663191","distractor":"55318663193","target":"absent","response":"absent","rt":"1878.1000001431","correct":true,"confidence":5},{"trial_n":115,"span":11,"encoder":"10910566784","distractor":"10930566784","target":"absent","response":"absent","rt":"3687.0999999046","correct":true,"confidence":2},{"trial_n":116,"span":12,"encoder":"913351280795","distractor":"913381280795","target":"present","response":"present","rt":"3465.6000001431","correct":true,"confidence":3},{"trial_n":117,"span":12,"encoder":"410057392607","distractor":"410051392607","target":"present","response":"present","rt":"4014.7999999523","correct":true,"confidence":2},{"trial_n":118,"span":13,"encoder":"8776564199587","distractor":"8776564999587","target":"absent","response":"present","rt":"2131.9000000954","correct":false,"confidence":1},{"trial_n":119,"span":12,"encoder":"256437633282","distractor":"256436633282","target":"present","response":"absent","rt":"3381.2000000477","correct":false,"confidence":1},{"trial_n":120,"span":11,"encoder":"57687697803","distractor":"57637697803","target":"absent","response":"present","rt":"4574.2000000477","correct":false,"confidence":3},{"trial_n":121,"span":10,"encoder":"1695215692","distractor":"1625215692","target":"present","response":"present","rt":"2592.5999999046","correct":true,"confidence":1},{"trial_n":122,"span":10,"encoder":"6393227228","distractor":"6393327228","target":"present","response":"present","rt":"2942.7999999523","correct":true,"confidence":2},{"trial_n":123,"span":11,"encoder":"36035450475","distractor":"36135450475","target":"present","response":"present","rt":"4500.7999999523","correct":true,"confidence":2},{"trial_n":124,"span":11,"encoder":"70089724947","distractor":"70089764947","target":"absent","response":"present","rt":"3372.0999999046","correct":false,"confidence":2},{"trial_n":125,"span":10,"encoder":"8557733575","distractor":"8557633575","target":"absent","response":"absent","rt":"11024","correct":true,"confidence":1},{"trial_n":126,"span":10,"encoder":"9683309867","distractor":"5683309867","target":"present","response":"present","rt":"1890.7999999523","correct":true,"confidence":1},{"trial_n":127,"span":11,"encoder":"61348015436","distractor":"61348015437","target":"absent","response":"present","rt":"5397.7000000477","correct":false,"confidence":1},{"trial_n":128,"span":10,"encoder":"0492411072","distractor":"0493411072","target":"present","response":"present","rt":"6007.5","correct":true,"confidence":3},{"trial_n":129,"span":10,"encoder":"4169316577","distractor":"9169316577","target":"absent","response":"absent","rt":"3898.4000000954","correct":true,"confidence":2},{"trial_n":130,"span":11,"encoder":"98597048129","distractor":"98597038129","target":"present","response":"absent","rt":"3011.7000000477","correct":false,"confidence":3},{"trial_n":131,"span":10,"encoder":"5402677521","distractor":"5402677528","target":"present","response":"absent","rt":"2532.9000000954","correct":false,"confidence":1},{"trial_n":132,"span":9,"encoder":"787432244","distractor":"784432244","target":"absent","response":"absent","rt":"4047.9000000954","correct":true,"confidence":2},{"trial_n":133,"span":9,"encoder":"951688677","distractor":"951688637","target":"absent","response":"absent","rt":"1789.4000000954","correct":true,"confidence":4},{"trial_n":134,"span":10,"encoder":"4900065351","distractor":"4900065311","target":"present","response":"absent","rt":"23351.899999857","correct":false,"confidence":2},{"trial_n":135,"span":9,"encoder":"393726156","distractor":"393726056","target":"absent","response":"present","rt":"11862.199999809","correct":false,"confidence":1},{"trial_n":136,"span":8,"encoder":"24707152","distractor":"24708152","target":"absent","response":"present","rt":"10777.5","correct":false,"confidence":1},{"trial_n":137,"span":7,"encoder":"2520056","distractor":"2120056","target":"absent","response":"absent","rt":"2209.7000000477","correct":true,"confidence":5},{"trial_n":138,"span":7,"encoder":"1297485","distractor":"1297585","target":"absent","response":"absent","rt":"3813.0999999046","correct":true,"confidence":4},{"trial_n":139,"span":8,"encoder":"36290441","distractor":"36240441","target":"absent","response":"present","rt":"3601.7000000477","correct":false,"confidence":2},{"trial_n":140,"span":7,"encoder":"0469161","distractor":"0469101","target":"absent","response":"present","rt":"2329.5","correct":false,"confidence":4}]