[{"trial_n":1,"min":25,"max":230,"target":"present","response":"present","rt":7385.2000000011,"correct":true,"confidence":-1},{"trial_n":2,"min":25,"max":230,"target":"present","response":"present","rt":1758.5,"correct":true,"confidence":-1},{"trial_n":3,"min":41,"max":214,"target":"absent","response":"absent","rt":1165.5,"correct":true,"confidence":-1},{"trial_n":4,"min":41,"max":214,"target":"absent","response":"absent","rt":1050.6999999993,"correct":true,"confidence":-1},{"trial_n":5,"min":57,"max":198,"target":"present","response":"present","rt":1041,"correct":true,"confidence":-1},{"trial_n":6,"min":57,"max":198,"target":"present","response":"present","rt":1183.3000000007,"correct":true,"confidence":-1},{"trial_n":7,"min":73,"max":182,"target":"present","response":"present","rt":707.39999999851,"correct":true,"confidence":-1},{"trial_n":8,"min":73,"max":182,"target":"present","response":"present","rt":1130.5999999996,"correct":true,"confidence":-1},{"trial_n":9,"min":89,"max":166,"target":"absent","response":"absent","rt":1021.0999999996,"correct":true,"confidence":-1},{"trial_n":10,"min":89,"max":166,"target":"present","response":"absent","rt":863.40000000037,"correct":false,"confidence":-1},{"trial_n":11,"min":81,"max":174,"target":"present","response":"present","rt":1016.0999999996,"correct":true,"confidence":-1},{"trial_n":12,"min":81,"max":174,"target":"present","response":"absent","rt":1243.0999999996,"correct":false,"confidence":-1},{"trial_n":13,"min":73,"max":182,"target":"absent","response":"present","rt":1229.2999999989,"correct":false,"confidence":-1},{"trial_n":14,"min":65,"max":190,"target":"present","response":"present","rt":910.69999999925,"correct":true,"confidence":-1},{"trial_n":15,"min":65,"max":190,"target":"present","response":"present","rt":806.69999999925,"correct":true,"confidence":-1},{"trial_n":16,"min":73,"max":182,"target":"present","response":"present","rt":1246,"correct":true,"confidence":-1},{"trial_n":17,"min":73,"max":182,"target":"absent","response":"present","rt":1141.6999999993,"correct":false,"confidence":-1},{"trial_n":18,"min":65,"max":190,"target":"absent","response":"absent","rt":1371.7999999989,"correct":true,"confidence":-1},{"trial_n":19,"min":65,"max":190,"target":"absent","response":"absent","rt":835.40000000037,"correct":true,"confidence":-1},{"trial_n":20,"min":73,"max":182,"target":"absent","response":"absent","rt":855.09999999963,"correct":true,"confidence":-1},{"trial_n":21,"min":73,"max":182,"target":"present","response":"present","rt":1287.8000000007,"correct":true,"confidence":5},{"trial_n":22,"min":77,"max":178,"target":"present","response":"absent","rt":1332.5999999996,"correct":false,"confidence":2},{"trial_n":23,"min":73,"max":182,"target":"present","response":"present","rt":825.09999999963,"correct":true,"confidence":4},{"trial_n":24,"min":73,"max":182,"target":"absent","response":"present","rt":2546.8999999985,"correct":false,"confidence":2},{"trial_n":25,"min":69,"max":186,"target":"present","response":"present","rt":1023.9000000004,"correct":true,"confidence":4},{"trial_n":26,"min":69,"max":186,"target":"absent","response":"present","rt":1449.6000000015,"correct":false,"confidence":2},{"trial_n":27,"min":65,"max":190,"target":"absent","response":"absent","rt":3560.2000000011,"correct":true,"confidence":1},{"trial_n":28,"min":65,"max":190,"target":"absent","response":"absent","rt":1402.1000000015,"correct":true,"confidence":2},{"trial_n":29,"min":69,"max":186,"target":"present","response":"present","rt":720.30000000075,"correct":true,"confidence":5},{"trial_n":30,"min":69,"max":186,"target":"absent","response":"present","rt":1518.0999999996,"correct":false,"confidence":2},{"trial_n":31,"min":67,"max":188,"target":"present","response":"present","rt":835.30000000075,"correct":true,"confidence":5},{"trial_n":32,"min":67,"max":188,"target":"absent","response":"absent","rt":1849.8999999985,"correct":true,"confidence":3},{"trial_n":33,"min":69,"max":186,"target":"absent","response":"absent","rt":1076.5,"correct":true,"confidence":4},{"trial_n":34,"min":69,"max":186,"target":"present","response":"present","rt":770.69999999925,"correct":true,"confidence":5},{"trial_n":35,"min":71,"max":184,"target":"present","response":"present","rt":801,"correct":true,"confidence":5},{"trial_n":36,"min":71,"max":184,"target":"absent","response":"absent","rt":1365,"correct":true,"confidence":2},{"trial_n":37,"min":73,"max":182,"target":"present","response":"absent","rt":972.29999999888,"correct":false,"confidence":2},{"trial_n":38,"min":71,"max":184,"target":"absent","response":"absent","rt":1935.5,"correct":true,"confidence":3},{"trial_n":39,"min":71,"max":184,"target":"absent","response":"absent","rt":1037.6999999993,"correct":true,"confidence":3},{"trial_n":40,"min":73,"max":182,"target":"absent","response":"absent","rt":1160.0999999996,"correct":true,"confidence":4},{"trial_n":41,"min":73,"max":182,"target":"present","response":"present","rt":1645.5999999996,"correct":true,"confidence":5},{"trial_n":42,"min":74,"max":181,"target":"present","response":"present","rt":1168.8000000007,"correct":true,"confidence":4},{"trial_n":43,"min":74,"max":181,"target":"present","response":"absent","rt":2001.9000000004,"correct":false,"confidence":2},{"trial_n":44,"min":73,"max":182,"target":"absent","response":"absent","rt":1446.1000000015,"correct":true,"confidence":3},{"trial_n":45,"min":73,"max":182,"target":"present","response":"present","rt":1041.5999999996,"correct":true,"confidence":4},{"trial_n":46,"min":74,"max":181,"target":"absent","response":"absent","rt":1207.2999999989,"correct":true,"confidence":2},{"trial_n":47,"min":74,"max":181,"target":"present","response":"present","rt":845,"correct":true,"confidence":3},{"trial_n":48,"min":75,"max":180,"target":"absent","response":"absent","rt":1022.7999999989,"correct":true,"confidence":4},{"trial_n":49,"min":75,"max":180,"target":"absent","response":"absent","rt":833.79999999888,"correct":true,"confidence":4},{"trial_n":50,"min":76,"max":179,"target":"absent","response":"absent","rt":981.5,"correct":true,"confidence":3},{"trial_n":51,"min":76,"max":179,"target":"absent","response":"absent","rt":1118.1000000015,"correct":true,"confidence":4},{"trial_n":52,"min":77,"max":178,"target":"present","response":"present","rt":693.79999999888,"correct":true,"confidence":5},{"trial_n":53,"min":77,"max":178,"target":"present","response":"present","rt":990.19999999925,"correct":true,"confidence":5},{"trial_n":54,"min":78,"max":177,"target":"absent","response":"absent","rt":1036.4000000004,"correct":true,"confidence":3},{"trial_n":55,"min":78,"max":177,"target":"absent","response":"absent","rt":697.80000000075,"correct":true,"confidence":3},{"trial_n":56,"min":79,"max":176,"target":"present","response":"absent","rt":790.19999999925,"correct":false,"confidence":4},{"trial_n":57,"min":78,"max":177,"target":"present","response":"present","rt":1122.5999999996,"correct":true,"confidence":4},{"trial_n":58,"min":78,"max":177,"target":"absent","response":"absent","rt":691.70000000112,"correct":true,"confidence":3},{"trial_n":59,"min":79,"max":176,"target":"absent","response":"absent","rt":1727.5999999996,"correct":true,"confidence":3},{"trial_n":60,"min":79,"max":176,"target":"present","response":"present","rt":1284.6999999993,"correct":true,"confidence":3},{"trial_n":61,"min":80,"max":175,"target":"absent","response":"absent","rt":829.59999999963,"correct":true,"confidence":3},{"trial_n":62,"min":80,"max":175,"target":"present","response":"present","rt":789.60000000149,"correct":true,"confidence":4},{"trial_n":63,"min":81,"max":174,"target":"present","response":"absent","rt":819.90000000037,"correct":false,"confidence":2},{"trial_n":64,"min":80,"max":175,"target":"present","response":"present","rt":1088.3000000007,"correct":true,"confidence":2},{"trial_n":65,"min":80,"max":175,"target":"absent","response":"absent","rt":774.40000000037,"correct":true,"confidence":3},{"trial_n":66,"min":81,"max":174,"target":"absent","response":"present","rt":1678,"correct":false,"confidence":2},{"trial_n":67,"min":80,"max":175,"target":"absent","response":"absent","rt":837.10000000149,"correct":true,"confidence":3},{"trial_n":68,"min":80,"max":175,"target":"absent","response":"present","rt":1409.8000000007,"correct":false,"confidence":2},{"trial_n":69,"min":79,"max":176,"target":"present","response":"present","rt":1456.5999999996,"correct":true,"confidence":4},{"trial_n":70,"min":79,"max":176,"target":"present","response":"present","rt":874,"correct":true,"confidence":3},{"trial_n":71,"min":41,"max":214,"target":"present","response":"present","rt":2702.5,"correct":true,"confidence":-1},{"trial_n":72,"min":41,"max":214,"target":"present","response":"present","rt":1077.5,"correct":true,"confidence":-1},{"trial_n":73,"min":57,"max":198,"target":"absent","response":"absent","rt":1066.1999999993,"correct":true,"confidence":-1},{"trial_n":74,"min":57,"max":198,"target":"absent","response":"absent","rt":781.69999999925,"correct":true,"confidence":-1},{"trial_n":75,"min":73,"max":182,"target":"present","response":"present","rt":1023.1999999993,"correct":true,"confidence":-1},{"trial_n":76,"min":73,"max":182,"target":"absent","response":"absent","rt":923.09999999963,"correct":true,"confidence":-1},{"trial_n":77,"min":89,"max":166,"target":"absent","response":"present","rt":895.70000000112,"correct":false,"confidence":-1},{"trial_n":78,"min":73,"max":182,"target":"absent","response":"absent","rt":1582,"correct":true,"confidence":-1},{"trial_n":79,"min":73,"max":182,"target":"present","response":"present","rt":930.79999999888,"correct":true,"confidence":-1},{"trial_n":80,"min":89,"max":166,"target":"absent","response":"absent","rt":1134.6999999993,"correct":true,"confidence":-1},{"trial_n":81,"min":89,"max":166,"target":"present","response":"absent","rt":723.40000000037,"correct":false,"confidence":-1},{"trial_n":82,"min":81,"max":174,"target":"present","response":"present","rt":829,"correct":true,"confidence":-1},{"trial_n":83,"min":81,"max":174,"target":"absent","response":"present","rt":916.79999999888,"correct":false,"confidence":-1},{"trial_n":84,"min":73,"max":182,"target":"absent","response":"absent","rt":940.5,"correct":true,"confidence":-1},{"trial_n":85,"min":73,"max":182,"target":"present","response":"present","rt":1023.5999999996,"correct":true,"confidence":-1},{"trial_n":86,"min":81,"max":174,"target":"absent","response":"present","rt":920.70000000112,"correct":false,"confidence":-1},{"trial_n":87,"min":73,"max":182,"target":"absent","response":"absent","rt":1774.5,"correct":true,"confidence":-1},{"trial_n":88,"min":73,"max":182,"target":"present","response":"absent","rt":784.10000000149,"correct":false,"confidence":-1},{"trial_n":89,"min":65,"max":190,"target":"present","response":"present","rt":735.19999999925,"correct":true,"confidence":-1},{"trial_n":90,"min":65,"max":190,"target":"present","response":"absent","rt":1092.6999999993,"correct":false,"confidence":-1},{"trial_n":91,"min":61,"max":194,"target":"absent","response":"absent","rt":1534.9000000004,"correct":true,"confidence":3},{"trial_n":92,"min":61,"max":194,"target":"present","response":"present","rt":990.09999999963,"correct":true,"confidence":4},{"trial_n":93,"min":65,"max":190,"target":"present","response":"present","rt":1014.8000000007,"correct":true,"confidence":5},{"trial_n":94,"min":65,"max":190,"target":"present","response":"present","rt":842.69999999925,"correct":true,"confidence":5},{"trial_n":95,"min":69,"max":186,"target":"absent","response":"absent","rt":1842.5,"correct":true,"confidence":3},{"trial_n":96,"min":69,"max":186,"target":"absent","response":"absent","rt":1456.5999999996,"correct":true,"confidence":4},{"trial_n":97,"min":73,"max":182,"target":"present","response":"present","rt":833.70000000112,"correct":true,"confidence":5},{"trial_n":98,"min":73,"max":182,"target":"absent","response":"absent","rt":1184.1000000015,"correct":true,"confidence":4},{"trial_n":99,"min":77,"max":178,"target":"absent","response":"absent","rt":4449.1999999993,"correct":true,"confidence":2},{"trial_n":100,"min":77,"max":178,"target":"present","response":"present","rt":1555.4000000004,"correct":true,"confidence":3},{"trial_n":101,"min":79,"max":176,"target":"present","response":"present","rt":761.59999999963,"correct":true,"confidence":4},{"trial_n":102,"min":79,"max":176,"target":"present","response":"present","rt":1322.5,"correct":true,"confidence":4},{"trial_n":103,"min":81,"max":174,"target":"present","response":"present","rt":844.5,"correct":true,"confidence":3},{"trial_n":104,"min":81,"max":174,"target":"absent","response":"absent","rt":1831.5,"correct":true,"confidence":2},{"trial_n":105,"min":83,"max":172,"target":"absent","response":"present","rt":2521.1999999993,"correct":false,"confidence":1},{"trial_n":106,"min":81,"max":174,"target":"present","response":"present","rt":1958.4000000004,"correct":true,"confidence":1},{"trial_n":107,"min":81,"max":174,"target":"absent","response":"absent","rt":1082.2999999989,"correct":true,"confidence":2},{"trial_n":108,"min":83,"max":172,"target":"absent","response":"absent","rt":2277.7999999989,"correct":true,"confidence":1},{"trial_n":109,"min":83,"max":172,"target":"present","response":"present","rt":1004.7999999989,"correct":true,"confidence":3},{"trial_n":110,"min":85,"max":170,"target":"absent","response":"absent","rt":972,"correct":true,"confidence":3},{"trial_n":111,"min":85,"max":170,"target":"absent","response":"absent","rt":1249.5999999996,"correct":true,"confidence":2},{"trial_n":112,"min":86,"max":169,"target":"absent","response":"absent","rt":2623.8000000007,"correct":true,"confidence":1},{"trial_n":113,"min":86,"max":169,"target":"absent","response":"absent","rt":1125.8000000007,"correct":true,"confidence":1},{"trial_n":114,"min":87,"max":168,"target":"absent","response":"present","rt":2012.8000000007,"correct":false,"confidence":1},{"trial_n":115,"min":86,"max":169,"target":"present","response":"absent","rt":4313.9000000004,"correct":false,"confidence":1},{"trial_n":116,"min":85,"max":170,"target":"present","response":"present","rt":757.69999999925,"correct":true,"confidence":3},{"trial_n":117,"min":85,"max":170,"target":"absent","response":"absent","rt":1930.3000000007,"correct":true,"confidence":2},{"trial_n":118,"min":86,"max":169,"target":"absent","response":"present","rt":1833.2000000011,"correct":false,"confidence":1},{"trial_n":119,"min":85,"max":170,"target":"present","response":"present","rt":1880.7999999989,"correct":true,"confidence":2},{"trial_n":120,"min":85,"max":170,"target":"absent","response":"present","rt":4900.0999999996,"correct":false,"confidence":2},{"trial_n":121,"min":84,"max":171,"target":"present","response":"present","rt":744.09999999963,"correct":true,"confidence":3},{"trial_n":122,"min":84,"max":171,"target":"present","response":"present","rt":703.29999999888,"correct":true,"confidence":4},{"trial_n":123,"min":85,"max":170,"target":"absent","response":"absent","rt":1690.1999999993,"correct":true,"confidence":2},{"trial_n":124,"min":85,"max":170,"target":"present","response":"present","rt":937.59999999963,"correct":true,"confidence":3},{"trial_n":125,"min":86,"max":169,"target":"absent","response":"present","rt":2016.1999999993,"correct":false,"confidence":1},{"trial_n":126,"min":85,"max":170,"target":"present","response":"present","rt":828.59999999963,"correct":true,"confidence":3},{"trial_n":127,"min":85,"max":170,"target":"present","response":"present","rt":872.09999999963,"correct":true,"confidence":3},{"trial_n":128,"min":86,"max":169,"target":"present","response":"present","rt":977.5,"correct":true,"confidence":3},{"trial_n":129,"min":86,"max":169,"target":"present","response":"present","rt":936.70000000112,"correct":true,"confidence":3},{"trial_n":130,"min":87,"max":168,"target":"present","response":"present","rt":1221.6999999993,"correct":true,"confidence":2},{"trial_n":131,"min":87,"max":168,"target":"absent","response":"absent","rt":1685.8000000007,"correct":true,"confidence":3},{"trial_n":132,"min":88,"max":167,"target":"present","response":"present","rt":972,"correct":true,"confidence":3},{"trial_n":133,"min":88,"max":167,"target":"absent","response":"present","rt":1273.4000000004,"correct":false,"confidence":1},{"trial_n":134,"min":87,"max":168,"target":"present","response":"present","rt":1103.8000000007,"correct":true,"confidence":1},{"trial_n":135,"min":87,"max":168,"target":"absent","response":"absent","rt":1219.0999999996,"correct":true,"confidence":1},{"trial_n":136,"min":88,"max":167,"target":"present","response":"absent","rt":2936.0999999996,"correct":false,"confidence":1},{"trial_n":137,"min":87,"max":168,"target":"present","response":"present","rt":1289.5999999996,"correct":true,"confidence":2},{"trial_n":138,"min":87,"max":168,"target":"absent","response":"present","rt":1663.2000000011,"correct":false,"confidence":1},{"trial_n":139,"min":86,"max":169,"target":"absent","response":"absent","rt":1038.2999999989,"correct":true,"confidence":3},{"trial_n":140,"min":86,"max":169,"target":"present","response":"present","rt":1845.4000000004,"correct":true,"confidence":2}]