[{"trial_n":1,"span":8,"encoder":"55721224","distractor":"55721221","target":"present","response":"present","rt":"4335.8999999911","correct":true,"confidence":-1},{"trial_n":2,"span":8,"encoder":"99492602","distractor":"97492602","target":"present","response":"present","rt":"1952.400000006","correct":true,"confidence":-1},{"trial_n":3,"span":10,"encoder":"3999529720","distractor":"3999599720","target":"absent","response":"present","rt":"11480.700000003","correct":false,"confidence":-1},{"trial_n":4,"span":8,"encoder":"07253874","distractor":"07203874","target":"absent","response":"absent","rt":"1683.200000003","correct":true,"confidence":-1},{"trial_n":5,"span":8,"encoder":"07591420","distractor":"07590420","target":"present","response":"present","rt":"1368.200000003","correct":true,"confidence":-1},{"trial_n":6,"span":10,"encoder":"5662975493","distractor":"5662975490","target":"absent","response":"absent","rt":"152329.59999999","correct":true,"confidence":-1},{"trial_n":7,"span":10,"encoder":"4431372691","distractor":"4431372641","target":"absent","response":"absent","rt":"1967.099999994","correct":true,"confidence":-1},{"trial_n":8,"span":12,"encoder":"608844000311","distractor":"608844040311","target":"absent","response":"absent","rt":"1206.1999999881","correct":true,"confidence":-1},{"trial_n":9,"span":12,"encoder":"721756400160","distractor":"721756400960","target":"absent","response":"present","rt":"1298","correct":false,"confidence":-1},{"trial_n":10,"span":10,"encoder":"0136749324","distractor":"0136747324","target":"absent","response":"present","rt":"523.70000000298","correct":false,"confidence":-1},{"trial_n":11,"span":8,"encoder":"34851897","distractor":"34851697","target":"absent","response":"absent","rt":"2048.799999997","correct":true,"confidence":-1},{"trial_n":12,"span":8,"encoder":"15314780","distractor":"15314785","target":"present","response":"present","rt":"1464.799999997","correct":true,"confidence":-1},{"trial_n":13,"span":9,"encoder":"252110509","distractor":"252160509","target":"present","response":"present","rt":"2753.099999994","correct":true,"confidence":-1},{"trial_n":14,"span":9,"encoder":"605474296","distractor":"605476296","target":"present","response":"absent","rt":"1489.5","correct":false,"confidence":-1},{"trial_n":15,"span":8,"encoder":"61500389","distractor":"61508389","target":"present","response":"present","rt":"1708.299999997","correct":true,"confidence":-1},{"trial_n":16,"span":8,"encoder":"41221754","distractor":"42221754","target":"absent","response":"present","rt":"5161.1000000089","correct":false,"confidence":-1},{"trial_n":17,"span":7,"encoder":"5840198","distractor":"5840148","target":"present","response":"absent","rt":"21845.700000003","correct":false,"confidence":-1},{"trial_n":18,"span":6,"encoder":"293636","distractor":"291636","target":"present","response":"present","rt":"1172.200000003","correct":true,"confidence":-1},{"trial_n":19,"span":6,"encoder":"715029","distractor":"715021","target":"present","response":"absent","rt":"7930.5","correct":false,"confidence":-1},{"trial_n":20,"span":5,"encoder":"10242","distractor":"10222","target":"present","response":"present","rt":"1197.099999994","correct":true,"confidence":-1},{"trial_n":21,"span":5,"encoder":"78289","distractor":"78089","target":"absent","response":"absent","rt":"1963.299999997","correct":true,"confidence":4},{"trial_n":22,"span":6,"encoder":"641994","distractor":"641944","target":"present","response":"present","rt":"2771","correct":true,"confidence":3},{"trial_n":23,"span":6,"encoder":"598224","distractor":"592224","target":"present","response":"present","rt":"2143.8999999911","correct":true,"confidence":4},{"trial_n":24,"span":7,"encoder":"9947352","distractor":"9944352","target":"present","response":"present","rt":"2097","correct":true,"confidence":3},{"trial_n":25,"span":7,"encoder":"4725563","distractor":"4726563","target":"absent","response":"present","rt":"2429.6999999881","correct":false,"confidence":3},{"trial_n":26,"span":6,"encoder":"452773","distractor":"462773","target":"absent","response":"present","rt":"1437.1000000089","correct":false,"confidence":4},{"trial_n":27,"span":5,"encoder":"94801","distractor":"94841","target":"present","response":"present","rt":"2463.200000003","correct":true,"confidence":5},{"trial_n":28,"span":5,"encoder":"34448","distractor":"04448","target":"absent","response":"absent","rt":"1351.799999997","correct":true,"confidence":5},{"trial_n":29,"span":6,"encoder":"118676","distractor":"118476","target":"absent","response":"absent","rt":"1996.299999997","correct":true,"confidence":3},{"trial_n":30,"span":6,"encoder":"400992","distractor":"400996","target":"present","response":"present","rt":"1261.099999994","correct":true,"confidence":4},{"trial_n":31,"span":7,"encoder":"5899071","distractor":"1899071","target":"present","response":"present","rt":"3787.5","correct":true,"confidence":4},{"trial_n":32,"span":7,"encoder":"9744889","distractor":"9644889","target":"absent","response":"absent","rt":"2278.700000003","correct":true,"confidence":2},{"trial_n":33,"span":8,"encoder":"82965144","distractor":"82925144","target":"present","response":"present","rt":"2142.900000006","correct":true,"confidence":3},{"trial_n":34,"span":8,"encoder":"70321128","distractor":"70327128","target":"present","response":"present","rt":"1709.799999997","correct":true,"confidence":5},{"trial_n":35,"span":9,"encoder":"295365870","distractor":"295360870","target":"present","response":"absent","rt":"2281.5","correct":false,"confidence":2},{"trial_n":36,"span":8,"encoder":"32090394","distractor":"32090344","target":"present","response":"present","rt":"1456.400000006","correct":true,"confidence":3},{"trial_n":37,"span":8,"encoder":"90370759","distractor":"95370759","target":"absent","response":"present","rt":"1608.5","correct":false,"confidence":2},{"trial_n":38,"span":7,"encoder":"1017611","distractor":"1017671","target":"absent","response":"present","rt":"2815.599999994","correct":false,"confidence":3},{"trial_n":39,"span":6,"encoder":"476274","distractor":"776274","target":"present","response":"present","rt":"1795.299999997","correct":true,"confidence":4},{"trial_n":40,"span":6,"encoder":"157625","distractor":"157623","target":"absent","response":"absent","rt":"2426.299999997","correct":true,"confidence":2},{"trial_n":41,"span":7,"encoder":"7430321","distractor":"7431321","target":"present","response":"present","rt":"1275.1000000089","correct":true,"confidence":2},{"trial_n":42,"span":7,"encoder":"8099962","distractor":"7099962","target":"absent","response":"present","rt":"1215.6000000089","correct":false,"confidence":3},{"trial_n":43,"span":6,"encoder":"500627","distractor":"500677","target":"present","response":"present","rt":"1806.799999997","correct":true,"confidence":3},{"trial_n":44,"span":6,"encoder":"589838","distractor":"579838","target":"absent","response":"absent","rt":"1748.200000003","correct":true,"confidence":4},{"trial_n":45,"span":7,"encoder":"1446225","distractor":"1446227","target":"present","response":"present","rt":"1532.099999994","correct":true,"confidence":3},{"trial_n":46,"span":7,"encoder":"4523069","distractor":"4524069","target":"absent","response":"present","rt":"2549.1000000089","correct":false,"confidence":3},{"trial_n":47,"span":6,"encoder":"752417","distractor":"652417","target":"absent","response":"present","rt":"1774","correct":false,"confidence":3},{"trial_n":48,"span":5,"encoder":"10064","distractor":"10034","target":"present","response":"present","rt":"1058.5","correct":true,"confidence":5},{"trial_n":49,"span":5,"encoder":"99796","distractor":"49796","target":"absent","response":"present","rt":"2111.799999997","correct":false,"confidence":3},{"trial_n":50,"span":4,"encoder":"7237","distractor":"7537","target":"present","response":"present","rt":"969","correct":true,"confidence":5},{"trial_n":51,"span":4,"encoder":"8628","distractor":"2628","target":"absent","response":"absent","rt":"1698","correct":true,"confidence":3},{"trial_n":52,"span":5,"encoder":"96413","distractor":"86413","target":"absent","response":"absent","rt":"1331.6000000089","correct":true,"confidence":5},{"trial_n":53,"span":5,"encoder":"56634","distractor":"56334","target":"absent","response":"absent","rt":"1967.799999997","correct":true,"confidence":4},{"trial_n":54,"span":6,"encoder":"950972","distractor":"930972","target":"absent","response":"present","rt":"2110.1000000089","correct":false,"confidence":3},{"trial_n":55,"span":5,"encoder":"17251","distractor":"97251","target":"absent","response":"absent","rt":"1246.200000003","correct":true,"confidence":3},{"trial_n":56,"span":5,"encoder":"11029","distractor":"11929","target":"absent","response":"absent","rt":"1387","correct":true,"confidence":3},{"trial_n":57,"span":6,"encoder":"460745","distractor":"460845","target":"absent","response":"absent","rt":"1371.200000003","correct":true,"confidence":5},{"trial_n":58,"span":6,"encoder":"293879","distractor":"293279","target":"present","response":"present","rt":"1697.700000003","correct":true,"confidence":3},{"trial_n":59,"span":7,"encoder":"6927653","distractor":"6957653","target":"present","response":"present","rt":"2915.900000006","correct":true,"confidence":4},{"trial_n":60,"span":7,"encoder":"3281290","distractor":"3261290","target":"present","response":"present","rt":"1861.799999997","correct":true,"confidence":3},{"trial_n":61,"span":8,"encoder":"52494135","distractor":"82494135","target":"absent","response":"absent","rt":"1197","correct":true,"confidence":3},{"trial_n":62,"span":8,"encoder":"46228768","distractor":"46223768","target":"present","response":"present","rt":"1269.1000000089","correct":true,"confidence":3},{"trial_n":63,"span":9,"encoder":"664317589","distractor":"614317589","target":"present","response":"present","rt":"1493.599999994","correct":true,"confidence":2},{"trial_n":64,"span":9,"encoder":"178461151","distractor":"178461158","target":"present","response":"absent","rt":"1450","correct":false,"confidence":2},{"trial_n":65,"span":8,"encoder":"95621628","distractor":"91621628","target":"present","response":"present","rt":"1502.900000006","correct":true,"confidence":3},{"trial_n":66,"span":8,"encoder":"93100679","distractor":"90100679","target":"absent","response":"absent","rt":"4035.299999997","correct":true,"confidence":1},{"trial_n":67,"span":9,"encoder":"094481855","distractor":"994481855","target":"absent","response":"present","rt":"1652.299999997","correct":false,"confidence":2},{"trial_n":68,"span":8,"encoder":"97982789","distractor":"97932789","target":"absent","response":"present","rt":"2418.700000003","correct":false,"confidence":2},{"trial_n":69,"span":7,"encoder":"9774011","distractor":"9774711","target":"present","response":"present","rt":"8052.700000003","correct":true,"confidence":1},{"trial_n":70,"span":7,"encoder":"0411183","distractor":"0411173","target":"present","response":"present","rt":"994.60000000894","correct":true,"confidence":2},{"trial_n":71,"span":8,"encoder":"85394219","distractor":"85393219","target":"present","response":"present","rt":"9837.599999994","correct":true,"confidence":-1},{"trial_n":72,"span":8,"encoder":"75044079","distractor":"75074079","target":"present","response":"present","rt":"747.59999999404","correct":true,"confidence":-1},{"trial_n":73,"span":9,"encoder":"800739545","distractor":"800739543","target":"absent","response":"absent","rt":"540.09999999404","correct":true,"confidence":-1},{"trial_n":74,"span":9,"encoder":"447716017","distractor":"447716617","target":"absent","response":"present","rt":"519.5","correct":false,"confidence":-1},{"trial_n":75,"span":8,"encoder":"57289111","distractor":"57299111","target":"present","response":"present","rt":"471.10000000894","correct":true,"confidence":-1},{"trial_n":76,"span":8,"encoder":"90274117","distractor":"97274117","target":"present","response":"present","rt":"22051.100000009","correct":true,"confidence":-1},{"trial_n":77,"span":9,"encoder":"528830792","distractor":"523830792","target":"present","response":"absent","rt":"10071.399999991","correct":false,"confidence":-1},{"trial_n":78,"span":8,"encoder":"89112698","distractor":"89512698","target":"present","response":"present","rt":"2336","correct":true,"confidence":-1},{"trial_n":79,"span":8,"encoder":"66384675","distractor":"66384875","target":"absent","response":"absent","rt":"637.79999999702","correct":true,"confidence":-1},{"trial_n":80,"span":9,"encoder":"699812634","distractor":"619812634","target":"present","response":"present","rt":"466.5","correct":true,"confidence":-1},{"trial_n":81,"span":9,"encoder":"423883906","distractor":"423883206","target":"present","response":"absent","rt":"1077.799999997","correct":false,"confidence":-1},{"trial_n":82,"span":8,"encoder":"71144172","distractor":"91144172","target":"absent","response":"present","rt":"3611.1999999881","correct":false,"confidence":-1},{"trial_n":83,"span":7,"encoder":"6172152","distractor":"6172102","target":"present","response":"present","rt":"2341.8999999911","correct":true,"confidence":-1},{"trial_n":84,"span":7,"encoder":"9546805","distractor":"9546825","target":"present","response":"present","rt":"1519.900000006","correct":true,"confidence":-1},{"trial_n":85,"span":8,"encoder":"68185181","distractor":"68185381","target":"present","response":"present","rt":"4749.3999999911","correct":true,"confidence":-1},{"trial_n":86,"span":8,"encoder":"40334117","distractor":"40333117","target":"absent","response":"absent","rt":"4972.799999997","correct":true,"confidence":-1},{"trial_n":87,"span":9,"encoder":"075482813","distractor":"075482413","target":"present","response":"present","rt":"1364.1999999881","correct":true,"confidence":-1},{"trial_n":88,"span":9,"encoder":"607760983","distractor":"607750983","target":"absent","response":"absent","rt":"2156.5","correct":true,"confidence":-1},{"trial_n":89,"span":10,"encoder":"9230632107","distractor":"9230692107","target":"absent","response":"present","rt":"2853.5","correct":false,"confidence":-1},{"trial_n":90,"span":9,"encoder":"496984859","distractor":"496924859","target":"present","response":"absent","rt":"1259.200000003","correct":false,"confidence":-1},{"trial_n":91,"span":8,"encoder":"85448227","distractor":"85748227","target":"absent","response":"absent","rt":"5159.200000003","correct":true,"confidence":3},{"trial_n":92,"span":8,"encoder":"82572371","distractor":"82572471","target":"absent","response":"present","rt":"1345.900000006","correct":false,"confidence":3},{"trial_n":93,"span":7,"encoder":"9804771","distractor":"9801771","target":"present","response":"present","rt":"5129","correct":true,"confidence":2},{"trial_n":94,"span":7,"encoder":"4114264","distractor":"4114464","target":"absent","response":"absent","rt":"4751","correct":true,"confidence":3},{"trial_n":95,"span":8,"encoder":"59799282","distractor":"59709282","target":"absent","response":"absent","rt":"6676.5","correct":true,"confidence":2},{"trial_n":96,"span":8,"encoder":"52043972","distractor":"52043672","target":"present","response":"present","rt":"4342.299999997","correct":true,"confidence":3},{"trial_n":97,"span":9,"encoder":"370028078","distractor":"370028088","target":"present","response":"present","rt":"2100.1999999881","correct":true,"confidence":4},{"trial_n":98,"span":9,"encoder":"570909327","distractor":"570909329","target":"absent","response":"absent","rt":"2114.299999997","correct":true,"confidence":4},{"trial_n":99,"span":10,"encoder":"5162779737","distractor":"5162749737","target":"absent","response":"absent","rt":"5449.200000003","correct":true,"confidence":2},{"trial_n":100,"span":10,"encoder":"4334579409","distractor":"4334579489","target":"absent","response":"absent","rt":"3770.1999999881","correct":true,"confidence":2},{"trial_n":101,"span":11,"encoder":"87258081057","distractor":"97258081057","target":"present","response":"present","rt":"5360.799999997","correct":true,"confidence":5},{"trial_n":102,"span":11,"encoder":"88040150897","distractor":"88043150897","target":"absent","response":"present","rt":"5728.1999999881","correct":false,"confidence":1},{"trial_n":103,"span":10,"encoder":"4179393249","distractor":"4169393249","target":"absent","response":"present","rt":"2889.900000006","correct":false,"confidence":1},{"trial_n":104,"span":9,"encoder":"105015713","distractor":"105055713","target":"present","response":"present","rt":"4000.099999994","correct":true,"confidence":3},{"trial_n":105,"span":9,"encoder":"810022268","distractor":"870022268","target":"present","response":"present","rt":"2968.700000003","correct":true,"confidence":3},{"trial_n":106,"span":10,"encoder":"5426707364","distractor":"5426707363","target":"present","response":"absent","rt":"6347.299999997","correct":false,"confidence":3},{"trial_n":107,"span":9,"encoder":"684820338","distractor":"654820338","target":"absent","response":"absent","rt":"2831.5","correct":true,"confidence":3},{"trial_n":108,"span":9,"encoder":"283739615","distractor":"283739415","target":"absent","response":"present","rt":"3017.799999997","correct":false,"confidence":3},{"trial_n":109,"span":8,"encoder":"46728501","distractor":"56728501","target":"present","response":"present","rt":"3120.599999994","correct":true,"confidence":5},{"trial_n":110,"span":8,"encoder":"37951655","distractor":"97951655","target":"present","response":"absent","rt":"3242.299999997","correct":false,"confidence":3},{"trial_n":111,"span":7,"encoder":"8800524","distractor":"8800564","target":"present","response":"present","rt":"2590.5","correct":true,"confidence":4},{"trial_n":112,"span":7,"encoder":"2665858","distractor":"2665859","target":"absent","response":"absent","rt":"4032.400000006","correct":true,"confidence":5},{"trial_n":113,"span":8,"encoder":"83935572","distractor":"83935576","target":"present","response":"present","rt":"2877.599999994","correct":true,"confidence":3},{"trial_n":114,"span":8,"encoder":"95498207","distractor":"95468207","target":"present","response":"present","rt":"6414.900000006","correct":true,"confidence":3},{"trial_n":115,"span":9,"encoder":"701894083","distractor":"706894083","target":"absent","response":"present","rt":"3783.900000006","correct":false,"confidence":2},{"trial_n":116,"span":8,"encoder":"80738259","distractor":"80738059","target":"present","response":"absent","rt":"685.59999999404","correct":false,"confidence":2},{"trial_n":117,"span":7,"encoder":"8283683","distractor":"8283663","target":"present","response":"present","rt":"2196.6999999881","correct":true,"confidence":4},{"trial_n":118,"span":7,"encoder":"7966761","distractor":"7966791","target":"present","response":"present","rt":"1970.299999997","correct":true,"confidence":4},{"trial_n":119,"span":8,"encoder":"32429163","distractor":"12429163","target":"present","response":"present","rt":"3081.299999997","correct":true,"confidence":3},{"trial_n":120,"span":8,"encoder":"74517955","distractor":"74507955","target":"absent","response":"present","rt":"3028.799999997","correct":false,"confidence":2},{"trial_n":121,"span":7,"encoder":"8972901","distractor":"8572901","target":"absent","response":"absent","rt":"2094.8999999911","correct":true,"confidence":5},{"trial_n":122,"span":7,"encoder":"9244453","distractor":"4244453","target":"absent","response":"absent","rt":"1891.299999997","correct":true,"confidence":5},{"trial_n":123,"span":8,"encoder":"60606554","distractor":"60006554","target":"present","response":"present","rt":"3784.8999999911","correct":true,"confidence":5},{"trial_n":124,"span":8,"encoder":"86173368","distractor":"86173378","target":"absent","response":"present","rt":"1887.299999997","correct":false,"confidence":1},{"trial_n":125,"span":7,"encoder":"4447565","distractor":"4747565","target":"absent","response":"present","rt":"4262.799999997","correct":false,"confidence":4},{"trial_n":126,"span":6,"encoder":"788129","distractor":"768129","target":"absent","response":"absent","rt":"2770.1999999881","correct":true,"confidence":3},{"trial_n":127,"span":6,"encoder":"898757","distractor":"894757","target":"absent","response":"present","rt":"4103.1000000089","correct":false,"confidence":3},{"trial_n":128,"span":5,"encoder":"77029","distractor":"70029","target":"present","response":"present","rt":"5209","correct":true,"confidence":4},{"trial_n":129,"span":5,"encoder":"19948","distractor":"19248","target":"present","response":"present","rt":"3221","correct":true,"confidence":3},{"trial_n":130,"span":6,"encoder":"550335","distractor":"550331","target":"absent","response":"absent","rt":"2920.799999997","correct":true,"confidence":4},{"trial_n":131,"span":6,"encoder":"100270","distractor":"100670","target":"absent","response":"absent","rt":"3112.5","correct":true,"confidence":4},{"trial_n":132,"span":7,"encoder":"1809403","distractor":"8809403","target":"absent","response":"present","rt":"20601.799999997","correct":false,"confidence":2},{"trial_n":133,"span":6,"encoder":"698788","distractor":"690788","target":"absent","response":"absent","rt":"5190.8000000119","correct":true,"confidence":3},{"trial_n":134,"span":6,"encoder":"622956","distractor":"623956","target":"present","response":"present","rt":"22141.900000006","correct":true,"confidence":2},{"trial_n":135,"span":7,"encoder":"1218059","distractor":"1212059","target":"present","response":"present","rt":"3441","correct":true,"confidence":4},{"trial_n":136,"span":7,"encoder":"6286800","distractor":"6280800","target":"absent","response":"absent","rt":"2187.5","correct":true,"confidence":3},{"trial_n":137,"span":8,"encoder":"01280643","distractor":"01250643","target":"absent","response":"present","rt":"2336.599999994","correct":false,"confidence":2},{"trial_n":138,"span":7,"encoder":"3322180","distractor":"3372180","target":"absent","response":"absent","rt":"2181.3999999911","correct":true,"confidence":1},{"trial_n":139,"span":7,"encoder":"7658053","distractor":"7654053","target":"present","response":"present","rt":"6308","correct":true,"confidence":2},{"trial_n":140,"span":8,"encoder":"51238624","distractor":"31238624","target":"present","response":"present","rt":"3583.799999997","correct":true,"confidence":3}]