[{"trial_n":1,"n_dots":4.25,"target":"left","response":"left","rt":1899.1000000015,"correct":true,"confidence":-1},{"trial_n":2,"n_dots":4.25,"target":"left","response":"left","rt":966.69999999925,"correct":true,"confidence":-1},{"trial_n":3,"n_dots":3.85,"target":"left","response":"right","rt":710.29999999888,"correct":false,"confidence":-1},{"trial_n":4,"n_dots":4.25,"target":"right","response":"right","rt":825.59999999963,"correct":true,"confidence":-1},{"trial_n":5,"n_dots":4.25,"target":"right","response":"right","rt":1011.0999999996,"correct":true,"confidence":-1},{"trial_n":6,"n_dots":3.85,"target":"right","response":"right","rt":1264.9000000004,"correct":true,"confidence":-1},{"trial_n":7,"n_dots":3.85,"target":"left","response":"left","rt":868.29999999888,"correct":true,"confidence":-1},{"trial_n":8,"n_dots":3.65,"target":"right","response":"right","rt":1090,"correct":true,"confidence":-1},{"trial_n":9,"n_dots":3.65,"target":"left","response":"right","rt":1676.9000000004,"correct":false,"confidence":-1},{"trial_n":10,"n_dots":3.85,"target":"right","response":"right","rt":518,"correct":true,"confidence":-1},{"trial_n":11,"n_dots":3.85,"target":"left","response":"left","rt":880.69999999925,"correct":true,"confidence":-1},{"trial_n":12,"n_dots":3.65,"target":"left","response":"left","rt":603,"correct":true,"confidence":-1},{"trial_n":13,"n_dots":3.65,"target":"right","response":"right","rt":455,"correct":true,"confidence":-1},{"trial_n":14,"n_dots":3.55,"target":"left","response":"left","rt":611.59999999963,"correct":true,"confidence":-1},{"trial_n":15,"n_dots":3.55,"target":"left","response":"right","rt":479.90000000037,"correct":false,"confidence":-1},{"trial_n":16,"n_dots":3.65,"target":"left","response":"left","rt":590.30000000075,"correct":true,"confidence":-1},{"trial_n":17,"n_dots":3.65,"target":"right","response":"right","rt":488.59999999963,"correct":true,"confidence":-1},{"trial_n":18,"n_dots":3.55,"target":"right","response":"right","rt":761.09999999963,"correct":true,"confidence":-1},{"trial_n":19,"n_dots":3.55,"target":"left","response":"right","rt":539.5,"correct":false,"confidence":-1},{"trial_n":20,"n_dots":3.65,"target":"left","response":"right","rt":682.09999999963,"correct":false,"confidence":-1},{"trial_n":21,"n_dots":3.75,"target":"right","response":"right","rt":457.09999999963,"correct":true,"confidence":4},{"trial_n":22,"n_dots":3.75,"target":"left","response":"right","rt":773.5,"correct":false,"confidence":3},{"trial_n":23,"n_dots":3.85,"target":"right","response":"right","rt":582.79999999888,"correct":true,"confidence":5},{"trial_n":24,"n_dots":3.85,"target":"right","response":"right","rt":700.69999999925,"correct":true,"confidence":4},{"trial_n":25,"n_dots":3.75,"target":"left","response":"left","rt":610.59999999963,"correct":true,"confidence":3},{"trial_n":26,"n_dots":3.75,"target":"right","response":"right","rt":386.5,"correct":true,"confidence":4},{"trial_n":27,"n_dots":3.65,"target":"left","response":"left","rt":838.79999999888,"correct":true,"confidence":3},{"trial_n":28,"n_dots":3.65,"target":"right","response":"right","rt":488,"correct":true,"confidence":4},{"trial_n":29,"n_dots":3.55,"target":"right","response":"right","rt":474.80000000075,"correct":true,"confidence":4},{"trial_n":30,"n_dots":3.55,"target":"right","response":"right","rt":540.19999999925,"correct":true,"confidence":3},{"trial_n":31,"n_dots":3.45,"target":"right","response":"right","rt":745.09999999963,"correct":true,"confidence":4},{"trial_n":32,"n_dots":3.45,"target":"left","response":"right","rt":659.69999999925,"correct":false,"confidence":3},{"trial_n":33,"n_dots":3.55,"target":"left","response":"left","rt":669.19999999925,"correct":true,"confidence":2},{"trial_n":34,"n_dots":3.55,"target":"left","response":"right","rt":528.59999999963,"correct":false,"confidence":2},{"trial_n":35,"n_dots":3.65,"target":"left","response":"right","rt":1063.2999999989,"correct":false,"confidence":3},{"trial_n":36,"n_dots":3.75,"target":"left","response":"left","rt":827.09999999963,"correct":true,"confidence":2},{"trial_n":37,"n_dots":3.75,"target":"right","response":"right","rt":488.89999999851,"correct":true,"confidence":3},{"trial_n":38,"n_dots":3.65,"target":"left","response":"left","rt":647.40000000037,"correct":true,"confidence":3},{"trial_n":39,"n_dots":3.65,"target":"left","response":"right","rt":690.29999999888,"correct":false,"confidence":3},{"trial_n":40,"n_dots":3.75,"target":"left","response":"left","rt":1031.1999999993,"correct":true,"confidence":3},{"trial_n":41,"n_dots":3.75,"target":"left","response":"left","rt":952.20000000112,"correct":true,"confidence":2},{"trial_n":42,"n_dots":3.65,"target":"left","response":"right","rt":557.40000000037,"correct":false,"confidence":3},{"trial_n":43,"n_dots":3.75,"target":"right","response":"right","rt":417,"correct":true,"confidence":4},{"trial_n":44,"n_dots":3.75,"target":"left","response":"left","rt":652.30000000075,"correct":true,"confidence":3},{"trial_n":45,"n_dots":3.65,"target":"left","response":"left","rt":1130.2999999989,"correct":true,"confidence":2},{"trial_n":46,"n_dots":3.65,"target":"left","response":"right","rt":987.09999999963,"correct":false,"confidence":2},{"trial_n":47,"n_dots":3.75,"target":"left","response":"left","rt":671.39999999851,"correct":true,"confidence":2},{"trial_n":48,"n_dots":3.75,"target":"right","response":"right","rt":377.09999999963,"correct":true,"confidence":3},{"trial_n":49,"n_dots":3.65,"target":"left","response":"left","rt":412.09999999963,"correct":true,"confidence":4},{"trial_n":50,"n_dots":3.65,"target":"left","response":"left","rt":658.10000000149,"correct":true,"confidence":4},{"trial_n":51,"n_dots":3.55,"target":"right","response":"right","rt":343.69999999925,"correct":true,"confidence":3},{"trial_n":52,"n_dots":3.55,"target":"right","response":"right","rt":774.09999999963,"correct":true,"confidence":4},{"trial_n":53,"n_dots":3.45,"target":"left","response":"right","rt":514.69999999925,"correct":false,"confidence":5},{"trial_n":54,"n_dots":3.55,"target":"right","response":"right","rt":585.79999999888,"correct":true,"confidence":4},{"trial_n":55,"n_dots":3.55,"target":"left","response":"left","rt":242.30000000075,"correct":true,"confidence":2},{"trial_n":56,"n_dots":3.45,"target":"right","response":"right","rt":504.29999999888,"correct":true,"confidence":3},{"trial_n":57,"n_dots":3.45,"target":"right","response":"right","rt":356,"correct":true,"confidence":4},{"trial_n":58,"n_dots":3.35,"target":"left","response":"left","rt":473,"correct":true,"confidence":3},{"trial_n":59,"n_dots":3.35,"target":"right","response":"right","rt":1488.3999999985,"correct":true,"confidence":4},{"trial_n":60,"n_dots":3.25,"target":"left","response":"right","rt":467.29999999888,"correct":false,"confidence":4},{"trial_n":61,"n_dots":3.35,"target":"right","response":"right","rt":377.39999999851,"correct":true,"confidence":4},{"trial_n":62,"n_dots":3.35,"target":"left","response":"left","rt":510.19999999925,"correct":true,"confidence":2},{"trial_n":63,"n_dots":3.25,"target":"left","response":"right","rt":762.59999999963,"correct":false,"confidence":3},{"trial_n":64,"n_dots":3.35,"target":"right","response":"left","rt":656.5,"correct":false,"confidence":3},{"trial_n":65,"n_dots":3.45,"target":"right","response":"right","rt":468.70000000112,"correct":true,"confidence":3},{"trial_n":66,"n_dots":3.45,"target":"right","response":"right","rt":560.90000000037,"correct":true,"confidence":4},{"trial_n":67,"n_dots":3.35,"target":"right","response":"right","rt":545.5,"correct":true,"confidence":5},{"trial_n":68,"n_dots":3.35,"target":"left","response":"right","rt":388.09999999963,"correct":false,"confidence":2},{"trial_n":69,"n_dots":3.45,"target":"left","response":"left","rt":641.20000000112,"correct":true,"confidence":3},{"trial_n":70,"n_dots":3.45,"target":"right","response":"left","rt":1022,"correct":false,"confidence":2},{"trial_n":71,"n_dots":3.55,"target":"right","response":"right","rt":749.29999999888,"correct":true,"confidence":4},{"trial_n":72,"n_dots":3.55,"target":"right","response":"right","rt":767.20000000112,"correct":true,"confidence":3},{"trial_n":73,"n_dots":3.45,"target":"right","response":"right","rt":309,"correct":true,"confidence":4},{"trial_n":74,"n_dots":3.45,"target":"right","response":"right","rt":404.59999999963,"correct":true,"confidence":4},{"trial_n":75,"n_dots":3.35,"target":"left","response":"right","rt":781.5,"correct":false,"confidence":3},{"trial_n":76,"n_dots":3.45,"target":"right","response":"right","rt":527.89999999851,"correct":true,"confidence":3},{"trial_n":77,"n_dots":3.45,"target":"left","response":"left","rt":374.20000000112,"correct":true,"confidence":3},{"trial_n":78,"n_dots":3.35,"target":"left","response":"left","rt":746.19999999925,"correct":true,"confidence":4},{"trial_n":79,"n_dots":3.35,"target":"right","response":"right","rt":694,"correct":true,"confidence":3},{"trial_n":80,"n_dots":3.25,"target":"right","response":"right","rt":319.19999999925,"correct":true,"confidence":3},{"trial_n":81,"n_dots":3.25,"target":"right","response":"right","rt":486.90000000037,"correct":true,"confidence":3},{"trial_n":82,"n_dots":3.15,"target":"right","response":"right","rt":752,"correct":true,"confidence":2},{"trial_n":83,"n_dots":3.15,"target":"left","response":"left","rt":517.80000000075,"correct":true,"confidence":2},{"trial_n":84,"n_dots":3.05,"target":"right","response":"right","rt":554.70000000112,"correct":true,"confidence":2},{"trial_n":85,"n_dots":3.05,"target":"right","response":"right","rt":563.19999999925,"correct":true,"confidence":3},{"trial_n":86,"n_dots":2.95,"target":"right","response":"right","rt":1392.5,"correct":true,"confidence":3},{"trial_n":87,"n_dots":2.95,"target":"left","response":"left","rt":523.80000000075,"correct":true,"confidence":3},{"trial_n":88,"n_dots":2.85,"target":"left","response":"left","rt":545.10000000149,"correct":true,"confidence":2},{"trial_n":89,"n_dots":2.85,"target":"right","response":"right","rt":407.09999999963,"correct":true,"confidence":3},{"trial_n":90,"n_dots":2.75,"target":"right","response":"right","rt":563.69999999925,"correct":true,"confidence":4},{"trial_n":91,"n_dots":2.75,"target":"left","response":"left","rt":489.89999999851,"correct":true,"confidence":3},{"trial_n":92,"n_dots":2.65,"target":"left","response":"left","rt":1050.3000000007,"correct":true,"confidence":3},{"trial_n":93,"n_dots":2.65,"target":"left","response":"left","rt":1377.9000000004,"correct":true,"confidence":1},{"trial_n":94,"n_dots":2.55,"target":"left","response":"right","rt":557.60000000149,"correct":false,"confidence":2},{"trial_n":95,"n_dots":2.65,"target":"right","response":"right","rt":497.20000000112,"correct":true,"confidence":3},{"trial_n":96,"n_dots":2.65,"target":"right","response":"right","rt":587.40000000037,"correct":true,"confidence":3},{"trial_n":97,"n_dots":2.55,"target":"left","response":"left","rt":850.09999999963,"correct":true,"confidence":2},{"trial_n":98,"n_dots":2.55,"target":"left","response":"right","rt":576.5,"correct":false,"confidence":3},{"trial_n":99,"n_dots":2.65,"target":"left","response":"left","rt":701.90000000037,"correct":true,"confidence":3},{"trial_n":100,"n_dots":2.65,"target":"left","response":"right","rt":759.30000000075,"correct":false,"confidence":2},{"trial_n":101,"n_dots":2.75,"target":"left","response":"right","rt":1325.6999999993,"correct":false,"confidence":3},{"trial_n":102,"n_dots":2.85,"target":"left","response":"left","rt":1039.6999999993,"correct":true,"confidence":2},{"trial_n":103,"n_dots":2.85,"target":"right","response":"right","rt":575.40000000037,"correct":true,"confidence":2},{"trial_n":104,"n_dots":2.75,"target":"right","response":"right","rt":719.69999999925,"correct":true,"confidence":4},{"trial_n":105,"n_dots":2.75,"target":"right","response":"right","rt":604.5,"correct":true,"confidence":3},{"trial_n":106,"n_dots":2.65,"target":"right","response":"right","rt":588.39999999851,"correct":true,"confidence":2},{"trial_n":107,"n_dots":2.65,"target":"right","response":"right","rt":511.09999999963,"correct":true,"confidence":3},{"trial_n":108,"n_dots":2.55,"target":"left","response":"left","rt":478.19999999925,"correct":true,"confidence":4},{"trial_n":109,"n_dots":2.55,"target":"left","response":"right","rt":590.30000000075,"correct":false,"confidence":2},{"trial_n":110,"n_dots":2.65,"target":"right","response":"right","rt":853.40000000037,"correct":true,"confidence":2},{"trial_n":111,"n_dots":2.65,"target":"right","response":"right","rt":1003.9000000004,"correct":true,"confidence":2},{"trial_n":112,"n_dots":2.55,"target":"left","response":"left","rt":785.19999999925,"correct":true,"confidence":4},{"trial_n":113,"n_dots":2.55,"target":"left","response":"left","rt":1834.9000000004,"correct":true,"confidence":3},{"trial_n":114,"n_dots":2.45,"target":"right","response":"left","rt":581.59999999963,"correct":false,"confidence":3},{"trial_n":115,"n_dots":2.55,"target":"left","response":"right","rt":686,"correct":false,"confidence":4},{"trial_n":116,"n_dots":2.65,"target":"right","response":"left","rt":465,"correct":false,"confidence":3},{"trial_n":117,"n_dots":2.75,"target":"right","response":"left","rt":378.09999999963,"correct":false,"confidence":2},{"trial_n":118,"n_dots":2.85,"target":"right","response":"left","rt":520.79999999888,"correct":false,"confidence":3},{"trial_n":119,"n_dots":2.95,"target":"right","response":"right","rt":487,"correct":true,"confidence":3},{"trial_n":120,"n_dots":2.95,"target":"right","response":"left","rt":560.29999999888,"correct":false,"confidence":3}]