[{"trial_n":1,"min":25,"max":230,"target":"present","response":"absent","rt":5887.8000001907,"correct":false,"confidence":-1},{"trial_n":2,"min":25,"max":230,"target":"present","response":"present","rt":1621.0999999046,"correct":true,"confidence":-1},{"trial_n":3,"min":25,"max":230,"target":"absent","response":"present","rt":1363.7000000477,"correct":false,"confidence":-1},{"trial_n":4,"min":9,"max":246,"target":"absent","response":"absent","rt":1094.4000000954,"correct":true,"confidence":-1},{"trial_n":5,"min":9,"max":246,"target":"present","response":"present","rt":1004.3000001907,"correct":true,"confidence":-1},{"trial_n":6,"min":25,"max":230,"target":"absent","response":"absent","rt":1140.9000000954,"correct":true,"confidence":-1},{"trial_n":7,"min":25,"max":230,"target":"present","response":"present","rt":991.29999995232,"correct":true,"confidence":-1},{"trial_n":8,"min":41,"max":214,"target":"absent","response":"absent","rt":881.5,"correct":true,"confidence":-1},{"trial_n":9,"min":41,"max":214,"target":"present","response":"present","rt":861.29999995232,"correct":true,"confidence":-1},{"trial_n":10,"min":57,"max":198,"target":"present","response":"present","rt":592.29999995232,"correct":true,"confidence":-1},{"trial_n":11,"min":57,"max":198,"target":"present","response":"present","rt":683.90000009537,"correct":true,"confidence":-1},{"trial_n":12,"min":65,"max":190,"target":"absent","response":"absent","rt":816.40000009537,"correct":true,"confidence":-1},{"trial_n":13,"min":65,"max":190,"target":"absent","response":"absent","rt":633.39999985695,"correct":true,"confidence":-1},{"trial_n":14,"min":73,"max":182,"target":"present","response":"present","rt":829.29999995232,"correct":true,"confidence":-1},{"trial_n":15,"min":73,"max":182,"target":"present","response":"present","rt":633.79999995232,"correct":true,"confidence":-1},{"trial_n":16,"min":81,"max":174,"target":"absent","response":"absent","rt":799.59999990463,"correct":true,"confidence":-1},{"trial_n":17,"min":81,"max":174,"target":"absent","response":"absent","rt":535.79999995232,"correct":true,"confidence":-1},{"trial_n":18,"min":89,"max":166,"target":"present","response":"absent","rt":637.79999995232,"correct":false,"confidence":-1},{"trial_n":19,"min":81,"max":174,"target":"absent","response":"absent","rt":694.09999990463,"correct":true,"confidence":-1},{"trial_n":20,"min":81,"max":174,"target":"absent","response":"absent","rt":907,"correct":true,"confidence":-1},{"trial_n":21,"min":85,"max":170,"target":"absent","response":"present","rt":3227.9000000954,"correct":false,"confidence":1},{"trial_n":22,"min":81,"max":174,"target":"present","response":"present","rt":1400.8999998569,"correct":true,"confidence":5},{"trial_n":23,"min":81,"max":174,"target":"present","response":"present","rt":894.20000004768,"correct":true,"confidence":5},{"trial_n":24,"min":85,"max":170,"target":"present","response":"absent","rt":1242.7000000477,"correct":false,"confidence":5},{"trial_n":25,"min":81,"max":174,"target":"present","response":"present","rt":913.79999995232,"correct":true,"confidence":4},{"trial_n":26,"min":81,"max":174,"target":"absent","response":"absent","rt":1035.7999999523,"correct":true,"confidence":3},{"trial_n":27,"min":85,"max":170,"target":"absent","response":"absent","rt":901.09999990463,"correct":true,"confidence":3},{"trial_n":28,"min":85,"max":170,"target":"present","response":"present","rt":809.89999985695,"correct":true,"confidence":4},{"trial_n":29,"min":89,"max":166,"target":"present","response":"absent","rt":840,"correct":false,"confidence":3},{"trial_n":30,"min":85,"max":170,"target":"absent","response":"absent","rt":1363.5999999046,"correct":true,"confidence":3},{"trial_n":31,"min":85,"max":170,"target":"present","response":"present","rt":1040.8999998569,"correct":true,"confidence":3},{"trial_n":32,"min":87,"max":168,"target":"present","response":"present","rt":896.10000014305,"correct":true,"confidence":3},{"trial_n":33,"min":87,"max":168,"target":"absent","response":"absent","rt":759.59999990463,"correct":true,"confidence":5},{"trial_n":34,"min":89,"max":166,"target":"present","response":"present","rt":1024.5999999046,"correct":true,"confidence":3},{"trial_n":35,"min":89,"max":166,"target":"present","response":"present","rt":737,"correct":true,"confidence":3},{"trial_n":36,"min":91,"max":164,"target":"present","response":"present","rt":565.90000009537,"correct":true,"confidence":3},{"trial_n":37,"min":91,"max":164,"target":"absent","response":"absent","rt":1115.2999999523,"correct":true,"confidence":4},{"trial_n":38,"min":93,"max":162,"target":"present","response":"absent","rt":940.70000004768,"correct":false,"confidence":4},{"trial_n":39,"min":91,"max":164,"target":"absent","response":"present","rt":705,"correct":false,"confidence":5},{"trial_n":40,"min":89,"max":166,"target":"present","response":"present","rt":1206.2999999523,"correct":true,"confidence":2},{"trial_n":41,"min":89,"max":166,"target":"present","response":"present","rt":896.79999995232,"correct":true,"confidence":3},{"trial_n":42,"min":90,"max":165,"target":"absent","response":"present","rt":487.39999985695,"correct":false,"confidence":3},{"trial_n":43,"min":89,"max":166,"target":"absent","response":"absent","rt":678.10000014305,"correct":true,"confidence":3},{"trial_n":44,"min":89,"max":166,"target":"present","response":"absent","rt":671.30000019073,"correct":false,"confidence":3},{"trial_n":45,"min":88,"max":167,"target":"absent","response":"absent","rt":735.70000004768,"correct":true,"confidence":3},{"trial_n":46,"min":88,"max":167,"target":"present","response":"present","rt":475.40000009537,"correct":true,"confidence":3},{"trial_n":47,"min":89,"max":166,"target":"absent","response":"absent","rt":862.69999980927,"correct":true,"confidence":3},{"trial_n":48,"min":89,"max":166,"target":"present","response":"absent","rt":852.10000014305,"correct":false,"confidence":3},{"trial_n":49,"min":88,"max":167,"target":"present","response":"present","rt":800.79999995232,"correct":true,"confidence":3},{"trial_n":50,"min":88,"max":167,"target":"absent","response":"absent","rt":813.10000014305,"correct":true,"confidence":3},{"trial_n":51,"min":89,"max":166,"target":"absent","response":"present","rt":716.29999995232,"correct":false,"confidence":2},{"trial_n":52,"min":88,"max":167,"target":"absent","response":"absent","rt":846,"correct":true,"confidence":1},{"trial_n":53,"min":88,"max":167,"target":"absent","response":"absent","rt":1086.3000001907,"correct":true,"confidence":1},{"trial_n":54,"min":89,"max":166,"target":"present","response":"present","rt":961.30000019073,"correct":true,"confidence":3},{"trial_n":55,"min":89,"max":166,"target":"present","response":"present","rt":1742.7000000477,"correct":true,"confidence":3},{"trial_n":56,"min":90,"max":165,"target":"present","response":"absent","rt":1709,"correct":false,"confidence":1},{"trial_n":57,"min":89,"max":166,"target":"absent","response":"absent","rt":1432.2999999523,"correct":true,"confidence":1},{"trial_n":58,"min":89,"max":166,"target":"absent","response":"present","rt":1063.5999999046,"correct":false,"confidence":3},{"trial_n":59,"min":88,"max":167,"target":"present","response":"present","rt":511.59999990463,"correct":true,"confidence":3},{"trial_n":60,"min":88,"max":167,"target":"present","response":"present","rt":438.29999995232,"correct":true,"confidence":3},{"trial_n":61,"min":89,"max":166,"target":"present","response":"present","rt":437.90000009537,"correct":true,"confidence":4},{"trial_n":62,"min":89,"max":166,"target":"absent","response":"present","rt":409.89999985695,"correct":false,"confidence":3},{"trial_n":63,"min":88,"max":167,"target":"absent","response":"absent","rt":1004.2999999523,"correct":true,"confidence":4},{"trial_n":64,"min":88,"max":167,"target":"absent","response":"present","rt":863.09999990463,"correct":false,"confidence":3},{"trial_n":65,"min":87,"max":168,"target":"absent","response":"present","rt":569,"correct":false,"confidence":4},{"trial_n":66,"min":86,"max":169,"target":"present","response":"present","rt":576,"correct":true,"confidence":3},{"trial_n":67,"min":86,"max":169,"target":"present","response":"present","rt":464.20000004768,"correct":true,"confidence":3},{"trial_n":68,"min":87,"max":168,"target":"absent","response":"present","rt":387.40000009537,"correct":false,"confidence":3},{"trial_n":69,"min":86,"max":169,"target":"absent","response":"absent","rt":1274.2999999523,"correct":true,"confidence":3},{"trial_n":70,"min":86,"max":169,"target":"absent","response":"present","rt":520.20000004768,"correct":false,"confidence":4},{"trial_n":71,"min":41,"max":214,"target":"present","response":"present","rt":1627.2000000477,"correct":true,"confidence":-1},{"trial_n":72,"min":41,"max":214,"target":"present","response":"absent","rt":1094.4000000954,"correct":false,"confidence":-1},{"trial_n":73,"min":25,"max":230,"target":"absent","response":"absent","rt":541.20000004768,"correct":true,"confidence":-1},{"trial_n":74,"min":25,"max":230,"target":"absent","response":"absent","rt":297.19999980927,"correct":true,"confidence":-1},{"trial_n":75,"min":41,"max":214,"target":"present","response":"present","rt":336.20000004768,"correct":true,"confidence":-1},{"trial_n":76,"min":41,"max":214,"target":"present","response":"present","rt":343.5,"correct":true,"confidence":-1},{"trial_n":77,"min":57,"max":198,"target":"present","response":"present","rt":1291.8999998569,"correct":true,"confidence":-1},{"trial_n":78,"min":57,"max":198,"target":"absent","response":"absent","rt":412,"correct":true,"confidence":-1},{"trial_n":79,"min":73,"max":182,"target":"present","response":"present","rt":585,"correct":true,"confidence":-1},{"trial_n":80,"min":73,"max":182,"target":"absent","response":"absent","rt":407,"correct":true,"confidence":-1},{"trial_n":81,"min":81,"max":174,"target":"absent","response":"present","rt":618.10000014305,"correct":false,"confidence":-1},{"trial_n":82,"min":73,"max":182,"target":"present","response":"absent","rt":485,"correct":false,"confidence":-1},{"trial_n":83,"min":65,"max":190,"target":"absent","response":"present","rt":672.5,"correct":false,"confidence":-1},{"trial_n":84,"min":57,"max":198,"target":"present","response":"present","rt":420.70000004768,"correct":true,"confidence":-1},{"trial_n":85,"min":57,"max":198,"target":"present","response":"present","rt":388.79999995232,"correct":true,"confidence":-1},{"trial_n":86,"min":65,"max":190,"target":"absent","response":"present","rt":563.89999985695,"correct":false,"confidence":-1},{"trial_n":87,"min":57,"max":198,"target":"present","response":"present","rt":536.40000009537,"correct":true,"confidence":-1},{"trial_n":88,"min":57,"max":198,"target":"absent","response":"absent","rt":655.09999990463,"correct":true,"confidence":-1},{"trial_n":89,"min":65,"max":190,"target":"absent","response":"absent","rt":744.5,"correct":true,"confidence":-1},{"trial_n":90,"min":65,"max":190,"target":"absent","response":"absent","rt":446.70000004768,"correct":true,"confidence":-1},{"trial_n":91,"min":69,"max":186,"target":"absent","response":"absent","rt":561.70000004768,"correct":true,"confidence":2},{"trial_n":92,"min":69,"max":186,"target":"absent","response":"present","rt":464.79999995232,"correct":false,"confidence":3},{"trial_n":93,"min":65,"max":190,"target":"present","response":"present","rt":213.39999985695,"correct":true,"confidence":5},{"trial_n":94,"min":65,"max":190,"target":"present","response":"present","rt":413.20000004768,"correct":true,"confidence":5},{"trial_n":95,"min":69,"max":186,"target":"absent","response":"present","rt":476,"correct":false,"confidence":1},{"trial_n":96,"min":65,"max":190,"target":"present","response":"present","rt":1794.5,"correct":true,"confidence":4},{"trial_n":97,"min":65,"max":190,"target":"present","response":"present","rt":618.40000009537,"correct":true,"confidence":4},{"trial_n":98,"min":69,"max":186,"target":"present","response":"present","rt":554.79999995232,"correct":true,"confidence":4},{"trial_n":99,"min":69,"max":186,"target":"present","response":"present","rt":334.10000014305,"correct":true,"confidence":4},{"trial_n":100,"min":73,"max":182,"target":"present","response":"present","rt":816.90000009537,"correct":true,"confidence":2},{"trial_n":101,"min":73,"max":182,"target":"present","response":"present","rt":737.30000019073,"correct":true,"confidence":3},{"trial_n":102,"min":75,"max":180,"target":"present","response":"present","rt":629.59999990463,"correct":true,"confidence":3},{"trial_n":103,"min":75,"max":180,"target":"present","response":"present","rt":282,"correct":true,"confidence":3},{"trial_n":104,"min":77,"max":178,"target":"absent","response":"absent","rt":699.70000004768,"correct":true,"confidence":5},{"trial_n":105,"min":77,"max":178,"target":"present","response":"present","rt":646.29999995232,"correct":true,"confidence":3},{"trial_n":106,"min":79,"max":176,"target":"present","response":"present","rt":494.90000009537,"correct":true,"confidence":4},{"trial_n":107,"min":79,"max":176,"target":"absent","response":"absent","rt":1205.4000000954,"correct":true,"confidence":1},{"trial_n":108,"min":81,"max":174,"target":"absent","response":"absent","rt":1008.2999999523,"correct":true,"confidence":1},{"trial_n":109,"min":81,"max":174,"target":"present","response":"present","rt":573.60000014305,"correct":true,"confidence":4},{"trial_n":110,"min":83,"max":172,"target":"present","response":"present","rt":1596.1000001431,"correct":true,"confidence":3},{"trial_n":111,"min":83,"max":172,"target":"present","response":"present","rt":576.30000019073,"correct":true,"confidence":5},{"trial_n":112,"min":84,"max":171,"target":"absent","response":"present","rt":643.40000009537,"correct":false,"confidence":1},{"trial_n":113,"min":83,"max":172,"target":"absent","response":"absent","rt":566.40000009537,"correct":true,"confidence":1},{"trial_n":114,"min":83,"max":172,"target":"absent","response":"absent","rt":655.70000004768,"correct":true,"confidence":3},{"trial_n":115,"min":84,"max":171,"target":"absent","response":"present","rt":618.59999990463,"correct":false,"confidence":3},{"trial_n":116,"min":83,"max":172,"target":"absent","response":"absent","rt":621.5,"correct":true,"confidence":3},{"trial_n":117,"min":83,"max":172,"target":"absent","response":"present","rt":519.79999995232,"correct":false,"confidence":3},{"trial_n":118,"min":82,"max":173,"target":"present","response":"present","rt":346.60000014305,"correct":true,"confidence":5},{"trial_n":119,"min":82,"max":173,"target":"absent","response":"present","rt":640.10000014305,"correct":false,"confidence":3},{"trial_n":120,"min":81,"max":174,"target":"present","response":"present","rt":232.39999985695,"correct":true,"confidence":4},{"trial_n":121,"min":81,"max":174,"target":"absent","response":"present","rt":362.79999995232,"correct":false,"confidence":3},{"trial_n":122,"min":80,"max":175,"target":"absent","response":"present","rt":558.09999990463,"correct":false,"confidence":3},{"trial_n":123,"min":79,"max":176,"target":"absent","response":"absent","rt":862.70000004768,"correct":true,"confidence":3},{"trial_n":124,"min":79,"max":176,"target":"present","response":"present","rt":191.79999995232,"correct":true,"confidence":3},{"trial_n":125,"min":80,"max":175,"target":"absent","response":"present","rt":371.70000004768,"correct":false,"confidence":1},{"trial_n":126,"min":79,"max":176,"target":"present","response":"present","rt":442.79999995232,"correct":true,"confidence":5},{"trial_n":127,"min":79,"max":176,"target":"absent","response":"absent","rt":547.60000014305,"correct":true,"confidence":3},{"trial_n":128,"min":80,"max":175,"target":"present","response":"present","rt":584.59999990463,"correct":true,"confidence":3},{"trial_n":129,"min":80,"max":175,"target":"absent","response":"absent","rt":586.90000009537,"correct":true,"confidence":4},{"trial_n":130,"min":81,"max":174,"target":"present","response":"present","rt":387.59999990463,"correct":true,"confidence":3},{"trial_n":131,"min":81,"max":174,"target":"absent","response":"absent","rt":487.90000009537,"correct":true,"confidence":3},{"trial_n":132,"min":82,"max":173,"target":"absent","response":"absent","rt":671.09999990463,"correct":true,"confidence":5},{"trial_n":133,"min":82,"max":173,"target":"present","response":"present","rt":260.70000004768,"correct":true,"confidence":5},{"trial_n":134,"min":83,"max":172,"target":"absent","response":"absent","rt":883.09999990463,"correct":true,"confidence":3},{"trial_n":135,"min":83,"max":172,"target":"present","response":"present","rt":418.89999985695,"correct":true,"confidence":3},{"trial_n":136,"min":84,"max":171,"target":"present","response":"present","rt":480.60000014305,"correct":true,"confidence":3},{"trial_n":137,"min":84,"max":171,"target":"absent","response":"present","rt":1173.5999999046,"correct":false,"confidence":1},{"trial_n":138,"min":83,"max":172,"target":"absent","response":"absent","rt":620,"correct":true,"confidence":3},{"trial_n":139,"min":83,"max":172,"target":"present","response":"present","rt":314.30000019073,"correct":true,"confidence":5},{"trial_n":140,"min":84,"max":171,"target":"present","response":"present","rt":296.39999985695,"correct":true,"confidence":5}]