[{"trial_n":1,"span":8,"encoder":"94964273","distractor":"94964278","target":"present","response":"present","rt":"3867.6000000015","correct":true,"confidence":-1},{"trial_n":2,"span":8,"encoder":"88598158","distractor":"83598158","target":"present","response":"present","rt":"2253.2000000011","correct":true,"confidence":-1},{"trial_n":3,"span":10,"encoder":"5427715022","distractor":"5427715062","target":"absent","response":"present","rt":"2993.3000000007","correct":false,"confidence":-1},{"trial_n":4,"span":8,"encoder":"84597387","distractor":"84597367","target":"absent","response":"present","rt":"1628.7999999989","correct":false,"confidence":-1},{"trial_n":5,"span":6,"encoder":"654906","distractor":"654909","target":"present","response":"present","rt":"4059.2000000011","correct":true,"confidence":-1},{"trial_n":6,"span":6,"encoder":"247201","distractor":"247601","target":"present","response":"present","rt":"2689.5999999996","correct":true,"confidence":-1},{"trial_n":7,"span":8,"encoder":"54856658","distractor":"54856258","target":"present","response":"absent","rt":"4470.6999999993","correct":false,"confidence":-1},{"trial_n":8,"span":6,"encoder":"923368","distractor":"929368","target":"present","response":"present","rt":"2494.3000000007","correct":true,"confidence":-1},{"trial_n":9,"span":6,"encoder":"097258","distractor":"097758","target":"absent","response":"absent","rt":"3140.0999999996","correct":true,"confidence":-1},{"trial_n":10,"span":8,"encoder":"11288938","distractor":"11988938","target":"absent","response":"absent","rt":"5860.5999999996","correct":true,"confidence":-1},{"trial_n":11,"span":8,"encoder":"02812566","distractor":"02812556","target":"absent","response":"absent","rt":"4013","correct":true,"confidence":-1},{"trial_n":12,"span":9,"encoder":"489938263","distractor":"489938260","target":"absent","response":"absent","rt":"3776.1999999993","correct":true,"confidence":-1},{"trial_n":13,"span":9,"encoder":"273182643","distractor":"273082643","target":"absent","response":"present","rt":"3177.5","correct":false,"confidence":-1},{"trial_n":14,"span":8,"encoder":"36650731","distractor":"36550731","target":"present","response":"present","rt":"3030.7000000011","correct":true,"confidence":-1},{"trial_n":15,"span":8,"encoder":"83333623","distractor":"83333723","target":"absent","response":"absent","rt":"3869.1999999993","correct":true,"confidence":-1},{"trial_n":16,"span":9,"encoder":"609851303","distractor":"009851303","target":"present","response":"present","rt":"3560.0999999996","correct":true,"confidence":-1},{"trial_n":17,"span":9,"encoder":"066319341","distractor":"066419341","target":"present","response":"present","rt":"2021","correct":true,"confidence":-1},{"trial_n":18,"span":10,"encoder":"5255383137","distractor":"5255783137","target":"present","response":"present","rt":"2699.3000000007","correct":true,"confidence":-1},{"trial_n":19,"span":10,"encoder":"5041731427","distractor":"5041731827","target":"absent","response":"absent","rt":"2810","correct":true,"confidence":-1},{"trial_n":20,"span":11,"encoder":"23678998376","distractor":"23677998376","target":"absent","response":"present","rt":"3274.0999999996","correct":false,"confidence":-1},{"trial_n":21,"span":10,"encoder":"4188111583","distractor":"4888111583","target":"absent","response":"absent","rt":"6699.3999999985","correct":true,"confidence":3},{"trial_n":22,"span":10,"encoder":"4133474325","distractor":"4138474325","target":"absent","response":"absent","rt":"2891.3000000007","correct":true,"confidence":4},{"trial_n":23,"span":11,"encoder":"79592924443","distractor":"79592924441","target":"present","response":"present","rt":"4506.5","correct":true,"confidence":3},{"trial_n":24,"span":11,"encoder":"32050158118","distractor":"32050158119","target":"absent","response":"present","rt":"3554.6000000015","correct":false,"confidence":3},{"trial_n":25,"span":10,"encoder":"1550947209","distractor":"1550947219","target":"present","response":"present","rt":"3363.4000000004","correct":true,"confidence":4},{"trial_n":26,"span":10,"encoder":"7148271755","distractor":"7448271755","target":"present","response":"present","rt":"3693.5","correct":true,"confidence":3},{"trial_n":27,"span":11,"encoder":"61842702508","distractor":"61862702508","target":"present","response":"present","rt":"3032.6000000015","correct":true,"confidence":2},{"trial_n":28,"span":11,"encoder":"73131475282","distractor":"33131475282","target":"absent","response":"absent","rt":"2508.5","correct":true,"confidence":4},{"trial_n":29,"span":12,"encoder":"871437391064","distractor":"871437351064","target":"absent","response":"present","rt":"2226.6000000015","correct":false,"confidence":2},{"trial_n":30,"span":11,"encoder":"08098234149","distractor":"08098834149","target":"present","response":"present","rt":"1716.5","correct":true,"confidence":3},{"trial_n":31,"span":11,"encoder":"25931224847","distractor":"25831224847","target":"absent","response":"absent","rt":"3338.3000000007","correct":true,"confidence":3},{"trial_n":32,"span":12,"encoder":"715354099422","distractor":"715354899422","target":"absent","response":"present","rt":"2771.2000000011","correct":false,"confidence":3},{"trial_n":33,"span":11,"encoder":"00253991103","distractor":"00253991100","target":"present","response":"present","rt":"3090.5999999996","correct":true,"confidence":4},{"trial_n":34,"span":11,"encoder":"26932964027","distractor":"26932963027","target":"absent","response":"present","rt":"2924.5","correct":false,"confidence":3},{"trial_n":35,"span":10,"encoder":"6150791445","distractor":"6159791445","target":"present","response":"present","rt":"2021.2999999989","correct":true,"confidence":2},{"trial_n":36,"span":10,"encoder":"6199726188","distractor":"1199726188","target":"present","response":"present","rt":"2345.6999999993","correct":true,"confidence":4},{"trial_n":37,"span":11,"encoder":"25465348002","distractor":"25465348702","target":"absent","response":"absent","rt":"5945.4000000004","correct":true,"confidence":3},{"trial_n":38,"span":11,"encoder":"78377927441","distractor":"75377927441","target":"absent","response":"present","rt":"3395.7999999989","correct":false,"confidence":4},{"trial_n":39,"span":10,"encoder":"6485602402","distractor":"6485632402","target":"absent","response":"present","rt":"2734.2999999989","correct":false,"confidence":2},{"trial_n":40,"span":9,"encoder":"962086144","distractor":"962086148","target":"absent","response":"absent","rt":"4828.7999999989","correct":true,"confidence":4},{"trial_n":41,"span":9,"encoder":"990519403","distractor":"190519403","target":"absent","response":"present","rt":"3169.3999999985","correct":false,"confidence":3},{"trial_n":42,"span":8,"encoder":"71458978","distractor":"71458970","target":"present","response":"present","rt":"4121","correct":true,"confidence":5},{"trial_n":43,"span":8,"encoder":"90951712","distractor":"90151712","target":"present","response":"present","rt":"5036.5999999996","correct":true,"confidence":4},{"trial_n":44,"span":9,"encoder":"835229066","distractor":"835529066","target":"absent","response":"absent","rt":"2673.9000000004","correct":true,"confidence":4},{"trial_n":45,"span":9,"encoder":"324724322","distractor":"324724392","target":"present","response":"present","rt":"4307","correct":true,"confidence":4},{"trial_n":46,"span":10,"encoder":"6633643649","distractor":"6637643649","target":"present","response":"present","rt":"4569","correct":true,"confidence":5},{"trial_n":47,"span":10,"encoder":"0275249025","distractor":"0275249525","target":"absent","response":"absent","rt":"5690.9000000004","correct":true,"confidence":3},{"trial_n":48,"span":11,"encoder":"07815856609","distractor":"07015856609","target":"present","response":"absent","rt":"3238.4000000004","correct":false,"confidence":2},{"trial_n":49,"span":10,"encoder":"7101307308","distractor":"7101307304","target":"present","response":"present","rt":"4376.8000000007","correct":true,"confidence":4},{"trial_n":50,"span":10,"encoder":"9731930956","distractor":"9738930956","target":"absent","response":"absent","rt":"2622.0999999996","correct":true,"confidence":2},{"trial_n":51,"span":11,"encoder":"56260655505","distractor":"56460655505","target":"absent","response":"absent","rt":"4274.3999999985","correct":true,"confidence":3},{"trial_n":52,"span":11,"encoder":"09059065410","distractor":"09056065410","target":"present","response":"present","rt":"3046.0999999996","correct":true,"confidence":3},{"trial_n":53,"span":12,"encoder":"751426323123","distractor":"751426723123","target":"absent","response":"present","rt":"3026.6000000015","correct":false,"confidence":1},{"trial_n":54,"span":11,"encoder":"53780386566","distractor":"53780386516","target":"absent","response":"present","rt":"4602.1999999993","correct":false,"confidence":2},{"trial_n":55,"span":10,"encoder":"7039793839","distractor":"7029793839","target":"present","response":"present","rt":"2744","correct":true,"confidence":3},{"trial_n":56,"span":10,"encoder":"8596721652","distractor":"8556721652","target":"absent","response":"present","rt":"4290","correct":false,"confidence":3},{"trial_n":57,"span":9,"encoder":"900804684","distractor":"901804684","target":"absent","response":"present","rt":"2284.5","correct":false,"confidence":3},{"trial_n":58,"span":8,"encoder":"01841979","distractor":"01821979","target":"absent","response":"absent","rt":"3476.5","correct":true,"confidence":3},{"trial_n":59,"span":8,"encoder":"11277805","distractor":"11277875","target":"present","response":"present","rt":"2657.3000000007","correct":true,"confidence":4},{"trial_n":60,"span":9,"encoder":"121724237","distractor":"127724237","target":"present","response":"present","rt":"2783","correct":true,"confidence":2},{"trial_n":61,"span":9,"encoder":"586187155","distractor":"586117155","target":"present","response":"present","rt":"3537.5999999996","correct":true,"confidence":4},{"trial_n":62,"span":10,"encoder":"5138974451","distractor":"5138972451","target":"present","response":"present","rt":"3176.7000000011","correct":true,"confidence":4},{"trial_n":63,"span":10,"encoder":"5583572723","distractor":"5783572723","target":"present","response":"present","rt":"3707.7999999989","correct":true,"confidence":2},{"trial_n":64,"span":11,"encoder":"49606199550","distractor":"49606199559","target":"present","response":"present","rt":"4229.1999999993","correct":true,"confidence":4},{"trial_n":65,"span":11,"encoder":"47132249396","distractor":"47132243396","target":"present","response":"present","rt":"3668.5999999996","correct":true,"confidence":3},{"trial_n":66,"span":12,"encoder":"449892100771","distractor":"449892100571","target":"present","response":"present","rt":"2287.9000000004","correct":true,"confidence":3},{"trial_n":67,"span":12,"encoder":"388268385407","distractor":"388968385407","target":"absent","response":"present","rt":"3492.0999999996","correct":false,"confidence":2},{"trial_n":68,"span":11,"encoder":"19352233225","distractor":"13352233225","target":"present","response":"present","rt":"4291.6000000015","correct":true,"confidence":4},{"trial_n":69,"span":11,"encoder":"61984385124","distractor":"61986385124","target":"present","response":"present","rt":"3964.4000000004","correct":true,"confidence":2},{"trial_n":70,"span":12,"encoder":"250471489844","distractor":"250471439844","target":"absent","response":"absent","rt":"4859.3000000007","correct":true,"confidence":2},{"trial_n":71,"span":8,"encoder":"30024523","distractor":"30424523","target":"present","response":"present","rt":"6581.3000000007","correct":true,"confidence":-1},{"trial_n":72,"span":8,"encoder":"88429964","distractor":"38429964","target":"present","response":"present","rt":"4085.2999999989","correct":true,"confidence":-1},{"trial_n":73,"span":9,"encoder":"677089509","distractor":"977089509","target":"absent","response":"absent","rt":"2262.2999999989","correct":true,"confidence":-1},{"trial_n":74,"span":9,"encoder":"228376917","distractor":"298376917","target":"absent","response":"absent","rt":"1995.0999999996","correct":true,"confidence":-1},{"trial_n":75,"span":10,"encoder":"0257831260","distractor":"5257831260","target":"present","response":"present","rt":"1325.4000000004","correct":true,"confidence":-1},{"trial_n":76,"span":10,"encoder":"0525969938","distractor":"0625969938","target":"present","response":"present","rt":"4460.1999999993","correct":true,"confidence":-1},{"trial_n":77,"span":11,"encoder":"58186467985","distractor":"78186467985","target":"absent","response":"absent","rt":"2865.4000000004","correct":true,"confidence":-1},{"trial_n":78,"span":11,"encoder":"66605099381","distractor":"66605099384","target":"absent","response":"absent","rt":"4607.5999999996","correct":true,"confidence":-1},{"trial_n":79,"span":12,"encoder":"687187179866","distractor":"687187979866","target":"absent","response":"absent","rt":"7061.8000000007","correct":true,"confidence":-1},{"trial_n":80,"span":12,"encoder":"695099247637","distractor":"695599247637","target":"present","response":"present","rt":"2046.3000000007","correct":true,"confidence":-1},{"trial_n":81,"span":13,"encoder":"2574467761581","distractor":"2574467761381","target":"absent","response":"absent","rt":"10054.1","correct":true,"confidence":-1},{"trial_n":82,"span":13,"encoder":"5944645369418","distractor":"5948645369418","target":"present","response":"present","rt":"9084.8000000007","correct":true,"confidence":-1},{"trial_n":83,"span":14,"encoder":"47442891617407","distractor":"37442891617407","target":"present","response":"absent","rt":"3357.6999999993","correct":false,"confidence":-1},{"trial_n":84,"span":13,"encoder":"0949960688283","distractor":"0949967688283","target":"present","response":"present","rt":"9222.5","correct":true,"confidence":-1},{"trial_n":85,"span":13,"encoder":"7356897085631","distractor":"7356897082631","target":"absent","response":"present","rt":"1895.8000000007","correct":false,"confidence":-1},{"trial_n":86,"span":12,"encoder":"057655951205","distractor":"077655951205","target":"present","response":"present","rt":"3232.5999999996","correct":true,"confidence":-1},{"trial_n":87,"span":12,"encoder":"578316704561","distractor":"778316704561","target":"absent","response":"present","rt":"2802.5","correct":false,"confidence":-1},{"trial_n":88,"span":11,"encoder":"72823535379","distractor":"72823565379","target":"present","response":"present","rt":"10661.199999999","correct":true,"confidence":-1},{"trial_n":89,"span":11,"encoder":"07884617727","distractor":"07884617729","target":"absent","response":"present","rt":"1701.5999999996","correct":false,"confidence":-1},{"trial_n":90,"span":10,"encoder":"4591305634","distractor":"4591365634","target":"absent","response":"absent","rt":"1732.3000000007","correct":true,"confidence":-1},{"trial_n":91,"span":10,"encoder":"4918468816","distractor":"4618468816","target":"present","response":"absent","rt":"10407.699999999","correct":false,"confidence":3},{"trial_n":92,"span":9,"encoder":"735040648","distractor":"735040348","target":"absent","response":"present","rt":"11715.899999999","correct":false,"confidence":3},{"trial_n":93,"span":8,"encoder":"59163813","distractor":"57163813","target":"present","response":"present","rt":"6153.4000000004","correct":true,"confidence":5},{"trial_n":94,"span":8,"encoder":"19541228","distractor":"19548228","target":"present","response":"present","rt":"3635","correct":true,"confidence":4},{"trial_n":95,"span":9,"encoder":"587871914","distractor":"587851914","target":"present","response":"present","rt":"8161.7000000011","correct":true,"confidence":4},{"trial_n":96,"span":9,"encoder":"145114673","distractor":"145111673","target":"absent","response":"absent","rt":"4424.1999999993","correct":true,"confidence":5},{"trial_n":97,"span":10,"encoder":"6657202561","distractor":"7657202561","target":"present","response":"present","rt":"16767.6","correct":true,"confidence":4},{"trial_n":98,"span":10,"encoder":"4599770081","distractor":"4799770081","target":"present","response":"present","rt":"7028.5999999996","correct":true,"confidence":4},{"trial_n":99,"span":11,"encoder":"41347356378","distractor":"41387356378","target":"present","response":"absent","rt":"1450.5","correct":false,"confidence":2},{"trial_n":100,"span":10,"encoder":"5100889506","distractor":"5100888506","target":"absent","response":"absent","rt":"5681.4000000004","correct":true,"confidence":3},{"trial_n":101,"span":10,"encoder":"4387332206","distractor":"4387332226","target":"absent","response":"absent","rt":"4599.5999999996","correct":true,"confidence":4},{"trial_n":102,"span":11,"encoder":"87760284457","distractor":"87760284957","target":"present","response":"present","rt":"6884","correct":true,"confidence":3},{"trial_n":103,"span":11,"encoder":"38260225204","distractor":"30260225204","target":"absent","response":"absent","rt":"2146.5","correct":true,"confidence":5},{"trial_n":104,"span":12,"encoder":"931092025204","distractor":"931091025204","target":"present","response":"present","rt":"9150.8000000007","correct":true,"confidence":2},{"trial_n":105,"span":12,"encoder":"981466183203","distractor":"981466188203","target":"absent","response":"absent","rt":"6029.6999999993","correct":true,"confidence":4},{"trial_n":106,"span":13,"encoder":"1928549118594","distractor":"1925549118594","target":"absent","response":"absent","rt":"3883.4000000004","correct":true,"confidence":5},{"trial_n":107,"span":13,"encoder":"4891806258123","distractor":"4891806258173","target":"absent","response":"present","rt":"9342.5999999996","correct":false,"confidence":2},{"trial_n":108,"span":12,"encoder":"720796276882","distractor":"728796276882","target":"absent","response":"present","rt":"1433.0999999996","correct":false,"confidence":1},{"trial_n":109,"span":11,"encoder":"46052706928","distractor":"46052726928","target":"absent","response":"present","rt":"8896.1999999993","correct":false,"confidence":3},{"trial_n":110,"span":10,"encoder":"8951541301","distractor":"8951541381","target":"present","response":"absent","rt":"6538.6999999993","correct":false,"confidence":2},{"trial_n":111,"span":9,"encoder":"313993272","distractor":"313993276","target":"absent","response":"absent","rt":"5277.0999999996","correct":true,"confidence":4},{"trial_n":112,"span":9,"encoder":"493249823","distractor":"493149823","target":"present","response":"present","rt":"3776.3000000007","correct":true,"confidence":5},{"trial_n":113,"span":10,"encoder":"2581468533","distractor":"2581468333","target":"absent","response":"absent","rt":"3340.8000000007","correct":true,"confidence":4},{"trial_n":114,"span":10,"encoder":"5174828516","distractor":"5174824516","target":"present","response":"present","rt":"7999.4000000004","correct":true,"confidence":4},{"trial_n":115,"span":11,"encoder":"77589927820","distractor":"77589027820","target":"present","response":"present","rt":"6488.2999999989","correct":true,"confidence":4},{"trial_n":116,"span":11,"encoder":"27189811196","distractor":"67189811196","target":"present","response":"present","rt":"5495.4000000004","correct":true,"confidence":4},{"trial_n":117,"span":12,"encoder":"352621707841","distractor":"352621707846","target":"present","response":"present","rt":"7762.8000000007","correct":true,"confidence":3},{"trial_n":118,"span":12,"encoder":"290437322171","distractor":"290487322171","target":"absent","response":"absent","rt":"5924.8000000007","correct":true,"confidence":2},{"trial_n":119,"span":13,"encoder":"5196990549327","distractor":"5196950549327","target":"absent","response":"present","rt":"4743.0999999996","correct":false,"confidence":1},{"trial_n":120,"span":12,"encoder":"896675846343","distractor":"896665846343","target":"absent","response":"absent","rt":"6203.1999999993","correct":true,"confidence":3},{"trial_n":121,"span":12,"encoder":"221123178003","distractor":"241123178003","target":"present","response":"present","rt":"5162.0999999996","correct":true,"confidence":5},{"trial_n":122,"span":13,"encoder":"8564048560083","distractor":"8514048560083","target":"absent","response":"absent","rt":"3373.6999999993","correct":true,"confidence":4},{"trial_n":123,"span":13,"encoder":"3862943511328","distractor":"3862943511327","target":"present","response":"present","rt":"1876.5","correct":true,"confidence":5},{"trial_n":124,"span":14,"encoder":"15361181501762","distractor":"15363181501762","target":"present","response":"present","rt":"5034.8999999985","correct":true,"confidence":4},{"trial_n":125,"span":14,"encoder":"35690481444371","distractor":"32690481444371","target":"present","response":"present","rt":"3780.5","correct":true,"confidence":3},{"trial_n":126,"span":15,"encoder":"581062993772820","distractor":"581062973772820","target":"absent","response":"present","rt":"6098.0999999996","correct":false,"confidence":1},{"trial_n":127,"span":14,"encoder":"09571296579312","distractor":"00571296579312","target":"absent","response":"absent","rt":"3191.2000000011","correct":true,"confidence":3},{"trial_n":128,"span":14,"encoder":"35204547025726","distractor":"35204547025126","target":"absent","response":"absent","rt":"3882","correct":true,"confidence":4},{"trial_n":129,"span":15,"encoder":"113720000078767","distractor":"113720100078767","target":"present","response":"present","rt":"12329.700000001","correct":true,"confidence":3},{"trial_n":130,"span":15,"encoder":"390618788093386","distractor":"390618088093386","target":"present","response":"present","rt":"8778.9000000004","correct":true,"confidence":2},{"trial_n":131,"span":16,"encoder":"4637169963130977","distractor":"1637169963130977","target":"absent","response":"absent","rt":"4455.8999999985","correct":true,"confidence":3},{"trial_n":132,"span":16,"encoder":"3279614829608157","distractor":"3279614829618157","target":"present","response":"present","rt":"4499","correct":true,"confidence":1},{"trial_n":133,"span":17,"encoder":"20860615491957207","distractor":"20860615421957207","target":"present","response":"present","rt":"3640.5","correct":true,"confidence":2},{"trial_n":134,"span":17,"encoder":"73373186061011024","distractor":"73373186061014024","target":"present","response":"present","rt":"4364.5","correct":true,"confidence":4},{"trial_n":135,"span":18,"encoder":"228745203978342024","distractor":"328745203978342024","target":"absent","response":"present","rt":"10461.4","correct":false,"confidence":1},{"trial_n":136,"span":17,"encoder":"37987133308388486","distractor":"37987153308388486","target":"absent","response":"absent","rt":"4705.5999999996","correct":true,"confidence":3},{"trial_n":137,"span":17,"encoder":"74344618107257671","distractor":"74344418107257671","target":"present","response":"present","rt":"8943.6000000015","correct":true,"confidence":3},{"trial_n":138,"span":18,"encoder":"523055099302319487","distractor":"523055099302311487","target":"absent","response":"absent","rt":"3760","correct":true,"confidence":2},{"trial_n":139,"span":18,"encoder":"842435156164443142","distractor":"842435156164493142","target":"present","response":"absent","rt":"16578.700000001","correct":false,"confidence":3},{"trial_n":140,"span":17,"encoder":"57487580556464771","distractor":"67487580556464771","target":"absent","response":"present","rt":"5027.5999999996","correct":false,"confidence":1}]