[{"trial_n":1,"min":25,"max":230,"target":"present","response":"present","rt":5156,"correct":true,"confidence":-1},{"trial_n":2,"min":25,"max":230,"target":"present","response":"present","rt":484,"correct":true,"confidence":-1},{"trial_n":3,"min":41,"max":214,"target":"absent","response":"absent","rt":1479,"correct":true,"confidence":-1},{"trial_n":4,"min":41,"max":214,"target":"absent","response":"absent","rt":462,"correct":true,"confidence":-1},{"trial_n":5,"min":57,"max":198,"target":"present","response":"present","rt":644,"correct":true,"confidence":-1},{"trial_n":6,"min":57,"max":198,"target":"absent","response":"absent","rt":762,"correct":true,"confidence":-1},{"trial_n":7,"min":73,"max":182,"target":"absent","response":"absent","rt":315,"correct":true,"confidence":-1},{"trial_n":8,"min":73,"max":182,"target":"absent","response":"absent","rt":228,"correct":true,"confidence":-1},{"trial_n":9,"min":89,"max":166,"target":"present","response":"absent","rt":339,"correct":false,"confidence":-1},{"trial_n":10,"min":73,"max":182,"target":"present","response":"present","rt":844,"correct":true,"confidence":-1},{"trial_n":11,"min":73,"max":182,"target":"present","response":"present","rt":344.00000000003,"correct":true,"confidence":-1},{"trial_n":12,"min":81,"max":174,"target":"present","response":"present","rt":247,"correct":true,"confidence":-1},{"trial_n":13,"min":81,"max":174,"target":"present","response":"present","rt":280,"correct":true,"confidence":-1},{"trial_n":14,"min":89,"max":166,"target":"absent","response":"absent","rt":866.99999999997,"correct":true,"confidence":-1},{"trial_n":15,"min":89,"max":166,"target":"absent","response":"absent","rt":592.99999999997,"correct":true,"confidence":-1},{"trial_n":16,"min":97,"max":158,"target":"absent","response":"absent","rt":366,"correct":true,"confidence":-1},{"trial_n":17,"min":97,"max":158,"target":"absent","response":"absent","rt":385,"correct":true,"confidence":-1},{"trial_n":18,"min":105,"max":150,"target":"absent","response":"absent","rt":298,"correct":true,"confidence":-1},{"trial_n":19,"min":105,"max":150,"target":"present","response":"absent","rt":310,"correct":false,"confidence":-1},{"trial_n":20,"min":97,"max":158,"target":"absent","response":"absent","rt":770,"correct":true,"confidence":-1},{"trial_n":21,"min":97,"max":158,"target":"present","response":"absent","rt":936,"correct":false,"confidence":3},{"trial_n":22,"min":93,"max":162,"target":"present","response":"present","rt":761,"correct":true,"confidence":5},{"trial_n":23,"min":93,"max":162,"target":"absent","response":"present","rt":946.00000000012,"correct":false,"confidence":5},{"trial_n":24,"min":89,"max":166,"target":"absent","response":"present","rt":7163.0000000001,"correct":false,"confidence":3},{"trial_n":25,"min":85,"max":170,"target":"absent","response":"absent","rt":51352,"correct":true,"confidence":1},{"trial_n":26,"min":85,"max":170,"target":"absent","response":"present","rt":857,"correct":false,"confidence":3},{"trial_n":27,"min":81,"max":174,"target":"present","response":"present","rt":649.99999999988,"correct":true,"confidence":5},{"trial_n":28,"min":81,"max":174,"target":"present","response":"present","rt":701,"correct":true,"confidence":4},{"trial_n":29,"min":85,"max":170,"target":"present","response":"present","rt":596,"correct":true,"confidence":4},{"trial_n":30,"min":85,"max":170,"target":"absent","response":"present","rt":776,"correct":false,"confidence":4},{"trial_n":31,"min":83,"max":172,"target":"absent","response":"present","rt":923,"correct":false,"confidence":4},{"trial_n":32,"min":81,"max":174,"target":"absent","response":"absent","rt":912,"correct":true,"confidence":4},{"trial_n":33,"min":81,"max":174,"target":"absent","response":"absent","rt":724,"correct":true,"confidence":3},{"trial_n":34,"min":83,"max":172,"target":"present","response":"present","rt":678,"correct":true,"confidence":4},{"trial_n":35,"min":83,"max":172,"target":"absent","response":"present","rt":686,"correct":false,"confidence":5},{"trial_n":36,"min":81,"max":174,"target":"present","response":"present","rt":740,"correct":true,"confidence":5},{"trial_n":37,"min":81,"max":174,"target":"present","response":"present","rt":514.00000000012,"correct":true,"confidence":5},{"trial_n":38,"min":83,"max":172,"target":"present","response":"present","rt":502,"correct":true,"confidence":5},{"trial_n":39,"min":83,"max":172,"target":"absent","response":"absent","rt":694,"correct":true,"confidence":3},{"trial_n":40,"min":85,"max":170,"target":"absent","response":"absent","rt":540,"correct":true,"confidence":3},{"trial_n":41,"min":85,"max":170,"target":"absent","response":"present","rt":571,"correct":false,"confidence":3},{"trial_n":42,"min":84,"max":171,"target":"present","response":"present","rt":506,"correct":true,"confidence":4},{"trial_n":43,"min":84,"max":171,"target":"absent","response":"present","rt":584,"correct":false,"confidence":3},{"trial_n":44,"min":83,"max":172,"target":"present","response":"present","rt":587.99999999988,"correct":true,"confidence":5},{"trial_n":45,"min":83,"max":172,"target":"absent","response":"present","rt":491,"correct":false,"confidence":5},{"trial_n":46,"min":82,"max":173,"target":"absent","response":"present","rt":446,"correct":false,"confidence":5},{"trial_n":47,"min":81,"max":174,"target":"present","response":"present","rt":1083,"correct":true,"confidence":5},{"trial_n":48,"min":81,"max":174,"target":"absent","response":"present","rt":613,"correct":false,"confidence":5},{"trial_n":49,"min":80,"max":175,"target":"present","response":"present","rt":675,"correct":true,"confidence":5},{"trial_n":50,"min":80,"max":175,"target":"absent","response":"absent","rt":537,"correct":true,"confidence":4},{"trial_n":51,"min":81,"max":174,"target":"present","response":"present","rt":506.99999999988,"correct":true,"confidence":5},{"trial_n":52,"min":81,"max":174,"target":"absent","response":"absent","rt":421,"correct":true,"confidence":5},{"trial_n":53,"min":82,"max":173,"target":"present","response":"present","rt":1004,"correct":true,"confidence":5},{"trial_n":54,"min":82,"max":173,"target":"present","response":"present","rt":411,"correct":true,"confidence":4},{"trial_n":55,"min":83,"max":172,"target":"absent","response":"absent","rt":474,"correct":true,"confidence":5},{"trial_n":56,"min":83,"max":172,"target":"absent","response":"absent","rt":462,"correct":true,"confidence":5},{"trial_n":57,"min":84,"max":171,"target":"present","response":"present","rt":490.99999999988,"correct":true,"confidence":4},{"trial_n":58,"min":84,"max":171,"target":"present","response":"present","rt":492,"correct":true,"confidence":5},{"trial_n":59,"min":85,"max":170,"target":"present","response":"present","rt":522,"correct":true,"confidence":5},{"trial_n":60,"min":85,"max":170,"target":"present","response":"present","rt":602,"correct":true,"confidence":4},{"trial_n":61,"min":86,"max":169,"target":"present","response":"present","rt":539,"correct":true,"confidence":5},{"trial_n":62,"min":86,"max":169,"target":"absent","response":"present","rt":1007,"correct":false,"confidence":3},{"trial_n":63,"min":85,"max":170,"target":"present","response":"absent","rt":527,"correct":false,"confidence":4},{"trial_n":64,"min":84,"max":171,"target":"present","response":"present","rt":670,"correct":true,"confidence":5},{"trial_n":65,"min":84,"max":171,"target":"absent","response":"present","rt":554.99999999988,"correct":false,"confidence":3},{"trial_n":66,"min":83,"max":172,"target":"present","response":"present","rt":500.99999999988,"correct":true,"confidence":5},{"trial_n":67,"min":83,"max":172,"target":"present","response":"present","rt":424,"correct":true,"confidence":5},{"trial_n":68,"min":84,"max":171,"target":"present","response":"present","rt":466,"correct":true,"confidence":5},{"trial_n":69,"min":84,"max":171,"target":"absent","response":"absent","rt":867.99999999988,"correct":true,"confidence":5},{"trial_n":70,"min":85,"max":170,"target":"present","response":"present","rt":543,"correct":true,"confidence":4},{"trial_n":71,"min":41,"max":214,"target":"present","response":"present","rt":3319,"correct":true,"confidence":-1},{"trial_n":72,"min":41,"max":214,"target":"present","response":"present","rt":673,"correct":true,"confidence":-1},{"trial_n":73,"min":57,"max":198,"target":"absent","response":"absent","rt":867.00000000012,"correct":true,"confidence":-1},{"trial_n":74,"min":57,"max":198,"target":"absent","response":"absent","rt":1342,"correct":true,"confidence":-1},{"trial_n":75,"min":73,"max":182,"target":"present","response":"present","rt":1041,"correct":true,"confidence":-1},{"trial_n":76,"min":73,"max":182,"target":"present","response":"present","rt":866,"correct":true,"confidence":-1},{"trial_n":77,"min":89,"max":166,"target":"present","response":"present","rt":963,"correct":true,"confidence":-1},{"trial_n":78,"min":89,"max":166,"target":"present","response":"present","rt":721,"correct":true,"confidence":-1},{"trial_n":79,"min":105,"max":150,"target":"absent","response":"present","rt":1125,"correct":false,"confidence":-1},{"trial_n":80,"min":89,"max":166,"target":"absent","response":"present","rt":781.99999999988,"correct":false,"confidence":-1},{"trial_n":81,"min":81,"max":174,"target":"present","response":"present","rt":672,"correct":true,"confidence":-1},{"trial_n":82,"min":81,"max":174,"target":"absent","response":"absent","rt":956,"correct":true,"confidence":-1},{"trial_n":83,"min":89,"max":166,"target":"absent","response":"absent","rt":987,"correct":true,"confidence":-1},{"trial_n":84,"min":89,"max":166,"target":"present","response":"present","rt":793.00000000012,"correct":true,"confidence":-1},{"trial_n":85,"min":97,"max":158,"target":"absent","response":"present","rt":831,"correct":false,"confidence":-1},{"trial_n":86,"min":89,"max":166,"target":"absent","response":"absent","rt":979,"correct":true,"confidence":-1},{"trial_n":87,"min":89,"max":166,"target":"present","response":"present","rt":1203,"correct":true,"confidence":-1},{"trial_n":88,"min":97,"max":158,"target":"absent","response":"present","rt":656.00000000012,"correct":false,"confidence":-1},{"trial_n":89,"min":89,"max":166,"target":"absent","response":"present","rt":541.99999999988,"correct":false,"confidence":-1},{"trial_n":90,"min":81,"max":174,"target":"present","response":"present","rt":506.00000000012,"correct":true,"confidence":-1},{"trial_n":91,"min":81,"max":174,"target":"absent","response":"present","rt":1413.0000000001,"correct":false,"confidence":2},{"trial_n":92,"min":77,"max":178,"target":"present","response":"present","rt":901.00000000012,"correct":true,"confidence":5},{"trial_n":93,"min":77,"max":178,"target":"present","response":"present","rt":895,"correct":true,"confidence":5},{"trial_n":94,"min":81,"max":174,"target":"absent","response":"absent","rt":1553,"correct":true,"confidence":4},{"trial_n":95,"min":81,"max":174,"target":"absent","response":"absent","rt":788,"correct":true,"confidence":5},{"trial_n":96,"min":85,"max":170,"target":"absent","response":"absent","rt":886,"correct":true,"confidence":5},{"trial_n":97,"min":85,"max":170,"target":"present","response":"present","rt":968,"correct":true,"confidence":5},{"trial_n":98,"min":89,"max":166,"target":"present","response":"present","rt":806,"correct":true,"confidence":4},{"trial_n":99,"min":89,"max":166,"target":"absent","response":"absent","rt":885.99999999988,"correct":true,"confidence":2},{"trial_n":100,"min":93,"max":162,"target":"present","response":"present","rt":686,"correct":true,"confidence":3},{"trial_n":101,"min":93,"max":162,"target":"absent","response":"present","rt":1015.9999999999,"correct":false,"confidence":2},{"trial_n":102,"min":91,"max":164,"target":"present","response":"present","rt":579.99999999988,"correct":true,"confidence":4},{"trial_n":103,"min":91,"max":164,"target":"present","response":"present","rt":676.00000000012,"correct":true,"confidence":4},{"trial_n":104,"min":93,"max":162,"target":"absent","response":"present","rt":1007,"correct":false,"confidence":2},{"trial_n":105,"min":91,"max":164,"target":"absent","response":"present","rt":878,"correct":false,"confidence":1},{"trial_n":106,"min":89,"max":166,"target":"absent","response":"present","rt":569,"correct":false,"confidence":3},{"trial_n":107,"min":87,"max":168,"target":"present","response":"present","rt":1590,"correct":true,"confidence":3},{"trial_n":108,"min":87,"max":168,"target":"absent","response":"present","rt":1167,"correct":false,"confidence":1},{"trial_n":109,"min":85,"max":170,"target":"present","response":"present","rt":620,"correct":true,"confidence":3},{"trial_n":110,"min":85,"max":170,"target":"present","response":"present","rt":601,"correct":true,"confidence":5},{"trial_n":111,"min":86,"max":169,"target":"absent","response":"present","rt":1736,"correct":false,"confidence":2},{"trial_n":112,"min":85,"max":170,"target":"present","response":"present","rt":532,"correct":true,"confidence":5},{"trial_n":113,"min":85,"max":170,"target":"present","response":"present","rt":1477.9999999963,"correct":true,"confidence":3},{"trial_n":114,"min":86,"max":169,"target":"present","response":"present","rt":357,"correct":true,"confidence":5},{"trial_n":115,"min":86,"max":169,"target":"present","response":"present","rt":175,"correct":true,"confidence":5},{"trial_n":116,"min":87,"max":168,"target":"present","response":"present","rt":2712,"correct":true,"confidence":3},{"trial_n":117,"min":87,"max":168,"target":"absent","response":"present","rt":645.99999999627,"correct":false,"confidence":2},{"trial_n":118,"min":86,"max":169,"target":"present","response":"present","rt":234.99999999627,"correct":true,"confidence":5},{"trial_n":119,"min":86,"max":169,"target":"present","response":"present","rt":274,"correct":true,"confidence":5},{"trial_n":120,"min":87,"max":168,"target":"absent","response":"absent","rt":433,"correct":true,"confidence":4},{"trial_n":121,"min":87,"max":168,"target":"absent","response":"absent","rt":575,"correct":true,"confidence":4},{"trial_n":122,"min":88,"max":167,"target":"absent","response":"absent","rt":563,"correct":true,"confidence":3},{"trial_n":123,"min":88,"max":167,"target":"present","response":"present","rt":179,"correct":true,"confidence":5},{"trial_n":124,"min":89,"max":166,"target":"present","response":"present","rt":373.00000000373,"correct":true,"confidence":3},{"trial_n":125,"min":89,"max":166,"target":"absent","response":"absent","rt":383,"correct":true,"confidence":2},{"trial_n":126,"min":90,"max":165,"target":"absent","response":"present","rt":298,"correct":false,"confidence":3},{"trial_n":127,"min":89,"max":166,"target":"present","response":"present","rt":890,"correct":true,"confidence":3},{"trial_n":128,"min":89,"max":166,"target":"present","response":"present","rt":310,"correct":true,"confidence":5},{"trial_n":129,"min":90,"max":165,"target":"absent","response":"absent","rt":375,"correct":true,"confidence":5},{"trial_n":130,"min":90,"max":165,"target":"present","response":"present","rt":334,"correct":true,"confidence":3},{"trial_n":131,"min":91,"max":164,"target":"present","response":"present","rt":380,"correct":true,"confidence":5},{"trial_n":132,"min":91,"max":164,"target":"absent","response":"absent","rt":684,"correct":true,"confidence":2},{"trial_n":133,"min":92,"max":163,"target":"present","response":"present","rt":326.00000000373,"correct":true,"confidence":4},{"trial_n":134,"min":92,"max":163,"target":"present","response":"present","rt":246,"correct":true,"confidence":4},{"trial_n":135,"min":93,"max":162,"target":"absent","response":"present","rt":766,"correct":false,"confidence":2},{"trial_n":136,"min":92,"max":163,"target":"absent","response":"present","rt":518,"correct":false,"confidence":2},{"trial_n":137,"min":91,"max":164,"target":"present","response":"present","rt":558,"correct":true,"confidence":2},{"trial_n":138,"min":91,"max":164,"target":"absent","response":"absent","rt":347,"correct":true,"confidence":2},{"trial_n":139,"min":92,"max":163,"target":"absent","response":"absent","rt":529,"correct":true,"confidence":2},{"trial_n":140,"min":92,"max":163,"target":"absent","response":"present","rt":434,"correct":false,"confidence":3}]