[{"trial_n":1,"span":8,"encoder":"26389217","distractor":"26889217","target":"present","response":"present","rt":"8178","correct":true,"confidence":-1},{"trial_n":2,"span":8,"encoder":"78957069","distractor":"78957769","target":"present","response":"present","rt":"2933","correct":true,"confidence":-1},{"trial_n":3,"span":10,"encoder":"4497622992","distractor":"4497642992","target":"absent","response":"absent","rt":"1807","correct":true,"confidence":-1},{"trial_n":4,"span":10,"encoder":"4796690424","distractor":"4796660424","target":"absent","response":"absent","rt":"2069","correct":true,"confidence":-1},{"trial_n":5,"span":12,"encoder":"497004401859","distractor":"497004601859","target":"present","response":"absent","rt":"2761","correct":false,"confidence":-1},{"trial_n":6,"span":10,"encoder":"9087241199","distractor":"9097241199","target":"present","response":"absent","rt":"1705","correct":false,"confidence":-1},{"trial_n":7,"span":8,"encoder":"10642860","distractor":"19642860","target":"absent","response":"absent","rt":"1530","correct":true,"confidence":-1},{"trial_n":8,"span":8,"encoder":"45308732","distractor":"45308792","target":"absent","response":"absent","rt":"2377","correct":true,"confidence":-1},{"trial_n":9,"span":10,"encoder":"7034459467","distractor":"7030459467","target":"present","response":"absent","rt":"3405","correct":false,"confidence":-1},{"trial_n":10,"span":8,"encoder":"64026483","distractor":"64021483","target":"present","response":"present","rt":"1033","correct":true,"confidence":-1},{"trial_n":11,"span":8,"encoder":"50998612","distractor":"59998612","target":"present","response":"absent","rt":"3414","correct":false,"confidence":-1},{"trial_n":12,"span":7,"encoder":"3226595","distractor":"3276595","target":"absent","response":"absent","rt":"1850","correct":true,"confidence":-1},{"trial_n":13,"span":7,"encoder":"4918602","distractor":"4018602","target":"absent","response":"present","rt":"1575","correct":false,"confidence":-1},{"trial_n":14,"span":6,"encoder":"364238","distractor":"864238","target":"present","response":"present","rt":"1212","correct":true,"confidence":-1},{"trial_n":15,"span":6,"encoder":"068339","distractor":"068309","target":"absent","response":"absent","rt":"3200","correct":true,"confidence":-1},{"trial_n":16,"span":7,"encoder":"6339105","distractor":"6139105","target":"absent","response":"absent","rt":"2192","correct":true,"confidence":-1},{"trial_n":17,"span":7,"encoder":"0507207","distractor":"0507277","target":"absent","response":"absent","rt":"1407","correct":true,"confidence":-1},{"trial_n":18,"span":8,"encoder":"13731559","distractor":"13731569","target":"present","response":"absent","rt":"1490","correct":false,"confidence":-1},{"trial_n":19,"span":7,"encoder":"5242995","distractor":"5242695","target":"present","response":"present","rt":"1280","correct":true,"confidence":-1},{"trial_n":20,"span":7,"encoder":"3175361","distractor":"3170361","target":"absent","response":"absent","rt":"1634","correct":true,"confidence":-1},{"trial_n":21,"span":8,"encoder":"32835362","distractor":"32834362","target":"absent","response":"absent","rt":"5546","correct":true,"confidence":2},{"trial_n":22,"span":8,"encoder":"79791037","distractor":"79761037","target":"present","response":"present","rt":"2264","correct":true,"confidence":5},{"trial_n":23,"span":9,"encoder":"626288356","distractor":"726288356","target":"present","response":"absent","rt":"2522","correct":false,"confidence":5},{"trial_n":24,"span":8,"encoder":"41259943","distractor":"61259943","target":"present","response":"absent","rt":"2739","correct":false,"confidence":4},{"trial_n":25,"span":7,"encoder":"7378978","distractor":"7388978","target":"absent","response":"absent","rt":"3851","correct":true,"confidence":4},{"trial_n":26,"span":7,"encoder":"5871213","distractor":"5873213","target":"absent","response":"absent","rt":"7349","correct":true,"confidence":3},{"trial_n":27,"span":8,"encoder":"09445250","distractor":"09445550","target":"present","response":"absent","rt":"3074","correct":false,"confidence":5},{"trial_n":28,"span":7,"encoder":"7676981","distractor":"7676986","target":"present","response":"present","rt":"2154","correct":true,"confidence":5},{"trial_n":29,"span":7,"encoder":"5148844","distractor":"9148844","target":"absent","response":"absent","rt":"2488","correct":true,"confidence":5},{"trial_n":30,"span":8,"encoder":"86603570","distractor":"89603570","target":"present","response":"absent","rt":"2350","correct":false,"confidence":5},{"trial_n":31,"span":7,"encoder":"6468092","distractor":"6468392","target":"present","response":"present","rt":"2149","correct":true,"confidence":5},{"trial_n":32,"span":7,"encoder":"0879485","distractor":"0879484","target":"absent","response":"absent","rt":"2862","correct":true,"confidence":5},{"trial_n":33,"span":8,"encoder":"33582123","distractor":"33582023","target":"absent","response":"absent","rt":"2481.9999999999","correct":true,"confidence":5},{"trial_n":34,"span":8,"encoder":"93300578","distractor":"93307578","target":"absent","response":"absent","rt":"2062.0000000001","correct":true,"confidence":5},{"trial_n":35,"span":9,"encoder":"358032267","distractor":"358012267","target":"present","response":"absent","rt":"3153.0000000001","correct":false,"confidence":5},{"trial_n":36,"span":8,"encoder":"76376360","distractor":"70376360","target":"present","response":"present","rt":"2779","correct":true,"confidence":5},{"trial_n":37,"span":8,"encoder":"86753830","distractor":"86753880","target":"present","response":"present","rt":"1568","correct":true,"confidence":2},{"trial_n":38,"span":9,"encoder":"987048485","distractor":"987848485","target":"absent","response":"absent","rt":"4008.9999999999","correct":true,"confidence":5},{"trial_n":39,"span":9,"encoder":"356691217","distractor":"856691217","target":"present","response":"absent","rt":"3224","correct":false,"confidence":4},{"trial_n":40,"span":8,"encoder":"13364854","distractor":"10364854","target":"present","response":"absent","rt":"3608","correct":false,"confidence":4},{"trial_n":41,"span":7,"encoder":"4311745","distractor":"4311749","target":"absent","response":"absent","rt":"2513","correct":true,"confidence":5},{"trial_n":42,"span":7,"encoder":"7336211","distractor":"7336811","target":"present","response":"absent","rt":"3094","correct":false,"confidence":5},{"trial_n":43,"span":6,"encoder":"610417","distractor":"600417","target":"present","response":"present","rt":"2835","correct":true,"confidence":5},{"trial_n":44,"span":6,"encoder":"593543","distractor":"593513","target":"absent","response":"absent","rt":"2467","correct":true,"confidence":5},{"trial_n":45,"span":7,"encoder":"3475233","distractor":"9475233","target":"absent","response":"absent","rt":"1353","correct":true,"confidence":5},{"trial_n":46,"span":7,"encoder":"3534846","distractor":"3534546","target":"present","response":"present","rt":"2842","correct":true,"confidence":5},{"trial_n":47,"span":8,"encoder":"20068798","distractor":"60068798","target":"present","response":"absent","rt":"2452","correct":false,"confidence":5},{"trial_n":48,"span":7,"encoder":"2252339","distractor":"2252335","target":"present","response":"absent","rt":"2358","correct":false,"confidence":5},{"trial_n":49,"span":6,"encoder":"657732","distractor":"607732","target":"absent","response":"absent","rt":"1460.0000000001","correct":true,"confidence":5},{"trial_n":50,"span":6,"encoder":"841304","distractor":"141304","target":"present","response":"present","rt":"1881","correct":true,"confidence":5},{"trial_n":51,"span":7,"encoder":"7905993","distractor":"7905093","target":"present","response":"absent","rt":"2813.0000000001","correct":false,"confidence":5},{"trial_n":52,"span":6,"encoder":"636132","distractor":"635132","target":"present","response":"present","rt":"1952","correct":true,"confidence":5},{"trial_n":53,"span":6,"encoder":"774845","distractor":"771845","target":"present","response":"absent","rt":"1777","correct":false,"confidence":5},{"trial_n":54,"span":5,"encoder":"94679","distractor":"95679","target":"present","response":"present","rt":"1442.9999999999","correct":true,"confidence":5},{"trial_n":55,"span":5,"encoder":"20082","distractor":"20084","target":"absent","response":"absent","rt":"1524","correct":true,"confidence":5},{"trial_n":56,"span":6,"encoder":"516162","distractor":"536162","target":"absent","response":"absent","rt":"1671","correct":true,"confidence":5},{"trial_n":57,"span":6,"encoder":"861631","distractor":"868631","target":"absent","response":"absent","rt":"3481","correct":true,"confidence":5},{"trial_n":58,"span":7,"encoder":"4104225","distractor":"9104225","target":"absent","response":"absent","rt":"1093","correct":true,"confidence":5},{"trial_n":59,"span":7,"encoder":"3561675","distractor":"3561375","target":"present","response":"present","rt":"1931.0000000001","correct":true,"confidence":5},{"trial_n":60,"span":8,"encoder":"70895668","distractor":"70895468","target":"absent","response":"absent","rt":"2036","correct":true,"confidence":5},{"trial_n":61,"span":8,"encoder":"43504318","distractor":"43508318","target":"present","response":"present","rt":"2258","correct":true,"confidence":5},{"trial_n":62,"span":9,"encoder":"898754931","distractor":"898754911","target":"absent","response":"absent","rt":"2828","correct":true,"confidence":5},{"trial_n":63,"span":9,"encoder":"908290870","distractor":"988290870","target":"absent","response":"absent","rt":"2235","correct":true,"confidence":5},{"trial_n":64,"span":10,"encoder":"0028123716","distractor":"0528123716","target":"present","response":"absent","rt":"3060","correct":false,"confidence":5},{"trial_n":65,"span":9,"encoder":"458060836","distractor":"408060836","target":"absent","response":"present","rt":"2455","correct":false,"confidence":5},{"trial_n":66,"span":8,"encoder":"36526645","distractor":"36526685","target":"absent","response":"absent","rt":"2690","correct":true,"confidence":5},{"trial_n":67,"span":8,"encoder":"93439462","distractor":"93439467","target":"absent","response":"absent","rt":"2288","correct":true,"confidence":5},{"trial_n":68,"span":9,"encoder":"161773436","distractor":"161773438","target":"absent","response":"absent","rt":"1975","correct":true,"confidence":5},{"trial_n":69,"span":9,"encoder":"333285006","distractor":"333225006","target":"present","response":"absent","rt":"1309.0000000001","correct":false,"confidence":5},{"trial_n":70,"span":8,"encoder":"28318456","distractor":"28318454","target":"absent","response":"absent","rt":"3014","correct":true,"confidence":5},{"trial_n":71,"span":8,"encoder":"57777961","distractor":"57777968","target":"present","response":"present","rt":"11267","correct":true,"confidence":-1},{"trial_n":72,"span":8,"encoder":"99236951","distractor":"99736951","target":"present","response":"present","rt":"14504","correct":true,"confidence":-1},{"trial_n":73,"span":9,"encoder":"178575413","distractor":"118575413","target":"absent","response":"absent","rt":"2259.9999999999","correct":true,"confidence":-1},{"trial_n":74,"span":9,"encoder":"067116156","distractor":"067113156","target":"absent","response":"absent","rt":"5351","correct":true,"confidence":-1},{"trial_n":75,"span":10,"encoder":"3180692248","distractor":"3180622248","target":"present","response":"present","rt":"3318.9999999999","correct":true,"confidence":-1},{"trial_n":76,"span":10,"encoder":"8550365433","distractor":"8550365453","target":"absent","response":"present","rt":"5896","correct":false,"confidence":-1},{"trial_n":77,"span":9,"encoder":"259717949","distractor":"259797949","target":"present","response":"present","rt":"3699","correct":true,"confidence":-1},{"trial_n":78,"span":9,"encoder":"142929191","distractor":"142829191","target":"absent","response":"absent","rt":"2164.9999999999","correct":true,"confidence":-1},{"trial_n":79,"span":10,"encoder":"2196850979","distractor":"9196850979","target":"present","response":"present","rt":"2000","correct":true,"confidence":-1},{"trial_n":80,"span":10,"encoder":"4599060224","distractor":"4599060624","target":"absent","response":"absent","rt":"1519","correct":true,"confidence":-1},{"trial_n":81,"span":11,"encoder":"50898234665","distractor":"50498234665","target":"present","response":"present","rt":"5444","correct":true,"confidence":-1},{"trial_n":82,"span":11,"encoder":"51206071521","distractor":"51206031521","target":"absent","response":"absent","rt":"2545.0000000001","correct":true,"confidence":-1},{"trial_n":83,"span":12,"encoder":"618655128131","distractor":"618655128231","target":"absent","response":"absent","rt":"2112.0000000001","correct":true,"confidence":-1},{"trial_n":84,"span":12,"encoder":"165798594901","distractor":"161798594901","target":"absent","response":"absent","rt":"4525.0000000001","correct":true,"confidence":-1},{"trial_n":85,"span":13,"encoder":"6950365204640","distractor":"6920365204640","target":"present","response":"absent","rt":"2204","correct":false,"confidence":-1},{"trial_n":86,"span":12,"encoder":"412481379588","distractor":"412481379518","target":"absent","response":"present","rt":"2989","correct":false,"confidence":-1},{"trial_n":87,"span":11,"encoder":"45805457668","distractor":"45805459668","target":"absent","response":"absent","rt":"6304","correct":true,"confidence":-1},{"trial_n":88,"span":11,"encoder":"27454540468","distractor":"27454540464","target":"present","response":"present","rt":"1754","correct":true,"confidence":-1},{"trial_n":89,"span":12,"encoder":"364880807018","distractor":"364680807018","target":"present","response":"absent","rt":"2942","correct":false,"confidence":-1},{"trial_n":90,"span":11,"encoder":"95758945345","distractor":"95758948345","target":"absent","response":"present","rt":"3527","correct":false,"confidence":-1},{"trial_n":91,"span":10,"encoder":"7571793353","distractor":"7575793353","target":"absent","response":"absent","rt":"8939","correct":true,"confidence":4},{"trial_n":92,"span":10,"encoder":"7738156442","distractor":"7733156442","target":"present","response":"present","rt":"13316","correct":true,"confidence":5},{"trial_n":93,"span":11,"encoder":"26659001523","distractor":"26659001723","target":"present","response":"present","rt":"16246","correct":true,"confidence":5},{"trial_n":94,"span":11,"encoder":"09340329607","distractor":"09340329647","target":"present","response":"present","rt":"4475","correct":true,"confidence":5},{"trial_n":95,"span":12,"encoder":"345753327038","distractor":"345753327138","target":"absent","response":"present","rt":"8716","correct":false,"confidence":3},{"trial_n":96,"span":11,"encoder":"76530413872","distractor":"76530413870","target":"present","response":"absent","rt":"4301","correct":false,"confidence":3},{"trial_n":97,"span":10,"encoder":"5919671725","distractor":"5919671705","target":"absent","response":"absent","rt":"4217.0000000002","correct":true,"confidence":5},{"trial_n":98,"span":10,"encoder":"0920449786","distractor":"0920449716","target":"present","response":"present","rt":"5296","correct":true,"confidence":5},{"trial_n":99,"span":11,"encoder":"01333757519","distractor":"01333557519","target":"absent","response":"absent","rt":"14565","correct":true,"confidence":5},{"trial_n":100,"span":11,"encoder":"95966357061","distractor":"95966317061","target":"present","response":"present","rt":"6248.0000000002","correct":true,"confidence":5},{"trial_n":101,"span":12,"encoder":"191735329065","distractor":"191725329065","target":"present","response":"present","rt":"6149","correct":true,"confidence":5},{"trial_n":102,"span":12,"encoder":"809976111098","distractor":"709976111098","target":"present","response":"present","rt":"13990","correct":true,"confidence":5},{"trial_n":103,"span":13,"encoder":"8354690929471","distractor":"8854690929471","target":"present","response":"present","rt":"8272.0000000002","correct":true,"confidence":3},{"trial_n":104,"span":13,"encoder":"5592617273398","distractor":"5582617273398","target":"absent","response":"absent","rt":"5519","correct":true,"confidence":5},{"trial_n":105,"span":14,"encoder":"28260009115807","distractor":"28260009115817","target":"absent","response":"absent","rt":"7221","correct":true,"confidence":4},{"trial_n":106,"span":14,"encoder":"53549021453818","distractor":"53549026453818","target":"present","response":"present","rt":"7435","correct":true,"confidence":3},{"trial_n":107,"span":15,"encoder":"945619781861351","distractor":"945619780861351","target":"absent","response":"absent","rt":"8324","correct":true,"confidence":3},{"trial_n":108,"span":15,"encoder":"049343463174633","distractor":"049343463674633","target":"present","response":"absent","rt":"7897","correct":false,"confidence":1},{"trial_n":109,"span":14,"encoder":"81818041014208","distractor":"81818041414208","target":"absent","response":"absent","rt":"10892","correct":true,"confidence":5},{"trial_n":110,"span":14,"encoder":"02858023839005","distractor":"02858823839005","target":"present","response":"present","rt":"9326","correct":true,"confidence":5},{"trial_n":111,"span":15,"encoder":"427886884760057","distractor":"407886884760057","target":"absent","response":"absent","rt":"5453","correct":true,"confidence":5},{"trial_n":112,"span":15,"encoder":"921756346418003","distractor":"621756346418003","target":"absent","response":"present","rt":"5945","correct":false,"confidence":4},{"trial_n":113,"span":14,"encoder":"86014213847287","distractor":"86014213887287","target":"absent","response":"absent","rt":"10572","correct":true,"confidence":2},{"trial_n":114,"span":14,"encoder":"44536746070374","distractor":"44536746670374","target":"absent","response":"absent","rt":"5780","correct":true,"confidence":3},{"trial_n":115,"span":15,"encoder":"485898553821394","distractor":"485898533821394","target":"absent","response":"present","rt":"11545","correct":false,"confidence":3},{"trial_n":116,"span":14,"encoder":"62716992948017","distractor":"62716996948017","target":"present","response":"present","rt":"7235","correct":true,"confidence":4},{"trial_n":117,"span":14,"encoder":"14445026410314","distractor":"14445026310314","target":"present","response":"present","rt":"4091","correct":true,"confidence":5},{"trial_n":118,"span":15,"encoder":"829093136093156","distractor":"828093136093156","target":"present","response":"present","rt":"2804","correct":true,"confidence":5},{"trial_n":119,"span":15,"encoder":"513037115437647","distractor":"513037105437647","target":"present","response":"present","rt":"6754","correct":true,"confidence":5},{"trial_n":120,"span":16,"encoder":"0618081736674564","distractor":"0618081731674564","target":"present","response":"present","rt":"11419","correct":true,"confidence":5},{"trial_n":121,"span":16,"encoder":"0343523406623714","distractor":"0343523406423714","target":"absent","response":"absent","rt":"8804","correct":true,"confidence":4},{"trial_n":122,"span":17,"encoder":"67865643382266252","distractor":"67865643382264252","target":"absent","response":"absent","rt":"11547","correct":true,"confidence":3},{"trial_n":123,"span":17,"encoder":"63019155942495114","distractor":"63019155942495154","target":"absent","response":"absent","rt":"17770","correct":true,"confidence":3},{"trial_n":124,"span":18,"encoder":"389593798245784582","distractor":"389593794245784582","target":"absent","response":"absent","rt":"20375","correct":true,"confidence":5},{"trial_n":125,"span":18,"encoder":"534033452356553236","distractor":"534033452359553236","target":"present","response":"present","rt":"9671","correct":true,"confidence":4},{"trial_n":126,"span":19,"encoder":"3815745295594516089","distractor":"3815745295294516089","target":"present","response":"present","rt":"11921","correct":true,"confidence":3},{"trial_n":127,"span":19,"encoder":"3752391866302531394","distractor":"3752391816302531394","target":"present","response":"present","rt":"2393.9999999998","correct":true,"confidence":5},{"trial_n":128,"span":20,"encoder":"02753280236214846887","distractor":"02783280236214846887","target":"absent","response":"present","rt":"7811.9999999998","correct":false,"confidence":2},{"trial_n":129,"span":19,"encoder":"0699710270024556433","distractor":"0699710270024756433","target":"present","response":"present","rt":"10038","correct":true,"confidence":3},{"trial_n":130,"span":19,"encoder":"0036583111788049267","distractor":"0936583111788049267","target":"absent","response":"absent","rt":"4759","correct":true,"confidence":4},{"trial_n":131,"span":20,"encoder":"62048010239746636967","distractor":"62048010239946636967","target":"present","response":"absent","rt":"5315.9999999995","correct":false,"confidence":2},{"trial_n":132,"span":19,"encoder":"0782947755871193803","distractor":"0782947755872193803","target":"absent","response":"absent","rt":"4325","correct":true,"confidence":3},{"trial_n":133,"span":19,"encoder":"4378021144466703665","distractor":"4378021144466703664","target":"absent","response":"absent","rt":"5781","correct":true,"confidence":2},{"trial_n":134,"span":20,"encoder":"08816758769890450508","distractor":"08116758769890450508","target":"present","response":"absent","rt":"5755.9999999995","correct":false,"confidence":2},{"trial_n":135,"span":19,"encoder":"3998582167072568628","distractor":"3998582164072568628","target":"absent","response":"present","rt":"10225","correct":false,"confidence":2},{"trial_n":136,"span":18,"encoder":"731292615814035849","distractor":"721292615814035849","target":"present","response":"present","rt":"5878.9999999995","correct":true,"confidence":4},{"trial_n":137,"span":18,"encoder":"199650562939055444","distractor":"199650562959055444","target":"absent","response":"present","rt":"6544.9999999995","correct":false,"confidence":2},{"trial_n":138,"span":17,"encoder":"24856140184409198","distractor":"44856140184409198","target":"present","response":"present","rt":"3252.0000000005","correct":true,"confidence":3},{"trial_n":139,"span":17,"encoder":"92663382216094834","distractor":"92663382216094833","target":"present","response":"present","rt":"5239","correct":true,"confidence":5},{"trial_n":140,"span":18,"encoder":"641806986669907312","distractor":"641806986669906312","target":"present","response":"present","rt":"6248","correct":true,"confidence":1}]