[{"trial_n":1,"n_dots":4.25,"target":"right","response":"right","rt":5124.2000000477,"correct":true,"confidence":-1},{"trial_n":2,"n_dots":4.25,"target":"left","response":"left","rt":1420.7000000477,"correct":true,"confidence":-1},{"trial_n":3,"n_dots":3.85,"target":"right","response":"right","rt":779.20000004768,"correct":true,"confidence":-1},{"trial_n":4,"n_dots":3.85,"target":"right","response":"right","rt":1558.0999999046,"correct":true,"confidence":-1},{"trial_n":5,"n_dots":3.45,"target":"right","response":"left","rt":622.5,"correct":false,"confidence":-1},{"trial_n":6,"n_dots":3.85,"target":"right","response":"right","rt":717.10000014305,"correct":true,"confidence":-1},{"trial_n":7,"n_dots":3.85,"target":"right","response":"right","rt":1279.4000000954,"correct":true,"confidence":-1},{"trial_n":8,"n_dots":3.65,"target":"right","response":"left","rt":1098.0999999046,"correct":false,"confidence":-1},{"trial_n":9,"n_dots":3.85,"target":"right","response":"left","rt":682.09999990463,"correct":false,"confidence":-1},{"trial_n":10,"n_dots":4.05,"target":"left","response":"right","rt":735,"correct":false,"confidence":-1},{"trial_n":11,"n_dots":4.25,"target":"left","response":"left","rt":568.5,"correct":true,"confidence":-1},{"trial_n":12,"n_dots":4.25,"target":"right","response":"right","rt":929.70000004768,"correct":true,"confidence":-1},{"trial_n":13,"n_dots":4.15,"target":"left","response":"left","rt":547.09999990463,"correct":true,"confidence":-1},{"trial_n":14,"n_dots":4.15,"target":"left","response":"left","rt":479.20000004768,"correct":true,"confidence":-1},{"trial_n":15,"n_dots":4.05,"target":"right","response":"right","rt":447.80000019073,"correct":true,"confidence":-1},{"trial_n":16,"n_dots":4.05,"target":"left","response":"left","rt":514.60000014305,"correct":true,"confidence":-1},{"trial_n":17,"n_dots":3.95,"target":"right","response":"right","rt":835.09999990463,"correct":true,"confidence":-1},{"trial_n":18,"n_dots":3.95,"target":"left","response":"left","rt":498.09999990463,"correct":true,"confidence":-1},{"trial_n":19,"n_dots":3.85,"target":"left","response":"left","rt":688.09999990463,"correct":true,"confidence":-1},{"trial_n":20,"n_dots":3.85,"target":"right","response":"right","rt":699.29999995232,"correct":true,"confidence":-1},{"trial_n":21,"n_dots":3.75,"target":"left","response":"left","rt":508.29999995232,"correct":true,"confidence":4},{"trial_n":22,"n_dots":3.75,"target":"left","response":"left","rt":1380.3999998569,"correct":true,"confidence":3},{"trial_n":23,"n_dots":3.65,"target":"left","response":"left","rt":1086.4000000954,"correct":true,"confidence":3},{"trial_n":24,"n_dots":3.65,"target":"right","response":"right","rt":1056.0999999046,"correct":true,"confidence":3},{"trial_n":25,"n_dots":3.55,"target":"right","response":"right","rt":793.5,"correct":true,"confidence":3},{"trial_n":26,"n_dots":3.55,"target":"left","response":"left","rt":729.39999985695,"correct":true,"confidence":3},{"trial_n":27,"n_dots":3.45,"target":"right","response":"right","rt":1379.2999999523,"correct":true,"confidence":2},{"trial_n":28,"n_dots":3.45,"target":"right","response":"right","rt":1047.1999998093,"correct":true,"confidence":4},{"trial_n":29,"n_dots":3.35,"target":"right","response":"left","rt":4516.0999999046,"correct":false,"confidence":2},{"trial_n":30,"n_dots":3.45,"target":"right","response":"right","rt":1660.0999999046,"correct":true,"confidence":3},{"trial_n":31,"n_dots":3.45,"target":"right","response":"right","rt":643.60000014305,"correct":true,"confidence":3},{"trial_n":32,"n_dots":3.35,"target":"right","response":"left","rt":1066.5,"correct":false,"confidence":2},{"trial_n":33,"n_dots":3.45,"target":"right","response":"left","rt":3746.7999999523,"correct":false,"confidence":3},{"trial_n":34,"n_dots":3.55,"target":"left","response":"left","rt":788.29999995232,"correct":true,"confidence":3},{"trial_n":35,"n_dots":3.55,"target":"left","response":"left","rt":859.10000014305,"correct":true,"confidence":3},{"trial_n":36,"n_dots":3.45,"target":"left","response":"left","rt":1072.4000000954,"correct":true,"confidence":3},{"trial_n":37,"n_dots":3.45,"target":"left","response":"left","rt":1590,"correct":true,"confidence":3},{"trial_n":38,"n_dots":3.35,"target":"right","response":"right","rt":486.29999995232,"correct":true,"confidence":3},{"trial_n":39,"n_dots":3.35,"target":"right","response":"right","rt":4205.5,"correct":true,"confidence":3},{"trial_n":40,"n_dots":3.25,"target":"left","response":"left","rt":575.39999985695,"correct":true,"confidence":4},{"trial_n":41,"n_dots":3.25,"target":"left","response":"left","rt":1362.2000000477,"correct":true,"confidence":3},{"trial_n":42,"n_dots":3.15,"target":"right","response":"left","rt":981.5,"correct":false,"confidence":3},{"trial_n":43,"n_dots":3.25,"target":"left","response":"left","rt":1070.3999998569,"correct":true,"confidence":3},{"trial_n":44,"n_dots":3.25,"target":"left","response":"right","rt":1479.4000000954,"correct":false,"confidence":3},{"trial_n":45,"n_dots":3.35,"target":"left","response":"left","rt":1061.2999999523,"correct":true,"confidence":5},{"trial_n":46,"n_dots":3.35,"target":"left","response":"left","rt":1603.5,"correct":true,"confidence":2},{"trial_n":47,"n_dots":3.25,"target":"right","response":"right","rt":2812.4000000954,"correct":true,"confidence":1},{"trial_n":48,"n_dots":3.25,"target":"left","response":"left","rt":1397.4000000954,"correct":true,"confidence":2},{"trial_n":49,"n_dots":3.15,"target":"right","response":"right","rt":5150.2000000477,"correct":true,"confidence":3},{"trial_n":50,"n_dots":3.15,"target":"right","response":"right","rt":1192.2999999523,"correct":true,"confidence":4},{"trial_n":51,"n_dots":3.05,"target":"left","response":"left","rt":1240.5999999046,"correct":true,"confidence":4},{"trial_n":52,"n_dots":3.05,"target":"left","response":"left","rt":1072,"correct":true,"confidence":5},{"trial_n":53,"n_dots":2.95,"target":"left","response":"right","rt":1315.8000001907,"correct":false,"confidence":4},{"trial_n":54,"n_dots":3.05,"target":"right","response":"left","rt":1168.7000000477,"correct":false,"confidence":3},{"trial_n":55,"n_dots":3.15,"target":"left","response":"left","rt":1075.2000000477,"correct":true,"confidence":3},{"trial_n":56,"n_dots":3.15,"target":"right","response":"right","rt":1198.4000000954,"correct":true,"confidence":2},{"trial_n":57,"n_dots":3.05,"target":"right","response":"left","rt":1460.0999999046,"correct":false,"confidence":3},{"trial_n":58,"n_dots":3.15,"target":"left","response":"left","rt":989.20000004768,"correct":true,"confidence":4},{"trial_n":59,"n_dots":3.15,"target":"left","response":"left","rt":1145.8999998569,"correct":true,"confidence":3},{"trial_n":60,"n_dots":3.05,"target":"left","response":"left","rt":973.60000014305,"correct":true,"confidence":5},{"trial_n":61,"n_dots":3.05,"target":"left","response":"left","rt":1172.9000000954,"correct":true,"confidence":3},{"trial_n":62,"n_dots":2.95,"target":"right","response":"right","rt":947.90000009537,"correct":true,"confidence":4},{"trial_n":63,"n_dots":2.95,"target":"right","response":"right","rt":1163.6999998093,"correct":true,"confidence":3},{"trial_n":64,"n_dots":2.85,"target":"right","response":"right","rt":1276.7000000477,"correct":true,"confidence":3},{"trial_n":65,"n_dots":2.85,"target":"left","response":"left","rt":905.29999995232,"correct":true,"confidence":3},{"trial_n":66,"n_dots":2.75,"target":"left","response":"left","rt":1183.0999999046,"correct":true,"confidence":3},{"trial_n":67,"n_dots":2.75,"target":"left","response":"right","rt":1252.2999999523,"correct":false,"confidence":2},{"trial_n":68,"n_dots":2.85,"target":"right","response":"left","rt":1217.6999998093,"correct":false,"confidence":3},{"trial_n":69,"n_dots":2.95,"target":"left","response":"right","rt":1152.7000000477,"correct":false,"confidence":4},{"trial_n":70,"n_dots":3.05,"target":"right","response":"right","rt":1203.2000000477,"correct":true,"confidence":4},{"trial_n":71,"n_dots":3.05,"target":"left","response":"left","rt":845,"correct":true,"confidence":3},{"trial_n":72,"n_dots":2.95,"target":"right","response":"left","rt":917.80000019073,"correct":false,"confidence":2},{"trial_n":73,"n_dots":3.05,"target":"right","response":"left","rt":1129.5999999046,"correct":false,"confidence":1},{"trial_n":74,"n_dots":3.15,"target":"left","response":"right","rt":1107.2000000477,"correct":false,"confidence":3},{"trial_n":75,"n_dots":3.25,"target":"left","response":"left","rt":954.59999990463,"correct":true,"confidence":3},{"trial_n":76,"n_dots":3.25,"target":"right","response":"right","rt":1069.5999999046,"correct":true,"confidence":2},{"trial_n":77,"n_dots":3.15,"target":"right","response":"right","rt":955.79999995232,"correct":true,"confidence":4},{"trial_n":78,"n_dots":3.15,"target":"right","response":"left","rt":1699.5,"correct":false,"confidence":3},{"trial_n":79,"n_dots":3.25,"target":"left","response":"left","rt":912.70000004768,"correct":true,"confidence":5},{"trial_n":80,"n_dots":3.25,"target":"right","response":"right","rt":1142.5,"correct":true,"confidence":4},{"trial_n":81,"n_dots":3.15,"target":"right","response":"right","rt":707,"correct":true,"confidence":4},{"trial_n":82,"n_dots":3.15,"target":"left","response":"left","rt":671.89999985695,"correct":true,"confidence":3},{"trial_n":83,"n_dots":3.05,"target":"right","response":"right","rt":617.40000009537,"correct":true,"confidence":3},{"trial_n":84,"n_dots":3.05,"target":"left","response":"left","rt":906.60000014305,"correct":true,"confidence":1},{"trial_n":85,"n_dots":2.95,"target":"right","response":"right","rt":802.29999995232,"correct":true,"confidence":3},{"trial_n":86,"n_dots":2.95,"target":"right","response":"right","rt":1221.2999999523,"correct":true,"confidence":3},{"trial_n":87,"n_dots":2.85,"target":"right","response":"left","rt":1127.2999999523,"correct":false,"confidence":3},{"trial_n":88,"n_dots":2.95,"target":"right","response":"left","rt":1373.5999999046,"correct":false,"confidence":3},{"trial_n":89,"n_dots":3.05,"target":"left","response":"left","rt":513.59999990463,"correct":true,"confidence":4},{"trial_n":90,"n_dots":3.05,"target":"right","response":"right","rt":1193.5,"correct":true,"confidence":3},{"trial_n":91,"n_dots":2.95,"target":"left","response":"left","rt":548.5,"correct":true,"confidence":2},{"trial_n":92,"n_dots":2.95,"target":"left","response":"left","rt":553.29999995232,"correct":true,"confidence":4},{"trial_n":93,"n_dots":2.85,"target":"left","response":"right","rt":792.70000004768,"correct":false,"confidence":3},{"trial_n":94,"n_dots":2.95,"target":"right","response":"right","rt":722,"correct":true,"confidence":3},{"trial_n":95,"n_dots":2.95,"target":"right","response":"right","rt":529.5,"correct":true,"confidence":2},{"trial_n":96,"n_dots":2.85,"target":"right","response":"left","rt":787.90000009537,"correct":false,"confidence":3},{"trial_n":97,"n_dots":2.95,"target":"right","response":"left","rt":792.79999995232,"correct":false,"confidence":3},{"trial_n":98,"n_dots":3.05,"target":"left","response":"right","rt":450.19999980927,"correct":false,"confidence":3},{"trial_n":99,"n_dots":3.15,"target":"left","response":"left","rt":4504.5,"correct":true,"confidence":3},{"trial_n":100,"n_dots":3.15,"target":"left","response":"left","rt":407.60000014305,"correct":true,"confidence":5},{"trial_n":101,"n_dots":3.05,"target":"right","response":"right","rt":1091.7000000477,"correct":true,"confidence":4},{"trial_n":102,"n_dots":3.05,"target":"left","response":"right","rt":977.5,"correct":false,"confidence":3},{"trial_n":103,"n_dots":3.15,"target":"left","response":"left","rt":616.70000004768,"correct":true,"confidence":2},{"trial_n":104,"n_dots":3.15,"target":"right","response":"right","rt":551.59999990463,"correct":true,"confidence":4},{"trial_n":105,"n_dots":3.05,"target":"right","response":"left","rt":674.5,"correct":false,"confidence":3},{"trial_n":106,"n_dots":3.15,"target":"right","response":"right","rt":572.79999995232,"correct":true,"confidence":3},{"trial_n":107,"n_dots":3.15,"target":"left","response":"left","rt":544.79999995232,"correct":true,"confidence":3},{"trial_n":108,"n_dots":3.05,"target":"left","response":"left","rt":1094.0999999046,"correct":true,"confidence":3},{"trial_n":109,"n_dots":3.05,"target":"right","response":"left","rt":1560.2000000477,"correct":false,"confidence":3},{"trial_n":110,"n_dots":3.15,"target":"left","response":"left","rt":628.09999990463,"correct":true,"confidence":5},{"trial_n":111,"n_dots":3.15,"target":"left","response":"left","rt":859.79999995232,"correct":true,"confidence":2},{"trial_n":112,"n_dots":3.05,"target":"left","response":"left","rt":580.79999995232,"correct":true,"confidence":4},{"trial_n":113,"n_dots":3.05,"target":"right","response":"right","rt":819.10000014305,"correct":true,"confidence":4},{"trial_n":114,"n_dots":2.95,"target":"left","response":"right","rt":739,"correct":false,"confidence":3},{"trial_n":115,"n_dots":3.05,"target":"left","response":"left","rt":664.60000014305,"correct":true,"confidence":3},{"trial_n":116,"n_dots":3.05,"target":"right","response":"left","rt":16094,"correct":false,"confidence":4},{"trial_n":117,"n_dots":3.15,"target":"left","response":"right","rt":1097.7000000477,"correct":false,"confidence":4},{"trial_n":118,"n_dots":3.25,"target":"left","response":"left","rt":832.20000004768,"correct":true,"confidence":3},{"trial_n":119,"n_dots":3.25,"target":"left","response":"left","rt":1599.7999999523,"correct":true,"confidence":3},{"trial_n":120,"n_dots":3.15,"target":"right","response":"right","rt":902.20000004768,"correct":true,"confidence":3}]