[{"trial_n":1,"n_dots":4.25,"target":"left","response":"left","rt":5818.3999999911,"correct":true,"confidence":-1},{"trial_n":2,"n_dots":4.25,"target":"right","response":"right","rt":536.10000000894,"correct":true,"confidence":-1},{"trial_n":3,"n_dots":3.85,"target":"right","response":"right","rt":831.40000000596,"correct":true,"confidence":-1},{"trial_n":4,"n_dots":3.85,"target":"left","response":"left","rt":470,"correct":true,"confidence":-1},{"trial_n":5,"n_dots":3.45,"target":"right","response":"left","rt":623.29999999702,"correct":false,"confidence":-1},{"trial_n":6,"n_dots":3.85,"target":"right","response":"right","rt":86.300000011921,"correct":true,"confidence":-1},{"trial_n":7,"n_dots":3.85,"target":"right","response":"right","rt":21,"correct":true,"confidence":-1},{"trial_n":8,"n_dots":3.65,"target":"left","response":"left","rt":33.29999999702,"correct":true,"confidence":-1},{"trial_n":9,"n_dots":3.65,"target":"right","response":"right","rt":52.29999999702,"correct":true,"confidence":-1},{"trial_n":10,"n_dots":3.45,"target":"right","response":"left","rt":845.79999999702,"correct":false,"confidence":-1},{"trial_n":11,"n_dots":3.65,"target":"right","response":"left","rt":382.29999999702,"correct":false,"confidence":-1},{"trial_n":12,"n_dots":3.85,"target":"left","response":"left","rt":354.60000000894,"correct":true,"confidence":-1},{"trial_n":13,"n_dots":3.85,"target":"right","response":"right","rt":170.29999999702,"correct":true,"confidence":-1},{"trial_n":14,"n_dots":3.75,"target":"right","response":"right","rt":238.10000000894,"correct":true,"confidence":-1},{"trial_n":15,"n_dots":3.75,"target":"right","response":"left","rt":563.79999999702,"correct":false,"confidence":-1},{"trial_n":16,"n_dots":3.85,"target":"right","response":"right","rt":628.09999999404,"correct":true,"confidence":-1},{"trial_n":17,"n_dots":3.85,"target":"left","response":"right","rt":323.29999999702,"correct":false,"confidence":-1},{"trial_n":18,"n_dots":3.95,"target":"right","response":"left","rt":279.09999999404,"correct":false,"confidence":-1},{"trial_n":19,"n_dots":4.05,"target":"right","response":"right","rt":486.20000000298,"correct":true,"confidence":-1},{"trial_n":20,"n_dots":4.05,"target":"left","response":"left","rt":272.29999999702,"correct":true,"confidence":-1},{"trial_n":21,"n_dots":3.95,"target":"right","response":"left","rt":732.20000000298,"correct":false,"confidence":3},{"trial_n":22,"n_dots":4.05,"target":"left","response":"left","rt":1235,"correct":true,"confidence":2},{"trial_n":23,"n_dots":4.05,"target":"right","response":"right","rt":920.5,"correct":true,"confidence":3},{"trial_n":24,"n_dots":3.95,"target":"right","response":"right","rt":575,"correct":true,"confidence":1},{"trial_n":25,"n_dots":3.95,"target":"right","response":"left","rt":886.79999999702,"correct":false,"confidence":2},{"trial_n":26,"n_dots":4.05,"target":"right","response":"right","rt":666.39999999106,"correct":true,"confidence":2},{"trial_n":27,"n_dots":4.05,"target":"right","response":"left","rt":503.60000000894,"correct":false,"confidence":3},{"trial_n":28,"n_dots":4.15,"target":"left","response":"left","rt":417.60000000894,"correct":true,"confidence":3},{"trial_n":29,"n_dots":4.15,"target":"left","response":"left","rt":350.5,"correct":true,"confidence":3},{"trial_n":30,"n_dots":4.05,"target":"left","response":"left","rt":984.79999999702,"correct":true,"confidence":3},{"trial_n":31,"n_dots":4.05,"target":"left","response":"left","rt":3097.099999994,"correct":true,"confidence":2},{"trial_n":32,"n_dots":3.95,"target":"right","response":"right","rt":1038.1000000089,"correct":true,"confidence":1},{"trial_n":33,"n_dots":3.95,"target":"left","response":"left","rt":941.40000000596,"correct":true,"confidence":1},{"trial_n":34,"n_dots":3.85,"target":"left","response":"left","rt":508.60000000894,"correct":true,"confidence":3},{"trial_n":35,"n_dots":3.85,"target":"left","response":"left","rt":544.10000000894,"correct":true,"confidence":3},{"trial_n":36,"n_dots":3.75,"target":"left","response":"left","rt":547.70000000298,"correct":true,"confidence":2},{"trial_n":37,"n_dots":3.75,"target":"left","response":"left","rt":448.80000001192,"correct":true,"confidence":2},{"trial_n":38,"n_dots":3.65,"target":"left","response":"right","rt":1142.200000003,"correct":false,"confidence":2},{"trial_n":39,"n_dots":3.75,"target":"left","response":"left","rt":760.20000000298,"correct":true,"confidence":2},{"trial_n":40,"n_dots":3.75,"target":"right","response":"right","rt":964.79999999702,"correct":true,"confidence":3},{"trial_n":41,"n_dots":3.65,"target":"right","response":"left","rt":1764.400000006,"correct":false,"confidence":2},{"trial_n":42,"n_dots":3.75,"target":"left","response":"right","rt":704.70000000298,"correct":false,"confidence":2},{"trial_n":43,"n_dots":3.85,"target":"right","response":"right","rt":860,"correct":true,"confidence":3},{"trial_n":44,"n_dots":3.85,"target":"right","response":"right","rt":777.79999999702,"correct":true,"confidence":3},{"trial_n":45,"n_dots":3.75,"target":"right","response":"right","rt":1530,"correct":true,"confidence":4},{"trial_n":46,"n_dots":3.75,"target":"right","response":"left","rt":22466,"correct":false,"confidence":1},{"trial_n":47,"n_dots":3.85,"target":"right","response":"right","rt":996.10000000894,"correct":true,"confidence":2},{"trial_n":48,"n_dots":3.85,"target":"left","response":"left","rt":1248.8999999911,"correct":true,"confidence":1},{"trial_n":49,"n_dots":3.75,"target":"right","response":"right","rt":843.90000000596,"correct":true,"confidence":3},{"trial_n":50,"n_dots":3.75,"target":"left","response":"left","rt":952.90000000596,"correct":true,"confidence":3},{"trial_n":51,"n_dots":3.65,"target":"right","response":"right","rt":818,"correct":true,"confidence":2},{"trial_n":52,"n_dots":3.65,"target":"right","response":"left","rt":1075.5,"correct":false,"confidence":2},{"trial_n":53,"n_dots":3.75,"target":"right","response":"left","rt":683.10000000894,"correct":false,"confidence":2},{"trial_n":54,"n_dots":3.85,"target":"left","response":"right","rt":1275.400000006,"correct":false,"confidence":2},{"trial_n":55,"n_dots":3.95,"target":"left","response":"left","rt":532.40000000596,"correct":true,"confidence":1},{"trial_n":56,"n_dots":3.95,"target":"left","response":"left","rt":525.70000000298,"correct":true,"confidence":2},{"trial_n":57,"n_dots":3.85,"target":"left","response":"left","rt":346.20000000298,"correct":true,"confidence":1},{"trial_n":58,"n_dots":3.85,"target":"left","response":"left","rt":695.40000000596,"correct":true,"confidence":2},{"trial_n":59,"n_dots":3.75,"target":"right","response":"left","rt":493.70000000298,"correct":false,"confidence":2},{"trial_n":60,"n_dots":3.85,"target":"left","response":"left","rt":832.90000000596,"correct":true,"confidence":3},{"trial_n":61,"n_dots":3.85,"target":"left","response":"left","rt":828.79999999702,"correct":true,"confidence":3},{"trial_n":62,"n_dots":3.75,"target":"left","response":"left","rt":568.09999999404,"correct":true,"confidence":3},{"trial_n":63,"n_dots":3.75,"target":"left","response":"left","rt":341.79999999702,"correct":true,"confidence":3},{"trial_n":64,"n_dots":3.65,"target":"left","response":"right","rt":828.90000000596,"correct":false,"confidence":2},{"trial_n":65,"n_dots":3.75,"target":"left","response":"left","rt":609.40000000596,"correct":true,"confidence":1},{"trial_n":66,"n_dots":3.75,"target":"right","response":"right","rt":1017.299999997,"correct":true,"confidence":3},{"trial_n":67,"n_dots":3.65,"target":"right","response":"left","rt":1073.200000003,"correct":false,"confidence":2},{"trial_n":68,"n_dots":3.75,"target":"right","response":"right","rt":702,"correct":true,"confidence":2},{"trial_n":69,"n_dots":3.75,"target":"right","response":"right","rt":1062.200000003,"correct":true,"confidence":3},{"trial_n":70,"n_dots":3.65,"target":"left","response":"left","rt":788.90000000596,"correct":true,"confidence":2},{"trial_n":71,"n_dots":3.65,"target":"right","response":"right","rt":1435.700000003,"correct":true,"confidence":2},{"trial_n":72,"n_dots":3.55,"target":"left","response":"left","rt":832.29999999702,"correct":true,"confidence":1},{"trial_n":73,"n_dots":3.55,"target":"left","response":"left","rt":1044.6000000089,"correct":true,"confidence":3},{"trial_n":74,"n_dots":3.45,"target":"right","response":"left","rt":4837.1000000089,"correct":false,"confidence":2},{"trial_n":75,"n_dots":3.55,"target":"right","response":"right","rt":710.5,"correct":true,"confidence":2},{"trial_n":76,"n_dots":3.55,"target":"left","response":"left","rt":520.90000000596,"correct":true,"confidence":3},{"trial_n":77,"n_dots":3.45,"target":"left","response":"left","rt":498.40000000596,"correct":true,"confidence":3},{"trial_n":78,"n_dots":3.45,"target":"left","response":"left","rt":92.90000000596,"correct":true,"confidence":3},{"trial_n":79,"n_dots":3.35,"target":"left","response":"left","rt":956,"correct":true,"confidence":2},{"trial_n":80,"n_dots":3.35,"target":"left","response":"left","rt":358.29999999702,"correct":true,"confidence":2},{"trial_n":81,"n_dots":3.25,"target":"left","response":"left","rt":441.09999999404,"correct":true,"confidence":2},{"trial_n":82,"n_dots":3.25,"target":"right","response":"right","rt":660.70000000298,"correct":true,"confidence":2},{"trial_n":83,"n_dots":3.15,"target":"right","response":"left","rt":1481.599999994,"correct":false,"confidence":1},{"trial_n":84,"n_dots":3.25,"target":"left","response":"right","rt":942.70000000298,"correct":false,"confidence":2},{"trial_n":85,"n_dots":3.35,"target":"left","response":"left","rt":976.59999999404,"correct":true,"confidence":3},{"trial_n":86,"n_dots":3.35,"target":"left","response":"left","rt":897.5,"correct":true,"confidence":2},{"trial_n":87,"n_dots":3.25,"target":"right","response":"right","rt":835.40000000596,"correct":true,"confidence":3},{"trial_n":88,"n_dots":3.25,"target":"right","response":"right","rt":811.29999999702,"correct":true,"confidence":3},{"trial_n":89,"n_dots":3.15,"target":"right","response":"left","rt":862.20000000298,"correct":false,"confidence":2},{"trial_n":90,"n_dots":3.25,"target":"right","response":"left","rt":1471.200000003,"correct":false,"confidence":2},{"trial_n":91,"n_dots":3.35,"target":"left","response":"left","rt":865,"correct":true,"confidence":2},{"trial_n":92,"n_dots":3.35,"target":"left","response":"right","rt":813.79999999702,"correct":false,"confidence":3},{"trial_n":93,"n_dots":3.45,"target":"left","response":"right","rt":896.40000000596,"correct":false,"confidence":4},{"trial_n":94,"n_dots":3.55,"target":"left","response":"left","rt":567.89999999106,"correct":true,"confidence":3},{"trial_n":95,"n_dots":3.55,"target":"right","response":"left","rt":846.29999999702,"correct":false,"confidence":3},{"trial_n":96,"n_dots":3.65,"target":"left","response":"left","rt":552.70000000298,"correct":true,"confidence":1},{"trial_n":97,"n_dots":3.65,"target":"left","response":"left","rt":728.79999999702,"correct":true,"confidence":2},{"trial_n":98,"n_dots":3.55,"target":"right","response":"right","rt":609.30000001192,"correct":true,"confidence":3},{"trial_n":99,"n_dots":3.55,"target":"left","response":"left","rt":810.70000000298,"correct":true,"confidence":1},{"trial_n":100,"n_dots":3.45,"target":"left","response":"left","rt":703.09999999404,"correct":true,"confidence":2},{"trial_n":101,"n_dots":3.45,"target":"left","response":"left","rt":1917.700000003,"correct":true,"confidence":4},{"trial_n":102,"n_dots":3.35,"target":"right","response":"right","rt":695.80000001192,"correct":true,"confidence":3},{"trial_n":103,"n_dots":3.35,"target":"right","response":"right","rt":2684.299999997,"correct":true,"confidence":3},{"trial_n":104,"n_dots":3.25,"target":"left","response":"left","rt":960,"correct":true,"confidence":2},{"trial_n":105,"n_dots":3.25,"target":"right","response":"left","rt":885.09999999404,"correct":false,"confidence":3},{"trial_n":106,"n_dots":3.35,"target":"left","response":"left","rt":780.40000000596,"correct":true,"confidence":3},{"trial_n":107,"n_dots":3.35,"target":"right","response":"right","rt":1086,"correct":true,"confidence":2},{"trial_n":108,"n_dots":3.25,"target":"right","response":"right","rt":1318.200000003,"correct":true,"confidence":3},{"trial_n":109,"n_dots":3.25,"target":"left","response":"left","rt":476.79999999702,"correct":true,"confidence":3},{"trial_n":110,"n_dots":3.15,"target":"right","response":"right","rt":852.30000001192,"correct":true,"confidence":3},{"trial_n":111,"n_dots":3.15,"target":"right","response":"left","rt":1421.900000006,"correct":false,"confidence":1},{"trial_n":112,"n_dots":3.25,"target":"right","response":"right","rt":739.30000001192,"correct":true,"confidence":3},{"trial_n":113,"n_dots":3.25,"target":"right","response":"right","rt":1702.1000000089,"correct":true,"confidence":3},{"trial_n":114,"n_dots":3.15,"target":"right","response":"left","rt":2044.400000006,"correct":false,"confidence":2},{"trial_n":115,"n_dots":3.25,"target":"right","response":"right","rt":942.79999999702,"correct":true,"confidence":3},{"trial_n":116,"n_dots":3.25,"target":"left","response":"left","rt":810.10000000894,"correct":true,"confidence":2},{"trial_n":117,"n_dots":3.15,"target":"left","response":"left","rt":934.79999999702,"correct":true,"confidence":3},{"trial_n":118,"n_dots":3.15,"target":"right","response":"right","rt":680.59999999404,"correct":true,"confidence":3},{"trial_n":119,"n_dots":3.05,"target":"left","response":"left","rt":877.39999999106,"correct":true,"confidence":3},{"trial_n":120,"n_dots":3.05,"target":"left","response":"left","rt":472.20000000298,"correct":true,"confidence":2}]