[{"trial_n":1,"min":25,"max":230,"target":"present","response":"present","rt":8716,"correct":true,"confidence":-1},{"trial_n":2,"min":25,"max":230,"target":"present","response":"present","rt":1504.8999999911,"correct":true,"confidence":-1},{"trial_n":3,"min":41,"max":214,"target":"absent","response":"absent","rt":1360.3999999911,"correct":true,"confidence":-1},{"trial_n":4,"min":41,"max":214,"target":"absent","response":"absent","rt":2190.799999997,"correct":true,"confidence":-1},{"trial_n":5,"min":57,"max":198,"target":"present","response":"present","rt":623,"correct":true,"confidence":-1},{"trial_n":6,"min":57,"max":198,"target":"present","response":"present","rt":465.20000000298,"correct":true,"confidence":-1},{"trial_n":7,"min":73,"max":182,"target":"present","response":"present","rt":701.59999999404,"correct":true,"confidence":-1},{"trial_n":8,"min":73,"max":182,"target":"present","response":"present","rt":549,"correct":true,"confidence":-1},{"trial_n":9,"min":89,"max":166,"target":"present","response":"present","rt":1218.3999999911,"correct":true,"confidence":-1},{"trial_n":10,"min":89,"max":166,"target":"present","response":"absent","rt":639.20000000298,"correct":false,"confidence":-1},{"trial_n":11,"min":81,"max":174,"target":"absent","response":"absent","rt":636,"correct":true,"confidence":-1},{"trial_n":12,"min":81,"max":174,"target":"absent","response":"absent","rt":573.19999998808,"correct":true,"confidence":-1},{"trial_n":13,"min":89,"max":166,"target":"present","response":"present","rt":539.40000000596,"correct":true,"confidence":-1},{"trial_n":14,"min":89,"max":166,"target":"present","response":"present","rt":2409.299999997,"correct":true,"confidence":-1},{"trial_n":15,"min":97,"max":158,"target":"absent","response":"absent","rt":1132.6000000089,"correct":true,"confidence":-1},{"trial_n":16,"min":97,"max":158,"target":"present","response":"present","rt":758.59999999404,"correct":true,"confidence":-1},{"trial_n":17,"min":105,"max":150,"target":"absent","response":"absent","rt":572.10000000894,"correct":true,"confidence":-1},{"trial_n":18,"min":105,"max":150,"target":"absent","response":"absent","rt":402.5,"correct":true,"confidence":-1},{"trial_n":19,"min":113,"max":142,"target":"present","response":"absent","rt":596,"correct":false,"confidence":-1},{"trial_n":20,"min":105,"max":150,"target":"present","response":"absent","rt":532.40000000596,"correct":false,"confidence":-1},{"trial_n":21,"min":101,"max":154,"target":"present","response":"present","rt":1341.1999999881,"correct":true,"confidence":2},{"trial_n":22,"min":101,"max":154,"target":"absent","response":"absent","rt":2009.5,"correct":true,"confidence":3},{"trial_n":23,"min":105,"max":150,"target":"absent","response":"present","rt":1991,"correct":false,"confidence":3},{"trial_n":24,"min":101,"max":154,"target":"absent","response":"present","rt":1288.700000003,"correct":false,"confidence":3},{"trial_n":25,"min":97,"max":158,"target":"present","response":"absent","rt":640.79999999702,"correct":false,"confidence":2},{"trial_n":26,"min":93,"max":162,"target":"present","response":"absent","rt":748,"correct":false,"confidence":2},{"trial_n":27,"min":89,"max":166,"target":"absent","response":"present","rt":779.39999999106,"correct":false,"confidence":4},{"trial_n":28,"min":85,"max":170,"target":"present","response":"present","rt":550.70000000298,"correct":true,"confidence":4},{"trial_n":29,"min":85,"max":170,"target":"absent","response":"absent","rt":554.20000000298,"correct":true,"confidence":3},{"trial_n":30,"min":89,"max":166,"target":"absent","response":"present","rt":2682,"correct":false,"confidence":3},{"trial_n":31,"min":87,"max":168,"target":"absent","response":"absent","rt":1006.099999994,"correct":true,"confidence":2},{"trial_n":32,"min":87,"max":168,"target":"present","response":"present","rt":765.5,"correct":true,"confidence":3},{"trial_n":33,"min":89,"max":166,"target":"present","response":"present","rt":467.60000000894,"correct":true,"confidence":4},{"trial_n":34,"min":89,"max":166,"target":"present","response":"present","rt":481.39999999106,"correct":true,"confidence":4},{"trial_n":35,"min":91,"max":164,"target":"absent","response":"absent","rt":592.60000000894,"correct":true,"confidence":3},{"trial_n":36,"min":91,"max":164,"target":"absent","response":"absent","rt":2493.599999994,"correct":true,"confidence":1},{"trial_n":37,"min":93,"max":162,"target":"absent","response":"present","rt":882,"correct":false,"confidence":1},{"trial_n":38,"min":91,"max":164,"target":"present","response":"absent","rt":1085,"correct":false,"confidence":1},{"trial_n":39,"min":89,"max":166,"target":"present","response":"present","rt":1186.700000003,"correct":true,"confidence":3},{"trial_n":40,"min":89,"max":166,"target":"present","response":"present","rt":614.59999999404,"correct":true,"confidence":3},{"trial_n":41,"min":90,"max":165,"target":"absent","response":"absent","rt":1142.200000003,"correct":true,"confidence":3},{"trial_n":42,"min":90,"max":165,"target":"present","response":"present","rt":1358.799999997,"correct":true,"confidence":4},{"trial_n":43,"min":91,"max":164,"target":"present","response":"absent","rt":2444,"correct":false,"confidence":3},{"trial_n":44,"min":90,"max":165,"target":"present","response":"absent","rt":1048.1000000089,"correct":false,"confidence":3},{"trial_n":45,"min":89,"max":166,"target":"present","response":"present","rt":2021.799999997,"correct":true,"confidence":4},{"trial_n":46,"min":89,"max":166,"target":"absent","response":"present","rt":1391.900000006,"correct":false,"confidence":3},{"trial_n":47,"min":88,"max":167,"target":"absent","response":"present","rt":887.70000000298,"correct":false,"confidence":2},{"trial_n":48,"min":87,"max":168,"target":"present","response":"absent","rt":1219.400000006,"correct":false,"confidence":3},{"trial_n":49,"min":86,"max":169,"target":"present","response":"present","rt":794.79999999702,"correct":true,"confidence":5},{"trial_n":50,"min":86,"max":169,"target":"absent","response":"absent","rt":853.5,"correct":true,"confidence":3},{"trial_n":51,"min":87,"max":168,"target":"absent","response":"absent","rt":1030.299999997,"correct":true,"confidence":2},{"trial_n":52,"min":87,"max":168,"target":"present","response":"present","rt":684.69999998808,"correct":true,"confidence":3},{"trial_n":53,"min":88,"max":167,"target":"present","response":"present","rt":838,"correct":true,"confidence":1},{"trial_n":54,"min":88,"max":167,"target":"absent","response":"present","rt":579.19999998808,"correct":false,"confidence":1},{"trial_n":55,"min":87,"max":168,"target":"present","response":"present","rt":420.10000000894,"correct":true,"confidence":1},{"trial_n":56,"min":87,"max":168,"target":"present","response":"absent","rt":1348.1000000089,"correct":false,"confidence":3},{"trial_n":57,"min":86,"max":169,"target":"absent","response":"absent","rt":803.5,"correct":true,"confidence":3},{"trial_n":58,"min":86,"max":169,"target":"absent","response":"present","rt":739.29999999702,"correct":false,"confidence":3},{"trial_n":59,"min":85,"max":170,"target":"absent","response":"absent","rt":922.89999999106,"correct":true,"confidence":1},{"trial_n":60,"min":85,"max":170,"target":"absent","response":"absent","rt":460.90000000596,"correct":true,"confidence":1},{"trial_n":61,"min":86,"max":169,"target":"absent","response":"absent","rt":1807.799999997,"correct":true,"confidence":1},{"trial_n":62,"min":86,"max":169,"target":"present","response":"absent","rt":822.89999999106,"correct":false,"confidence":1},{"trial_n":63,"min":85,"max":170,"target":"present","response":"absent","rt":567.90000000596,"correct":false,"confidence":1},{"trial_n":64,"min":84,"max":171,"target":"absent","response":"absent","rt":1376.700000003,"correct":true,"confidence":1},{"trial_n":65,"min":84,"max":171,"target":"absent","response":"absent","rt":2.3000000119209,"correct":true,"confidence":1},{"trial_n":66,"min":85,"max":170,"target":"absent","response":"absent","rt":3152.200000003,"correct":true,"confidence":2},{"trial_n":67,"min":85,"max":170,"target":"absent","response":"absent","rt":727.89999999106,"correct":true,"confidence":2},{"trial_n":68,"min":86,"max":169,"target":"present","response":"present","rt":1219,"correct":true,"confidence":3},{"trial_n":69,"min":86,"max":169,"target":"absent","response":"absent","rt":872.29999999702,"correct":true,"confidence":2},{"trial_n":70,"min":87,"max":168,"target":"absent","response":"absent","rt":2632.299999997,"correct":true,"confidence":2},{"trial_n":71,"min":41,"max":214,"target":"present","response":"present","rt":5018.5,"correct":true,"confidence":-1},{"trial_n":72,"min":41,"max":214,"target":"present","response":"present","rt":139.10000000894,"correct":true,"confidence":-1},{"trial_n":73,"min":57,"max":198,"target":"absent","response":"absent","rt":1003.5,"correct":true,"confidence":-1},{"trial_n":74,"min":57,"max":198,"target":"absent","response":"absent","rt":932.29999999702,"correct":true,"confidence":-1},{"trial_n":75,"min":73,"max":182,"target":"present","response":"absent","rt":460.20000000298,"correct":false,"confidence":-1},{"trial_n":76,"min":57,"max":198,"target":"present","response":"present","rt":632.5,"correct":true,"confidence":-1},{"trial_n":77,"min":57,"max":198,"target":"present","response":"absent","rt":732.60000000894,"correct":false,"confidence":-1},{"trial_n":78,"min":41,"max":214,"target":"present","response":"present","rt":1279.299999997,"correct":true,"confidence":-1},{"trial_n":79,"min":41,"max":214,"target":"absent","response":"absent","rt":419.20000000298,"correct":true,"confidence":-1},{"trial_n":80,"min":57,"max":198,"target":"absent","response":"present","rt":867.39999999106,"correct":false,"confidence":-1},{"trial_n":81,"min":49,"max":206,"target":"present","response":"present","rt":747.29999999702,"correct":true,"confidence":-1},{"trial_n":82,"min":49,"max":206,"target":"absent","response":"absent","rt":724.70000000298,"correct":true,"confidence":-1},{"trial_n":83,"min":57,"max":198,"target":"present","response":"absent","rt":3184.6000000089,"correct":false,"confidence":-1},{"trial_n":84,"min":49,"max":206,"target":"present","response":"present","rt":647.70000000298,"correct":true,"confidence":-1},{"trial_n":85,"min":49,"max":206,"target":"present","response":"present","rt":589.59999999404,"correct":true,"confidence":-1},{"trial_n":86,"min":57,"max":198,"target":"absent","response":"absent","rt":667,"correct":true,"confidence":-1},{"trial_n":87,"min":57,"max":198,"target":"present","response":"present","rt":1071.1000000089,"correct":true,"confidence":-1},{"trial_n":88,"min":65,"max":190,"target":"absent","response":"absent","rt":781.5,"correct":true,"confidence":-1},{"trial_n":89,"min":65,"max":190,"target":"absent","response":"absent","rt":1825,"correct":true,"confidence":-1},{"trial_n":90,"min":73,"max":182,"target":"present","response":"present","rt":627.59999999404,"correct":true,"confidence":-1},{"trial_n":91,"min":73,"max":182,"target":"absent","response":"absent","rt":952.80000001192,"correct":true,"confidence":3},{"trial_n":92,"min":77,"max":178,"target":"absent","response":"absent","rt":532.20000000298,"correct":true,"confidence":4},{"trial_n":93,"min":77,"max":178,"target":"present","response":"present","rt":2355.3999999911,"correct":true,"confidence":2},{"trial_n":94,"min":81,"max":174,"target":"present","response":"present","rt":982.5,"correct":true,"confidence":4},{"trial_n":95,"min":81,"max":174,"target":"absent","response":"absent","rt":911.5,"correct":true,"confidence":3},{"trial_n":96,"min":85,"max":170,"target":"absent","response":"absent","rt":1482,"correct":true,"confidence":3},{"trial_n":97,"min":85,"max":170,"target":"absent","response":"absent","rt":554.89999999106,"correct":true,"confidence":3},{"trial_n":98,"min":89,"max":166,"target":"absent","response":"absent","rt":1780,"correct":true,"confidence":2},{"trial_n":99,"min":89,"max":166,"target":"present","response":"present","rt":2948,"correct":true,"confidence":1},{"trial_n":100,"min":93,"max":162,"target":"present","response":"present","rt":918.90000000596,"correct":true,"confidence":1},{"trial_n":101,"min":93,"max":162,"target":"absent","response":"absent","rt":3065,"correct":true,"confidence":2},{"trial_n":102,"min":95,"max":160,"target":"present","response":"present","rt":1170.700000003,"correct":true,"confidence":2},{"trial_n":103,"min":95,"max":160,"target":"absent","response":"present","rt":7310.5,"correct":false,"confidence":1},{"trial_n":104,"min":93,"max":162,"target":"absent","response":"present","rt":1123.099999994,"correct":false,"confidence":1},{"trial_n":105,"min":91,"max":164,"target":"present","response":"present","rt":499,"correct":true,"confidence":1},{"trial_n":106,"min":91,"max":164,"target":"absent","response":"present","rt":862,"correct":false,"confidence":1},{"trial_n":107,"min":89,"max":166,"target":"present","response":"absent","rt":371.40000000596,"correct":false,"confidence":1},{"trial_n":108,"min":87,"max":168,"target":"absent","response":"present","rt":402.40000000596,"correct":false,"confidence":1},{"trial_n":109,"min":85,"max":170,"target":"present","response":"absent","rt":253,"correct":false,"confidence":1},{"trial_n":110,"min":83,"max":172,"target":"present","response":"absent","rt":1199.700000003,"correct":false,"confidence":1},{"trial_n":111,"min":82,"max":173,"target":"absent","response":"absent","rt":609.20000000298,"correct":true,"confidence":1},{"trial_n":112,"min":82,"max":173,"target":"present","response":"present","rt":322.5,"correct":true,"confidence":1},{"trial_n":113,"min":83,"max":172,"target":"present","response":"present","rt":762.5,"correct":true,"confidence":3},{"trial_n":114,"min":83,"max":172,"target":"present","response":"absent","rt":618.39999999106,"correct":false,"confidence":3},{"trial_n":115,"min":82,"max":173,"target":"absent","response":"present","rt":1182.5,"correct":false,"confidence":2},{"trial_n":116,"min":81,"max":174,"target":"absent","response":"absent","rt":1889.799999997,"correct":true,"confidence":3},{"trial_n":117,"min":81,"max":174,"target":"absent","response":"absent","rt":8300.6000000089,"correct":true,"confidence":1},{"trial_n":118,"min":82,"max":173,"target":"present","response":"present","rt":653.5,"correct":true,"confidence":3},{"trial_n":119,"min":82,"max":173,"target":"present","response":"present","rt":1071.6000000089,"correct":true,"confidence":3},{"trial_n":120,"min":83,"max":172,"target":"present","response":"present","rt":925.29999999702,"correct":true,"confidence":1},{"trial_n":121,"min":83,"max":172,"target":"absent","response":"present","rt":578.80000001192,"correct":false,"confidence":1},{"trial_n":122,"min":82,"max":173,"target":"present","response":"present","rt":1180.700000003,"correct":true,"confidence":3},{"trial_n":123,"min":82,"max":173,"target":"present","response":"present","rt":473,"correct":true,"confidence":3},{"trial_n":124,"min":83,"max":172,"target":"absent","response":"absent","rt":728.79999999702,"correct":true,"confidence":4},{"trial_n":125,"min":83,"max":172,"target":"absent","response":"absent","rt":1236.299999997,"correct":true,"confidence":2},{"trial_n":126,"min":84,"max":171,"target":"absent","response":"absent","rt":1420.6999999881,"correct":true,"confidence":1},{"trial_n":127,"min":84,"max":171,"target":"present","response":"present","rt":1310.700000003,"correct":true,"confidence":3},{"trial_n":128,"min":85,"max":170,"target":"absent","response":"absent","rt":1763.900000006,"correct":true,"confidence":1},{"trial_n":129,"min":85,"max":170,"target":"absent","response":"present","rt":656.10000000894,"correct":false,"confidence":1},{"trial_n":130,"min":84,"max":171,"target":"present","response":"present","rt":1290.400000006,"correct":true,"confidence":3},{"trial_n":131,"min":84,"max":171,"target":"present","response":"present","rt":967.90000000596,"correct":true,"confidence":4},{"trial_n":132,"min":85,"max":170,"target":"absent","response":"absent","rt":987.60000000894,"correct":true,"confidence":1},{"trial_n":133,"min":85,"max":170,"target":"absent","response":"present","rt":345.70000000298,"correct":false,"confidence":1},{"trial_n":134,"min":84,"max":171,"target":"present","response":"present","rt":940.59999999404,"correct":true,"confidence":3},{"trial_n":135,"min":84,"max":171,"target":"absent","response":"absent","rt":907.10000000894,"correct":true,"confidence":1},{"trial_n":136,"min":85,"max":170,"target":"present","response":"present","rt":806.69999998808,"correct":true,"confidence":3},{"trial_n":137,"min":85,"max":170,"target":"absent","response":"absent","rt":1126.900000006,"correct":true,"confidence":2},{"trial_n":138,"min":86,"max":169,"target":"absent","response":"present","rt":1351.200000003,"correct":false,"confidence":2},{"trial_n":139,"min":85,"max":170,"target":"present","response":"present","rt":884.40000000596,"correct":true,"confidence":2},{"trial_n":140,"min":85,"max":170,"target":"present","response":"present","rt":460.09999999404,"correct":true,"confidence":2}]