[{"trial_n":1,"span":8,"encoder":"83891241","distractor":"83871241","target":"present","response":"present","rt":"2801.7000000477","correct":true,"confidence":-1},{"trial_n":2,"span":8,"encoder":"28676735","distractor":"98676735","target":"present","response":"present","rt":"2188.2999999523","correct":true,"confidence":-1},{"trial_n":3,"span":10,"encoder":"3249532735","distractor":"3249536735","target":"absent","response":"absent","rt":"2499.2999999523","correct":true,"confidence":-1},{"trial_n":4,"span":10,"encoder":"5517015704","distractor":"5517015714","target":"absent","response":"absent","rt":"4038.5999999046","correct":true,"confidence":-1},{"trial_n":5,"span":12,"encoder":"352748697516","distractor":"352748397516","target":"present","response":"present","rt":"2512.2000000477","correct":true,"confidence":-1},{"trial_n":6,"span":12,"encoder":"129795903698","distractor":"129795803698","target":"absent","response":"present","rt":"1960","correct":false,"confidence":-1},{"trial_n":7,"span":10,"encoder":"8898233098","distractor":"8898233095","target":"absent","response":"present","rt":"5500.1000001431","correct":false,"confidence":-1},{"trial_n":8,"span":8,"encoder":"38243731","distractor":"38243741","target":"absent","response":"absent","rt":"2456.2999999523","correct":true,"confidence":-1},{"trial_n":9,"span":8,"encoder":"90950551","distractor":"90940551","target":"present","response":"present","rt":"2090.3000001907","correct":true,"confidence":-1},{"trial_n":10,"span":10,"encoder":"0142689916","distractor":"0142689919","target":"present","response":"present","rt":"1563.0999999046","correct":true,"confidence":-1},{"trial_n":11,"span":10,"encoder":"3255506107","distractor":"3255506197","target":"absent","response":"absent","rt":"2399.5999999046","correct":true,"confidence":-1},{"trial_n":12,"span":11,"encoder":"66408252662","distractor":"66408752662","target":"absent","response":"present","rt":"2220.9000000954","correct":false,"confidence":-1},{"trial_n":13,"span":10,"encoder":"7402881599","distractor":"7402881399","target":"absent","response":"present","rt":"1297.5","correct":false,"confidence":-1},{"trial_n":14,"span":9,"encoder":"367178850","distractor":"387178850","target":"absent","response":"present","rt":"2284","correct":false,"confidence":-1},{"trial_n":15,"span":8,"encoder":"82354338","distractor":"82354348","target":"present","response":"absent","rt":"1330.7999999523","correct":false,"confidence":-1},{"trial_n":16,"span":7,"encoder":"4228504","distractor":"4228502","target":"present","response":"present","rt":"1911.2000000477","correct":true,"confidence":-1},{"trial_n":17,"span":7,"encoder":"0401065","distractor":"0401565","target":"present","response":"present","rt":"2162.2000000477","correct":true,"confidence":-1},{"trial_n":18,"span":8,"encoder":"41681105","distractor":"41681005","target":"present","response":"present","rt":"1996.7000000477","correct":true,"confidence":-1},{"trial_n":19,"span":8,"encoder":"91099097","distractor":"91099027","target":"absent","response":"present","rt":"1867.6999998093","correct":false,"confidence":-1},{"trial_n":20,"span":7,"encoder":"5127263","distractor":"1127263","target":"present","response":"present","rt":"2673","correct":true,"confidence":-1},{"trial_n":21,"span":7,"encoder":"7621483","distractor":"7622483","target":"present","response":"absent","rt":"2265.8999998569","correct":false,"confidence":1},{"trial_n":22,"span":6,"encoder":"426603","distractor":"126603","target":"present","response":"present","rt":"1489.8999998569","correct":true,"confidence":5},{"trial_n":23,"span":6,"encoder":"763881","distractor":"763801","target":"present","response":"present","rt":"1447.4000000954","correct":true,"confidence":5},{"trial_n":24,"span":7,"encoder":"3105220","distractor":"3205220","target":"absent","response":"absent","rt":"2481.5999999046","correct":true,"confidence":3},{"trial_n":25,"span":7,"encoder":"2677208","distractor":"2670208","target":"absent","response":"absent","rt":"1769","correct":true,"confidence":4},{"trial_n":26,"span":8,"encoder":"73477295","distractor":"73477292","target":"absent","response":"present","rt":"1793.7000000477","correct":false,"confidence":1},{"trial_n":27,"span":7,"encoder":"9231817","distractor":"7231817","target":"absent","response":"present","rt":"18391.5","correct":false,"confidence":3},{"trial_n":28,"span":6,"encoder":"920320","distractor":"920380","target":"absent","response":"absent","rt":"6176.4000000954","correct":true,"confidence":4},{"trial_n":29,"span":6,"encoder":"212700","distractor":"912700","target":"present","response":"present","rt":"1981.2999999523","correct":true,"confidence":4},{"trial_n":30,"span":7,"encoder":"3711437","distractor":"3731437","target":"absent","response":"absent","rt":"4649.2000000477","correct":true,"confidence":1},{"trial_n":31,"span":7,"encoder":"7970471","distractor":"7370471","target":"present","response":"present","rt":"2660.0999999046","correct":true,"confidence":2},{"trial_n":32,"span":8,"encoder":"90636380","distractor":"90636280","target":"present","response":"absent","rt":"4366.5","correct":false,"confidence":2},{"trial_n":33,"span":7,"encoder":"2336693","distractor":"2336633","target":"present","response":"present","rt":"2259.0999999046","correct":true,"confidence":3},{"trial_n":34,"span":7,"encoder":"3737809","distractor":"3737807","target":"absent","response":"absent","rt":"2836.2999999523","correct":true,"confidence":4},{"trial_n":35,"span":8,"encoder":"56131577","distractor":"56931577","target":"present","response":"present","rt":"2580.5999999046","correct":true,"confidence":4},{"trial_n":36,"span":8,"encoder":"52438828","distractor":"52436828","target":"absent","response":"absent","rt":"2872.1000001431","correct":true,"confidence":5},{"trial_n":37,"span":9,"encoder":"274556247","distractor":"274566247","target":"present","response":"present","rt":"1508.0999999046","correct":true,"confidence":3},{"trial_n":38,"span":9,"encoder":"350846773","distractor":"350846772","target":"absent","response":"absent","rt":"2555.2000000477","correct":true,"confidence":1},{"trial_n":39,"span":10,"encoder":"7234599424","distractor":"1234599424","target":"absent","response":"absent","rt":"5926.7999999523","correct":true,"confidence":4},{"trial_n":40,"span":10,"encoder":"3632073244","distractor":"3532073244","target":"present","response":"present","rt":"3801.7999999523","correct":true,"confidence":2},{"trial_n":41,"span":11,"encoder":"54619893983","distractor":"54619823983","target":"present","response":"present","rt":"588.59999990463","correct":true,"confidence":4},{"trial_n":42,"span":11,"encoder":"50304077168","distractor":"50304077160","target":"absent","response":"absent","rt":"2193.5999999046","correct":true,"confidence":5},{"trial_n":43,"span":12,"encoder":"263491950303","distractor":"263492950303","target":"absent","response":"present","rt":"2744.8999998569","correct":false,"confidence":4},{"trial_n":44,"span":11,"encoder":"74201061450","distractor":"74201051450","target":"present","response":"absent","rt":"2042.2000000477","correct":false,"confidence":3},{"trial_n":45,"span":10,"encoder":"2854853287","distractor":"2864853287","target":"present","response":"present","rt":"2373.7000000477","correct":true,"confidence":3},{"trial_n":46,"span":10,"encoder":"2841886024","distractor":"2841886624","target":"present","response":"absent","rt":"2660.7999999523","correct":false,"confidence":3},{"trial_n":47,"span":9,"encoder":"671815017","distractor":"871815017","target":"present","response":"absent","rt":"1867.2000000477","correct":false,"confidence":2},{"trial_n":48,"span":8,"encoder":"83653214","distractor":"83653414","target":"present","response":"absent","rt":"1841.3000001907","correct":false,"confidence":3},{"trial_n":49,"span":7,"encoder":"9247915","distractor":"9247912","target":"absent","response":"absent","rt":"1806.2999999523","correct":true,"confidence":5},{"trial_n":50,"span":7,"encoder":"6488051","distractor":"6480051","target":"absent","response":"present","rt":"1979.3000001907","correct":false,"confidence":4},{"trial_n":51,"span":6,"encoder":"174002","distractor":"674002","target":"absent","response":"present","rt":"2433.7000000477","correct":false,"confidence":3},{"trial_n":52,"span":5,"encoder":"17830","distractor":"17833","target":"absent","response":"present","rt":"2834","correct":false,"confidence":3},{"trial_n":53,"span":4,"encoder":"8663","distractor":"3663","target":"present","response":"present","rt":"1775.2000000477","correct":true,"confidence":5},{"trial_n":54,"span":4,"encoder":"6481","distractor":"6781","target":"absent","response":"absent","rt":"2220.7000000477","correct":true,"confidence":4},{"trial_n":55,"span":5,"encoder":"07324","distractor":"07326","target":"absent","response":"absent","rt":"1721.3999998569","correct":true,"confidence":5},{"trial_n":56,"span":5,"encoder":"24195","distractor":"24190","target":"absent","response":"absent","rt":"2149.6999998093","correct":true,"confidence":4},{"trial_n":57,"span":6,"encoder":"606499","distractor":"606497","target":"present","response":"present","rt":"1805.0999999046","correct":true,"confidence":3},{"trial_n":58,"span":6,"encoder":"271952","distractor":"471952","target":"absent","response":"present","rt":"1455","correct":false,"confidence":3},{"trial_n":59,"span":5,"encoder":"57400","distractor":"53400","target":"present","response":"present","rt":"654.09999990463","correct":true,"confidence":4},{"trial_n":60,"span":5,"encoder":"81985","distractor":"81885","target":"present","response":"present","rt":"1592.7000000477","correct":true,"confidence":3},{"trial_n":61,"span":6,"encoder":"952906","distractor":"954906","target":"absent","response":"present","rt":"2000.3000001907","correct":false,"confidence":2},{"trial_n":62,"span":5,"encoder":"32345","distractor":"22345","target":"present","response":"present","rt":"1155.5","correct":true,"confidence":2},{"trial_n":63,"span":5,"encoder":"35457","distractor":"35257","target":"absent","response":"present","rt":"1095.1000001431","correct":false,"confidence":4},{"trial_n":64,"span":4,"encoder":"8004","distractor":"8504","target":"present","response":"present","rt":"1485.5999999046","correct":true,"confidence":5},{"trial_n":65,"span":4,"encoder":"6352","distractor":"2352","target":"present","response":"present","rt":"1206.2000000477","correct":true,"confidence":5},{"trial_n":66,"span":5,"encoder":"77870","distractor":"77770","target":"absent","response":"absent","rt":"1596.4000000954","correct":true,"confidence":5},{"trial_n":67,"span":5,"encoder":"99038","distractor":"99338","target":"present","response":"present","rt":"2170","correct":true,"confidence":4},{"trial_n":68,"span":6,"encoder":"552849","distractor":"552847","target":"present","response":"present","rt":"2866.5","correct":true,"confidence":3},{"trial_n":69,"span":6,"encoder":"618728","distractor":"618708","target":"absent","response":"absent","rt":"1916.8999998569","correct":true,"confidence":2},{"trial_n":70,"span":7,"encoder":"0652685","distractor":"0652665","target":"present","response":"present","rt":"2458.8000001907","correct":true,"confidence":3},{"trial_n":71,"span":8,"encoder":"53191592","distractor":"53791592","target":"present","response":"present","rt":"6721.2000000477","correct":true,"confidence":-1},{"trial_n":72,"span":8,"encoder":"91551946","distractor":"91551948","target":"present","response":"present","rt":"2966.0999999046","correct":true,"confidence":-1},{"trial_n":73,"span":9,"encoder":"685542315","distractor":"685543315","target":"absent","response":"absent","rt":"4223.8999998569","correct":true,"confidence":-1},{"trial_n":74,"span":9,"encoder":"031376766","distractor":"031376726","target":"absent","response":"absent","rt":"1845.5999999046","correct":true,"confidence":-1},{"trial_n":75,"span":10,"encoder":"2361797702","distractor":"2361797701","target":"present","response":"absent","rt":"1634","correct":false,"confidence":-1},{"trial_n":76,"span":9,"encoder":"804683453","distractor":"804623453","target":"present","response":"present","rt":"1386.2999999523","correct":true,"confidence":-1},{"trial_n":77,"span":9,"encoder":"688693752","distractor":"688693755","target":"absent","response":"absent","rt":"1648.5","correct":true,"confidence":-1},{"trial_n":78,"span":10,"encoder":"7472024239","distractor":"7472024237","target":"absent","response":"absent","rt":"4626.4000000954","correct":true,"confidence":-1},{"trial_n":79,"span":10,"encoder":"5810833045","distractor":"5810833945","target":"absent","response":"absent","rt":"2296.7999999523","correct":true,"confidence":-1},{"trial_n":80,"span":11,"encoder":"46849411914","distractor":"46859411914","target":"present","response":"present","rt":"2237.8000001907","correct":true,"confidence":-1},{"trial_n":81,"span":11,"encoder":"37502697948","distractor":"35502697948","target":"present","response":"present","rt":"1499.6999998093","correct":true,"confidence":-1},{"trial_n":82,"span":12,"encoder":"096722085411","distractor":"092722085411","target":"present","response":"absent","rt":"1306.3000001907","correct":false,"confidence":-1},{"trial_n":83,"span":11,"encoder":"33311039576","distractor":"33311939576","target":"present","response":"present","rt":"3859.7000000477","correct":true,"confidence":-1},{"trial_n":84,"span":11,"encoder":"26349156236","distractor":"26341156236","target":"present","response":"present","rt":"1484.2999999523","correct":true,"confidence":-1},{"trial_n":85,"span":12,"encoder":"805781699951","distractor":"885781699951","target":"present","response":"present","rt":"1269.5","correct":true,"confidence":-1},{"trial_n":86,"span":12,"encoder":"396631643773","distractor":"396639643773","target":"absent","response":"absent","rt":"1270.3000001907","correct":true,"confidence":-1},{"trial_n":87,"span":13,"encoder":"5120987555171","distractor":"5620987555171","target":"absent","response":"absent","rt":"9404.2999999523","correct":true,"confidence":-1},{"trial_n":88,"span":13,"encoder":"3270411025489","distractor":"3272411025489","target":"present","response":"absent","rt":"3572.0999999046","correct":false,"confidence":-1},{"trial_n":89,"span":12,"encoder":"148211922100","distractor":"148251922100","target":"absent","response":"absent","rt":"4873.5999999046","correct":true,"confidence":-1},{"trial_n":90,"span":12,"encoder":"364343204111","distractor":"364348204111","target":"absent","response":"absent","rt":"1972.5","correct":true,"confidence":-1},{"trial_n":91,"span":13,"encoder":"7125464563165","distractor":"8125464563165","target":"present","response":"present","rt":"1844","correct":true,"confidence":1},{"trial_n":92,"span":13,"encoder":"0275789231260","distractor":"0275789281260","target":"absent","response":"absent","rt":"4367","correct":true,"confidence":2},{"trial_n":93,"span":14,"encoder":"77700876946603","distractor":"77100876946603","target":"present","response":"present","rt":"3041.6999998093","correct":true,"confidence":3},{"trial_n":94,"span":14,"encoder":"24303750194199","distractor":"24303770194199","target":"present","response":"present","rt":"4562.0999999046","correct":true,"confidence":1},{"trial_n":95,"span":15,"encoder":"091730298183296","distractor":"091730298163296","target":"present","response":"present","rt":"2146","correct":true,"confidence":1},{"trial_n":96,"span":15,"encoder":"767820494068695","distractor":"767120494068695","target":"absent","response":"absent","rt":"4645.2999999523","correct":true,"confidence":1},{"trial_n":97,"span":16,"encoder":"2377453531469695","distractor":"2337453531469695","target":"absent","response":"absent","rt":"6209.6999998093","correct":true,"confidence":1},{"trial_n":98,"span":16,"encoder":"7193482828864720","distractor":"7163482828864720","target":"absent","response":"present","rt":"2376.6999998093","correct":false,"confidence":1},{"trial_n":99,"span":15,"encoder":"843752934038918","distractor":"843752334038918","target":"present","response":"absent","rt":"2302.0999999046","correct":false,"confidence":1},{"trial_n":100,"span":14,"encoder":"82294253046737","distractor":"81294253046737","target":"present","response":"present","rt":"4380.7999999523","correct":true,"confidence":1},{"trial_n":101,"span":14,"encoder":"05918299920555","distractor":"05978299920555","target":"present","response":"present","rt":"4766.3000001907","correct":true,"confidence":1},{"trial_n":102,"span":15,"encoder":"316473119736777","distractor":"316473112736777","target":"absent","response":"absent","rt":"5087.5999999046","correct":true,"confidence":3},{"trial_n":103,"span":15,"encoder":"889057455594904","distractor":"885057455594904","target":"absent","response":"absent","rt":"3109.8999998569","correct":true,"confidence":2},{"trial_n":104,"span":16,"encoder":"1138692109637923","distractor":"1138692809637923","target":"present","response":"absent","rt":"2915.2000000477","correct":false,"confidence":1},{"trial_n":105,"span":15,"encoder":"218962889425553","distractor":"278962889425553","target":"absent","response":"absent","rt":"1968.6000001431","correct":true,"confidence":1},{"trial_n":106,"span":15,"encoder":"513048882020666","distractor":"513048882060666","target":"absent","response":"present","rt":"2387.2999999523","correct":false,"confidence":1},{"trial_n":107,"span":14,"encoder":"43668795520125","distractor":"43666795520125","target":"absent","response":"absent","rt":"2151.1000001431","correct":true,"confidence":1},{"trial_n":108,"span":14,"encoder":"97580105512933","distractor":"97589105512933","target":"present","response":"present","rt":"4734.3999998569","correct":true,"confidence":1},{"trial_n":109,"span":15,"encoder":"165419295160311","distractor":"165419295660311","target":"present","response":"present","rt":"4184.7000000477","correct":true,"confidence":2},{"trial_n":110,"span":15,"encoder":"070833197324631","distractor":"070833117324631","target":"present","response":"absent","rt":"1937.6000001431","correct":false,"confidence":1},{"trial_n":111,"span":14,"encoder":"57732085288870","distractor":"17732085288870","target":"present","response":"absent","rt":"2519.7999999523","correct":false,"confidence":1},{"trial_n":112,"span":13,"encoder":"2624590725885","distractor":"2684590725885","target":"absent","response":"absent","rt":"2002.4000000954","correct":true,"confidence":5},{"trial_n":113,"span":13,"encoder":"1100070889210","distractor":"1100170889210","target":"present","response":"absent","rt":"2327.9000000954","correct":false,"confidence":3},{"trial_n":114,"span":12,"encoder":"014210532406","distractor":"014210552406","target":"absent","response":"absent","rt":"5358.2000000477","correct":true,"confidence":3},{"trial_n":115,"span":12,"encoder":"203631220068","distractor":"203631228068","target":"present","response":"present","rt":"4506.1000001431","correct":true,"confidence":4},{"trial_n":116,"span":13,"encoder":"8696278198847","distractor":"8696078198847","target":"absent","response":"present","rt":"4903.1999998093","correct":false,"confidence":4},{"trial_n":117,"span":12,"encoder":"069427089035","distractor":"069427089095","target":"absent","response":"present","rt":"2840.3999998569","correct":false,"confidence":2},{"trial_n":118,"span":11,"encoder":"25358053494","distractor":"25358033494","target":"absent","response":"present","rt":"2134.7999999523","correct":false,"confidence":2},{"trial_n":119,"span":10,"encoder":"8923936742","distractor":"8913936742","target":"present","response":"absent","rt":"3116","correct":false,"confidence":3},{"trial_n":120,"span":9,"encoder":"483254724","distractor":"483154724","target":"present","response":"present","rt":"3452.2000000477","correct":true,"confidence":5},{"trial_n":121,"span":9,"encoder":"691428257","distractor":"291428257","target":"present","response":"present","rt":"1320.7000000477","correct":true,"confidence":2},{"trial_n":122,"span":10,"encoder":"6338460070","distractor":"6328460070","target":"absent","response":"absent","rt":"1471","correct":true,"confidence":2},{"trial_n":123,"span":10,"encoder":"9732159931","distractor":"9732159431","target":"present","response":"present","rt":"4464.5","correct":true,"confidence":4},{"trial_n":124,"span":11,"encoder":"49736118278","distractor":"49736148278","target":"absent","response":"absent","rt":"2099.7000000477","correct":true,"confidence":3},{"trial_n":125,"span":11,"encoder":"97626747362","distractor":"97626742362","target":"present","response":"absent","rt":"2074.0999999046","correct":false,"confidence":3},{"trial_n":126,"span":10,"encoder":"4455854148","distractor":"4455854108","target":"absent","response":"present","rt":"3776.2999999523","correct":false,"confidence":2},{"trial_n":127,"span":9,"encoder":"165083062","distractor":"167083062","target":"present","response":"present","rt":"6506.7999999523","correct":true,"confidence":2},{"trial_n":128,"span":9,"encoder":"116834091","distractor":"116034091","target":"absent","response":"absent","rt":"1981.5","correct":true,"confidence":3},{"trial_n":129,"span":10,"encoder":"7432259543","distractor":"4432259543","target":"absent","response":"present","rt":"1929.2000000477","correct":false,"confidence":2},{"trial_n":130,"span":9,"encoder":"032620782","distractor":"052620782","target":"present","response":"absent","rt":"1557","correct":false,"confidence":3},{"trial_n":131,"span":8,"encoder":"90576759","distractor":"90572759","target":"absent","response":"present","rt":"2543.7000000477","correct":false,"confidence":3},{"trial_n":132,"span":7,"encoder":"2548310","distractor":"2548315","target":"absent","response":"absent","rt":"1337.5","correct":true,"confidence":5},{"trial_n":133,"span":7,"encoder":"2715383","distractor":"2715883","target":"absent","response":"present","rt":"3324.8999998569","correct":false,"confidence":3},{"trial_n":134,"span":6,"encoder":"322741","distractor":"522741","target":"absent","response":"present","rt":"3331.5","correct":false,"confidence":2},{"trial_n":135,"span":5,"encoder":"57586","distractor":"57576","target":"present","response":"absent","rt":"2200.8999998569","correct":false,"confidence":3},{"trial_n":136,"span":4,"encoder":"7069","distractor":"7067","target":"present","response":"present","rt":"2483.0999999046","correct":true,"confidence":2},{"trial_n":137,"span":4,"encoder":"1469","distractor":"2469","target":"absent","response":"absent","rt":"1774.6000001431","correct":true,"confidence":5},{"trial_n":138,"span":5,"encoder":"94903","distractor":"74903","target":"present","response":"present","rt":"5252.5","correct":true,"confidence":5},{"trial_n":139,"span":5,"encoder":"68860","distractor":"68868","target":"absent","response":"absent","rt":"2109.0999999046","correct":true,"confidence":5},{"trial_n":140,"span":6,"encoder":"258052","distractor":"228052","target":"present","response":"present","rt":"2805.3000001907","correct":true,"confidence":5}]