[{"trial_n":1,"n_dots":4.25,"target":"right","response":"left","rt":6710,"correct":false,"confidence":-1},{"trial_n":2,"n_dots":4.25,"target":"left","response":"left","rt":620,"correct":true,"confidence":-1},{"trial_n":3,"n_dots":4.25,"target":"left","response":"left","rt":156,"correct":true,"confidence":-1},{"trial_n":4,"n_dots":3.85,"target":"right","response":"right","rt":-113,"correct":true,"confidence":-1},{"trial_n":5,"n_dots":3.85,"target":"left","response":"left","rt":32.000000000466,"correct":true,"confidence":-1},{"trial_n":6,"n_dots":3.45,"target":"right","response":"right","rt":2771.0000000005,"correct":true,"confidence":-1},{"trial_n":7,"n_dots":3.45,"target":"right","response":"left","rt":163,"correct":false,"confidence":-1},{"trial_n":8,"n_dots":3.65,"target":"right","response":"right","rt":1065.9999999995,"correct":true,"confidence":-1},{"trial_n":9,"n_dots":3.65,"target":"left","response":"left","rt":272,"correct":true,"confidence":-1},{"trial_n":10,"n_dots":3.45,"target":"left","response":"left","rt":142,"correct":true,"confidence":-1},{"trial_n":11,"n_dots":3.45,"target":"left","response":"right","rt":69,"correct":false,"confidence":-1},{"trial_n":12,"n_dots":3.65,"target":"right","response":"left","rt":365,"correct":false,"confidence":-1},{"trial_n":13,"n_dots":3.75,"target":"left","response":"left","rt":90,"correct":true,"confidence":-1},{"trial_n":14,"n_dots":3.75,"target":"right","response":"right","rt":561.99999999953,"correct":true,"confidence":-1},{"trial_n":15,"n_dots":3.65,"target":"right","response":"right","rt":219,"correct":true,"confidence":-1},{"trial_n":16,"n_dots":3.65,"target":"left","response":"left","rt":276.00000000047,"correct":true,"confidence":-1},{"trial_n":17,"n_dots":3.55,"target":"left","response":"left","rt":190,"correct":true,"confidence":-1},{"trial_n":18,"n_dots":3.55,"target":"left","response":"right","rt":359,"correct":false,"confidence":-1},{"trial_n":19,"n_dots":3.65,"target":"left","response":"left","rt":267,"correct":true,"confidence":-1},{"trial_n":20,"n_dots":3.65,"target":"right","response":"right","rt":1187.9999999995,"correct":true,"confidence":-1},{"trial_n":21,"n_dots":3.55,"target":"right","response":"right","rt":196,"correct":true,"confidence":3},{"trial_n":22,"n_dots":3.55,"target":"left","response":"left","rt":219.00000000047,"correct":true,"confidence":4},{"trial_n":23,"n_dots":3.45,"target":"left","response":"right","rt":341,"correct":false,"confidence":3},{"trial_n":24,"n_dots":3.55,"target":"right","response":"right","rt":207,"correct":true,"confidence":3},{"trial_n":25,"n_dots":3.55,"target":"right","response":"right","rt":450.00000000047,"correct":true,"confidence":3},{"trial_n":26,"n_dots":3.45,"target":"left","response":"right","rt":853,"correct":false,"confidence":2},{"trial_n":27,"n_dots":3.55,"target":"left","response":"left","rt":227,"correct":true,"confidence":3},{"trial_n":28,"n_dots":3.55,"target":"left","response":"left","rt":150,"correct":true,"confidence":4},{"trial_n":29,"n_dots":3.45,"target":"right","response":"right","rt":241,"correct":true,"confidence":4},{"trial_n":30,"n_dots":3.45,"target":"right","response":"right","rt":1834,"correct":true,"confidence":2},{"trial_n":31,"n_dots":3.35,"target":"left","response":"left","rt":2877,"correct":true,"confidence":2},{"trial_n":32,"n_dots":3.35,"target":"left","response":"left","rt":431,"correct":true,"confidence":4},{"trial_n":33,"n_dots":3.25,"target":"left","response":"left","rt":461,"correct":true,"confidence":4},{"trial_n":34,"n_dots":3.25,"target":"right","response":"right","rt":188,"correct":true,"confidence":4},{"trial_n":35,"n_dots":3.15,"target":"left","response":"left","rt":206.99999999953,"correct":true,"confidence":3},{"trial_n":36,"n_dots":3.15,"target":"right","response":"right","rt":400.99999999953,"correct":true,"confidence":3},{"trial_n":37,"n_dots":3.05,"target":"left","response":"right","rt":767.00000000047,"correct":false,"confidence":2},{"trial_n":38,"n_dots":3.15,"target":"left","response":"left","rt":450,"correct":true,"confidence":2},{"trial_n":39,"n_dots":3.15,"target":"left","response":"left","rt":454.00000000047,"correct":true,"confidence":3},{"trial_n":40,"n_dots":3.05,"target":"left","response":"left","rt":208,"correct":true,"confidence":4},{"trial_n":41,"n_dots":3.05,"target":"left","response":"left","rt":290.00000000047,"correct":true,"confidence":3},{"trial_n":42,"n_dots":2.95,"target":"left","response":"left","rt":373,"correct":true,"confidence":3},{"trial_n":43,"n_dots":2.95,"target":"left","response":"left","rt":1011,"correct":true,"confidence":3},{"trial_n":44,"n_dots":2.85,"target":"left","response":"right","rt":2503.9999999995,"correct":false,"confidence":2},{"trial_n":45,"n_dots":2.95,"target":"left","response":"left","rt":2310,"correct":true,"confidence":2},{"trial_n":46,"n_dots":2.95,"target":"left","response":"right","rt":398.00000000047,"correct":false,"confidence":3},{"trial_n":47,"n_dots":3.05,"target":"left","response":"left","rt":473,"correct":true,"confidence":3},{"trial_n":48,"n_dots":3.05,"target":"right","response":"right","rt":609,"correct":true,"confidence":3},{"trial_n":49,"n_dots":2.95,"target":"left","response":"left","rt":1273,"correct":true,"confidence":4},{"trial_n":50,"n_dots":2.95,"target":"right","response":"left","rt":2278,"correct":false,"confidence":3},{"trial_n":51,"n_dots":3.05,"target":"left","response":"left","rt":298.00000000047,"correct":true,"confidence":4},{"trial_n":52,"n_dots":3.05,"target":"right","response":"right","rt":251,"correct":true,"confidence":3},{"trial_n":53,"n_dots":2.95,"target":"right","response":"right","rt":224,"correct":true,"confidence":3},{"trial_n":54,"n_dots":2.95,"target":"right","response":"right","rt":48.999999999534,"correct":true,"confidence":4},{"trial_n":55,"n_dots":2.85,"target":"left","response":"left","rt":176,"correct":true,"confidence":3},{"trial_n":56,"n_dots":2.85,"target":"right","response":"right","rt":40,"correct":true,"confidence":4},{"trial_n":57,"n_dots":2.75,"target":"left","response":"left","rt":-10,"correct":true,"confidence":4},{"trial_n":58,"n_dots":2.75,"target":"left","response":"left","rt":753.99999999953,"correct":true,"confidence":3},{"trial_n":59,"n_dots":2.65,"target":"left","response":"left","rt":186,"correct":true,"confidence":3},{"trial_n":60,"n_dots":2.65,"target":"left","response":"left","rt":161,"correct":true,"confidence":4},{"trial_n":61,"n_dots":2.55,"target":"right","response":"left","rt":4053,"correct":false,"confidence":3},{"trial_n":62,"n_dots":2.65,"target":"right","response":"right","rt":1110.9999999963,"correct":true,"confidence":3},{"trial_n":63,"n_dots":2.65,"target":"right","response":"right","rt":334,"correct":true,"confidence":3},{"trial_n":64,"n_dots":2.55,"target":"right","response":"left","rt":841,"correct":false,"confidence":3},{"trial_n":65,"n_dots":2.65,"target":"left","response":"left","rt":326,"correct":true,"confidence":4},{"trial_n":66,"n_dots":2.65,"target":"right","response":"right","rt":2091,"correct":true,"confidence":3},{"trial_n":67,"n_dots":2.55,"target":"right","response":"left","rt":2742,"correct":false,"confidence":2},{"trial_n":68,"n_dots":2.65,"target":"right","response":"left","rt":1003,"correct":false,"confidence":3},{"trial_n":69,"n_dots":2.75,"target":"left","response":"right","rt":1076,"correct":false,"confidence":2},{"trial_n":70,"n_dots":2.85,"target":"left","response":"left","rt":405,"correct":true,"confidence":3},{"trial_n":71,"n_dots":2.85,"target":"right","response":"right","rt":748,"correct":true,"confidence":3},{"trial_n":72,"n_dots":2.75,"target":"right","response":"right","rt":809,"correct":true,"confidence":2},{"trial_n":73,"n_dots":2.75,"target":"right","response":"left","rt":894,"correct":false,"confidence":4},{"trial_n":74,"n_dots":2.85,"target":"left","response":"left","rt":847.99999999627,"correct":true,"confidence":4},{"trial_n":75,"n_dots":2.85,"target":"right","response":"right","rt":1179,"correct":true,"confidence":3},{"trial_n":76,"n_dots":2.75,"target":"left","response":"left","rt":757,"correct":true,"confidence":3},{"trial_n":77,"n_dots":2.75,"target":"right","response":"right","rt":511.00000000373,"correct":true,"confidence":3},{"trial_n":78,"n_dots":2.65,"target":"right","response":"right","rt":693,"correct":true,"confidence":3},{"trial_n":79,"n_dots":2.65,"target":"right","response":"right","rt":858,"correct":true,"confidence":2},{"trial_n":80,"n_dots":2.55,"target":"right","response":"left","rt":1158,"correct":false,"confidence":1},{"trial_n":81,"n_dots":2.65,"target":"right","response":"right","rt":809.00000000373,"correct":true,"confidence":2},{"trial_n":82,"n_dots":2.65,"target":"left","response":"left","rt":329.99999999627,"correct":true,"confidence":3},{"trial_n":83,"n_dots":2.55,"target":"left","response":"right","rt":426,"correct":false,"confidence":4},{"trial_n":84,"n_dots":2.65,"target":"right","response":"left","rt":2366,"correct":false,"confidence":1},{"trial_n":85,"n_dots":2.75,"target":"left","response":"left","rt":562,"correct":true,"confidence":4},{"trial_n":86,"n_dots":2.75,"target":"left","response":"left","rt":316,"correct":true,"confidence":4},{"trial_n":87,"n_dots":2.65,"target":"left","response":"left","rt":1452,"correct":true,"confidence":3},{"trial_n":88,"n_dots":2.65,"target":"right","response":"right","rt":2747.0000000037,"correct":true,"confidence":3},{"trial_n":89,"n_dots":2.55,"target":"right","response":"right","rt":746,"correct":true,"confidence":3},{"trial_n":90,"n_dots":2.55,"target":"right","response":"right","rt":746,"correct":true,"confidence":4},{"trial_n":91,"n_dots":2.45,"target":"right","response":"left","rt":1745.0000000037,"correct":false,"confidence":2},{"trial_n":92,"n_dots":2.55,"target":"right","response":"left","rt":632,"correct":false,"confidence":2},{"trial_n":93,"n_dots":2.65,"target":"right","response":"left","rt":2668,"correct":false,"confidence":1},{"trial_n":94,"n_dots":2.75,"target":"right","response":"right","rt":2727,"correct":true,"confidence":1},{"trial_n":95,"n_dots":2.75,"target":"right","response":"left","rt":445,"correct":false,"confidence":2},{"trial_n":96,"n_dots":2.85,"target":"left","response":"left","rt":421,"correct":true,"confidence":3},{"trial_n":97,"n_dots":2.85,"target":"right","response":"right","rt":573,"correct":true,"confidence":3},{"trial_n":98,"n_dots":2.75,"target":"left","response":"left","rt":683,"correct":true,"confidence":3},{"trial_n":99,"n_dots":2.75,"target":"right","response":"right","rt":633,"correct":true,"confidence":3},{"trial_n":100,"n_dots":2.65,"target":"right","response":"right","rt":576.99999999627,"correct":true,"confidence":3},{"trial_n":101,"n_dots":2.65,"target":"right","response":"right","rt":894,"correct":true,"confidence":3},{"trial_n":102,"n_dots":2.55,"target":"right","response":"left","rt":915,"correct":false,"confidence":3},{"trial_n":103,"n_dots":2.65,"target":"right","response":"left","rt":357,"correct":false,"confidence":3},{"trial_n":104,"n_dots":2.75,"target":"left","response":"left","rt":550.99999999627,"correct":true,"confidence":3},{"trial_n":105,"n_dots":2.75,"target":"left","response":"left","rt":116,"correct":true,"confidence":2},{"trial_n":106,"n_dots":2.65,"target":"right","response":"right","rt":535,"correct":true,"confidence":3},{"trial_n":107,"n_dots":2.65,"target":"right","response":"right","rt":1729,"correct":true,"confidence":1},{"trial_n":108,"n_dots":2.55,"target":"left","response":"left","rt":333,"correct":true,"confidence":3},{"trial_n":109,"n_dots":2.55,"target":"right","response":"right","rt":574,"correct":true,"confidence":3},{"trial_n":110,"n_dots":2.45,"target":"right","response":"right","rt":579.00000000373,"correct":true,"confidence":3},{"trial_n":111,"n_dots":2.45,"target":"left","response":"left","rt":893,"correct":true,"confidence":3},{"trial_n":112,"n_dots":2.35,"target":"left","response":"left","rt":307,"correct":true,"confidence":3},{"trial_n":113,"n_dots":2.35,"target":"left","response":"left","rt":604.99999999627,"correct":true,"confidence":3},{"trial_n":114,"n_dots":2.25,"target":"right","response":"left","rt":336,"correct":false,"confidence":3},{"trial_n":115,"n_dots":2.35,"target":"right","response":"right","rt":1234,"correct":true,"confidence":1},{"trial_n":116,"n_dots":2.35,"target":"left","response":"left","rt":324.99999999627,"correct":true,"confidence":2},{"trial_n":117,"n_dots":2.25,"target":"left","response":"right","rt":611.00000000373,"correct":false,"confidence":4},{"trial_n":118,"n_dots":2.35,"target":"left","response":"left","rt":466.00000000373,"correct":true,"confidence":3},{"trial_n":119,"n_dots":2.35,"target":"left","response":"right","rt":449,"correct":false,"confidence":3},{"trial_n":120,"n_dots":2.45,"target":"right","response":"right","rt":443,"correct":true,"confidence":4}]