[{"trial_n":1,"min":25,"max":230,"target":"present","response":"present","rt":14798,"correct":true,"confidence":-1},{"trial_n":2,"min":25,"max":230,"target":"present","response":"present","rt":2333,"correct":true,"confidence":-1},{"trial_n":3,"min":41,"max":214,"target":"absent","response":"present","rt":3488,"correct":false,"confidence":-1},{"trial_n":4,"min":25,"max":230,"target":"absent","response":"absent","rt":1372,"correct":true,"confidence":-1},{"trial_n":5,"min":25,"max":230,"target":"present","response":"present","rt":961,"correct":true,"confidence":-1},{"trial_n":6,"min":41,"max":214,"target":"present","response":"present","rt":1058,"correct":true,"confidence":-1},{"trial_n":7,"min":41,"max":214,"target":"present","response":"present","rt":894,"correct":true,"confidence":-1},{"trial_n":8,"min":57,"max":198,"target":"present","response":"present","rt":1095,"correct":true,"confidence":-1},{"trial_n":9,"min":57,"max":198,"target":"absent","response":"absent","rt":963,"correct":true,"confidence":-1},{"trial_n":10,"min":73,"max":182,"target":"absent","response":"absent","rt":911,"correct":true,"confidence":-1},{"trial_n":11,"min":73,"max":182,"target":"absent","response":"absent","rt":937,"correct":true,"confidence":-1},{"trial_n":12,"min":81,"max":174,"target":"present","response":"absent","rt":1187,"correct":false,"confidence":-1},{"trial_n":13,"min":73,"max":182,"target":"present","response":"present","rt":1613,"correct":true,"confidence":-1},{"trial_n":14,"min":73,"max":182,"target":"absent","response":"absent","rt":1087,"correct":true,"confidence":-1},{"trial_n":15,"min":81,"max":174,"target":"absent","response":"absent","rt":1682,"correct":true,"confidence":-1},{"trial_n":16,"min":81,"max":174,"target":"present","response":"absent","rt":1982,"correct":false,"confidence":-1},{"trial_n":17,"min":73,"max":182,"target":"absent","response":"absent","rt":1181,"correct":true,"confidence":-1},{"trial_n":18,"min":73,"max":182,"target":"absent","response":"absent","rt":1521,"correct":true,"confidence":-1},{"trial_n":19,"min":81,"max":174,"target":"present","response":"present","rt":920.00000000001,"correct":true,"confidence":-1},{"trial_n":20,"min":81,"max":174,"target":"absent","response":"absent","rt":2004,"correct":true,"confidence":-1},{"trial_n":21,"min":85,"max":170,"target":"present","response":"present","rt":1790,"correct":true,"confidence":4},{"trial_n":22,"min":85,"max":170,"target":"absent","response":"absent","rt":4965,"correct":true,"confidence":1},{"trial_n":23,"min":89,"max":166,"target":"absent","response":"present","rt":1461,"correct":false,"confidence":3},{"trial_n":24,"min":85,"max":170,"target":"absent","response":"absent","rt":6643,"correct":true,"confidence":2},{"trial_n":25,"min":85,"max":170,"target":"absent","response":"absent","rt":4206,"correct":true,"confidence":2},{"trial_n":26,"min":89,"max":166,"target":"absent","response":"present","rt":1313,"correct":false,"confidence":2},{"trial_n":27,"min":85,"max":170,"target":"absent","response":"absent","rt":1455,"correct":true,"confidence":3},{"trial_n":28,"min":85,"max":170,"target":"absent","response":"absent","rt":823,"correct":true,"confidence":3},{"trial_n":29,"min":89,"max":166,"target":"present","response":"absent","rt":1157,"correct":false,"confidence":3},{"trial_n":30,"min":85,"max":170,"target":"present","response":"present","rt":1139,"correct":true,"confidence":3},{"trial_n":31,"min":85,"max":170,"target":"absent","response":"absent","rt":3985,"correct":true,"confidence":2},{"trial_n":32,"min":87,"max":168,"target":"present","response":"absent","rt":2356,"correct":false,"confidence":2},{"trial_n":33,"min":85,"max":170,"target":"present","response":"present","rt":914,"correct":true,"confidence":2},{"trial_n":34,"min":85,"max":170,"target":"present","response":"present","rt":825,"correct":true,"confidence":3},{"trial_n":35,"min":87,"max":168,"target":"present","response":"absent","rt":3166.0000000001,"correct":false,"confidence":2},{"trial_n":36,"min":85,"max":170,"target":"absent","response":"absent","rt":1038,"correct":true,"confidence":2},{"trial_n":37,"min":85,"max":170,"target":"absent","response":"absent","rt":999,"correct":true,"confidence":4},{"trial_n":38,"min":87,"max":168,"target":"present","response":"absent","rt":7667,"correct":false,"confidence":2},{"trial_n":39,"min":85,"max":170,"target":"absent","response":"absent","rt":1873,"correct":true,"confidence":2},{"trial_n":40,"min":85,"max":170,"target":"present","response":"absent","rt":1422,"correct":false,"confidence":3},{"trial_n":41,"min":84,"max":171,"target":"present","response":"present","rt":1008,"correct":true,"confidence":5},{"trial_n":42,"min":84,"max":171,"target":"present","response":"present","rt":1358,"correct":true,"confidence":5},{"trial_n":43,"min":85,"max":170,"target":"absent","response":"absent","rt":1289,"correct":true,"confidence":2},{"trial_n":44,"min":85,"max":170,"target":"present","response":"present","rt":862,"correct":true,"confidence":4},{"trial_n":45,"min":86,"max":169,"target":"present","response":"absent","rt":2546,"correct":false,"confidence":2},{"trial_n":46,"min":85,"max":170,"target":"present","response":"present","rt":1061,"correct":true,"confidence":3},{"trial_n":47,"min":85,"max":170,"target":"absent","response":"absent","rt":2477,"correct":true,"confidence":2},{"trial_n":48,"min":86,"max":169,"target":"present","response":"present","rt":893,"correct":true,"confidence":4},{"trial_n":49,"min":86,"max":169,"target":"absent","response":"absent","rt":1373,"correct":true,"confidence":3},{"trial_n":50,"min":87,"max":168,"target":"present","response":"present","rt":3185.9999999999,"correct":true,"confidence":1},{"trial_n":51,"min":87,"max":168,"target":"absent","response":"absent","rt":1051.0000000001,"correct":true,"confidence":1},{"trial_n":52,"min":88,"max":167,"target":"present","response":"present","rt":1081,"correct":true,"confidence":3},{"trial_n":53,"min":88,"max":167,"target":"absent","response":"absent","rt":3347.0000000001,"correct":true,"confidence":2},{"trial_n":54,"min":89,"max":166,"target":"present","response":"present","rt":1038,"correct":true,"confidence":2},{"trial_n":55,"min":89,"max":166,"target":"absent","response":"absent","rt":949,"correct":true,"confidence":1},{"trial_n":56,"min":90,"max":165,"target":"present","response":"absent","rt":2973,"correct":false,"confidence":2},{"trial_n":57,"min":89,"max":166,"target":"present","response":"present","rt":1737,"correct":true,"confidence":2},{"trial_n":58,"min":89,"max":166,"target":"absent","response":"absent","rt":1431,"correct":true,"confidence":1},{"trial_n":59,"min":90,"max":165,"target":"absent","response":"absent","rt":1497,"correct":true,"confidence":3},{"trial_n":60,"min":90,"max":165,"target":"present","response":"present","rt":735,"correct":true,"confidence":3},{"trial_n":61,"min":91,"max":164,"target":"present","response":"present","rt":892,"correct":true,"confidence":3},{"trial_n":62,"min":91,"max":164,"target":"present","response":"present","rt":956,"correct":true,"confidence":2},{"trial_n":63,"min":92,"max":163,"target":"absent","response":"absent","rt":1257,"correct":true,"confidence":2},{"trial_n":64,"min":92,"max":163,"target":"present","response":"present","rt":948,"correct":true,"confidence":2},{"trial_n":65,"min":93,"max":162,"target":"present","response":"absent","rt":754,"correct":false,"confidence":3},{"trial_n":66,"min":92,"max":163,"target":"present","response":"absent","rt":1397,"correct":false,"confidence":4},{"trial_n":67,"min":91,"max":164,"target":"absent","response":"absent","rt":853,"correct":true,"confidence":1},{"trial_n":68,"min":91,"max":164,"target":"absent","response":"present","rt":1689,"correct":false,"confidence":2},{"trial_n":69,"min":90,"max":165,"target":"absent","response":"absent","rt":2903,"correct":true,"confidence":2},{"trial_n":70,"min":90,"max":165,"target":"absent","response":"present","rt":1732,"correct":false,"confidence":2},{"trial_n":71,"min":41,"max":214,"target":"present","response":"present","rt":4314,"correct":true,"confidence":-1},{"trial_n":72,"min":41,"max":214,"target":"present","response":"present","rt":1356,"correct":true,"confidence":-1},{"trial_n":73,"min":57,"max":198,"target":"absent","response":"absent","rt":969.99999999994,"correct":true,"confidence":-1},{"trial_n":74,"min":57,"max":198,"target":"absent","response":"absent","rt":866,"correct":true,"confidence":-1},{"trial_n":75,"min":73,"max":182,"target":"present","response":"present","rt":946.00000000006,"correct":true,"confidence":-1},{"trial_n":76,"min":73,"max":182,"target":"present","response":"present","rt":813.99999999994,"correct":true,"confidence":-1},{"trial_n":77,"min":89,"max":166,"target":"absent","response":"absent","rt":1962.0000000001,"correct":true,"confidence":-1},{"trial_n":78,"min":89,"max":166,"target":"present","response":"present","rt":769,"correct":true,"confidence":-1},{"trial_n":79,"min":105,"max":150,"target":"absent","response":"present","rt":1495,"correct":false,"confidence":-1},{"trial_n":80,"min":89,"max":166,"target":"present","response":"present","rt":952,"correct":true,"confidence":-1},{"trial_n":81,"min":89,"max":166,"target":"present","response":"absent","rt":1528,"correct":false,"confidence":-1},{"trial_n":82,"min":81,"max":174,"target":"absent","response":"absent","rt":1673,"correct":true,"confidence":-1},{"trial_n":83,"min":81,"max":174,"target":"absent","response":"absent","rt":2971,"correct":true,"confidence":-1},{"trial_n":84,"min":89,"max":166,"target":"present","response":"present","rt":626.99999999988,"correct":true,"confidence":-1},{"trial_n":85,"min":89,"max":166,"target":"present","response":"present","rt":788,"correct":true,"confidence":-1},{"trial_n":86,"min":97,"max":158,"target":"present","response":"absent","rt":985,"correct":false,"confidence":-1},{"trial_n":87,"min":89,"max":166,"target":"present","response":"present","rt":1011.9999999999,"correct":true,"confidence":-1},{"trial_n":88,"min":89,"max":166,"target":"present","response":"present","rt":748,"correct":true,"confidence":-1},{"trial_n":89,"min":97,"max":158,"target":"absent","response":"present","rt":1725,"correct":false,"confidence":-1},{"trial_n":90,"min":89,"max":166,"target":"absent","response":"present","rt":1030,"correct":false,"confidence":-1},{"trial_n":91,"min":85,"max":170,"target":"present","response":"present","rt":1122,"correct":true,"confidence":3},{"trial_n":92,"min":85,"max":170,"target":"absent","response":"present","rt":3695,"correct":false,"confidence":2},{"trial_n":93,"min":81,"max":174,"target":"absent","response":"absent","rt":1737,"correct":true,"confidence":2},{"trial_n":94,"min":81,"max":174,"target":"absent","response":"absent","rt":877,"correct":true,"confidence":2},{"trial_n":95,"min":85,"max":170,"target":"absent","response":"absent","rt":2440.9999999999,"correct":true,"confidence":2},{"trial_n":96,"min":85,"max":170,"target":"present","response":"present","rt":830,"correct":true,"confidence":2},{"trial_n":97,"min":89,"max":166,"target":"present","response":"present","rt":839,"correct":true,"confidence":3},{"trial_n":98,"min":89,"max":166,"target":"absent","response":"present","rt":2597,"correct":false,"confidence":1},{"trial_n":99,"min":85,"max":170,"target":"present","response":"present","rt":948,"correct":true,"confidence":2},{"trial_n":100,"min":85,"max":170,"target":"absent","response":"absent","rt":1110.0000000001,"correct":true,"confidence":3},{"trial_n":101,"min":87,"max":168,"target":"absent","response":"absent","rt":1261.9999999999,"correct":true,"confidence":2},{"trial_n":102,"min":87,"max":168,"target":"present","response":"present","rt":1328,"correct":true,"confidence":2},{"trial_n":103,"min":89,"max":166,"target":"absent","response":"absent","rt":1798,"correct":true,"confidence":1},{"trial_n":104,"min":89,"max":166,"target":"present","response":"present","rt":1994,"correct":true,"confidence":1},{"trial_n":105,"min":91,"max":164,"target":"present","response":"present","rt":1551,"correct":true,"confidence":3},{"trial_n":106,"min":91,"max":164,"target":"present","response":"present","rt":1197,"correct":true,"confidence":4},{"trial_n":107,"min":93,"max":162,"target":"present","response":"present","rt":1497,"correct":true,"confidence":3},{"trial_n":108,"min":93,"max":162,"target":"present","response":"present","rt":904,"correct":true,"confidence":4},{"trial_n":109,"min":95,"max":160,"target":"absent","response":"present","rt":935,"correct":false,"confidence":3},{"trial_n":110,"min":93,"max":162,"target":"present","response":"present","rt":951,"correct":true,"confidence":3},{"trial_n":111,"min":93,"max":162,"target":"absent","response":"present","rt":808,"correct":false,"confidence":2},{"trial_n":112,"min":92,"max":163,"target":"present","response":"present","rt":1156,"correct":true,"confidence":1},{"trial_n":113,"min":92,"max":163,"target":"present","response":"present","rt":1017,"correct":true,"confidence":1},{"trial_n":114,"min":93,"max":162,"target":"present","response":"present","rt":1368,"correct":true,"confidence":2},{"trial_n":115,"min":93,"max":162,"target":"present","response":"present","rt":3442,"correct":true,"confidence":1},{"trial_n":116,"min":94,"max":161,"target":"absent","response":"present","rt":1761,"correct":false,"confidence":1},{"trial_n":117,"min":93,"max":162,"target":"absent","response":"present","rt":776,"correct":false,"confidence":1},{"trial_n":118,"min":92,"max":163,"target":"absent","response":"present","rt":793,"correct":false,"confidence":1},{"trial_n":119,"min":91,"max":164,"target":"absent","response":"present","rt":1141.9999999999,"correct":false,"confidence":1},{"trial_n":120,"min":90,"max":165,"target":"present","response":"present","rt":1110,"correct":true,"confidence":3},{"trial_n":121,"min":90,"max":165,"target":"absent","response":"present","rt":738,"correct":false,"confidence":2},{"trial_n":122,"min":89,"max":166,"target":"absent","response":"present","rt":911.99999999988,"correct":false,"confidence":1},{"trial_n":123,"min":88,"max":167,"target":"present","response":"present","rt":826.99999999988,"correct":true,"confidence":1},{"trial_n":124,"min":88,"max":167,"target":"absent","response":"present","rt":871,"correct":false,"confidence":3},{"trial_n":125,"min":87,"max":168,"target":"absent","response":"present","rt":760,"correct":false,"confidence":2},{"trial_n":126,"min":86,"max":169,"target":"absent","response":"present","rt":898,"correct":false,"confidence":1},{"trial_n":127,"min":85,"max":170,"target":"absent","response":"present","rt":1033,"correct":false,"confidence":1},{"trial_n":128,"min":84,"max":171,"target":"present","response":"present","rt":1339,"correct":true,"confidence":1},{"trial_n":129,"min":84,"max":171,"target":"present","response":"absent","rt":1056,"correct":false,"confidence":1},{"trial_n":130,"min":83,"max":172,"target":"present","response":"present","rt":982,"correct":true,"confidence":1},{"trial_n":131,"min":83,"max":172,"target":"absent","response":"absent","rt":971,"correct":true,"confidence":2},{"trial_n":132,"min":84,"max":171,"target":"present","response":"absent","rt":1169,"correct":false,"confidence":1},{"trial_n":133,"min":83,"max":172,"target":"absent","response":"absent","rt":927,"correct":true,"confidence":4},{"trial_n":134,"min":83,"max":172,"target":"present","response":"present","rt":1068,"correct":true,"confidence":3},{"trial_n":135,"min":84,"max":171,"target":"present","response":"present","rt":864,"correct":true,"confidence":5},{"trial_n":136,"min":84,"max":171,"target":"absent","response":"absent","rt":2739.9999999999,"correct":true,"confidence":2},{"trial_n":137,"min":85,"max":170,"target":"present","response":"present","rt":1306.9999999999,"correct":true,"confidence":5},{"trial_n":138,"min":85,"max":170,"target":"absent","response":"present","rt":910,"correct":false,"confidence":4},{"trial_n":139,"min":84,"max":171,"target":"absent","response":"absent","rt":757.00000000012,"correct":true,"confidence":2},{"trial_n":140,"min":84,"max":171,"target":"absent","response":"absent","rt":1554.0000000001,"correct":true,"confidence":2}]