[{"trial_n":1,"min":25,"max":230,"target":"present","response":"absent","rt":13835.299999952,"correct":false,"confidence":-1},{"trial_n":2,"min":25,"max":230,"target":"present","response":"present","rt":9566.5,"correct":true,"confidence":-1},{"trial_n":3,"min":25,"max":230,"target":"absent","response":"absent","rt":5714.3999998569,"correct":true,"confidence":-1},{"trial_n":4,"min":41,"max":214,"target":"absent","response":"absent","rt":3906.7999999523,"correct":true,"confidence":-1},{"trial_n":5,"min":41,"max":214,"target":"present","response":"present","rt":5116.5,"correct":true,"confidence":-1},{"trial_n":6,"min":57,"max":198,"target":"present","response":"present","rt":1605.7999999523,"correct":true,"confidence":-1},{"trial_n":7,"min":57,"max":198,"target":"absent","response":"absent","rt":1811.6000001431,"correct":true,"confidence":-1},{"trial_n":8,"min":73,"max":182,"target":"present","response":"absent","rt":2386,"correct":false,"confidence":-1},{"trial_n":9,"min":57,"max":198,"target":"absent","response":"absent","rt":2177,"correct":true,"confidence":-1},{"trial_n":10,"min":57,"max":198,"target":"absent","response":"present","rt":1758.3000001907,"correct":false,"confidence":-1},{"trial_n":11,"min":49,"max":206,"target":"present","response":"present","rt":807.80000019073,"correct":true,"confidence":-1},{"trial_n":12,"min":49,"max":206,"target":"present","response":"present","rt":660.5,"correct":true,"confidence":-1},{"trial_n":13,"min":57,"max":198,"target":"present","response":"absent","rt":689.60000014305,"correct":false,"confidence":-1},{"trial_n":14,"min":49,"max":206,"target":"present","response":"present","rt":611.70000004768,"correct":true,"confidence":-1},{"trial_n":15,"min":49,"max":206,"target":"absent","response":"absent","rt":1655.7000000477,"correct":true,"confidence":-1},{"trial_n":16,"min":57,"max":198,"target":"present","response":"present","rt":656.79999995232,"correct":true,"confidence":-1},{"trial_n":17,"min":57,"max":198,"target":"present","response":"present","rt":812.70000004768,"correct":true,"confidence":-1},{"trial_n":18,"min":65,"max":190,"target":"present","response":"present","rt":844.29999995232,"correct":true,"confidence":-1},{"trial_n":19,"min":65,"max":190,"target":"present","response":"present","rt":707.30000019073,"correct":true,"confidence":-1},{"trial_n":20,"min":73,"max":182,"target":"absent","response":"absent","rt":601.19999980927,"correct":true,"confidence":-1},{"trial_n":21,"min":73,"max":182,"target":"absent","response":"absent","rt":3943.7000000477,"correct":true,"confidence":2},{"trial_n":22,"min":77,"max":178,"target":"present","response":"present","rt":2751.5999999046,"correct":true,"confidence":4},{"trial_n":23,"min":77,"max":178,"target":"present","response":"present","rt":5378.8000001907,"correct":true,"confidence":4},{"trial_n":24,"min":81,"max":174,"target":"absent","response":"absent","rt":1858.7000000477,"correct":true,"confidence":5},{"trial_n":25,"min":81,"max":174,"target":"present","response":"present","rt":2313,"correct":true,"confidence":5},{"trial_n":26,"min":85,"max":170,"target":"absent","response":"absent","rt":2164.2000000477,"correct":true,"confidence":3},{"trial_n":27,"min":85,"max":170,"target":"absent","response":"absent","rt":1364.2999999523,"correct":true,"confidence":4},{"trial_n":28,"min":89,"max":166,"target":"absent","response":"absent","rt":1742.9000000954,"correct":true,"confidence":4},{"trial_n":29,"min":89,"max":166,"target":"present","response":"present","rt":2924.2000000477,"correct":true,"confidence":2},{"trial_n":30,"min":93,"max":162,"target":"present","response":"absent","rt":5643.7999999523,"correct":false,"confidence":2},{"trial_n":31,"min":91,"max":164,"target":"present","response":"present","rt":2532.7000000477,"correct":true,"confidence":3},{"trial_n":32,"min":91,"max":164,"target":"absent","response":"absent","rt":1998.2000000477,"correct":true,"confidence":3},{"trial_n":33,"min":93,"max":162,"target":"present","response":"absent","rt":4359.6000001431,"correct":false,"confidence":2},{"trial_n":34,"min":91,"max":164,"target":"absent","response":"absent","rt":2379.0999999046,"correct":true,"confidence":2},{"trial_n":35,"min":91,"max":164,"target":"present","response":"present","rt":2802.5,"correct":true,"confidence":2},{"trial_n":36,"min":93,"max":162,"target":"present","response":"present","rt":1380.5,"correct":true,"confidence":3},{"trial_n":37,"min":93,"max":162,"target":"present","response":"absent","rt":3767.8999998569,"correct":false,"confidence":1},{"trial_n":38,"min":91,"max":164,"target":"absent","response":"absent","rt":1398,"correct":true,"confidence":4},{"trial_n":39,"min":91,"max":164,"target":"present","response":"absent","rt":2517.5999999046,"correct":false,"confidence":1},{"trial_n":40,"min":89,"max":166,"target":"absent","response":"absent","rt":1496.5,"correct":true,"confidence":5},{"trial_n":41,"min":89,"max":166,"target":"absent","response":"absent","rt":1711.2000000477,"correct":true,"confidence":3},{"trial_n":42,"min":90,"max":165,"target":"present","response":"present","rt":1479.2000000477,"correct":true,"confidence":3},{"trial_n":43,"min":90,"max":165,"target":"absent","response":"absent","rt":1821.4000000954,"correct":true,"confidence":3},{"trial_n":44,"min":91,"max":164,"target":"present","response":"absent","rt":2245.0999999046,"correct":false,"confidence":3},{"trial_n":45,"min":90,"max":165,"target":"absent","response":"absent","rt":2215.0999999046,"correct":true,"confidence":3},{"trial_n":46,"min":90,"max":165,"target":"absent","response":"absent","rt":2067.4000000954,"correct":true,"confidence":3},{"trial_n":47,"min":91,"max":164,"target":"absent","response":"absent","rt":2739.2000000477,"correct":true,"confidence":3},{"trial_n":48,"min":91,"max":164,"target":"present","response":"absent","rt":1465.3000001907,"correct":false,"confidence":2},{"trial_n":49,"min":90,"max":165,"target":"present","response":"present","rt":2342.4000000954,"correct":true,"confidence":2},{"trial_n":50,"min":90,"max":165,"target":"absent","response":"absent","rt":3534.0999999046,"correct":true,"confidence":2},{"trial_n":51,"min":91,"max":164,"target":"absent","response":"absent","rt":1271.2999999523,"correct":true,"confidence":5},{"trial_n":52,"min":91,"max":164,"target":"present","response":"absent","rt":1757.8999998569,"correct":false,"confidence":5},{"trial_n":53,"min":90,"max":165,"target":"absent","response":"absent","rt":1260.2999999523,"correct":true,"confidence":4},{"trial_n":54,"min":90,"max":165,"target":"present","response":"absent","rt":3796.1000001431,"correct":false,"confidence":4},{"trial_n":55,"min":89,"max":166,"target":"absent","response":"absent","rt":1355.4000000954,"correct":true,"confidence":3},{"trial_n":56,"min":89,"max":166,"target":"absent","response":"present","rt":1333.2000000477,"correct":false,"confidence":4},{"trial_n":57,"min":88,"max":167,"target":"absent","response":"present","rt":2179.8999998569,"correct":false,"confidence":4},{"trial_n":58,"min":87,"max":168,"target":"absent","response":"absent","rt":1188.7000000477,"correct":true,"confidence":5},{"trial_n":59,"min":87,"max":168,"target":"present","response":"present","rt":1357.5999999046,"correct":true,"confidence":4},{"trial_n":60,"min":88,"max":167,"target":"absent","response":"absent","rt":2448.8000001907,"correct":true,"confidence":3},{"trial_n":61,"min":88,"max":167,"target":"present","response":"present","rt":1454.7000000477,"correct":true,"confidence":1},{"trial_n":62,"min":89,"max":166,"target":"absent","response":"absent","rt":3153.5,"correct":true,"confidence":1},{"trial_n":63,"min":89,"max":166,"target":"absent","response":"present","rt":1321.3999998569,"correct":false,"confidence":4},{"trial_n":64,"min":88,"max":167,"target":"absent","response":"present","rt":3424.7999999523,"correct":false,"confidence":3},{"trial_n":65,"min":87,"max":168,"target":"present","response":"present","rt":1114.2000000477,"correct":true,"confidence":5},{"trial_n":66,"min":87,"max":168,"target":"present","response":"present","rt":1251,"correct":true,"confidence":5},{"trial_n":67,"min":88,"max":167,"target":"absent","response":"absent","rt":1438.2000000477,"correct":true,"confidence":4},{"trial_n":68,"min":88,"max":167,"target":"present","response":"present","rt":3654.7999999523,"correct":true,"confidence":3},{"trial_n":69,"min":89,"max":166,"target":"absent","response":"present","rt":1872.8999998569,"correct":false,"confidence":3},{"trial_n":70,"min":88,"max":167,"target":"present","response":"present","rt":1121.0999999046,"correct":true,"confidence":4},{"trial_n":71,"min":41,"max":214,"target":"present","response":"present","rt":7473,"correct":true,"confidence":-1},{"trial_n":72,"min":41,"max":214,"target":"present","response":"present","rt":3194.2999999523,"correct":true,"confidence":-1},{"trial_n":73,"min":57,"max":198,"target":"absent","response":"absent","rt":1329.7999999523,"correct":true,"confidence":-1},{"trial_n":74,"min":57,"max":198,"target":"absent","response":"absent","rt":2060.9000000954,"correct":true,"confidence":-1},{"trial_n":75,"min":73,"max":182,"target":"present","response":"present","rt":1327.1000001431,"correct":true,"confidence":-1},{"trial_n":76,"min":73,"max":182,"target":"absent","response":"absent","rt":1663,"correct":true,"confidence":-1},{"trial_n":77,"min":89,"max":166,"target":"absent","response":"absent","rt":1758.7999999523,"correct":true,"confidence":-1},{"trial_n":78,"min":89,"max":166,"target":"absent","response":"absent","rt":1004.9000000954,"correct":true,"confidence":-1},{"trial_n":79,"min":105,"max":150,"target":"absent","response":"absent","rt":947.59999990463,"correct":true,"confidence":-1},{"trial_n":80,"min":105,"max":150,"target":"present","response":"present","rt":1880.3999998569,"correct":true,"confidence":-1},{"trial_n":81,"min":113,"max":142,"target":"present","response":"absent","rt":1652.3999998569,"correct":false,"confidence":-1},{"trial_n":82,"min":105,"max":150,"target":"absent","response":"absent","rt":2079.7999999523,"correct":true,"confidence":-1},{"trial_n":83,"min":105,"max":150,"target":"present","response":"absent","rt":1123,"correct":false,"confidence":-1},{"trial_n":84,"min":97,"max":158,"target":"present","response":"absent","rt":2188.4000000954,"correct":false,"confidence":-1},{"trial_n":85,"min":89,"max":166,"target":"present","response":"present","rt":1835.6000001431,"correct":true,"confidence":-1},{"trial_n":86,"min":89,"max":166,"target":"present","response":"present","rt":925.60000014305,"correct":true,"confidence":-1},{"trial_n":87,"min":97,"max":158,"target":"absent","response":"absent","rt":1278.5,"correct":true,"confidence":-1},{"trial_n":88,"min":97,"max":158,"target":"present","response":"present","rt":1353.6000001431,"correct":true,"confidence":-1},{"trial_n":89,"min":105,"max":150,"target":"present","response":"absent","rt":1747.0999999046,"correct":false,"confidence":-1},{"trial_n":90,"min":97,"max":158,"target":"present","response":"absent","rt":2652.3999998569,"correct":false,"confidence":-1},{"trial_n":91,"min":93,"max":162,"target":"absent","response":"absent","rt":2552.2999999523,"correct":true,"confidence":1},{"trial_n":92,"min":93,"max":162,"target":"absent","response":"present","rt":1500.7999999523,"correct":false,"confidence":1},{"trial_n":93,"min":89,"max":166,"target":"present","response":"absent","rt":2878.5999999046,"correct":false,"confidence":1},{"trial_n":94,"min":85,"max":170,"target":"present","response":"present","rt":1975.0999999046,"correct":true,"confidence":5},{"trial_n":95,"min":85,"max":170,"target":"absent","response":"absent","rt":3063.9000000954,"correct":true,"confidence":2},{"trial_n":96,"min":89,"max":166,"target":"absent","response":"absent","rt":3622.3999998569,"correct":true,"confidence":1},{"trial_n":97,"min":89,"max":166,"target":"present","response":"absent","rt":2085.7999999523,"correct":false,"confidence":1},{"trial_n":98,"min":85,"max":170,"target":"present","response":"present","rt":1907.9000000954,"correct":true,"confidence":1},{"trial_n":99,"min":85,"max":170,"target":"present","response":"absent","rt":3104.8999998569,"correct":false,"confidence":2},{"trial_n":100,"min":81,"max":174,"target":"present","response":"present","rt":1228.4000000954,"correct":true,"confidence":4},{"trial_n":101,"min":81,"max":174,"target":"absent","response":"absent","rt":2004.7000000477,"correct":true,"confidence":3},{"trial_n":102,"min":83,"max":172,"target":"absent","response":"absent","rt":2863.9000000954,"correct":true,"confidence":3},{"trial_n":103,"min":83,"max":172,"target":"present","response":"present","rt":1308.5,"correct":true,"confidence":4},{"trial_n":104,"min":85,"max":170,"target":"present","response":"present","rt":1223.0999999046,"correct":true,"confidence":5},{"trial_n":105,"min":85,"max":170,"target":"absent","response":"present","rt":2231.2000000477,"correct":false,"confidence":3},{"trial_n":106,"min":83,"max":172,"target":"present","response":"present","rt":1096.6000001431,"correct":true,"confidence":5},{"trial_n":107,"min":83,"max":172,"target":"present","response":"present","rt":1309.5999999046,"correct":true,"confidence":5},{"trial_n":108,"min":85,"max":170,"target":"present","response":"present","rt":807.79999995232,"correct":true,"confidence":5},{"trial_n":109,"min":85,"max":170,"target":"absent","response":"present","rt":2290.7000000477,"correct":false,"confidence":3},{"trial_n":110,"min":83,"max":172,"target":"absent","response":"absent","rt":1594,"correct":true,"confidence":4},{"trial_n":111,"min":83,"max":172,"target":"absent","response":"present","rt":1272,"correct":false,"confidence":3},{"trial_n":112,"min":82,"max":173,"target":"absent","response":"absent","rt":3031.7000000477,"correct":true,"confidence":1},{"trial_n":113,"min":82,"max":173,"target":"absent","response":"absent","rt":2184.5999999046,"correct":true,"confidence":3},{"trial_n":114,"min":83,"max":172,"target":"absent","response":"present","rt":3268.2000000477,"correct":false,"confidence":1},{"trial_n":115,"min":82,"max":173,"target":"present","response":"present","rt":1517.3999998569,"correct":true,"confidence":3},{"trial_n":116,"min":82,"max":173,"target":"present","response":"present","rt":1474.0999999046,"correct":true,"confidence":3},{"trial_n":117,"min":83,"max":172,"target":"present","response":"present","rt":2625.3999998569,"correct":true,"confidence":3},{"trial_n":118,"min":83,"max":172,"target":"absent","response":"absent","rt":2310.7000000477,"correct":true,"confidence":3},{"trial_n":119,"min":84,"max":171,"target":"present","response":"present","rt":961.39999985695,"correct":true,"confidence":5},{"trial_n":120,"min":84,"max":171,"target":"absent","response":"present","rt":1930.3000001907,"correct":false,"confidence":3},{"trial_n":121,"min":83,"max":172,"target":"present","response":"present","rt":1346.4000000954,"correct":true,"confidence":5},{"trial_n":122,"min":83,"max":172,"target":"absent","response":"absent","rt":2576.2000000477,"correct":true,"confidence":4},{"trial_n":123,"min":84,"max":171,"target":"present","response":"present","rt":2874.3000001907,"correct":true,"confidence":4},{"trial_n":124,"min":84,"max":171,"target":"absent","response":"absent","rt":4342.4000000954,"correct":true,"confidence":1},{"trial_n":125,"min":85,"max":170,"target":"absent","response":"absent","rt":2464.0999999046,"correct":true,"confidence":4},{"trial_n":126,"min":85,"max":170,"target":"present","response":"present","rt":5072,"correct":true,"confidence":3},{"trial_n":127,"min":86,"max":169,"target":"present","response":"present","rt":2735.8000001907,"correct":true,"confidence":4},{"trial_n":128,"min":86,"max":169,"target":"present","response":"present","rt":3096.3000001907,"correct":true,"confidence":3},{"trial_n":129,"min":87,"max":168,"target":"present","response":"present","rt":1214.3000001907,"correct":true,"confidence":4},{"trial_n":130,"min":87,"max":168,"target":"absent","response":"absent","rt":1365.2000000477,"correct":true,"confidence":1},{"trial_n":131,"min":88,"max":167,"target":"present","response":"absent","rt":1575,"correct":false,"confidence":1},{"trial_n":132,"min":87,"max":168,"target":"absent","response":"present","rt":3006.3999998569,"correct":false,"confidence":1},{"trial_n":133,"min":86,"max":169,"target":"absent","response":"present","rt":3756.8999998569,"correct":false,"confidence":2},{"trial_n":134,"min":85,"max":170,"target":"absent","response":"absent","rt":1918.8999998569,"correct":true,"confidence":2},{"trial_n":135,"min":85,"max":170,"target":"present","response":"present","rt":1322.8999998569,"correct":true,"confidence":4},{"trial_n":136,"min":86,"max":169,"target":"present","response":"present","rt":3804.7999999523,"correct":true,"confidence":2},{"trial_n":137,"min":86,"max":169,"target":"absent","response":"present","rt":2851,"correct":false,"confidence":2},{"trial_n":138,"min":85,"max":170,"target":"absent","response":"absent","rt":1630.6000001431,"correct":true,"confidence":2},{"trial_n":139,"min":85,"max":170,"target":"absent","response":"absent","rt":2239,"correct":true,"confidence":2},{"trial_n":140,"min":86,"max":169,"target":"absent","response":"present","rt":1861.1000001431,"correct":false,"confidence":1}]