[{"trial_n":1,"n_dots":4.25,"target":"left","response":"left","rt":1447.0999999046,"correct":true,"confidence":-1},{"trial_n":2,"n_dots":4.25,"target":"left","response":"left","rt":729.89999985695,"correct":true,"confidence":-1},{"trial_n":3,"n_dots":3.85,"target":"right","response":"right","rt":1170.9000000954,"correct":true,"confidence":-1},{"trial_n":4,"n_dots":3.85,"target":"right","response":"left","rt":1066.5,"correct":false,"confidence":-1},{"trial_n":5,"n_dots":4.25,"target":"left","response":"left","rt":736.20000004768,"correct":true,"confidence":-1},{"trial_n":6,"n_dots":4.25,"target":"left","response":"left","rt":305.89999985695,"correct":true,"confidence":-1},{"trial_n":7,"n_dots":3.85,"target":"right","response":"right","rt":164,"correct":true,"confidence":-1},{"trial_n":8,"n_dots":3.85,"target":"right","response":"right","rt":958.60000014305,"correct":true,"confidence":-1},{"trial_n":9,"n_dots":3.65,"target":"right","response":"right","rt":494.90000009537,"correct":true,"confidence":-1},{"trial_n":10,"n_dots":3.65,"target":"right","response":"left","rt":416.39999985695,"correct":false,"confidence":-1},{"trial_n":11,"n_dots":3.85,"target":"left","response":"left","rt":691.5,"correct":true,"confidence":-1},{"trial_n":12,"n_dots":3.85,"target":"left","response":"left","rt":816.60000014305,"correct":true,"confidence":-1},{"trial_n":13,"n_dots":3.75,"target":"left","response":"left","rt":32.800000190735,"correct":true,"confidence":-1},{"trial_n":14,"n_dots":3.75,"target":"right","response":"right","rt":715.40000009537,"correct":true,"confidence":-1},{"trial_n":15,"n_dots":3.65,"target":"left","response":"left","rt":19.300000190735,"correct":true,"confidence":-1},{"trial_n":16,"n_dots":3.65,"target":"left","response":"left","rt":503,"correct":true,"confidence":-1},{"trial_n":17,"n_dots":3.55,"target":"left","response":"right","rt":517.10000014305,"correct":false,"confidence":-1},{"trial_n":18,"n_dots":3.65,"target":"right","response":"right","rt":881.79999995232,"correct":true,"confidence":-1},{"trial_n":19,"n_dots":3.65,"target":"left","response":"left","rt":645.20000004768,"correct":true,"confidence":-1},{"trial_n":20,"n_dots":3.55,"target":"left","response":"left","rt":624.39999985695,"correct":true,"confidence":-1},{"trial_n":21,"n_dots":3.55,"target":"left","response":"left","rt":1036,"correct":true,"confidence":3},{"trial_n":22,"n_dots":3.45,"target":"right","response":"left","rt":1465.2000000477,"correct":false,"confidence":2},{"trial_n":23,"n_dots":3.55,"target":"right","response":"right","rt":1364.3999998569,"correct":true,"confidence":2},{"trial_n":24,"n_dots":3.55,"target":"left","response":"left","rt":1080.8000001907,"correct":true,"confidence":2},{"trial_n":25,"n_dots":3.45,"target":"right","response":"right","rt":938.70000004768,"correct":true,"confidence":3},{"trial_n":26,"n_dots":3.45,"target":"left","response":"right","rt":1026.7999999523,"correct":false,"confidence":3},{"trial_n":27,"n_dots":3.55,"target":"left","response":"right","rt":1174.6000001431,"correct":false,"confidence":1},{"trial_n":28,"n_dots":3.65,"target":"right","response":"right","rt":7931.7999999523,"correct":true,"confidence":3},{"trial_n":29,"n_dots":3.65,"target":"right","response":"right","rt":1072,"correct":true,"confidence":2},{"trial_n":30,"n_dots":3.55,"target":"right","response":"left","rt":1263.5,"correct":false,"confidence":3},{"trial_n":31,"n_dots":3.65,"target":"left","response":"left","rt":664.10000014305,"correct":true,"confidence":5},{"trial_n":32,"n_dots":3.65,"target":"right","response":"left","rt":1248.7000000477,"correct":false,"confidence":2},{"trial_n":33,"n_dots":3.75,"target":"right","response":"right","rt":1500.2000000477,"correct":true,"confidence":1},{"trial_n":34,"n_dots":3.75,"target":"right","response":"left","rt":1111.9000000954,"correct":false,"confidence":3},{"trial_n":35,"n_dots":3.85,"target":"left","response":"left","rt":1128.2999999523,"correct":true,"confidence":4},{"trial_n":36,"n_dots":3.85,"target":"left","response":"left","rt":1015,"correct":true,"confidence":4},{"trial_n":37,"n_dots":3.75,"target":"left","response":"left","rt":877.70000004768,"correct":true,"confidence":4},{"trial_n":38,"n_dots":3.75,"target":"right","response":"right","rt":1115.7999999523,"correct":true,"confidence":2},{"trial_n":39,"n_dots":3.65,"target":"left","response":"left","rt":753.20000004768,"correct":true,"confidence":5},{"trial_n":40,"n_dots":3.65,"target":"right","response":"left","rt":1107.4000000954,"correct":false,"confidence":4},{"trial_n":41,"n_dots":3.75,"target":"left","response":"left","rt":693.30000019073,"correct":true,"confidence":5},{"trial_n":42,"n_dots":3.75,"target":"right","response":"right","rt":1077.6000001431,"correct":true,"confidence":4},{"trial_n":43,"n_dots":3.65,"target":"right","response":"left","rt":1344.7000000477,"correct":false,"confidence":1},{"trial_n":44,"n_dots":3.75,"target":"left","response":"left","rt":1615.7000000477,"correct":true,"confidence":3},{"trial_n":45,"n_dots":3.75,"target":"left","response":"left","rt":855.29999995232,"correct":true,"confidence":4},{"trial_n":46,"n_dots":3.65,"target":"left","response":"left","rt":1156.2000000477,"correct":true,"confidence":3},{"trial_n":47,"n_dots":3.65,"target":"left","response":"left","rt":809.29999995232,"correct":true,"confidence":3},{"trial_n":48,"n_dots":3.55,"target":"right","response":"right","rt":1090.6000001431,"correct":true,"confidence":2},{"trial_n":49,"n_dots":3.55,"target":"left","response":"left","rt":1054.9000000954,"correct":true,"confidence":3},{"trial_n":50,"n_dots":3.45,"target":"left","response":"left","rt":675.5,"correct":true,"confidence":3},{"trial_n":51,"n_dots":3.45,"target":"left","response":"left","rt":814.90000009537,"correct":true,"confidence":3},{"trial_n":52,"n_dots":3.35,"target":"right","response":"right","rt":1039.1000001431,"correct":true,"confidence":3},{"trial_n":53,"n_dots":3.35,"target":"right","response":"left","rt":824,"correct":false,"confidence":3},{"trial_n":54,"n_dots":3.45,"target":"left","response":"left","rt":1556.2000000477,"correct":true,"confidence":2},{"trial_n":55,"n_dots":3.45,"target":"right","response":"left","rt":1005.9000000954,"correct":false,"confidence":1},{"trial_n":56,"n_dots":3.55,"target":"left","response":"left","rt":980.20000004768,"correct":true,"confidence":3},{"trial_n":57,"n_dots":3.55,"target":"right","response":"left","rt":1063.6000001431,"correct":false,"confidence":1},{"trial_n":58,"n_dots":3.65,"target":"right","response":"right","rt":994.70000004768,"correct":true,"confidence":3},{"trial_n":59,"n_dots":3.65,"target":"right","response":"left","rt":1191.6000001431,"correct":false,"confidence":1},{"trial_n":60,"n_dots":3.75,"target":"right","response":"right","rt":866.20000004768,"correct":true,"confidence":3},{"trial_n":61,"n_dots":3.75,"target":"right","response":"right","rt":908.70000004768,"correct":true,"confidence":3},{"trial_n":62,"n_dots":3.65,"target":"left","response":"left","rt":1050.2000000477,"correct":true,"confidence":3},{"trial_n":63,"n_dots":3.65,"target":"right","response":"right","rt":984.20000004768,"correct":true,"confidence":2},{"trial_n":64,"n_dots":3.55,"target":"left","response":"left","rt":978.29999995232,"correct":true,"confidence":4},{"trial_n":65,"n_dots":3.55,"target":"left","response":"left","rt":942.29999995232,"correct":true,"confidence":5},{"trial_n":66,"n_dots":3.45,"target":"right","response":"left","rt":1096.4000000954,"correct":false,"confidence":2},{"trial_n":67,"n_dots":3.55,"target":"left","response":"left","rt":962.10000014305,"correct":true,"confidence":4},{"trial_n":68,"n_dots":3.55,"target":"right","response":"right","rt":856.60000014305,"correct":true,"confidence":1},{"trial_n":69,"n_dots":3.45,"target":"left","response":"left","rt":827.09999990463,"correct":true,"confidence":4},{"trial_n":70,"n_dots":3.45,"target":"left","response":"left","rt":1192.1999998093,"correct":true,"confidence":3},{"trial_n":71,"n_dots":3.35,"target":"right","response":"right","rt":769.79999995232,"correct":true,"confidence":3},{"trial_n":72,"n_dots":3.35,"target":"right","response":"right","rt":684.70000004768,"correct":true,"confidence":1},{"trial_n":73,"n_dots":3.25,"target":"right","response":"right","rt":813.59999990463,"correct":true,"confidence":3},{"trial_n":74,"n_dots":3.25,"target":"right","response":"left","rt":977,"correct":false,"confidence":2},{"trial_n":75,"n_dots":3.35,"target":"left","response":"left","rt":818.60000014305,"correct":true,"confidence":5},{"trial_n":76,"n_dots":3.35,"target":"left","response":"right","rt":801.70000004768,"correct":false,"confidence":2},{"trial_n":77,"n_dots":3.45,"target":"left","response":"left","rt":734.29999995232,"correct":true,"confidence":3},{"trial_n":78,"n_dots":3.45,"target":"right","response":"left","rt":639,"correct":false,"confidence":3},{"trial_n":79,"n_dots":3.55,"target":"left","response":"left","rt":790.5,"correct":true,"confidence":4},{"trial_n":80,"n_dots":3.55,"target":"left","response":"left","rt":757.5,"correct":true,"confidence":3},{"trial_n":81,"n_dots":3.45,"target":"right","response":"right","rt":570.29999995232,"correct":true,"confidence":4},{"trial_n":82,"n_dots":3.45,"target":"right","response":"right","rt":1029,"correct":true,"confidence":1},{"trial_n":83,"n_dots":3.35,"target":"right","response":"right","rt":839.70000004768,"correct":true,"confidence":2},{"trial_n":84,"n_dots":3.35,"target":"left","response":"right","rt":1261.4000000954,"correct":false,"confidence":3},{"trial_n":85,"n_dots":3.45,"target":"right","response":"right","rt":708.10000014305,"correct":true,"confidence":3},{"trial_n":86,"n_dots":3.45,"target":"right","response":"right","rt":596.5,"correct":true,"confidence":3},{"trial_n":87,"n_dots":3.35,"target":"right","response":"right","rt":1129.4000000954,"correct":true,"confidence":3},{"trial_n":88,"n_dots":3.35,"target":"right","response":"right","rt":925.70000004768,"correct":true,"confidence":3},{"trial_n":89,"n_dots":3.25,"target":"right","response":"right","rt":776.59999990463,"correct":true,"confidence":4},{"trial_n":90,"n_dots":3.25,"target":"right","response":"left","rt":881,"correct":false,"confidence":3},{"trial_n":91,"n_dots":3.35,"target":"right","response":"right","rt":551,"correct":true,"confidence":4},{"trial_n":92,"n_dots":3.35,"target":"left","response":"left","rt":818.5,"correct":true,"confidence":5},{"trial_n":93,"n_dots":3.25,"target":"left","response":"left","rt":995.5,"correct":true,"confidence":4},{"trial_n":94,"n_dots":3.25,"target":"right","response":"right","rt":865.40000009537,"correct":true,"confidence":4},{"trial_n":95,"n_dots":3.15,"target":"left","response":"left","rt":1536.5999999046,"correct":true,"confidence":2},{"trial_n":96,"n_dots":3.15,"target":"left","response":"left","rt":1033.6999998093,"correct":true,"confidence":4},{"trial_n":97,"n_dots":3.05,"target":"left","response":"left","rt":1145.6999998093,"correct":true,"confidence":3},{"trial_n":98,"n_dots":3.05,"target":"left","response":"left","rt":771.29999995232,"correct":true,"confidence":5},{"trial_n":99,"n_dots":2.95,"target":"left","response":"left","rt":949.70000004768,"correct":true,"confidence":5},{"trial_n":100,"n_dots":2.95,"target":"left","response":"left","rt":1168.2999999523,"correct":true,"confidence":3},{"trial_n":101,"n_dots":2.85,"target":"left","response":"left","rt":311.20000004768,"correct":true,"confidence":5},{"trial_n":102,"n_dots":2.85,"target":"left","response":"left","rt":865.09999990463,"correct":true,"confidence":4},{"trial_n":103,"n_dots":2.75,"target":"left","response":"right","rt":1226.1000001431,"correct":false,"confidence":1},{"trial_n":104,"n_dots":2.85,"target":"left","response":"right","rt":1056.2999999523,"correct":false,"confidence":1},{"trial_n":105,"n_dots":2.95,"target":"left","response":"left","rt":674.39999985695,"correct":true,"confidence":5},{"trial_n":106,"n_dots":2.95,"target":"right","response":"right","rt":732.29999995232,"correct":true,"confidence":4},{"trial_n":107,"n_dots":2.85,"target":"right","response":"right","rt":515.69999980927,"correct":true,"confidence":4},{"trial_n":108,"n_dots":2.85,"target":"right","response":"right","rt":585.09999990463,"correct":true,"confidence":5},{"trial_n":109,"n_dots":2.75,"target":"right","response":"right","rt":1316.1999998093,"correct":true,"confidence":1},{"trial_n":110,"n_dots":2.75,"target":"right","response":"right","rt":1075.3000001907,"correct":true,"confidence":3},{"trial_n":111,"n_dots":2.65,"target":"right","response":"right","rt":600.90000009537,"correct":true,"confidence":1},{"trial_n":112,"n_dots":2.65,"target":"right","response":"right","rt":1215.5,"correct":true,"confidence":1},{"trial_n":113,"n_dots":2.55,"target":"right","response":"right","rt":570.59999990463,"correct":true,"confidence":3},{"trial_n":114,"n_dots":2.55,"target":"right","response":"right","rt":646.90000009537,"correct":true,"confidence":1},{"trial_n":115,"n_dots":2.45,"target":"left","response":"right","rt":523.40000009537,"correct":false,"confidence":4},{"trial_n":116,"n_dots":2.55,"target":"right","response":"right","rt":588.20000004768,"correct":true,"confidence":3},{"trial_n":117,"n_dots":2.55,"target":"right","response":"right","rt":775.90000009537,"correct":true,"confidence":3},{"trial_n":118,"n_dots":2.45,"target":"left","response":"left","rt":989.09999990463,"correct":true,"confidence":3},{"trial_n":119,"n_dots":2.45,"target":"left","response":"right","rt":1642.7999999523,"correct":false,"confidence":1},{"trial_n":120,"n_dots":2.55,"target":"left","response":"left","rt":603.40000009537,"correct":true,"confidence":3}]