[{"trial_n":1,"span":8,"encoder":"73502960","distractor":"73502965","target":"present","response":"present","rt":"5554","correct":true,"confidence":-1},{"trial_n":2,"span":8,"encoder":"39256701","distractor":"49256701","target":"present","response":"present","rt":"4031","correct":true,"confidence":-1},{"trial_n":3,"span":10,"encoder":"2215266230","distractor":"2215226230","target":"absent","response":"present","rt":"3154","correct":false,"confidence":-1},{"trial_n":4,"span":8,"encoder":"06360764","distractor":"06360794","target":"absent","response":"present","rt":"1582","correct":false,"confidence":-1},{"trial_n":5,"span":6,"encoder":"593680","distractor":"595680","target":"present","response":"present","rt":"2295","correct":true,"confidence":-1},{"trial_n":6,"span":6,"encoder":"146576","distractor":"946576","target":"absent","response":"absent","rt":"2140","correct":true,"confidence":-1},{"trial_n":7,"span":8,"encoder":"39688551","distractor":"39688651","target":"absent","response":"absent","rt":"2238","correct":true,"confidence":-1},{"trial_n":8,"span":8,"encoder":"12938131","distractor":"82938131","target":"present","response":"present","rt":"1707","correct":true,"confidence":-1},{"trial_n":9,"span":10,"encoder":"1593120826","distractor":"1593120026","target":"present","response":"present","rt":"1622","correct":true,"confidence":-1},{"trial_n":10,"span":10,"encoder":"6438367637","distractor":"6432367637","target":"present","response":"present","rt":"3793","correct":true,"confidence":-1},{"trial_n":11,"span":12,"encoder":"305714580770","distractor":"805714580770","target":"absent","response":"absent","rt":"1493","correct":true,"confidence":-1},{"trial_n":12,"span":12,"encoder":"674173076957","distractor":"674113076957","target":"absent","response":"present","rt":"1591","correct":false,"confidence":-1},{"trial_n":13,"span":11,"encoder":"96865070807","distractor":"96865070507","target":"absent","response":"absent","rt":"670","correct":true,"confidence":-1},{"trial_n":14,"span":11,"encoder":"48496537319","distractor":"48496533319","target":"present","response":"present","rt":"745","correct":true,"confidence":-1},{"trial_n":15,"span":12,"encoder":"680097846957","distractor":"680097446957","target":"absent","response":"absent","rt":"1861","correct":true,"confidence":-1},{"trial_n":16,"span":12,"encoder":"803814111166","distractor":"803814114166","target":"present","response":"present","rt":"862","correct":true,"confidence":-1},{"trial_n":17,"span":13,"encoder":"4019389748998","distractor":"4039389748998","target":"present","response":"absent","rt":"1360","correct":false,"confidence":-1},{"trial_n":18,"span":12,"encoder":"468311874956","distractor":"468311274956","target":"present","response":"present","rt":"304","correct":true,"confidence":-1},{"trial_n":19,"span":12,"encoder":"879986145389","distractor":"879986145369","target":"present","response":"present","rt":"686","correct":true,"confidence":-1},{"trial_n":20,"span":13,"encoder":"5437801274340","distractor":"5497801274340","target":"present","response":"present","rt":"1377","correct":true,"confidence":-1},{"trial_n":21,"span":13,"encoder":"5617075292774","distractor":"5617075212774","target":"absent","response":"absent","rt":"-8","correct":true,"confidence":1},{"trial_n":22,"span":14,"encoder":"01123767920731","distractor":"01123727920731","target":"present","response":"present","rt":"381","correct":true,"confidence":1},{"trial_n":23,"span":14,"encoder":"69460139047120","distractor":"69420139047120","target":"present","response":"absent","rt":"68","correct":false,"confidence":1},{"trial_n":24,"span":13,"encoder":"9088956515432","distractor":"9088956515632","target":"present","response":"present","rt":"191","correct":true,"confidence":1},{"trial_n":25,"span":13,"encoder":"6522487845061","distractor":"6522487845081","target":"absent","response":"present","rt":"2137","correct":false,"confidence":1},{"trial_n":26,"span":12,"encoder":"071829598873","distractor":"871829598873","target":"present","response":"present","rt":"5815","correct":true,"confidence":1},{"trial_n":27,"span":12,"encoder":"783453459578","distractor":"783453459573","target":"absent","response":"absent","rt":"32","correct":true,"confidence":1},{"trial_n":28,"span":13,"encoder":"1789610564831","distractor":"8789610564831","target":"absent","response":"absent","rt":"68","correct":true,"confidence":1},{"trial_n":29,"span":13,"encoder":"6204758914091","distractor":"6254758914091","target":"present","response":"present","rt":"255","correct":true,"confidence":1},{"trial_n":30,"span":14,"encoder":"96154882229761","distractor":"96154882529761","target":"present","response":"absent","rt":"-16","correct":false,"confidence":1},{"trial_n":31,"span":13,"encoder":"6499858915695","distractor":"6497858915695","target":"absent","response":"absent","rt":"162","correct":true,"confidence":1},{"trial_n":32,"span":13,"encoder":"3355501484386","distractor":"3357501484386","target":"absent","response":"absent","rt":"192","correct":true,"confidence":1},{"trial_n":33,"span":14,"encoder":"88832906183516","distractor":"88632906183516","target":"present","response":"present","rt":"290","correct":true,"confidence":1},{"trial_n":34,"span":14,"encoder":"25357334686132","distractor":"25307334686132","target":"present","response":"present","rt":"149","correct":true,"confidence":1},{"trial_n":35,"span":15,"encoder":"593492596191623","distractor":"593492596199623","target":"absent","response":"present","rt":"222","correct":false,"confidence":1},{"trial_n":36,"span":14,"encoder":"36605441749731","distractor":"36605446749731","target":"present","response":"absent","rt":"300","correct":false,"confidence":1},{"trial_n":37,"span":13,"encoder":"3030357022983","distractor":"2030357022983","target":"present","response":"absent","rt":"105","correct":false,"confidence":1},{"trial_n":38,"span":12,"encoder":"609611588086","distractor":"606611588086","target":"absent","response":"present","rt":"75","correct":false,"confidence":1},{"trial_n":39,"span":11,"encoder":"57772102814","distractor":"57572102814","target":"absent","response":"present","rt":"17","correct":false,"confidence":1},{"trial_n":40,"span":10,"encoder":"3080594730","distractor":"3080595730","target":"absent","response":"present","rt":"235","correct":false,"confidence":1},{"trial_n":41,"span":9,"encoder":"977662463","distractor":"977662466","target":"absent","response":"absent","rt":"466","correct":true,"confidence":1},{"trial_n":42,"span":9,"encoder":"194276275","distractor":"194276775","target":"absent","response":"present","rt":"150","correct":false,"confidence":1},{"trial_n":43,"span":8,"encoder":"34122001","distractor":"34122005","target":"present","response":"present","rt":"133","correct":true,"confidence":1},{"trial_n":44,"span":8,"encoder":"26867737","distractor":"26897737","target":"absent","response":"present","rt":"19","correct":false,"confidence":1},{"trial_n":45,"span":7,"encoder":"7841999","distractor":"7841909","target":"absent","response":"present","rt":"313","correct":false,"confidence":1},{"trial_n":46,"span":6,"encoder":"268804","distractor":"228804","target":"present","response":"present","rt":"22","correct":true,"confidence":1},{"trial_n":47,"span":6,"encoder":"562366","distractor":"569366","target":"absent","response":"absent","rt":"202","correct":true,"confidence":1},{"trial_n":48,"span":7,"encoder":"0299538","distractor":"0799538","target":"absent","response":"present","rt":"237","correct":false,"confidence":1},{"trial_n":49,"span":6,"encoder":"058914","distractor":"058214","target":"present","response":"absent","rt":"18","correct":false,"confidence":1},{"trial_n":50,"span":5,"encoder":"21572","distractor":"22572","target":"present","response":"present","rt":"230","correct":true,"confidence":1},{"trial_n":51,"span":5,"encoder":"87956","distractor":"85956","target":"present","response":"present","rt":"488","correct":true,"confidence":1},{"trial_n":52,"span":6,"encoder":"886141","distractor":"886441","target":"present","response":"present","rt":"197","correct":true,"confidence":1},{"trial_n":53,"span":6,"encoder":"668569","distractor":"648569","target":"present","response":"present","rt":"75","correct":true,"confidence":1},{"trial_n":54,"span":7,"encoder":"3742709","distractor":"5742709","target":"absent","response":"absent","rt":"-13","correct":true,"confidence":1},{"trial_n":55,"span":7,"encoder":"5945199","distractor":"5943199","target":"absent","response":"absent","rt":"237","correct":true,"confidence":1},{"trial_n":56,"span":8,"encoder":"08146681","distractor":"58146681","target":"present","response":"present","rt":"19482","correct":true,"confidence":1},{"trial_n":57,"span":8,"encoder":"30922065","distractor":"80922065","target":"absent","response":"absent","rt":"3","correct":true,"confidence":1},{"trial_n":58,"span":9,"encoder":"762467442","distractor":"762467142","target":"absent","response":"absent","rt":"197","correct":true,"confidence":1},{"trial_n":59,"span":9,"encoder":"738601620","distractor":"778601620","target":"present","response":"present","rt":"92","correct":true,"confidence":1},{"trial_n":60,"span":10,"encoder":"4227895133","distractor":"4227895933","target":"present","response":"absent","rt":"48","correct":false,"confidence":1},{"trial_n":61,"span":9,"encoder":"558888102","distractor":"588888102","target":"absent","response":"present","rt":"-12","correct":false,"confidence":1},{"trial_n":62,"span":8,"encoder":"41289235","distractor":"41279235","target":"absent","response":"absent","rt":"81","correct":true,"confidence":1},{"trial_n":63,"span":8,"encoder":"47531063","distractor":"47831063","target":"absent","response":"present","rt":"617","correct":false,"confidence":1},{"trial_n":64,"span":7,"encoder":"3246205","distractor":"3246505","target":"present","response":"present","rt":"123","correct":true,"confidence":1},{"trial_n":65,"span":7,"encoder":"3095296","distractor":"3096296","target":"absent","response":"present","rt":"229","correct":false,"confidence":1},{"trial_n":66,"span":6,"encoder":"877235","distractor":"577235","target":"present","response":"absent","rt":"63","correct":false,"confidence":1},{"trial_n":67,"span":5,"encoder":"31613","distractor":"21613","target":"absent","response":"present","rt":"196","correct":false,"confidence":1},{"trial_n":68,"span":4,"encoder":"3244","distractor":"2244","target":"present","response":"absent","rt":"-14","correct":false,"confidence":1},{"trial_n":69,"span":3,"encoder":"242","distractor":"442","target":"present","response":"absent","rt":"144","correct":false,"confidence":1},{"trial_n":70,"span":2,"encoder":"94","distractor":"84","target":"absent","response":"present","rt":"137","correct":false,"confidence":1},{"trial_n":71,"span":8,"encoder":"87666392","distractor":"87666372","target":"present","response":"present","rt":"5789","correct":true,"confidence":-1},{"trial_n":72,"span":8,"encoder":"37603480","distractor":"37643480","target":"present","response":"present","rt":"15888","correct":true,"confidence":-1},{"trial_n":73,"span":9,"encoder":"538792707","distractor":"532792707","target":"absent","response":"present","rt":"59","correct":false,"confidence":-1},{"trial_n":74,"span":8,"encoder":"84931142","distractor":"84981142","target":"absent","response":"present","rt":"109","correct":false,"confidence":-1},{"trial_n":75,"span":7,"encoder":"7606996","distractor":"7626996","target":"present","response":"absent","rt":"165","correct":false,"confidence":-1},{"trial_n":76,"span":6,"encoder":"812503","distractor":"812508","target":"absent","response":"present","rt":"-12","correct":false,"confidence":-1},{"trial_n":77,"span":5,"encoder":"79190","distractor":"79191","target":"present","response":"absent","rt":"168","correct":false,"confidence":-1},{"trial_n":78,"span":4,"encoder":"8826","distractor":"8626","target":"present","response":"present","rt":"76","correct":true,"confidence":-1},{"trial_n":79,"span":4,"encoder":"1192","distractor":"1292","target":"present","response":"absent","rt":"124","correct":false,"confidence":-1},{"trial_n":80,"span":3,"encoder":"089","distractor":"789","target":"absent","response":"absent","rt":"107","correct":true,"confidence":-1},{"trial_n":81,"span":3,"encoder":"405","distractor":"805","target":"absent","response":"present","rt":"20","correct":false,"confidence":-1},{"trial_n":82,"span":2,"encoder":"69","distractor":"63","target":"absent","response":"absent","rt":"-3","correct":true,"confidence":-1},{"trial_n":83,"span":2,"encoder":"64","distractor":"68","target":"absent","response":"absent","rt":"17","correct":true,"confidence":-1},{"trial_n":84,"span":3,"encoder":"740","distractor":"640","target":"absent","response":"absent","rt":"7","correct":true,"confidence":-1},{"trial_n":85,"span":3,"encoder":"457","distractor":"257","target":"present","response":"absent","rt":"18","correct":false,"confidence":-1},{"trial_n":86,"span":2,"encoder":"03","distractor":"53","target":"absent","response":"absent","rt":"-5","correct":true,"confidence":-1},{"trial_n":87,"span":2,"encoder":"51","distractor":"81","target":"present","response":"absent","rt":"-9","correct":false,"confidence":-1},{"trial_n":88,"span":2,"encoder":"38","distractor":"48","target":"present","response":"absent","rt":"-6","correct":false,"confidence":-1},{"trial_n":89,"span":2,"encoder":"73","distractor":"33","target":"absent","response":"absent","rt":"4841","correct":true,"confidence":-1},{"trial_n":90,"span":2,"encoder":"06","distractor":"46","target":"present","response":"present","rt":"195","correct":true,"confidence":-1},{"trial_n":91,"span":3,"encoder":"829","distractor":"929","target":"absent","response":"present","rt":"225","correct":false,"confidence":1},{"trial_n":92,"span":2,"encoder":"53","distractor":"03","target":"absent","response":"absent","rt":"3244","correct":true,"confidence":1},{"trial_n":93,"span":2,"encoder":"79","distractor":"69","target":"absent","response":"absent","rt":"90","correct":true,"confidence":1},{"trial_n":94,"span":3,"encoder":"175","distractor":"075","target":"absent","response":"present","rt":"66","correct":false,"confidence":1},{"trial_n":95,"span":2,"encoder":"06","distractor":"56","target":"present","response":"absent","rt":"32","correct":false,"confidence":1},{"trial_n":96,"span":2,"encoder":"49","distractor":"45","target":"present","response":"absent","rt":"2097","correct":false,"confidence":2},{"trial_n":97,"span":2,"encoder":"54","distractor":"52","target":"present","response":"absent","rt":"5","correct":false,"confidence":1},{"trial_n":98,"span":2,"encoder":"18","distractor":"88","target":"present","response":"absent","rt":"10","correct":false,"confidence":1},{"trial_n":99,"span":2,"encoder":"00","distractor":"07","target":"absent","response":"present","rt":"66","correct":false,"confidence":1},{"trial_n":100,"span":2,"encoder":"81","distractor":"11","target":"present","response":"absent","rt":"7","correct":false,"confidence":1},{"trial_n":101,"span":2,"encoder":"22","distractor":"25","target":"present","response":"absent","rt":"72","correct":false,"confidence":1},{"trial_n":102,"span":2,"encoder":"71","distractor":"72","target":"present","response":"present","rt":"53","correct":true,"confidence":1},{"trial_n":103,"span":2,"encoder":"27","distractor":"37","target":"absent","response":"present","rt":"133","correct":false,"confidence":1},{"trial_n":104,"span":2,"encoder":"37","distractor":"07","target":"absent","response":"present","rt":"20","correct":false,"confidence":1},{"trial_n":105,"span":2,"encoder":"05","distractor":"75","target":"present","response":"absent","rt":"-3","correct":false,"confidence":1},{"trial_n":106,"span":2,"encoder":"83","distractor":"82","target":"present","response":"present","rt":"-13","correct":true,"confidence":1},{"trial_n":107,"span":2,"encoder":"70","distractor":"00","target":"present","response":"present","rt":"40","correct":true,"confidence":1},{"trial_n":108,"span":3,"encoder":"272","distractor":"273","target":"present","response":"absent","rt":"-7","correct":false,"confidence":1},{"trial_n":109,"span":2,"encoder":"01","distractor":"06","target":"present","response":"absent","rt":"99","correct":false,"confidence":1},{"trial_n":110,"span":2,"encoder":"68","distractor":"08","target":"absent","response":"present","rt":"53","correct":false,"confidence":1},{"trial_n":111,"span":2,"encoder":"67","distractor":"61","target":"absent","response":"absent","rt":"120","correct":true,"confidence":1},{"trial_n":112,"span":2,"encoder":"99","distractor":"92","target":"absent","response":"present","rt":"-4","correct":false,"confidence":1},{"trial_n":113,"span":2,"encoder":"56","distractor":"36","target":"absent","response":"present","rt":"29","correct":false,"confidence":1},{"trial_n":114,"span":2,"encoder":"21","distractor":"11","target":"present","response":"absent","rt":"62","correct":false,"confidence":1},{"trial_n":115,"span":2,"encoder":"11","distractor":"81","target":"absent","response":"absent","rt":"3667","correct":true,"confidence":1},{"trial_n":116,"span":2,"encoder":"21","distractor":"61","target":"absent","response":"absent","rt":"3062","correct":true,"confidence":1},{"trial_n":117,"span":3,"encoder":"275","distractor":"675","target":"absent","response":"absent","rt":"10140","correct":true,"confidence":1},{"trial_n":118,"span":3,"encoder":"787","distractor":"785","target":"present","response":"present","rt":"40","correct":true,"confidence":1},{"trial_n":119,"span":4,"encoder":"7348","distractor":"7346","target":"present","response":"absent","rt":"0","correct":false,"confidence":1},{"trial_n":120,"span":3,"encoder":"216","distractor":"226","target":"absent","response":"present","rt":"65","correct":false,"confidence":1},{"trial_n":121,"span":2,"encoder":"47","distractor":"67","target":"absent","response":"absent","rt":"90","correct":true,"confidence":1},{"trial_n":122,"span":2,"encoder":"87","distractor":"67","target":"present","response":"absent","rt":"64","correct":false,"confidence":1},{"trial_n":123,"span":2,"encoder":"01","distractor":"07","target":"present","response":"present","rt":"74","correct":true,"confidence":1},{"trial_n":124,"span":2,"encoder":"64","distractor":"24","target":"absent","response":"present","rt":"67","correct":false,"confidence":1},{"trial_n":125,"span":2,"encoder":"08","distractor":"02","target":"present","response":"absent","rt":"90","correct":false,"confidence":1},{"trial_n":126,"span":2,"encoder":"94","distractor":"74","target":"absent","response":"present","rt":"69","correct":false,"confidence":1},{"trial_n":127,"span":2,"encoder":"50","distractor":"90","target":"absent","response":"present","rt":"23","correct":false,"confidence":1},{"trial_n":128,"span":2,"encoder":"59","distractor":"49","target":"present","response":"absent","rt":"123","correct":false,"confidence":1},{"trial_n":129,"span":2,"encoder":"30","distractor":"80","target":"present","response":"present","rt":"96","correct":true,"confidence":1},{"trial_n":130,"span":2,"encoder":"75","distractor":"73","target":"present","response":"absent","rt":"-4","correct":false,"confidence":1},{"trial_n":131,"span":2,"encoder":"87","distractor":"67","target":"present","response":"absent","rt":"268","correct":false,"confidence":1},{"trial_n":132,"span":2,"encoder":"55","distractor":"59","target":"present","response":"absent","rt":"216","correct":false,"confidence":1},{"trial_n":133,"span":2,"encoder":"88","distractor":"28","target":"absent","response":"present","rt":"-14","correct":false,"confidence":1},{"trial_n":134,"span":2,"encoder":"81","distractor":"91","target":"present","response":"absent","rt":"92","correct":false,"confidence":1},{"trial_n":135,"span":2,"encoder":"70","distractor":"79","target":"present","response":"absent","rt":"88","correct":false,"confidence":1},{"trial_n":136,"span":2,"encoder":"99","distractor":"79","target":"absent","response":"absent","rt":"116","correct":true,"confidence":1},{"trial_n":137,"span":2,"encoder":"40","distractor":"45","target":"absent","response":"present","rt":"30","correct":false,"confidence":1},{"trial_n":138,"span":2,"encoder":"30","distractor":"00","target":"present","response":"absent","rt":"81","correct":false,"confidence":1},{"trial_n":139,"span":2,"encoder":"57","distractor":"07","target":"absent","response":"absent","rt":"20","correct":true,"confidence":1},{"trial_n":140,"span":2,"encoder":"89","distractor":"59","target":"absent","response":"present","rt":"117","correct":false,"confidence":1}]