[{"trial_n":1,"n_dots":4.25,"target":"right","response":"right","rt":9670,"correct":true,"confidence":-1},{"trial_n":2,"n_dots":4.25,"target":"left","response":"left","rt":804.00000000001,"correct":true,"confidence":-1},{"trial_n":3,"n_dots":3.85,"target":"left","response":"left","rt":817,"correct":true,"confidence":-1},{"trial_n":4,"n_dots":3.85,"target":"right","response":"right","rt":1428,"correct":true,"confidence":-1},{"trial_n":5,"n_dots":3.45,"target":"right","response":"left","rt":2896,"correct":false,"confidence":-1},{"trial_n":6,"n_dots":3.85,"target":"left","response":"left","rt":2686,"correct":true,"confidence":-1},{"trial_n":7,"n_dots":3.85,"target":"left","response":"left","rt":977,"correct":true,"confidence":-1},{"trial_n":8,"n_dots":3.65,"target":"left","response":"left","rt":985,"correct":true,"confidence":-1},{"trial_n":9,"n_dots":3.65,"target":"left","response":"right","rt":1637,"correct":false,"confidence":-1},{"trial_n":10,"n_dots":3.85,"target":"left","response":"right","rt":1995,"correct":false,"confidence":-1},{"trial_n":11,"n_dots":4.05,"target":"left","response":"left","rt":659.00000000001,"correct":true,"confidence":-1},{"trial_n":12,"n_dots":4.05,"target":"right","response":"right","rt":630,"correct":true,"confidence":-1},{"trial_n":13,"n_dots":3.95,"target":"right","response":"right","rt":1377,"correct":true,"confidence":-1},{"trial_n":14,"n_dots":3.95,"target":"right","response":"right","rt":852,"correct":true,"confidence":-1},{"trial_n":15,"n_dots":3.85,"target":"right","response":"right","rt":2447,"correct":true,"confidence":-1},{"trial_n":16,"n_dots":3.85,"target":"left","response":"left","rt":707,"correct":true,"confidence":-1},{"trial_n":17,"n_dots":3.75,"target":"right","response":"left","rt":817,"correct":false,"confidence":-1},{"trial_n":18,"n_dots":3.85,"target":"left","response":"left","rt":269,"correct":true,"confidence":-1},{"trial_n":19,"n_dots":3.85,"target":"left","response":"left","rt":428,"correct":true,"confidence":-1},{"trial_n":20,"n_dots":3.75,"target":"right","response":"right","rt":508.00000000001,"correct":true,"confidence":-1},{"trial_n":21,"n_dots":3.75,"target":"left","response":"left","rt":724,"correct":true,"confidence":4},{"trial_n":22,"n_dots":3.65,"target":"left","response":"left","rt":806,"correct":true,"confidence":3},{"trial_n":23,"n_dots":3.65,"target":"left","response":"left","rt":692,"correct":true,"confidence":4},{"trial_n":24,"n_dots":3.55,"target":"left","response":"left","rt":728.00000000001,"correct":true,"confidence":2},{"trial_n":25,"n_dots":3.55,"target":"right","response":"right","rt":1607,"correct":true,"confidence":2},{"trial_n":26,"n_dots":3.45,"target":"left","response":"left","rt":726.99999999999,"correct":true,"confidence":3},{"trial_n":27,"n_dots":3.45,"target":"left","response":"left","rt":2195,"correct":true,"confidence":2},{"trial_n":28,"n_dots":3.35,"target":"left","response":"right","rt":2267,"correct":false,"confidence":1},{"trial_n":29,"n_dots":3.45,"target":"left","response":"left","rt":746,"correct":true,"confidence":4},{"trial_n":30,"n_dots":3.45,"target":"right","response":"right","rt":686,"correct":true,"confidence":2},{"trial_n":31,"n_dots":3.35,"target":"left","response":"left","rt":2200,"correct":true,"confidence":1},{"trial_n":32,"n_dots":3.35,"target":"left","response":"left","rt":1021,"correct":true,"confidence":1},{"trial_n":33,"n_dots":3.25,"target":"right","response":"right","rt":798,"correct":true,"confidence":2},{"trial_n":34,"n_dots":3.25,"target":"right","response":"left","rt":786,"correct":false,"confidence":2},{"trial_n":35,"n_dots":3.35,"target":"right","response":"right","rt":579,"correct":true,"confidence":4},{"trial_n":36,"n_dots":3.35,"target":"left","response":"right","rt":646,"correct":false,"confidence":4},{"trial_n":37,"n_dots":3.45,"target":"left","response":"left","rt":2413,"correct":true,"confidence":1},{"trial_n":38,"n_dots":3.45,"target":"left","response":"left","rt":1209,"correct":true,"confidence":4},{"trial_n":39,"n_dots":3.35,"target":"left","response":"left","rt":1861,"correct":true,"confidence":2},{"trial_n":40,"n_dots":3.35,"target":"left","response":"left","rt":852,"correct":true,"confidence":3},{"trial_n":41,"n_dots":3.25,"target":"right","response":"right","rt":755,"correct":true,"confidence":2},{"trial_n":42,"n_dots":3.25,"target":"right","response":"right","rt":1365,"correct":true,"confidence":1},{"trial_n":43,"n_dots":3.15,"target":"left","response":"left","rt":519.00000000003,"correct":true,"confidence":4},{"trial_n":44,"n_dots":3.15,"target":"right","response":"left","rt":1925,"correct":false,"confidence":2},{"trial_n":45,"n_dots":3.25,"target":"left","response":"right","rt":1527,"correct":false,"confidence":2},{"trial_n":46,"n_dots":3.35,"target":"right","response":"right","rt":2130,"correct":true,"confidence":3},{"trial_n":47,"n_dots":3.35,"target":"right","response":"right","rt":882,"correct":true,"confidence":3},{"trial_n":48,"n_dots":3.25,"target":"left","response":"left","rt":1079,"correct":true,"confidence":2},{"trial_n":49,"n_dots":3.25,"target":"left","response":"left","rt":1111,"correct":true,"confidence":2},{"trial_n":50,"n_dots":3.15,"target":"left","response":"left","rt":1046,"correct":true,"confidence":2},{"trial_n":51,"n_dots":3.15,"target":"right","response":"right","rt":512,"correct":true,"confidence":3},{"trial_n":52,"n_dots":3.05,"target":"right","response":"left","rt":974.99999999997,"correct":false,"confidence":2},{"trial_n":53,"n_dots":3.15,"target":"left","response":"left","rt":731.99999999994,"correct":true,"confidence":4},{"trial_n":54,"n_dots":3.15,"target":"right","response":"left","rt":2171,"correct":false,"confidence":1},{"trial_n":55,"n_dots":3.25,"target":"left","response":"left","rt":710,"correct":true,"confidence":1},{"trial_n":56,"n_dots":3.25,"target":"right","response":"right","rt":1003,"correct":true,"confidence":1},{"trial_n":57,"n_dots":3.15,"target":"left","response":"left","rt":623,"correct":true,"confidence":1},{"trial_n":58,"n_dots":3.15,"target":"right","response":"right","rt":696.00000000006,"correct":true,"confidence":3},{"trial_n":59,"n_dots":3.05,"target":"right","response":"right","rt":1612,"correct":true,"confidence":2},{"trial_n":60,"n_dots":3.05,"target":"right","response":"right","rt":1113,"correct":true,"confidence":2},{"trial_n":61,"n_dots":2.95,"target":"left","response":"left","rt":564,"correct":true,"confidence":3},{"trial_n":62,"n_dots":2.95,"target":"right","response":"left","rt":658,"correct":false,"confidence":4},{"trial_n":63,"n_dots":3.05,"target":"right","response":"left","rt":625,"correct":false,"confidence":3},{"trial_n":64,"n_dots":3.15,"target":"right","response":"left","rt":1352,"correct":false,"confidence":3},{"trial_n":65,"n_dots":3.25,"target":"right","response":"left","rt":810,"correct":false,"confidence":3},{"trial_n":66,"n_dots":3.35,"target":"right","response":"left","rt":627,"correct":false,"confidence":2},{"trial_n":67,"n_dots":3.45,"target":"right","response":"right","rt":2075,"correct":true,"confidence":1},{"trial_n":68,"n_dots":3.45,"target":"left","response":"left","rt":582.99999999994,"correct":true,"confidence":3},{"trial_n":69,"n_dots":3.35,"target":"right","response":"right","rt":840,"correct":true,"confidence":2},{"trial_n":70,"n_dots":3.35,"target":"right","response":"right","rt":2963,"correct":true,"confidence":1},{"trial_n":71,"n_dots":3.25,"target":"right","response":"left","rt":735,"correct":false,"confidence":1},{"trial_n":72,"n_dots":3.35,"target":"right","response":"right","rt":1428,"correct":true,"confidence":2},{"trial_n":73,"n_dots":3.35,"target":"right","response":"left","rt":1468,"correct":false,"confidence":1},{"trial_n":74,"n_dots":3.45,"target":"right","response":"right","rt":1363,"correct":true,"confidence":2},{"trial_n":75,"n_dots":3.45,"target":"right","response":"left","rt":1178.0000000001,"correct":false,"confidence":3},{"trial_n":76,"n_dots":3.55,"target":"right","response":"right","rt":1061.0000000001,"correct":true,"confidence":1},{"trial_n":77,"n_dots":3.55,"target":"left","response":"left","rt":981,"correct":true,"confidence":1},{"trial_n":78,"n_dots":3.45,"target":"left","response":"left","rt":610.99999999994,"correct":true,"confidence":2},{"trial_n":79,"n_dots":3.45,"target":"left","response":"left","rt":950.99999999994,"correct":true,"confidence":2},{"trial_n":80,"n_dots":3.35,"target":"right","response":"right","rt":1266,"correct":true,"confidence":1},{"trial_n":81,"n_dots":3.35,"target":"left","response":"left","rt":616,"correct":true,"confidence":4},{"trial_n":82,"n_dots":3.25,"target":"left","response":"left","rt":611,"correct":true,"confidence":3},{"trial_n":83,"n_dots":3.25,"target":"right","response":"left","rt":869,"correct":false,"confidence":1},{"trial_n":84,"n_dots":3.35,"target":"right","response":"left","rt":5356.9999999999,"correct":false,"confidence":2},{"trial_n":85,"n_dots":3.45,"target":"right","response":"left","rt":1156,"correct":false,"confidence":1},{"trial_n":86,"n_dots":3.55,"target":"right","response":"right","rt":887,"correct":true,"confidence":1},{"trial_n":87,"n_dots":3.55,"target":"right","response":"left","rt":1211,"correct":false,"confidence":2},{"trial_n":88,"n_dots":3.65,"target":"right","response":"left","rt":1925,"correct":false,"confidence":1},{"trial_n":89,"n_dots":3.75,"target":"left","response":"left","rt":885,"correct":true,"confidence":4},{"trial_n":90,"n_dots":3.75,"target":"left","response":"left","rt":816,"correct":true,"confidence":4},{"trial_n":91,"n_dots":3.65,"target":"left","response":"left","rt":595.00000000006,"correct":true,"confidence":4},{"trial_n":92,"n_dots":3.65,"target":"right","response":"right","rt":560,"correct":true,"confidence":3},{"trial_n":93,"n_dots":3.55,"target":"right","response":"left","rt":715,"correct":false,"confidence":3},{"trial_n":94,"n_dots":3.65,"target":"left","response":"left","rt":790.00000000006,"correct":true,"confidence":3},{"trial_n":95,"n_dots":3.65,"target":"right","response":"right","rt":611.99999999994,"correct":true,"confidence":4},{"trial_n":96,"n_dots":3.55,"target":"right","response":"right","rt":519,"correct":true,"confidence":4},{"trial_n":97,"n_dots":3.55,"target":"right","response":"right","rt":486.00000000006,"correct":true,"confidence":3},{"trial_n":98,"n_dots":3.45,"target":"left","response":"left","rt":945,"correct":true,"confidence":2},{"trial_n":99,"n_dots":3.45,"target":"left","response":"left","rt":573.99999999994,"correct":true,"confidence":4},{"trial_n":100,"n_dots":3.35,"target":"left","response":"right","rt":1087,"correct":false,"confidence":3},{"trial_n":101,"n_dots":3.45,"target":"right","response":"right","rt":854.99999999988,"correct":true,"confidence":3},{"trial_n":102,"n_dots":3.45,"target":"left","response":"left","rt":428,"correct":true,"confidence":3},{"trial_n":103,"n_dots":3.35,"target":"right","response":"right","rt":705,"correct":true,"confidence":2},{"trial_n":104,"n_dots":3.35,"target":"left","response":"left","rt":351,"correct":true,"confidence":4},{"trial_n":105,"n_dots":3.25,"target":"right","response":"right","rt":623,"correct":true,"confidence":2},{"trial_n":106,"n_dots":3.25,"target":"left","response":"left","rt":727,"correct":true,"confidence":4},{"trial_n":107,"n_dots":3.15,"target":"left","response":"left","rt":953,"correct":true,"confidence":2},{"trial_n":108,"n_dots":3.15,"target":"left","response":"left","rt":470,"correct":true,"confidence":1},{"trial_n":109,"n_dots":3.05,"target":"right","response":"left","rt":870,"correct":false,"confidence":2},{"trial_n":110,"n_dots":3.15,"target":"left","response":"left","rt":435,"correct":true,"confidence":4},{"trial_n":111,"n_dots":3.15,"target":"right","response":"left","rt":609,"correct":false,"confidence":3},{"trial_n":112,"n_dots":3.25,"target":"left","response":"left","rt":510,"correct":true,"confidence":3},{"trial_n":113,"n_dots":3.25,"target":"left","response":"left","rt":538,"correct":true,"confidence":3},{"trial_n":114,"n_dots":3.15,"target":"left","response":"left","rt":604,"correct":true,"confidence":5},{"trial_n":115,"n_dots":3.15,"target":"left","response":"left","rt":522,"correct":true,"confidence":4},{"trial_n":116,"n_dots":3.05,"target":"right","response":"left","rt":887,"correct":false,"confidence":3},{"trial_n":117,"n_dots":3.15,"target":"left","response":"left","rt":1494,"correct":true,"confidence":4},{"trial_n":118,"n_dots":3.15,"target":"right","response":"right","rt":1160,"correct":true,"confidence":4},{"trial_n":119,"n_dots":3.05,"target":"left","response":"left","rt":625,"correct":true,"confidence":3},{"trial_n":120,"n_dots":3.05,"target":"right","response":"left","rt":1144,"correct":false,"confidence":2}]