[{"trial_n":1,"n_dots":4.25,"target":"right","response":"left","rt":5958,"correct":false,"confidence":-1},{"trial_n":2,"n_dots":4.25,"target":"left","response":"right","rt":670,"correct":false,"confidence":-1},{"trial_n":3,"n_dots":4.65,"target":"right","response":"right","rt":275,"correct":true,"confidence":-1},{"trial_n":4,"n_dots":4.65,"target":"right","response":"right","rt":88,"correct":true,"confidence":-1},{"trial_n":5,"n_dots":4.25,"target":"left","response":"left","rt":20,"correct":true,"confidence":-1},{"trial_n":6,"n_dots":4.25,"target":"right","response":"right","rt":315,"correct":true,"confidence":-1},{"trial_n":7,"n_dots":3.85,"target":"right","response":"left","rt":539,"correct":false,"confidence":-1},{"trial_n":8,"n_dots":4.05,"target":"left","response":"left","rt":50,"correct":true,"confidence":-1},{"trial_n":9,"n_dots":4.05,"target":"left","response":"right","rt":264,"correct":false,"confidence":-1},{"trial_n":10,"n_dots":4.25,"target":"left","response":"left","rt":112,"correct":true,"confidence":-1},{"trial_n":11,"n_dots":4.25,"target":"left","response":"left","rt":252,"correct":true,"confidence":-1},{"trial_n":12,"n_dots":4.05,"target":"left","response":"right","rt":400,"correct":false,"confidence":-1},{"trial_n":13,"n_dots":4.15,"target":"left","response":"left","rt":47,"correct":true,"confidence":-1},{"trial_n":14,"n_dots":4.15,"target":"left","response":"left","rt":2774,"correct":true,"confidence":-1},{"trial_n":15,"n_dots":4.05,"target":"right","response":"right","rt":1366,"correct":true,"confidence":-1},{"trial_n":16,"n_dots":4.05,"target":"left","response":"left","rt":605,"correct":true,"confidence":-1},{"trial_n":17,"n_dots":3.95,"target":"right","response":"right","rt":437,"correct":true,"confidence":-1},{"trial_n":18,"n_dots":3.95,"target":"left","response":"left","rt":486,"correct":true,"confidence":-1},{"trial_n":19,"n_dots":3.85,"target":"left","response":"right","rt":281,"correct":false,"confidence":-1},{"trial_n":20,"n_dots":3.95,"target":"right","response":"right","rt":385,"correct":true,"confidence":-1},{"trial_n":21,"n_dots":3.95,"target":"left","response":"left","rt":328,"correct":true,"confidence":4},{"trial_n":22,"n_dots":3.85,"target":"right","response":"right","rt":415,"correct":true,"confidence":4},{"trial_n":23,"n_dots":3.85,"target":"left","response":"left","rt":655,"correct":true,"confidence":3},{"trial_n":24,"n_dots":3.75,"target":"right","response":"right","rt":651,"correct":true,"confidence":4},{"trial_n":25,"n_dots":3.75,"target":"right","response":"right","rt":979,"correct":true,"confidence":3},{"trial_n":26,"n_dots":3.65,"target":"left","response":"left","rt":382,"correct":true,"confidence":3},{"trial_n":27,"n_dots":3.65,"target":"left","response":"left","rt":462,"correct":true,"confidence":3},{"trial_n":28,"n_dots":3.55,"target":"right","response":"right","rt":660,"correct":true,"confidence":4},{"trial_n":29,"n_dots":3.55,"target":"right","response":"right","rt":745,"correct":true,"confidence":5},{"trial_n":30,"n_dots":3.45,"target":"right","response":"left","rt":734,"correct":false,"confidence":3},{"trial_n":31,"n_dots":3.55,"target":"right","response":"right","rt":519,"correct":true,"confidence":3},{"trial_n":32,"n_dots":3.55,"target":"left","response":"left","rt":658,"correct":true,"confidence":2},{"trial_n":33,"n_dots":3.45,"target":"left","response":"right","rt":730,"correct":false,"confidence":2},{"trial_n":34,"n_dots":3.55,"target":"right","response":"right","rt":457,"correct":true,"confidence":4},{"trial_n":35,"n_dots":3.55,"target":"left","response":"left","rt":608,"correct":true,"confidence":4},{"trial_n":36,"n_dots":3.45,"target":"left","response":"left","rt":501,"correct":true,"confidence":1},{"trial_n":37,"n_dots":3.45,"target":"right","response":"right","rt":560,"correct":true,"confidence":4},{"trial_n":38,"n_dots":3.35,"target":"left","response":"left","rt":678,"correct":true,"confidence":1},{"trial_n":39,"n_dots":3.35,"target":"left","response":"left","rt":710,"correct":true,"confidence":3},{"trial_n":40,"n_dots":3.25,"target":"left","response":"left","rt":545,"correct":true,"confidence":4},{"trial_n":41,"n_dots":3.25,"target":"right","response":"right","rt":969,"correct":true,"confidence":3},{"trial_n":42,"n_dots":3.15,"target":"left","response":"left","rt":739,"correct":true,"confidence":2},{"trial_n":43,"n_dots":3.15,"target":"right","response":"left","rt":653,"correct":false,"confidence":2},{"trial_n":44,"n_dots":3.25,"target":"right","response":"right","rt":541,"correct":true,"confidence":3},{"trial_n":45,"n_dots":3.25,"target":"left","response":"left","rt":369,"correct":true,"confidence":4},{"trial_n":46,"n_dots":3.15,"target":"right","response":"right","rt":495,"correct":true,"confidence":2},{"trial_n":47,"n_dots":3.15,"target":"right","response":"left","rt":497,"correct":false,"confidence":3},{"trial_n":48,"n_dots":3.25,"target":"left","response":"right","rt":417,"correct":false,"confidence":2},{"trial_n":49,"n_dots":3.35,"target":"right","response":"right","rt":201,"correct":true,"confidence":2},{"trial_n":50,"n_dots":3.35,"target":"right","response":"right","rt":395,"correct":true,"confidence":4},{"trial_n":51,"n_dots":3.25,"target":"right","response":"right","rt":382,"correct":true,"confidence":4},{"trial_n":52,"n_dots":3.25,"target":"left","response":"right","rt":733,"correct":false,"confidence":3},{"trial_n":53,"n_dots":3.35,"target":"left","response":"left","rt":596,"correct":true,"confidence":3},{"trial_n":54,"n_dots":3.35,"target":"right","response":"right","rt":135,"correct":true,"confidence":4},{"trial_n":55,"n_dots":3.25,"target":"left","response":"left","rt":468,"correct":true,"confidence":3},{"trial_n":56,"n_dots":3.25,"target":"right","response":"right","rt":610,"correct":true,"confidence":2},{"trial_n":57,"n_dots":3.15,"target":"left","response":"left","rt":432,"correct":true,"confidence":3},{"trial_n":58,"n_dots":3.15,"target":"right","response":"right","rt":476,"correct":true,"confidence":3},{"trial_n":59,"n_dots":3.05,"target":"left","response":"right","rt":606,"correct":false,"confidence":2},{"trial_n":60,"n_dots":3.15,"target":"right","response":"right","rt":545,"correct":true,"confidence":1},{"trial_n":61,"n_dots":3.15,"target":"right","response":"left","rt":482,"correct":false,"confidence":2},{"trial_n":62,"n_dots":3.25,"target":"right","response":"right","rt":452,"correct":true,"confidence":4},{"trial_n":63,"n_dots":3.25,"target":"right","response":"left","rt":434,"correct":false,"confidence":2},{"trial_n":64,"n_dots":3.35,"target":"right","response":"right","rt":74,"correct":true,"confidence":4},{"trial_n":65,"n_dots":3.35,"target":"left","response":"right","rt":696,"correct":false,"confidence":2},{"trial_n":66,"n_dots":3.45,"target":"right","response":"right","rt":586,"correct":true,"confidence":2},{"trial_n":67,"n_dots":3.45,"target":"right","response":"right","rt":483,"correct":true,"confidence":2},{"trial_n":68,"n_dots":3.35,"target":"right","response":"right","rt":31,"correct":true,"confidence":4},{"trial_n":69,"n_dots":3.35,"target":"left","response":"left","rt":389,"correct":true,"confidence":2},{"trial_n":70,"n_dots":3.25,"target":"left","response":"left","rt":457,"correct":true,"confidence":4},{"trial_n":71,"n_dots":3.25,"target":"left","response":"left","rt":306,"correct":true,"confidence":4},{"trial_n":72,"n_dots":3.15,"target":"left","response":"left","rt":455,"correct":true,"confidence":3},{"trial_n":73,"n_dots":3.15,"target":"right","response":"right","rt":473,"correct":true,"confidence":4},{"trial_n":74,"n_dots":3.05,"target":"right","response":"right","rt":669,"correct":true,"confidence":3},{"trial_n":75,"n_dots":3.05,"target":"left","response":"left","rt":160,"correct":true,"confidence":2},{"trial_n":76,"n_dots":2.95,"target":"left","response":"left","rt":41,"correct":true,"confidence":4},{"trial_n":77,"n_dots":2.95,"target":"right","response":"left","rt":751,"correct":false,"confidence":3},{"trial_n":78,"n_dots":3.05,"target":"right","response":"right","rt":654,"correct":true,"confidence":3},{"trial_n":79,"n_dots":3.05,"target":"right","response":"right","rt":272,"correct":true,"confidence":4},{"trial_n":80,"n_dots":2.95,"target":"left","response":"left","rt":576,"correct":true,"confidence":4},{"trial_n":81,"n_dots":2.95,"target":"left","response":"right","rt":522,"correct":false,"confidence":3},{"trial_n":82,"n_dots":3.05,"target":"right","response":"right","rt":452,"correct":true,"confidence":3},{"trial_n":83,"n_dots":3.05,"target":"right","response":"right","rt":253,"correct":true,"confidence":3},{"trial_n":84,"n_dots":2.95,"target":"right","response":"right","rt":500,"correct":true,"confidence":3},{"trial_n":85,"n_dots":2.95,"target":"right","response":"right","rt":555,"correct":true,"confidence":3},{"trial_n":86,"n_dots":2.85,"target":"left","response":"left","rt":826,"correct":true,"confidence":3},{"trial_n":87,"n_dots":2.85,"target":"right","response":"right","rt":208,"correct":true,"confidence":4},{"trial_n":88,"n_dots":2.75,"target":"left","response":"left","rt":723,"correct":true,"confidence":3},{"trial_n":89,"n_dots":2.75,"target":"left","response":"left","rt":359,"correct":true,"confidence":4},{"trial_n":90,"n_dots":2.65,"target":"left","response":"left","rt":587,"correct":true,"confidence":2},{"trial_n":91,"n_dots":2.65,"target":"left","response":"left","rt":8193,"correct":true,"confidence":3},{"trial_n":92,"n_dots":2.55,"target":"right","response":"left","rt":215,"correct":false,"confidence":1},{"trial_n":93,"n_dots":2.65,"target":"left","response":"left","rt":184,"correct":true,"confidence":1},{"trial_n":94,"n_dots":2.65,"target":"left","response":"right","rt":659,"correct":false,"confidence":1},{"trial_n":95,"n_dots":2.75,"target":"right","response":"left","rt":6,"correct":false,"confidence":1},{"trial_n":96,"n_dots":2.85,"target":"right","response":"right","rt":500,"correct":true,"confidence":1},{"trial_n":97,"n_dots":2.85,"target":"right","response":"right","rt":756,"correct":true,"confidence":1},{"trial_n":98,"n_dots":2.75,"target":"left","response":"left","rt":436,"correct":true,"confidence":1},{"trial_n":99,"n_dots":2.75,"target":"left","response":"left","rt":186,"correct":true,"confidence":1},{"trial_n":100,"n_dots":2.65,"target":"left","response":"left","rt":406,"correct":true,"confidence":3},{"trial_n":101,"n_dots":2.65,"target":"left","response":"left","rt":3,"correct":true,"confidence":4},{"trial_n":102,"n_dots":2.55,"target":"right","response":"right","rt":463,"correct":true,"confidence":3},{"trial_n":103,"n_dots":2.55,"target":"left","response":"left","rt":416,"correct":true,"confidence":2},{"trial_n":104,"n_dots":2.45,"target":"left","response":"left","rt":107,"correct":true,"confidence":2},{"trial_n":105,"n_dots":2.45,"target":"right","response":"right","rt":210,"correct":true,"confidence":2},{"trial_n":106,"n_dots":2.35,"target":"right","response":"right","rt":109,"correct":true,"confidence":1},{"trial_n":107,"n_dots":2.35,"target":"right","response":"left","rt":493,"correct":false,"confidence":2},{"trial_n":108,"n_dots":2.45,"target":"left","response":"left","rt":94,"correct":true,"confidence":1},{"trial_n":109,"n_dots":2.45,"target":"right","response":"left","rt":104,"correct":false,"confidence":1},{"trial_n":110,"n_dots":2.55,"target":"left","response":"left","rt":4330,"correct":true,"confidence":2},{"trial_n":111,"n_dots":2.55,"target":"right","response":"left","rt":492,"correct":false,"confidence":1},{"trial_n":112,"n_dots":2.65,"target":"left","response":"left","rt":260,"correct":true,"confidence":1},{"trial_n":113,"n_dots":2.65,"target":"left","response":"left","rt":36,"correct":true,"confidence":2},{"trial_n":114,"n_dots":2.55,"target":"right","response":"left","rt":489,"correct":false,"confidence":1},{"trial_n":115,"n_dots":2.65,"target":"right","response":"right","rt":201,"correct":true,"confidence":2},{"trial_n":116,"n_dots":2.65,"target":"left","response":"left","rt":422,"correct":true,"confidence":2},{"trial_n":117,"n_dots":2.55,"target":"left","response":"right","rt":22,"correct":false,"confidence":2},{"trial_n":118,"n_dots":2.65,"target":"right","response":"left","rt":1268,"correct":false,"confidence":1},{"trial_n":119,"n_dots":2.75,"target":"right","response":"right","rt":455,"correct":true,"confidence":2},{"trial_n":120,"n_dots":2.75,"target":"left","response":"left","rt":565,"correct":true,"confidence":2}]