[{"trial_n":1,"min":25,"max":230,"target":"present","response":"present","rt":1456.5999999046,"correct":true,"confidence":-1},{"trial_n":2,"min":25,"max":230,"target":"present","response":"present","rt":1444.7000002861,"correct":true,"confidence":-1},{"trial_n":3,"min":41,"max":214,"target":"absent","response":"absent","rt":1555.5,"correct":true,"confidence":-1},{"trial_n":4,"min":41,"max":214,"target":"absent","response":"absent","rt":690.2000002861,"correct":true,"confidence":-1},{"trial_n":5,"min":57,"max":198,"target":"present","response":"present","rt":1305.8000001907,"correct":true,"confidence":-1},{"trial_n":6,"min":57,"max":198,"target":"absent","response":"absent","rt":6525.3000001907,"correct":true,"confidence":-1},{"trial_n":7,"min":73,"max":182,"target":"present","response":"present","rt":428.90000009537,"correct":true,"confidence":-1},{"trial_n":8,"min":73,"max":182,"target":"absent","response":"absent","rt":474.5,"correct":true,"confidence":-1},{"trial_n":9,"min":89,"max":166,"target":"absent","response":"absent","rt":430.5,"correct":true,"confidence":-1},{"trial_n":10,"min":89,"max":166,"target":"present","response":"present","rt":727,"correct":true,"confidence":-1},{"trial_n":11,"min":97,"max":158,"target":"present","response":"absent","rt":790,"correct":false,"confidence":-1},{"trial_n":12,"min":89,"max":166,"target":"present","response":"absent","rt":1021.6999998093,"correct":false,"confidence":-1},{"trial_n":13,"min":81,"max":174,"target":"present","response":"present","rt":702.40000009537,"correct":true,"confidence":-1},{"trial_n":14,"min":81,"max":174,"target":"absent","response":"absent","rt":585.90000009537,"correct":true,"confidence":-1},{"trial_n":15,"min":89,"max":166,"target":"present","response":"absent","rt":488,"correct":false,"confidence":-1},{"trial_n":16,"min":81,"max":174,"target":"present","response":"present","rt":458.7000002861,"correct":true,"confidence":-1},{"trial_n":17,"min":81,"max":174,"target":"absent","response":"present","rt":426.59999990463,"correct":false,"confidence":-1},{"trial_n":18,"min":73,"max":182,"target":"present","response":"present","rt":569.89999961853,"correct":true,"confidence":-1},{"trial_n":19,"min":73,"max":182,"target":"absent","response":"absent","rt":457.39999961853,"correct":true,"confidence":-1},{"trial_n":20,"min":81,"max":174,"target":"absent","response":"absent","rt":520.40000009537,"correct":true,"confidence":-1},{"trial_n":21,"min":81,"max":174,"target":"present","response":"present","rt":646,"correct":true,"confidence":4},{"trial_n":22,"min":85,"max":170,"target":"present","response":"present","rt":1114.4000000954,"correct":true,"confidence":1},{"trial_n":23,"min":85,"max":170,"target":"absent","response":"absent","rt":2456.6999998093,"correct":true,"confidence":1},{"trial_n":24,"min":89,"max":166,"target":"absent","response":"present","rt":1125.3000001907,"correct":false,"confidence":3},{"trial_n":25,"min":85,"max":170,"target":"absent","response":"present","rt":1190.7000002861,"correct":false,"confidence":2},{"trial_n":26,"min":81,"max":174,"target":"present","response":"absent","rt":3762.5999999046,"correct":false,"confidence":3},{"trial_n":27,"min":77,"max":178,"target":"present","response":"present","rt":1187.9000000954,"correct":true,"confidence":3},{"trial_n":28,"min":77,"max":178,"target":"absent","response":"absent","rt":1393.3000001907,"correct":true,"confidence":3},{"trial_n":29,"min":81,"max":174,"target":"present","response":"present","rt":2378.1000003815,"correct":true,"confidence":3},{"trial_n":30,"min":81,"max":174,"target":"absent","response":"absent","rt":1545.4000000954,"correct":true,"confidence":3},{"trial_n":31,"min":83,"max":172,"target":"present","response":"absent","rt":1278.5,"correct":false,"confidence":3},{"trial_n":32,"min":81,"max":174,"target":"present","response":"absent","rt":562.5,"correct":false,"confidence":1},{"trial_n":33,"min":79,"max":176,"target":"present","response":"absent","rt":1096.4000000954,"correct":false,"confidence":1},{"trial_n":34,"min":77,"max":178,"target":"absent","response":"absent","rt":719.80000019073,"correct":true,"confidence":1},{"trial_n":35,"min":77,"max":178,"target":"absent","response":"absent","rt":695.30000019073,"correct":true,"confidence":2},{"trial_n":36,"min":79,"max":176,"target":"present","response":"present","rt":1212.5999999046,"correct":true,"confidence":2},{"trial_n":37,"min":79,"max":176,"target":"absent","response":"absent","rt":765.5,"correct":true,"confidence":3},{"trial_n":38,"min":81,"max":174,"target":"absent","response":"present","rt":1585.1000003815,"correct":false,"confidence":3},{"trial_n":39,"min":79,"max":176,"target":"absent","response":"absent","rt":849.2000002861,"correct":true,"confidence":2},{"trial_n":40,"min":79,"max":176,"target":"absent","response":"absent","rt":2190,"correct":true,"confidence":3},{"trial_n":41,"min":80,"max":175,"target":"present","response":"present","rt":1343.5999999046,"correct":true,"confidence":4},{"trial_n":42,"min":80,"max":175,"target":"absent","response":"absent","rt":1299.6999998093,"correct":true,"confidence":3},{"trial_n":43,"min":81,"max":174,"target":"present","response":"present","rt":1212.1000003815,"correct":true,"confidence":3},{"trial_n":44,"min":81,"max":174,"target":"absent","response":"absent","rt":1259.2000002861,"correct":true,"confidence":4},{"trial_n":45,"min":82,"max":173,"target":"absent","response":"present","rt":1520.0999999046,"correct":false,"confidence":3},{"trial_n":46,"min":81,"max":174,"target":"absent","response":"absent","rt":782.30000019073,"correct":true,"confidence":3},{"trial_n":47,"min":81,"max":174,"target":"present","response":"present","rt":928.59999990463,"correct":true,"confidence":2},{"trial_n":48,"min":82,"max":173,"target":"present","response":"absent","rt":801.7999997139,"correct":false,"confidence":2},{"trial_n":49,"min":81,"max":174,"target":"present","response":"present","rt":1256.0999999046,"correct":true,"confidence":3},{"trial_n":50,"min":81,"max":174,"target":"absent","response":"absent","rt":840.40000009537,"correct":true,"confidence":4},{"trial_n":51,"min":82,"max":173,"target":"present","response":"present","rt":1174.5,"correct":true,"confidence":4},{"trial_n":52,"min":82,"max":173,"target":"absent","response":"absent","rt":838.2000002861,"correct":true,"confidence":2},{"trial_n":53,"min":83,"max":172,"target":"absent","response":"absent","rt":764.7000002861,"correct":true,"confidence":3},{"trial_n":54,"min":83,"max":172,"target":"present","response":"present","rt":1590.6000003815,"correct":true,"confidence":1},{"trial_n":55,"min":84,"max":171,"target":"absent","response":"absent","rt":1526.1999998093,"correct":true,"confidence":4},{"trial_n":56,"min":84,"max":171,"target":"present","response":"present","rt":968.7000002861,"correct":true,"confidence":4},{"trial_n":57,"min":85,"max":170,"target":"absent","response":"present","rt":1091.3999996185,"correct":false,"confidence":2},{"trial_n":58,"min":84,"max":171,"target":"present","response":"present","rt":1371.9000000954,"correct":true,"confidence":1},{"trial_n":59,"min":84,"max":171,"target":"absent","response":"absent","rt":614.09999990463,"correct":true,"confidence":4},{"trial_n":60,"min":85,"max":170,"target":"present","response":"present","rt":882.19999980927,"correct":true,"confidence":3},{"trial_n":61,"min":85,"max":170,"target":"absent","response":"absent","rt":1059.5,"correct":true,"confidence":1},{"trial_n":62,"min":86,"max":169,"target":"absent","response":"absent","rt":801.09999990463,"correct":true,"confidence":2},{"trial_n":63,"min":86,"max":169,"target":"present","response":"absent","rt":886.30000019073,"correct":false,"confidence":1},{"trial_n":64,"min":85,"max":170,"target":"present","response":"present","rt":724.5,"correct":true,"confidence":4},{"trial_n":65,"min":85,"max":170,"target":"present","response":"present","rt":887.2999997139,"correct":true,"confidence":3},{"trial_n":66,"min":86,"max":169,"target":"present","response":"present","rt":695.59999990463,"correct":true,"confidence":5},{"trial_n":67,"min":86,"max":169,"target":"absent","response":"absent","rt":758.7000002861,"correct":true,"confidence":2},{"trial_n":68,"min":87,"max":168,"target":"present","response":"present","rt":764.30000019073,"correct":true,"confidence":5},{"trial_n":69,"min":87,"max":168,"target":"absent","response":"absent","rt":919,"correct":true,"confidence":1},{"trial_n":70,"min":88,"max":167,"target":"present","response":"absent","rt":689.5,"correct":false,"confidence":1},{"trial_n":71,"min":41,"max":214,"target":"present","response":"present","rt":7374.9000000954,"correct":true,"confidence":-1},{"trial_n":72,"min":41,"max":214,"target":"present","response":"absent","rt":3776.5999999046,"correct":false,"confidence":-1},{"trial_n":73,"min":25,"max":230,"target":"absent","response":"absent","rt":470.39999961853,"correct":true,"confidence":-1},{"trial_n":74,"min":25,"max":230,"target":"absent","response":"present","rt":437.2000002861,"correct":false,"confidence":-1},{"trial_n":75,"min":9,"max":246,"target":"present","response":"present","rt":390.40000009537,"correct":true,"confidence":-1},{"trial_n":76,"min":9,"max":246,"target":"absent","response":"absent","rt":421.90000009537,"correct":true,"confidence":-1},{"trial_n":77,"min":25,"max":230,"target":"absent","response":"absent","rt":379.80000019073,"correct":true,"confidence":-1},{"trial_n":78,"min":25,"max":230,"target":"present","response":"present","rt":327.09999990463,"correct":true,"confidence":-1},{"trial_n":79,"min":41,"max":214,"target":"present","response":"present","rt":452.5,"correct":true,"confidence":-1},{"trial_n":80,"min":41,"max":214,"target":"absent","response":"absent","rt":481.39999961853,"correct":true,"confidence":-1},{"trial_n":81,"min":49,"max":206,"target":"present","response":"present","rt":376.80000019073,"correct":true,"confidence":-1},{"trial_n":82,"min":49,"max":206,"target":"present","response":"present","rt":359.80000019073,"correct":true,"confidence":-1},{"trial_n":83,"min":57,"max":198,"target":"present","response":"present","rt":958.39999961853,"correct":true,"confidence":-1},{"trial_n":84,"min":57,"max":198,"target":"absent","response":"absent","rt":565,"correct":true,"confidence":-1},{"trial_n":85,"min":65,"max":190,"target":"present","response":"present","rt":298.2000002861,"correct":true,"confidence":-1},{"trial_n":86,"min":65,"max":190,"target":"absent","response":"absent","rt":422.90000009537,"correct":true,"confidence":-1},{"trial_n":87,"min":73,"max":182,"target":"present","response":"present","rt":406.80000019073,"correct":true,"confidence":-1},{"trial_n":88,"min":73,"max":182,"target":"absent","response":"absent","rt":436.59999990463,"correct":true,"confidence":-1},{"trial_n":89,"min":81,"max":174,"target":"absent","response":"absent","rt":424.40000009537,"correct":true,"confidence":-1},{"trial_n":90,"min":81,"max":174,"target":"absent","response":"present","rt":327.59999990463,"correct":false,"confidence":-1},{"trial_n":91,"min":77,"max":178,"target":"present","response":"present","rt":3887.7999997139,"correct":true,"confidence":1},{"trial_n":92,"min":77,"max":178,"target":"absent","response":"absent","rt":1369,"correct":true,"confidence":2},{"trial_n":93,"min":81,"max":174,"target":"absent","response":"present","rt":2152.5,"correct":false,"confidence":2},{"trial_n":94,"min":77,"max":178,"target":"absent","response":"absent","rt":2629.7999997139,"correct":true,"confidence":3},{"trial_n":95,"min":77,"max":178,"target":"absent","response":"absent","rt":1594.4000000954,"correct":true,"confidence":2},{"trial_n":96,"min":81,"max":174,"target":"present","response":"present","rt":784.39999961853,"correct":true,"confidence":5},{"trial_n":97,"min":81,"max":174,"target":"present","response":"present","rt":1672.3999996185,"correct":true,"confidence":2},{"trial_n":98,"min":85,"max":170,"target":"present","response":"present","rt":1458.8000001907,"correct":true,"confidence":3},{"trial_n":99,"min":85,"max":170,"target":"present","response":"present","rt":957.59999990463,"correct":true,"confidence":4},{"trial_n":100,"min":89,"max":166,"target":"present","response":"present","rt":938,"correct":true,"confidence":3},{"trial_n":101,"min":89,"max":166,"target":"present","response":"present","rt":1733.5999999046,"correct":true,"confidence":2},{"trial_n":102,"min":91,"max":164,"target":"present","response":"present","rt":850.30000019073,"correct":true,"confidence":4},{"trial_n":103,"min":91,"max":164,"target":"absent","response":"present","rt":1051.5,"correct":false,"confidence":4},{"trial_n":104,"min":89,"max":166,"target":"present","response":"present","rt":806.40000009537,"correct":true,"confidence":4},{"trial_n":105,"min":89,"max":166,"target":"absent","response":"absent","rt":1056.9000000954,"correct":true,"confidence":4},{"trial_n":106,"min":91,"max":164,"target":"present","response":"present","rt":1212.5999999046,"correct":true,"confidence":1},{"trial_n":107,"min":91,"max":164,"target":"present","response":"present","rt":879.10000038147,"correct":true,"confidence":3},{"trial_n":108,"min":93,"max":162,"target":"present","response":"present","rt":970.69999980927,"correct":true,"confidence":3},{"trial_n":109,"min":93,"max":162,"target":"absent","response":"present","rt":2053.6999998093,"correct":false,"confidence":2},{"trial_n":110,"min":91,"max":164,"target":"absent","response":"present","rt":937.90000009537,"correct":false,"confidence":2},{"trial_n":111,"min":90,"max":165,"target":"present","response":"absent","rt":1716.1000003815,"correct":false,"confidence":1},{"trial_n":112,"min":89,"max":166,"target":"absent","response":"absent","rt":1017.6999998093,"correct":true,"confidence":4},{"trial_n":113,"min":89,"max":166,"target":"present","response":"present","rt":2273.2000002861,"correct":true,"confidence":3},{"trial_n":114,"min":90,"max":165,"target":"absent","response":"absent","rt":918.69999980927,"correct":true,"confidence":1},{"trial_n":115,"min":90,"max":165,"target":"present","response":"present","rt":864.30000019073,"correct":true,"confidence":2},{"trial_n":116,"min":91,"max":164,"target":"absent","response":"present","rt":597.09999990463,"correct":false,"confidence":5},{"trial_n":117,"min":90,"max":165,"target":"present","response":"present","rt":708.30000019073,"correct":true,"confidence":3},{"trial_n":118,"min":90,"max":165,"target":"present","response":"absent","rt":1026.8000001907,"correct":false,"confidence":1},{"trial_n":119,"min":89,"max":166,"target":"present","response":"present","rt":1133.5999999046,"correct":true,"confidence":1},{"trial_n":120,"min":89,"max":166,"target":"absent","response":"present","rt":717.39999961853,"correct":false,"confidence":2},{"trial_n":121,"min":88,"max":167,"target":"absent","response":"absent","rt":814.5,"correct":true,"confidence":1},{"trial_n":122,"min":88,"max":167,"target":"absent","response":"absent","rt":864.90000009537,"correct":true,"confidence":4},{"trial_n":123,"min":89,"max":166,"target":"absent","response":"absent","rt":923.5,"correct":true,"confidence":1},{"trial_n":124,"min":89,"max":166,"target":"absent","response":"absent","rt":1085.0999999046,"correct":true,"confidence":4},{"trial_n":125,"min":90,"max":165,"target":"absent","response":"absent","rt":987.30000019073,"correct":true,"confidence":3},{"trial_n":126,"min":90,"max":165,"target":"present","response":"present","rt":895.59999990463,"correct":true,"confidence":3},{"trial_n":127,"min":91,"max":164,"target":"present","response":"absent","rt":1008.3000001907,"correct":false,"confidence":3},{"trial_n":128,"min":90,"max":165,"target":"absent","response":"absent","rt":2054,"correct":true,"confidence":1},{"trial_n":129,"min":90,"max":165,"target":"absent","response":"present","rt":769.2000002861,"correct":false,"confidence":3},{"trial_n":130,"min":89,"max":166,"target":"present","response":"present","rt":705.2000002861,"correct":true,"confidence":2},{"trial_n":131,"min":89,"max":166,"target":"present","response":"present","rt":1005.3000001907,"correct":true,"confidence":1},{"trial_n":132,"min":90,"max":165,"target":"absent","response":"absent","rt":927.2000002861,"correct":true,"confidence":4},{"trial_n":133,"min":90,"max":165,"target":"absent","response":"present","rt":627.59999990463,"correct":false,"confidence":4},{"trial_n":134,"min":89,"max":166,"target":"absent","response":"absent","rt":911.2000002861,"correct":true,"confidence":2},{"trial_n":135,"min":89,"max":166,"target":"absent","response":"absent","rt":1116.0999999046,"correct":true,"confidence":1},{"trial_n":136,"min":90,"max":165,"target":"present","response":"present","rt":783.60000038147,"correct":true,"confidence":3},{"trial_n":137,"min":90,"max":165,"target":"absent","response":"absent","rt":879.80000019073,"correct":true,"confidence":4},{"trial_n":138,"min":91,"max":164,"target":"present","response":"present","rt":655.59999990463,"correct":true,"confidence":5},{"trial_n":139,"min":91,"max":164,"target":"present","response":"present","rt":737.19999980927,"correct":true,"confidence":5},{"trial_n":140,"min":92,"max":163,"target":"present","response":"absent","rt":773.60000038147,"correct":false,"confidence":1}]