[{"trial_n":1,"span":8,"encoder":"94770812","distractor":"94770612","target":"present","response":"absent","rt":"4689.3999998569","correct":false,"confidence":-1},{"trial_n":2,"span":6,"encoder":"992315","distractor":"992215","target":"present","response":"absent","rt":"2003.0999999046","correct":false,"confidence":-1},{"trial_n":3,"span":4,"encoder":"5371","distractor":"4371","target":"absent","response":"absent","rt":"2582.8999998569","correct":true,"confidence":-1},{"trial_n":4,"span":4,"encoder":"9613","distractor":"5613","target":"absent","response":"absent","rt":"1484.6000001431","correct":true,"confidence":-1},{"trial_n":5,"span":6,"encoder":"163211","distractor":"163271","target":"present","response":"present","rt":"2968.8999998569","correct":true,"confidence":-1},{"trial_n":6,"span":6,"encoder":"952637","distractor":"952667","target":"absent","response":"absent","rt":"1335.7000000477","correct":true,"confidence":-1},{"trial_n":7,"span":8,"encoder":"29579467","distractor":"29279467","target":"present","response":"absent","rt":"1504.2999999523","correct":false,"confidence":-1},{"trial_n":8,"span":6,"encoder":"192374","distractor":"792374","target":"present","response":"present","rt":"1534.9000000954","correct":true,"confidence":-1},{"trial_n":9,"span":6,"encoder":"050706","distractor":"050705","target":"present","response":"present","rt":"2373.5999999046","correct":true,"confidence":-1},{"trial_n":10,"span":8,"encoder":"12647517","distractor":"12627517","target":"present","response":"present","rt":"1620.1000001431","correct":true,"confidence":-1},{"trial_n":11,"span":8,"encoder":"18996327","distractor":"18996127","target":"present","response":"present","rt":"1941.2999999523","correct":true,"confidence":-1},{"trial_n":12,"span":9,"encoder":"007507690","distractor":"006507690","target":"present","response":"present","rt":"1029.8999998569","correct":true,"confidence":-1},{"trial_n":13,"span":9,"encoder":"682362615","distractor":"682362619","target":"absent","response":"absent","rt":"1945.6000001431","correct":true,"confidence":-1},{"trial_n":14,"span":10,"encoder":"6462739650","distractor":"6862739650","target":"absent","response":"absent","rt":"3378.7999999523","correct":true,"confidence":-1},{"trial_n":15,"span":10,"encoder":"3369594333","distractor":"3169594333","target":"present","response":"absent","rt":"1219.5999999046","correct":false,"confidence":-1},{"trial_n":16,"span":9,"encoder":"954043238","distractor":"954043138","target":"absent","response":"present","rt":"1047","correct":false,"confidence":-1},{"trial_n":17,"span":8,"encoder":"62843628","distractor":"62843028","target":"absent","response":"present","rt":"2045.0999999046","correct":false,"confidence":-1},{"trial_n":18,"span":7,"encoder":"5543692","distractor":"5540692","target":"absent","response":"present","rt":"2788.2000000477","correct":false,"confidence":-1},{"trial_n":19,"span":6,"encoder":"341391","distractor":"841391","target":"absent","response":"present","rt":"1657.2999999523","correct":false,"confidence":-1},{"trial_n":20,"span":5,"encoder":"04072","distractor":"04076","target":"absent","response":"absent","rt":"1104.7999999523","correct":true,"confidence":-1},{"trial_n":21,"span":5,"encoder":"99753","distractor":"90753","target":"absent","response":"present","rt":"3987.5","correct":false,"confidence":1},{"trial_n":22,"span":4,"encoder":"9806","distractor":"9406","target":"absent","response":"absent","rt":"3656.7999999523","correct":true,"confidence":5},{"trial_n":23,"span":4,"encoder":"0378","distractor":"0878","target":"absent","response":"absent","rt":"3503.5999999046","correct":true,"confidence":5},{"trial_n":24,"span":5,"encoder":"07688","distractor":"07658","target":"absent","response":"absent","rt":"3567.5999999046","correct":true,"confidence":5},{"trial_n":25,"span":5,"encoder":"92364","distractor":"92314","target":"present","response":"present","rt":"1905.2000000477","correct":true,"confidence":5},{"trial_n":26,"span":6,"encoder":"813066","distractor":"863066","target":"present","response":"present","rt":"1200.2000000477","correct":true,"confidence":4},{"trial_n":27,"span":6,"encoder":"599620","distractor":"549620","target":"absent","response":"absent","rt":"2568.4000000954","correct":true,"confidence":4},{"trial_n":28,"span":7,"encoder":"3032019","distractor":"3030019","target":"present","response":"present","rt":"1897.7999999523","correct":true,"confidence":5},{"trial_n":29,"span":7,"encoder":"5420819","distractor":"5430819","target":"absent","response":"absent","rt":"3494.2000000477","correct":true,"confidence":1},{"trial_n":30,"span":8,"encoder":"63384895","distractor":"13384895","target":"present","response":"absent","rt":"4197.9000000954","correct":false,"confidence":1},{"trial_n":31,"span":7,"encoder":"1564948","distractor":"1514948","target":"absent","response":"absent","rt":"3079.2000000477","correct":true,"confidence":5},{"trial_n":32,"span":7,"encoder":"6914596","distractor":"6910596","target":"present","response":"absent","rt":"6941.5","correct":false,"confidence":2},{"trial_n":33,"span":6,"encoder":"198561","distractor":"198565","target":"present","response":"present","rt":"1547.2999999523","correct":true,"confidence":5},{"trial_n":34,"span":6,"encoder":"365354","distractor":"365954","target":"present","response":"present","rt":"1498.5","correct":true,"confidence":4},{"trial_n":35,"span":7,"encoder":"6989262","distractor":"9989262","target":"present","response":"present","rt":"1016.7000000477","correct":true,"confidence":5},{"trial_n":36,"span":7,"encoder":"0084521","distractor":"6084521","target":"absent","response":"absent","rt":"5828.8999998569","correct":true,"confidence":3},{"trial_n":37,"span":8,"encoder":"09104865","distractor":"09104165","target":"present","response":"present","rt":"4961","correct":true,"confidence":4},{"trial_n":38,"span":8,"encoder":"56035624","distractor":"56035674","target":"absent","response":"absent","rt":"1693","correct":true,"confidence":4},{"trial_n":39,"span":9,"encoder":"668378310","distractor":"668370310","target":"absent","response":"present","rt":"3122.8999998569","correct":false,"confidence":3},{"trial_n":40,"span":8,"encoder":"94626891","distractor":"91626891","target":"present","response":"present","rt":"4681.8999998569","correct":true,"confidence":4},{"trial_n":41,"span":8,"encoder":"52001769","distractor":"52002769","target":"absent","response":"absent","rt":"2112.6000001431","correct":true,"confidence":5},{"trial_n":42,"span":9,"encoder":"047479160","distractor":"047479120","target":"present","response":"absent","rt":"3058.7000000477","correct":false,"confidence":4},{"trial_n":43,"span":8,"encoder":"47741878","distractor":"47541878","target":"present","response":"absent","rt":"7112","correct":false,"confidence":4},{"trial_n":44,"span":7,"encoder":"6730912","distractor":"6730922","target":"present","response":"present","rt":"1227.8999998569","correct":true,"confidence":4},{"trial_n":45,"span":7,"encoder":"6661867","distractor":"6661467","target":"absent","response":"absent","rt":"4243","correct":true,"confidence":4},{"trial_n":46,"span":8,"encoder":"11411821","distractor":"11410821","target":"present","response":"present","rt":"1252.7000000477","correct":true,"confidence":3},{"trial_n":47,"span":8,"encoder":"65184677","distractor":"60184677","target":"absent","response":"present","rt":"968.59999990463","correct":false,"confidence":4},{"trial_n":48,"span":7,"encoder":"3365676","distractor":"3364676","target":"present","response":"present","rt":"2101.7999999523","correct":true,"confidence":4},{"trial_n":49,"span":7,"encoder":"5541567","distractor":"5941567","target":"absent","response":"absent","rt":"2417.2999999523","correct":true,"confidence":5},{"trial_n":50,"span":8,"encoder":"30601823","distractor":"30691823","target":"absent","response":"absent","rt":"3678.4000000954","correct":true,"confidence":4},{"trial_n":51,"span":8,"encoder":"09944026","distractor":"09944096","target":"present","response":"present","rt":"2653.2000000477","correct":true,"confidence":2},{"trial_n":52,"span":9,"encoder":"694511147","distractor":"692511147","target":"absent","response":"present","rt":"1651.5999999046","correct":false,"confidence":2},{"trial_n":53,"span":8,"encoder":"98015074","distractor":"38015074","target":"absent","response":"present","rt":"1357.2999999523","correct":false,"confidence":4},{"trial_n":54,"span":7,"encoder":"6996701","distractor":"6996501","target":"present","response":"present","rt":"3891","correct":true,"confidence":1},{"trial_n":55,"span":7,"encoder":"3527094","distractor":"4527094","target":"absent","response":"absent","rt":"2810.2000000477","correct":true,"confidence":1},{"trial_n":56,"span":8,"encoder":"93880888","distractor":"93830888","target":"present","response":"absent","rt":"1789.1000001431","correct":false,"confidence":2},{"trial_n":57,"span":7,"encoder":"5216353","distractor":"5210353","target":"present","response":"present","rt":"1736.5","correct":true,"confidence":1},{"trial_n":58,"span":7,"encoder":"8036423","distractor":"8036426","target":"absent","response":"absent","rt":"7162.5999999046","correct":true,"confidence":1},{"trial_n":59,"span":8,"encoder":"38448770","distractor":"38478770","target":"present","response":"absent","rt":"2404.5","correct":false,"confidence":1},{"trial_n":60,"span":7,"encoder":"8974478","distractor":"8973478","target":"absent","response":"absent","rt":"4354.2000000477","correct":true,"confidence":2},{"trial_n":61,"span":7,"encoder":"5425067","distractor":"5425077","target":"present","response":"present","rt":"1858.7000000477","correct":true,"confidence":1},{"trial_n":62,"span":8,"encoder":"04342380","distractor":"04842380","target":"present","response":"present","rt":"1905.5","correct":true,"confidence":3},{"trial_n":63,"span":8,"encoder":"33285886","distractor":"33185886","target":"absent","response":"absent","rt":"1957.8999998569","correct":true,"confidence":5},{"trial_n":64,"span":9,"encoder":"085925797","distractor":"085925717","target":"absent","response":"present","rt":"2551.7000000477","correct":false,"confidence":2},{"trial_n":65,"span":8,"encoder":"32045586","distractor":"32045686","target":"absent","response":"absent","rt":"1967.3999998569","correct":true,"confidence":4},{"trial_n":66,"span":8,"encoder":"08296985","distractor":"08296285","target":"present","response":"present","rt":"1684.7999999523","correct":true,"confidence":5},{"trial_n":67,"span":9,"encoder":"774322556","distractor":"754322556","target":"present","response":"present","rt":"2673.2000000477","correct":true,"confidence":4},{"trial_n":68,"span":9,"encoder":"163242876","distractor":"113242876","target":"present","response":"present","rt":"2072.5999999046","correct":true,"confidence":4},{"trial_n":69,"span":10,"encoder":"8774885708","distractor":"8772885708","target":"present","response":"present","rt":"2580.7000000477","correct":true,"confidence":4},{"trial_n":70,"span":10,"encoder":"8959989856","distractor":"8954989856","target":"absent","response":"absent","rt":"3552","correct":true,"confidence":4},{"trial_n":71,"span":8,"encoder":"30208978","distractor":"30208578","target":"present","response":"present","rt":"2906.1000001431","correct":true,"confidence":-1},{"trial_n":72,"span":8,"encoder":"22673977","distractor":"22653977","target":"present","response":"present","rt":"6416.8999998569","correct":true,"confidence":-1},{"trial_n":73,"span":9,"encoder":"040894672","distractor":"040194672","target":"absent","response":"present","rt":"923.89999985695","correct":false,"confidence":-1},{"trial_n":74,"span":8,"encoder":"03274047","distractor":"03674047","target":"absent","response":"present","rt":"1058.5999999046","correct":false,"confidence":-1},{"trial_n":75,"span":7,"encoder":"7777411","distractor":"7777401","target":"present","response":"present","rt":"3746.7999999523","correct":true,"confidence":-1},{"trial_n":76,"span":7,"encoder":"8980160","distractor":"5980160","target":"absent","response":"absent","rt":"2338.5","correct":true,"confidence":-1},{"trial_n":77,"span":8,"encoder":"76032277","distractor":"76932277","target":"absent","response":"absent","rt":"3436.2000000477","correct":true,"confidence":-1},{"trial_n":78,"span":8,"encoder":"72771514","distractor":"72771518","target":"absent","response":"absent","rt":"1874.7000000477","correct":true,"confidence":-1},{"trial_n":79,"span":9,"encoder":"087422164","distractor":"087422167","target":"present","response":"present","rt":"1764.2999999523","correct":true,"confidence":-1},{"trial_n":80,"span":9,"encoder":"737564418","distractor":"737764418","target":"present","response":"absent","rt":"1952.5","correct":false,"confidence":-1},{"trial_n":81,"span":8,"encoder":"52362276","distractor":"52362476","target":"absent","response":"absent","rt":"2455.4000000954","correct":true,"confidence":-1},{"trial_n":82,"span":8,"encoder":"96232770","distractor":"96532770","target":"present","response":"absent","rt":"4122.7000000477","correct":false,"confidence":-1},{"trial_n":83,"span":7,"encoder":"9772761","distractor":"9472761","target":"present","response":"present","rt":"983.79999995232","correct":true,"confidence":-1},{"trial_n":84,"span":7,"encoder":"4641575","distractor":"9641575","target":"absent","response":"present","rt":"2031.7999999523","correct":false,"confidence":-1},{"trial_n":85,"span":6,"encoder":"289638","distractor":"289636","target":"present","response":"absent","rt":"998.40000009537","correct":false,"confidence":-1},{"trial_n":86,"span":5,"encoder":"64257","distractor":"64251","target":"present","response":"present","rt":"1854.0999999046","correct":true,"confidence":-1},{"trial_n":87,"span":5,"encoder":"29173","distractor":"29171","target":"absent","response":"absent","rt":"2618.5","correct":true,"confidence":-1},{"trial_n":88,"span":6,"encoder":"699690","distractor":"639690","target":"present","response":"absent","rt":"2832.5999999046","correct":false,"confidence":-1},{"trial_n":89,"span":5,"encoder":"21183","distractor":"21188","target":"present","response":"present","rt":"1840.6999998093","correct":true,"confidence":-1},{"trial_n":90,"span":5,"encoder":"56134","distractor":"96134","target":"present","response":"present","rt":"1176","correct":true,"confidence":-1},{"trial_n":91,"span":6,"encoder":"636159","distractor":"636459","target":"absent","response":"absent","rt":"1810.5","correct":true,"confidence":5},{"trial_n":92,"span":6,"encoder":"156581","distractor":"156588","target":"absent","response":"absent","rt":"1931.2999999523","correct":true,"confidence":5},{"trial_n":93,"span":7,"encoder":"5766382","distractor":"5766383","target":"present","response":"present","rt":"1855.7999999523","correct":true,"confidence":5},{"trial_n":94,"span":7,"encoder":"0313327","distractor":"3313327","target":"absent","response":"absent","rt":"4166.7000000477","correct":true,"confidence":1},{"trial_n":95,"span":8,"encoder":"04811489","distractor":"04611489","target":"absent","response":"absent","rt":"5009.7000000477","correct":true,"confidence":5},{"trial_n":96,"span":8,"encoder":"18542639","distractor":"10542639","target":"present","response":"present","rt":"5702.3999998569","correct":true,"confidence":4},{"trial_n":97,"span":9,"encoder":"495906699","distractor":"495106699","target":"present","response":"absent","rt":"8471.8999998569","correct":false,"confidence":1},{"trial_n":98,"span":8,"encoder":"69118410","distractor":"69118610","target":"absent","response":"absent","rt":"11763.600000143","correct":true,"confidence":2},{"trial_n":99,"span":8,"encoder":"17041852","distractor":"17001852","target":"present","response":"present","rt":"5050.2000000477","correct":true,"confidence":3},{"trial_n":100,"span":9,"encoder":"429314006","distractor":"429311006","target":"present","response":"present","rt":"4503.7999999523","correct":true,"confidence":5},{"trial_n":101,"span":9,"encoder":"540623876","distractor":"540623176","target":"absent","response":"absent","rt":"4344.7000000477","correct":true,"confidence":5},{"trial_n":102,"span":10,"encoder":"6484602138","distractor":"9484602138","target":"absent","response":"absent","rt":"5974.7000000477","correct":true,"confidence":5},{"trial_n":103,"span":10,"encoder":"3491116824","distractor":"7491116824","target":"absent","response":"absent","rt":"4282.7000000477","correct":true,"confidence":3},{"trial_n":104,"span":11,"encoder":"78612190082","distractor":"78812190082","target":"present","response":"present","rt":"6480.5","correct":true,"confidence":3},{"trial_n":105,"span":11,"encoder":"01588461371","distractor":"01588461671","target":"present","response":"absent","rt":"5192.0999999046","correct":false,"confidence":2},{"trial_n":106,"span":10,"encoder":"6060915222","distractor":"6060925222","target":"present","response":"present","rt":"4045.5","correct":true,"confidence":5},{"trial_n":107,"span":10,"encoder":"1017920464","distractor":"1017928464","target":"absent","response":"absent","rt":"7149.4000000954","correct":true,"confidence":5},{"trial_n":108,"span":11,"encoder":"96907051134","distractor":"96907251134","target":"absent","response":"absent","rt":"4545.3999998569","correct":true,"confidence":5},{"trial_n":109,"span":11,"encoder":"37680249209","distractor":"37680249299","target":"absent","response":"absent","rt":"1918.6000001431","correct":true,"confidence":5},{"trial_n":110,"span":12,"encoder":"439417376648","distractor":"439457376648","target":"absent","response":"present","rt":"8449","correct":false,"confidence":2},{"trial_n":111,"span":11,"encoder":"71481484195","distractor":"71481481195","target":"absent","response":"absent","rt":"4338.0999999046","correct":true,"confidence":2},{"trial_n":112,"span":11,"encoder":"33068694753","distractor":"33068694653","target":"present","response":"present","rt":"10346.199999809","correct":true,"confidence":1},{"trial_n":113,"span":12,"encoder":"922913797156","distractor":"922913727156","target":"absent","response":"absent","rt":"8120.7000000477","correct":true,"confidence":1},{"trial_n":114,"span":12,"encoder":"334922465690","distractor":"339922465690","target":"present","response":"absent","rt":"6721.3999998569","correct":false,"confidence":2},{"trial_n":115,"span":11,"encoder":"59413451431","distractor":"59463451431","target":"absent","response":"absent","rt":"5729.8000001907","correct":true,"confidence":1},{"trial_n":116,"span":11,"encoder":"45516686974","distractor":"40516686974","target":"absent","response":"absent","rt":"7857","correct":true,"confidence":1},{"trial_n":117,"span":12,"encoder":"053448991412","distractor":"053448991402","target":"absent","response":"absent","rt":"2448.5","correct":true,"confidence":3},{"trial_n":118,"span":12,"encoder":"217693161680","distractor":"207693161680","target":"present","response":"present","rt":"4617.5999999046","correct":true,"confidence":4},{"trial_n":119,"span":13,"encoder":"7157735151050","distractor":"7157735351050","target":"present","response":"present","rt":"9371.7999999523","correct":true,"confidence":2},{"trial_n":120,"span":13,"encoder":"2744711151805","distractor":"2144711151805","target":"present","response":"absent","rt":"8107.3000001907","correct":false,"confidence":1},{"trial_n":121,"span":12,"encoder":"018944198621","distractor":"018944191621","target":"present","response":"present","rt":"9525.8999998569","correct":true,"confidence":2},{"trial_n":122,"span":12,"encoder":"208968904611","distractor":"208268904611","target":"absent","response":"absent","rt":"10623.900000095","correct":true,"confidence":2},{"trial_n":123,"span":13,"encoder":"8299241157215","distractor":"8294241157215","target":"absent","response":"present","rt":"4318.2000000477","correct":false,"confidence":2},{"trial_n":124,"span":12,"encoder":"558560857947","distractor":"558570857947","target":"present","response":"absent","rt":"9996","correct":false,"confidence":5},{"trial_n":125,"span":11,"encoder":"48090940337","distractor":"48090940332","target":"present","response":"present","rt":"2164.0999999046","correct":true,"confidence":5},{"trial_n":126,"span":11,"encoder":"68304317776","distractor":"68304317796","target":"present","response":"present","rt":"5482.7999999523","correct":true,"confidence":5},{"trial_n":127,"span":12,"encoder":"064537765951","distractor":"064537765751","target":"absent","response":"absent","rt":"7712.1000001431","correct":true,"confidence":3},{"trial_n":128,"span":12,"encoder":"389241038850","distractor":"389241033850","target":"absent","response":"present","rt":"7255","correct":false,"confidence":3},{"trial_n":129,"span":11,"encoder":"51530131417","distractor":"51530101417","target":"present","response":"absent","rt":"2404.7000000477","correct":false,"confidence":4},{"trial_n":130,"span":10,"encoder":"9583385526","distractor":"9513385526","target":"absent","response":"present","rt":"1491.5999999046","correct":false,"confidence":2},{"trial_n":131,"span":9,"encoder":"867781800","distractor":"867781880","target":"present","response":"present","rt":"4743.9000000954","correct":true,"confidence":5},{"trial_n":132,"span":9,"encoder":"079277946","distractor":"079277146","target":"present","response":"present","rt":"6801","correct":true,"confidence":3},{"trial_n":133,"span":10,"encoder":"7696787942","distractor":"7696787932","target":"absent","response":"absent","rt":"6621.2000000477","correct":true,"confidence":5},{"trial_n":134,"span":10,"encoder":"7513137558","distractor":"7513137598","target":"absent","response":"absent","rt":"2037","correct":true,"confidence":5},{"trial_n":135,"span":11,"encoder":"89987872422","distractor":"89987877422","target":"absent","response":"absent","rt":"7233.7999999523","correct":true,"confidence":3},{"trial_n":136,"span":11,"encoder":"80965402516","distractor":"80965406516","target":"present","response":"absent","rt":"14100.5","correct":false,"confidence":1},{"trial_n":137,"span":10,"encoder":"9146578438","distractor":"9166578438","target":"present","response":"present","rt":"2985.2000000477","correct":true,"confidence":4},{"trial_n":138,"span":10,"encoder":"0075167362","distractor":"0875167362","target":"present","response":"present","rt":"6647.2000000477","correct":true,"confidence":3},{"trial_n":139,"span":11,"encoder":"18838450333","distractor":"18238450333","target":"present","response":"present","rt":"2740.0999999046","correct":true,"confidence":5},{"trial_n":140,"span":11,"encoder":"13716463355","distractor":"13716763355","target":"absent","response":"present","rt":"4372.7000000477","correct":false,"confidence":2}]