[{"trial_n":1,"min":25,"max":230,"target":"present","response":"absent","rt":6181,"correct":false,"confidence":-1},{"trial_n":2,"min":25,"max":230,"target":"present","response":"present","rt":1296,"correct":true,"confidence":-1},{"trial_n":3,"min":25,"max":230,"target":"absent","response":"absent","rt":727,"correct":true,"confidence":-1},{"trial_n":4,"min":41,"max":214,"target":"absent","response":"absent","rt":391,"correct":true,"confidence":-1},{"trial_n":5,"min":41,"max":214,"target":"present","response":"present","rt":187,"correct":true,"confidence":-1},{"trial_n":6,"min":57,"max":198,"target":"present","response":"absent","rt":403,"correct":false,"confidence":-1},{"trial_n":7,"min":41,"max":214,"target":"absent","response":"absent","rt":345,"correct":true,"confidence":-1},{"trial_n":8,"min":41,"max":214,"target":"absent","response":"absent","rt":239,"correct":true,"confidence":-1},{"trial_n":9,"min":57,"max":198,"target":"absent","response":"absent","rt":154,"correct":true,"confidence":-1},{"trial_n":10,"min":57,"max":198,"target":"absent","response":"absent","rt":294,"correct":true,"confidence":-1},{"trial_n":11,"min":65,"max":190,"target":"present","response":"absent","rt":145,"correct":false,"confidence":-1},{"trial_n":12,"min":57,"max":198,"target":"present","response":"absent","rt":353,"correct":false,"confidence":-1},{"trial_n":13,"min":49,"max":206,"target":"absent","response":"absent","rt":2454,"correct":true,"confidence":-1},{"trial_n":14,"min":49,"max":206,"target":"present","response":"present","rt":315,"correct":true,"confidence":-1},{"trial_n":15,"min":57,"max":198,"target":"present","response":"present","rt":474,"correct":true,"confidence":-1},{"trial_n":16,"min":57,"max":198,"target":"absent","response":"absent","rt":323,"correct":true,"confidence":-1},{"trial_n":17,"min":65,"max":190,"target":"absent","response":"absent","rt":395,"correct":true,"confidence":-1},{"trial_n":18,"min":65,"max":190,"target":"absent","response":"absent","rt":304,"correct":true,"confidence":-1},{"trial_n":19,"min":73,"max":182,"target":"absent","response":"absent","rt":187,"correct":true,"confidence":-1},{"trial_n":20,"min":73,"max":182,"target":"absent","response":"absent","rt":240,"correct":true,"confidence":-1},{"trial_n":21,"min":77,"max":178,"target":"absent","response":"absent","rt":3523,"correct":true,"confidence":1},{"trial_n":22,"min":77,"max":178,"target":"absent","response":"present","rt":710,"correct":false,"confidence":5},{"trial_n":23,"min":73,"max":182,"target":"present","response":"present","rt":1295,"correct":true,"confidence":1},{"trial_n":24,"min":73,"max":182,"target":"present","response":"present","rt":1054,"correct":true,"confidence":5},{"trial_n":25,"min":77,"max":178,"target":"present","response":"present","rt":1172,"correct":true,"confidence":5},{"trial_n":26,"min":77,"max":178,"target":"absent","response":"absent","rt":930,"correct":true,"confidence":1},{"trial_n":27,"min":81,"max":174,"target":"absent","response":"present","rt":959,"correct":false,"confidence":4},{"trial_n":28,"min":77,"max":178,"target":"absent","response":"absent","rt":589,"correct":true,"confidence":1},{"trial_n":29,"min":77,"max":178,"target":"present","response":"present","rt":1159,"correct":true,"confidence":5},{"trial_n":30,"min":81,"max":174,"target":"absent","response":"absent","rt":4171,"correct":true,"confidence":5},{"trial_n":31,"min":81,"max":174,"target":"present","response":"present","rt":656,"correct":true,"confidence":1},{"trial_n":32,"min":83,"max":172,"target":"absent","response":"present","rt":830,"correct":false,"confidence":5},{"trial_n":33,"min":81,"max":174,"target":"present","response":"absent","rt":477,"correct":false,"confidence":5},{"trial_n":34,"min":79,"max":176,"target":"present","response":"present","rt":525,"correct":true,"confidence":5},{"trial_n":35,"min":79,"max":176,"target":"absent","response":"absent","rt":470,"correct":true,"confidence":1},{"trial_n":36,"min":81,"max":174,"target":"present","response":"present","rt":864,"correct":true,"confidence":5},{"trial_n":37,"min":81,"max":174,"target":"present","response":"present","rt":659,"correct":true,"confidence":5},{"trial_n":38,"min":83,"max":172,"target":"absent","response":"present","rt":522,"correct":false,"confidence":5},{"trial_n":39,"min":81,"max":174,"target":"absent","response":"absent","rt":357,"correct":true,"confidence":5},{"trial_n":40,"min":81,"max":174,"target":"present","response":"present","rt":624,"correct":true,"confidence":1},{"trial_n":41,"min":82,"max":173,"target":"present","response":"absent","rt":627,"correct":false,"confidence":1},{"trial_n":42,"min":81,"max":174,"target":"present","response":"present","rt":488,"correct":true,"confidence":5},{"trial_n":43,"min":81,"max":174,"target":"present","response":"present","rt":1343,"correct":true,"confidence":5},{"trial_n":44,"min":82,"max":173,"target":"absent","response":"absent","rt":500,"correct":true,"confidence":1},{"trial_n":45,"min":82,"max":173,"target":"absent","response":"present","rt":1408,"correct":false,"confidence":5},{"trial_n":46,"min":81,"max":174,"target":"absent","response":"absent","rt":582,"correct":true,"confidence":1},{"trial_n":47,"min":81,"max":174,"target":"absent","response":"present","rt":504,"correct":false,"confidence":1},{"trial_n":48,"min":80,"max":175,"target":"present","response":"present","rt":417,"correct":true,"confidence":5},{"trial_n":49,"min":80,"max":175,"target":"present","response":"present","rt":377,"correct":true,"confidence":5},{"trial_n":50,"min":81,"max":174,"target":"present","response":"present","rt":754,"correct":true,"confidence":5},{"trial_n":51,"min":81,"max":174,"target":"present","response":"present","rt":1391,"correct":true,"confidence":5},{"trial_n":52,"min":82,"max":173,"target":"present","response":"present","rt":414,"correct":true,"confidence":5},{"trial_n":53,"min":82,"max":173,"target":"absent","response":"absent","rt":582,"correct":true,"confidence":5},{"trial_n":54,"min":83,"max":172,"target":"present","response":"present","rt":382,"correct":true,"confidence":5},{"trial_n":55,"min":83,"max":172,"target":"absent","response":"absent","rt":608,"correct":true,"confidence":1},{"trial_n":56,"min":84,"max":171,"target":"present","response":"present","rt":705,"correct":true,"confidence":5},{"trial_n":57,"min":84,"max":171,"target":"present","response":"present","rt":973,"correct":true,"confidence":5},{"trial_n":58,"min":85,"max":170,"target":"absent","response":"absent","rt":502,"correct":true,"confidence":1},{"trial_n":59,"min":85,"max":170,"target":"absent","response":"present","rt":345,"correct":false,"confidence":5},{"trial_n":60,"min":84,"max":171,"target":"present","response":"absent","rt":505,"correct":false,"confidence":5},{"trial_n":61,"min":83,"max":172,"target":"present","response":"present","rt":367,"correct":true,"confidence":5},{"trial_n":62,"min":83,"max":172,"target":"present","response":"absent","rt":383,"correct":false,"confidence":1},{"trial_n":63,"min":82,"max":173,"target":"present","response":"present","rt":639,"correct":true,"confidence":5},{"trial_n":64,"min":82,"max":173,"target":"present","response":"absent","rt":273,"correct":false,"confidence":5},{"trial_n":65,"min":81,"max":174,"target":"absent","response":"present","rt":427,"correct":false,"confidence":5},{"trial_n":66,"min":80,"max":175,"target":"absent","response":"absent","rt":863,"correct":true,"confidence":5},{"trial_n":67,"min":80,"max":175,"target":"absent","response":"present","rt":341,"correct":false,"confidence":5},{"trial_n":68,"min":79,"max":176,"target":"present","response":"present","rt":209,"correct":true,"confidence":5},{"trial_n":69,"min":79,"max":176,"target":"present","response":"present","rt":177,"correct":true,"confidence":5},{"trial_n":70,"min":80,"max":175,"target":"absent","response":"present","rt":165,"correct":false,"confidence":5},{"trial_n":71,"min":41,"max":214,"target":"present","response":"absent","rt":6554,"correct":false,"confidence":-1},{"trial_n":72,"min":41,"max":214,"target":"present","response":"present","rt":1145,"correct":true,"confidence":-1},{"trial_n":73,"min":41,"max":214,"target":"absent","response":"absent","rt":462,"correct":true,"confidence":-1},{"trial_n":74,"min":57,"max":198,"target":"absent","response":"absent","rt":407,"correct":true,"confidence":-1},{"trial_n":75,"min":57,"max":198,"target":"present","response":"present","rt":248,"correct":true,"confidence":-1},{"trial_n":76,"min":73,"max":182,"target":"present","response":"present","rt":288,"correct":true,"confidence":-1},{"trial_n":77,"min":73,"max":182,"target":"absent","response":"absent","rt":112,"correct":true,"confidence":-1},{"trial_n":78,"min":89,"max":166,"target":"present","response":"present","rt":709,"correct":true,"confidence":-1},{"trial_n":79,"min":89,"max":166,"target":"absent","response":"absent","rt":444,"correct":true,"confidence":-1},{"trial_n":80,"min":105,"max":150,"target":"absent","response":"present","rt":412,"correct":false,"confidence":-1},{"trial_n":81,"min":97,"max":158,"target":"absent","response":"absent","rt":68,"correct":true,"confidence":-1},{"trial_n":82,"min":97,"max":158,"target":"absent","response":"present","rt":237,"correct":false,"confidence":-1},{"trial_n":83,"min":89,"max":166,"target":"absent","response":"absent","rt":619,"correct":true,"confidence":-1},{"trial_n":84,"min":89,"max":166,"target":"present","response":"absent","rt":422,"correct":false,"confidence":-1},{"trial_n":85,"min":81,"max":174,"target":"present","response":"present","rt":292,"correct":true,"confidence":-1},{"trial_n":86,"min":81,"max":174,"target":"present","response":"present","rt":628,"correct":true,"confidence":-1},{"trial_n":87,"min":89,"max":166,"target":"absent","response":"present","rt":535,"correct":false,"confidence":-1},{"trial_n":88,"min":81,"max":174,"target":"absent","response":"absent","rt":497,"correct":true,"confidence":-1},{"trial_n":89,"min":81,"max":174,"target":"present","response":"present","rt":58,"correct":true,"confidence":-1},{"trial_n":90,"min":89,"max":166,"target":"absent","response":"present","rt":739,"correct":false,"confidence":-1},{"trial_n":91,"min":85,"max":170,"target":"absent","response":"absent","rt":448,"correct":true,"confidence":1},{"trial_n":92,"min":85,"max":170,"target":"absent","response":"present","rt":446,"correct":false,"confidence":1},{"trial_n":93,"min":81,"max":174,"target":"present","response":"present","rt":869,"correct":true,"confidence":1},{"trial_n":94,"min":81,"max":174,"target":"present","response":"present","rt":218,"correct":true,"confidence":5},{"trial_n":95,"min":85,"max":170,"target":"absent","response":"present","rt":687,"correct":false,"confidence":2},{"trial_n":96,"min":81,"max":174,"target":"present","response":"present","rt":536,"correct":true,"confidence":5},{"trial_n":97,"min":81,"max":174,"target":"present","response":"present","rt":215,"correct":true,"confidence":5},{"trial_n":98,"min":85,"max":170,"target":"present","response":"present","rt":444,"correct":true,"confidence":5},{"trial_n":99,"min":85,"max":170,"target":"present","response":"present","rt":902,"correct":true,"confidence":2},{"trial_n":100,"min":89,"max":166,"target":"present","response":"present","rt":323,"correct":true,"confidence":5},{"trial_n":101,"min":89,"max":166,"target":"present","response":"present","rt":633,"correct":true,"confidence":5},{"trial_n":102,"min":91,"max":164,"target":"present","response":"present","rt":415,"correct":true,"confidence":1},{"trial_n":103,"min":91,"max":164,"target":"absent","response":"present","rt":482,"correct":false,"confidence":5},{"trial_n":104,"min":89,"max":166,"target":"absent","response":"present","rt":424,"correct":false,"confidence":2},{"trial_n":105,"min":87,"max":168,"target":"present","response":"present","rt":736,"correct":true,"confidence":3},{"trial_n":106,"min":87,"max":168,"target":"absent","response":"absent","rt":575,"correct":true,"confidence":1},{"trial_n":107,"min":89,"max":166,"target":"absent","response":"present","rt":582,"correct":false,"confidence":1},{"trial_n":108,"min":87,"max":168,"target":"present","response":"present","rt":482,"correct":true,"confidence":1},{"trial_n":109,"min":87,"max":168,"target":"present","response":"present","rt":364,"correct":true,"confidence":4},{"trial_n":110,"min":89,"max":166,"target":"present","response":"present","rt":574,"correct":true,"confidence":2},{"trial_n":111,"min":89,"max":166,"target":"absent","response":"absent","rt":691,"correct":true,"confidence":1},{"trial_n":112,"min":90,"max":165,"target":"absent","response":"present","rt":460,"correct":false,"confidence":1},{"trial_n":113,"min":89,"max":166,"target":"present","response":"present","rt":353,"correct":true,"confidence":5},{"trial_n":114,"min":89,"max":166,"target":"absent","response":"present","rt":567,"correct":false,"confidence":4},{"trial_n":115,"min":88,"max":167,"target":"absent","response":"present","rt":389,"correct":false,"confidence":5},{"trial_n":116,"min":87,"max":168,"target":"absent","response":"absent","rt":515,"correct":true,"confidence":1},{"trial_n":117,"min":87,"max":168,"target":"absent","response":"absent","rt":496,"correct":true,"confidence":1},{"trial_n":118,"min":88,"max":167,"target":"present","response":"present","rt":286,"correct":true,"confidence":2},{"trial_n":119,"min":88,"max":167,"target":"absent","response":"absent","rt":376,"correct":true,"confidence":1},{"trial_n":120,"min":89,"max":166,"target":"present","response":"absent","rt":511,"correct":false,"confidence":1},{"trial_n":121,"min":88,"max":167,"target":"absent","response":"absent","rt":430,"correct":true,"confidence":1},{"trial_n":122,"min":88,"max":167,"target":"present","response":"present","rt":6,"correct":true,"confidence":1},{"trial_n":123,"min":89,"max":166,"target":"present","response":"present","rt":408,"correct":true,"confidence":2},{"trial_n":124,"min":89,"max":166,"target":"present","response":"absent","rt":166,"correct":false,"confidence":1},{"trial_n":125,"min":88,"max":167,"target":"absent","response":"absent","rt":224,"correct":true,"confidence":1},{"trial_n":126,"min":88,"max":167,"target":"present","response":"absent","rt":484,"correct":false,"confidence":1},{"trial_n":127,"min":87,"max":168,"target":"absent","response":"absent","rt":-7,"correct":true,"confidence":1},{"trial_n":128,"min":87,"max":168,"target":"present","response":"present","rt":331,"correct":true,"confidence":1},{"trial_n":129,"min":88,"max":167,"target":"present","response":"present","rt":133,"correct":true,"confidence":1},{"trial_n":130,"min":88,"max":167,"target":"absent","response":"present","rt":58,"correct":false,"confidence":1},{"trial_n":131,"min":87,"max":168,"target":"absent","response":"present","rt":1501,"correct":false,"confidence":5},{"trial_n":132,"min":86,"max":169,"target":"absent","response":"absent","rt":117,"correct":true,"confidence":5},{"trial_n":133,"min":86,"max":169,"target":"present","response":"present","rt":18,"correct":true,"confidence":2},{"trial_n":134,"min":87,"max":168,"target":"absent","response":"present","rt":537,"correct":false,"confidence":1},{"trial_n":135,"min":86,"max":169,"target":"present","response":"absent","rt":264,"correct":false,"confidence":1},{"trial_n":136,"min":85,"max":170,"target":"present","response":"absent","rt":180,"correct":false,"confidence":1},{"trial_n":137,"min":84,"max":171,"target":"present","response":"present","rt":199,"correct":true,"confidence":3},{"trial_n":138,"min":84,"max":171,"target":"present","response":"absent","rt":229,"correct":false,"confidence":1},{"trial_n":139,"min":83,"max":172,"target":"absent","response":"present","rt":217,"correct":false,"confidence":5},{"trial_n":140,"min":82,"max":173,"target":"absent","response":"absent","rt":270,"correct":true,"confidence":1}]