[{"trial_n":1,"n_dots":4.25,"target":"right","response":"left","rt":13653.200000048,"correct":false,"confidence":-1},{"trial_n":2,"n_dots":4.25,"target":"right","response":"right","rt":743.70000004768,"correct":true,"confidence":-1},{"trial_n":3,"n_dots":4.25,"target":"left","response":"left","rt":1756.5,"correct":true,"confidence":-1},{"trial_n":4,"n_dots":3.85,"target":"right","response":"right","rt":1363.5,"correct":true,"confidence":-1},{"trial_n":5,"n_dots":3.85,"target":"right","response":"right","rt":652.89999985695,"correct":true,"confidence":-1},{"trial_n":6,"n_dots":3.45,"target":"left","response":"left","rt":456.70000004768,"correct":true,"confidence":-1},{"trial_n":7,"n_dots":3.45,"target":"left","response":"left","rt":356.79999995232,"correct":true,"confidence":-1},{"trial_n":8,"n_dots":3.25,"target":"right","response":"left","rt":405.59999990463,"correct":false,"confidence":-1},{"trial_n":9,"n_dots":3.45,"target":"right","response":"left","rt":408.59999990463,"correct":false,"confidence":-1},{"trial_n":10,"n_dots":3.65,"target":"right","response":"left","rt":694.09999990463,"correct":false,"confidence":-1},{"trial_n":11,"n_dots":3.85,"target":"left","response":"left","rt":312.90000009537,"correct":true,"confidence":-1},{"trial_n":12,"n_dots":3.85,"target":"left","response":"left","rt":377.89999985695,"correct":true,"confidence":-1},{"trial_n":13,"n_dots":3.75,"target":"left","response":"left","rt":327.10000014305,"correct":true,"confidence":-1},{"trial_n":14,"n_dots":3.75,"target":"right","response":"right","rt":483.5,"correct":true,"confidence":-1},{"trial_n":15,"n_dots":3.65,"target":"right","response":"right","rt":472.60000014305,"correct":true,"confidence":-1},{"trial_n":16,"n_dots":3.65,"target":"left","response":"left","rt":357.29999995232,"correct":true,"confidence":-1},{"trial_n":17,"n_dots":3.55,"target":"left","response":"left","rt":488.40000009537,"correct":true,"confidence":-1},{"trial_n":18,"n_dots":3.55,"target":"left","response":"left","rt":445.09999990463,"correct":true,"confidence":-1},{"trial_n":19,"n_dots":3.45,"target":"right","response":"right","rt":519.79999995232,"correct":true,"confidence":-1},{"trial_n":20,"n_dots":3.45,"target":"left","response":"left","rt":617.90000009537,"correct":true,"confidence":-1},{"trial_n":21,"n_dots":3.35,"target":"right","response":"right","rt":716.80000019073,"correct":true,"confidence":5},{"trial_n":22,"n_dots":3.35,"target":"left","response":"left","rt":1116.7000000477,"correct":true,"confidence":1},{"trial_n":23,"n_dots":3.25,"target":"left","response":"left","rt":963.40000009537,"correct":true,"confidence":1},{"trial_n":24,"n_dots":3.25,"target":"left","response":"left","rt":1462.7999999523,"correct":true,"confidence":3},{"trial_n":25,"n_dots":3.15,"target":"right","response":"right","rt":609.80000019073,"correct":true,"confidence":3},{"trial_n":26,"n_dots":3.15,"target":"left","response":"left","rt":361.40000009537,"correct":true,"confidence":3},{"trial_n":27,"n_dots":3.05,"target":"left","response":"left","rt":353.40000009537,"correct":true,"confidence":3},{"trial_n":28,"n_dots":3.05,"target":"left","response":"left","rt":481.20000004768,"correct":true,"confidence":4},{"trial_n":29,"n_dots":2.95,"target":"left","response":"left","rt":603.30000019073,"correct":true,"confidence":1},{"trial_n":30,"n_dots":2.95,"target":"right","response":"left","rt":1373.3000001907,"correct":false,"confidence":3},{"trial_n":31,"n_dots":3.05,"target":"right","response":"left","rt":699.5,"correct":false,"confidence":3},{"trial_n":32,"n_dots":3.15,"target":"right","response":"right","rt":2230.3999998569,"correct":true,"confidence":1},{"trial_n":33,"n_dots":3.15,"target":"right","response":"right","rt":1058.7999999523,"correct":true,"confidence":3},{"trial_n":34,"n_dots":3.05,"target":"left","response":"right","rt":934.79999995232,"correct":false,"confidence":1},{"trial_n":35,"n_dots":3.15,"target":"left","response":"left","rt":1292,"correct":true,"confidence":2},{"trial_n":36,"n_dots":3.15,"target":"left","response":"left","rt":1798.6999998093,"correct":true,"confidence":4},{"trial_n":37,"n_dots":3.05,"target":"left","response":"left","rt":448.90000009537,"correct":true,"confidence":4},{"trial_n":38,"n_dots":3.05,"target":"right","response":"left","rt":711.29999995232,"correct":false,"confidence":3},{"trial_n":39,"n_dots":3.15,"target":"right","response":"left","rt":1210.6000001431,"correct":false,"confidence":3},{"trial_n":40,"n_dots":3.25,"target":"left","response":"left","rt":988.40000009537,"correct":true,"confidence":1},{"trial_n":41,"n_dots":3.25,"target":"right","response":"right","rt":761,"correct":true,"confidence":1},{"trial_n":42,"n_dots":3.15,"target":"right","response":"left","rt":1542.5,"correct":false,"confidence":4},{"trial_n":43,"n_dots":3.25,"target":"left","response":"right","rt":893.29999995232,"correct":false,"confidence":3},{"trial_n":44,"n_dots":3.35,"target":"left","response":"left","rt":1059,"correct":true,"confidence":1},{"trial_n":45,"n_dots":3.35,"target":"right","response":"right","rt":4484.2000000477,"correct":true,"confidence":3},{"trial_n":46,"n_dots":3.25,"target":"left","response":"right","rt":936.70000004768,"correct":false,"confidence":3},{"trial_n":47,"n_dots":3.35,"target":"left","response":"left","rt":722.90000009537,"correct":true,"confidence":2},{"trial_n":48,"n_dots":3.35,"target":"right","response":"right","rt":631.79999995232,"correct":true,"confidence":2},{"trial_n":49,"n_dots":3.25,"target":"left","response":"left","rt":627.80000019073,"correct":true,"confidence":3},{"trial_n":50,"n_dots":3.25,"target":"left","response":"left","rt":589.70000004768,"correct":true,"confidence":3},{"trial_n":51,"n_dots":3.15,"target":"left","response":"left","rt":273.60000014305,"correct":true,"confidence":3},{"trial_n":52,"n_dots":3.15,"target":"left","response":"right","rt":604.70000004768,"correct":false,"confidence":3},{"trial_n":53,"n_dots":3.25,"target":"left","response":"left","rt":199.20000004768,"correct":true,"confidence":4},{"trial_n":54,"n_dots":3.25,"target":"left","response":"left","rt":395.5,"correct":true,"confidence":4},{"trial_n":55,"n_dots":3.15,"target":"right","response":"left","rt":1996.0999999046,"correct":false,"confidence":3},{"trial_n":56,"n_dots":3.25,"target":"left","response":"left","rt":510.10000014305,"correct":true,"confidence":3},{"trial_n":57,"n_dots":3.25,"target":"right","response":"right","rt":428.80000019073,"correct":true,"confidence":3},{"trial_n":58,"n_dots":3.15,"target":"right","response":"right","rt":439.70000004768,"correct":true,"confidence":4},{"trial_n":59,"n_dots":3.15,"target":"right","response":"right","rt":420.5,"correct":true,"confidence":2},{"trial_n":60,"n_dots":3.05,"target":"right","response":"right","rt":1354.4000000954,"correct":true,"confidence":4},{"trial_n":61,"n_dots":3.05,"target":"right","response":"right","rt":397.70000004768,"correct":true,"confidence":4},{"trial_n":62,"n_dots":2.95,"target":"left","response":"right","rt":393.60000014305,"correct":false,"confidence":4},{"trial_n":63,"n_dots":3.05,"target":"right","response":"right","rt":764,"correct":true,"confidence":4},{"trial_n":64,"n_dots":3.05,"target":"right","response":"right","rt":143,"correct":true,"confidence":4},{"trial_n":65,"n_dots":2.95,"target":"left","response":"left","rt":249.5,"correct":true,"confidence":3},{"trial_n":66,"n_dots":2.95,"target":"right","response":"left","rt":668.29999995232,"correct":false,"confidence":2},{"trial_n":67,"n_dots":3.05,"target":"left","response":"left","rt":520.29999995232,"correct":true,"confidence":3},{"trial_n":68,"n_dots":3.05,"target":"left","response":"left","rt":1177.3999998569,"correct":true,"confidence":4},{"trial_n":69,"n_dots":2.95,"target":"left","response":"left","rt":880.20000004768,"correct":true,"confidence":4},{"trial_n":70,"n_dots":2.95,"target":"right","response":"right","rt":1028.8999998569,"correct":true,"confidence":2},{"trial_n":71,"n_dots":2.85,"target":"left","response":"left","rt":1573.3000001907,"correct":true,"confidence":2},{"trial_n":72,"n_dots":2.85,"target":"left","response":"right","rt":593.69999980927,"correct":false,"confidence":2},{"trial_n":73,"n_dots":2.95,"target":"right","response":"right","rt":1790.2999999523,"correct":true,"confidence":3},{"trial_n":74,"n_dots":2.95,"target":"right","response":"right","rt":1226.5,"correct":true,"confidence":2},{"trial_n":75,"n_dots":2.85,"target":"right","response":"left","rt":852.70000004768,"correct":false,"confidence":3},{"trial_n":76,"n_dots":2.95,"target":"left","response":"right","rt":1166.4000000954,"correct":false,"confidence":1},{"trial_n":77,"n_dots":3.05,"target":"right","response":"left","rt":863.20000004768,"correct":false,"confidence":1},{"trial_n":78,"n_dots":3.15,"target":"left","response":"right","rt":217.10000014305,"correct":false,"confidence":1},{"trial_n":79,"n_dots":3.25,"target":"left","response":"left","rt":276.70000004768,"correct":true,"confidence":2},{"trial_n":80,"n_dots":3.25,"target":"right","response":"right","rt":627.89999985695,"correct":true,"confidence":3},{"trial_n":81,"n_dots":3.15,"target":"left","response":"left","rt":839.40000009537,"correct":true,"confidence":2},{"trial_n":82,"n_dots":3.15,"target":"left","response":"right","rt":1195,"correct":false,"confidence":2},{"trial_n":83,"n_dots":3.25,"target":"right","response":"right","rt":1100.5,"correct":true,"confidence":3},{"trial_n":84,"n_dots":3.25,"target":"left","response":"right","rt":575.89999985695,"correct":false,"confidence":3},{"trial_n":85,"n_dots":3.35,"target":"right","response":"right","rt":1107.2000000477,"correct":true,"confidence":1},{"trial_n":86,"n_dots":3.35,"target":"left","response":"left","rt":372.10000014305,"correct":true,"confidence":2},{"trial_n":87,"n_dots":3.25,"target":"left","response":"right","rt":1109,"correct":false,"confidence":3},{"trial_n":88,"n_dots":3.35,"target":"right","response":"right","rt":470.5,"correct":true,"confidence":4},{"trial_n":89,"n_dots":3.35,"target":"left","response":"left","rt":355.40000009537,"correct":true,"confidence":4},{"trial_n":90,"n_dots":3.25,"target":"left","response":"left","rt":1846.7999999523,"correct":true,"confidence":1},{"trial_n":91,"n_dots":3.25,"target":"right","response":"left","rt":354.89999985695,"correct":false,"confidence":4},{"trial_n":92,"n_dots":3.35,"target":"right","response":"left","rt":580.89999985695,"correct":false,"confidence":4},{"trial_n":93,"n_dots":3.45,"target":"right","response":"right","rt":531.80000019073,"correct":true,"confidence":2},{"trial_n":94,"n_dots":3.45,"target":"left","response":"left","rt":579.59999990463,"correct":true,"confidence":3},{"trial_n":95,"n_dots":3.35,"target":"right","response":"right","rt":768,"correct":true,"confidence":3},{"trial_n":96,"n_dots":3.35,"target":"right","response":"right","rt":667.10000014305,"correct":true,"confidence":2},{"trial_n":97,"n_dots":3.25,"target":"left","response":"left","rt":3.3999998569489,"correct":true,"confidence":2},{"trial_n":98,"n_dots":3.25,"target":"right","response":"right","rt":229.09999990463,"correct":true,"confidence":3},{"trial_n":99,"n_dots":3.15,"target":"right","response":"right","rt":531.70000004768,"correct":true,"confidence":2},{"trial_n":100,"n_dots":3.15,"target":"left","response":"left","rt":108.40000009537,"correct":true,"confidence":2},{"trial_n":101,"n_dots":3.05,"target":"right","response":"right","rt":77.299999952316,"correct":true,"confidence":4},{"trial_n":102,"n_dots":3.05,"target":"right","response":"right","rt":411.10000014305,"correct":true,"confidence":2},{"trial_n":103,"n_dots":2.95,"target":"right","response":"right","rt":1087.0999999046,"correct":true,"confidence":5},{"trial_n":104,"n_dots":2.95,"target":"left","response":"left","rt":1399.8000001907,"correct":true,"confidence":2},{"trial_n":105,"n_dots":2.85,"target":"right","response":"right","rt":846.09999990463,"correct":true,"confidence":3},{"trial_n":106,"n_dots":2.85,"target":"right","response":"right","rt":508.59999990463,"correct":true,"confidence":2},{"trial_n":107,"n_dots":2.75,"target":"left","response":"right","rt":144.40000009537,"correct":false,"confidence":3},{"trial_n":108,"n_dots":2.85,"target":"right","response":"right","rt":68.099999904633,"correct":true,"confidence":4},{"trial_n":109,"n_dots":2.85,"target":"right","response":"right","rt":65,"correct":true,"confidence":5},{"trial_n":110,"n_dots":2.75,"target":"right","response":"right","rt":1002.5,"correct":true,"confidence":2},{"trial_n":111,"n_dots":2.75,"target":"left","response":"left","rt":815.20000004768,"correct":true,"confidence":1},{"trial_n":112,"n_dots":2.65,"target":"left","response":"right","rt":332.30000019073,"correct":false,"confidence":5},{"trial_n":113,"n_dots":2.75,"target":"right","response":"right","rt":55.899999856949,"correct":true,"confidence":5},{"trial_n":114,"n_dots":2.75,"target":"right","response":"right","rt":760,"correct":true,"confidence":5},{"trial_n":115,"n_dots":2.65,"target":"right","response":"right","rt":440,"correct":true,"confidence":5},{"trial_n":116,"n_dots":2.65,"target":"right","response":"left","rt":421.70000004768,"correct":false,"confidence":4},{"trial_n":117,"n_dots":2.75,"target":"right","response":"right","rt":491.40000009537,"correct":true,"confidence":3},{"trial_n":118,"n_dots":2.75,"target":"left","response":"right","rt":517.5,"correct":false,"confidence":3},{"trial_n":119,"n_dots":2.85,"target":"left","response":"left","rt":481.89999985695,"correct":true,"confidence":3},{"trial_n":120,"n_dots":2.85,"target":"left","response":"left","rt":705.30000019073,"correct":true,"confidence":4}]