[{"trial_n":1,"span":8,"encoder":"98023130","distractor":"48023130","target":"present","response":"absent","rt":"7353","correct":false,"confidence":-1},{"trial_n":2,"span":6,"encoder":"018133","distractor":"010133","target":"present","response":"present","rt":"2207","correct":true,"confidence":-1},{"trial_n":3,"span":6,"encoder":"766783","distractor":"766183","target":"absent","response":"absent","rt":"2549","correct":true,"confidence":-1},{"trial_n":4,"span":8,"encoder":"22097668","distractor":"22097666","target":"absent","response":"absent","rt":"3598","correct":true,"confidence":-1},{"trial_n":5,"span":8,"encoder":"94202423","distractor":"94206423","target":"present","response":"present","rt":"2406","correct":true,"confidence":-1},{"trial_n":6,"span":10,"encoder":"9843905218","distractor":"9843905268","target":"absent","response":"absent","rt":"3226","correct":true,"confidence":-1},{"trial_n":7,"span":10,"encoder":"7784720011","distractor":"7784726011","target":"present","response":"present","rt":"3068","correct":true,"confidence":-1},{"trial_n":8,"span":12,"encoder":"509478573912","distractor":"509078573912","target":"absent","response":"absent","rt":"3922","correct":true,"confidence":-1},{"trial_n":9,"span":12,"encoder":"207519604924","distractor":"807519604924","target":"present","response":"present","rt":"1203","correct":true,"confidence":-1},{"trial_n":10,"span":14,"encoder":"16639974095092","distractor":"14639974095092","target":"present","response":"absent","rt":"1477","correct":false,"confidence":-1},{"trial_n":11,"span":12,"encoder":"145612232300","distractor":"175612232300","target":"absent","response":"present","rt":"2528","correct":false,"confidence":-1},{"trial_n":12,"span":11,"encoder":"35506890140","distractor":"35506890170","target":"absent","response":"absent","rt":"814.00000000003","correct":true,"confidence":-1},{"trial_n":13,"span":11,"encoder":"08126970165","distractor":"08156970165","target":"present","response":"absent","rt":"540","correct":false,"confidence":-1},{"trial_n":14,"span":10,"encoder":"8142363436","distractor":"8142363426","target":"absent","response":"absent","rt":"3328","correct":true,"confidence":-1},{"trial_n":15,"span":10,"encoder":"9691194720","distractor":"9491194720","target":"present","response":"present","rt":"2995","correct":true,"confidence":-1},{"trial_n":16,"span":11,"encoder":"16284315074","distractor":"16244315074","target":"present","response":"present","rt":"3140","correct":true,"confidence":-1},{"trial_n":17,"span":11,"encoder":"41389812857","distractor":"41389862857","target":"absent","response":"absent","rt":"4492","correct":true,"confidence":-1},{"trial_n":18,"span":12,"encoder":"831417106717","distractor":"831417106617","target":"absent","response":"absent","rt":"3496","correct":true,"confidence":-1},{"trial_n":19,"span":12,"encoder":"900970157958","distractor":"990970157958","target":"absent","response":"absent","rt":"2342","correct":true,"confidence":-1},{"trial_n":20,"span":13,"encoder":"0119998329927","distractor":"0519998329927","target":"present","response":"absent","rt":"2808","correct":false,"confidence":-1},{"trial_n":21,"span":12,"encoder":"084444133688","distractor":"084414133688","target":"absent","response":"absent","rt":"11758","correct":true,"confidence":3},{"trial_n":22,"span":12,"encoder":"932626953702","distractor":"932686953702","target":"absent","response":"present","rt":"4178","correct":false,"confidence":2},{"trial_n":23,"span":11,"encoder":"01067176239","distractor":"01067776239","target":"present","response":"absent","rt":"7220","correct":false,"confidence":2},{"trial_n":24,"span":10,"encoder":"6559672881","distractor":"6559672481","target":"present","response":"present","rt":"4510","correct":true,"confidence":4},{"trial_n":25,"span":10,"encoder":"4057436514","distractor":"4457436514","target":"absent","response":"absent","rt":"1646","correct":true,"confidence":5},{"trial_n":26,"span":11,"encoder":"97091252321","distractor":"87091252321","target":"absent","response":"present","rt":"3640.9999999999","correct":false,"confidence":4},{"trial_n":27,"span":10,"encoder":"9782169225","distractor":"9782168225","target":"present","response":"present","rt":"3784","correct":true,"confidence":3},{"trial_n":28,"span":10,"encoder":"0382347085","distractor":"0382747085","target":"absent","response":"absent","rt":"3123","correct":true,"confidence":3},{"trial_n":29,"span":11,"encoder":"41541780369","distractor":"41541780364","target":"present","response":"present","rt":"6691.0000000001","correct":true,"confidence":2},{"trial_n":30,"span":11,"encoder":"86100636905","distractor":"86100636945","target":"absent","response":"absent","rt":"3714","correct":true,"confidence":2},{"trial_n":31,"span":12,"encoder":"090449856563","distractor":"090449556563","target":"present","response":"absent","rt":"8540","correct":false,"confidence":2},{"trial_n":32,"span":11,"encoder":"09314756835","distractor":"06314756835","target":"present","response":"present","rt":"5054","correct":true,"confidence":3},{"trial_n":33,"span":11,"encoder":"18138890354","distractor":"18138890384","target":"present","response":"present","rt":"5675","correct":true,"confidence":4},{"trial_n":34,"span":12,"encoder":"555944552394","distractor":"555944582394","target":"absent","response":"absent","rt":"8631","correct":true,"confidence":4},{"trial_n":35,"span":12,"encoder":"728729954878","distractor":"728729954898","target":"absent","response":"present","rt":"6933","correct":false,"confidence":3},{"trial_n":36,"span":11,"encoder":"87259606588","distractor":"87209606588","target":"present","response":"present","rt":"4681","correct":true,"confidence":3},{"trial_n":37,"span":11,"encoder":"98200427804","distractor":"98204427804","target":"absent","response":"present","rt":"3409","correct":false,"confidence":3},{"trial_n":38,"span":10,"encoder":"5759372713","distractor":"5559372713","target":"present","response":"present","rt":"1742","correct":true,"confidence":5},{"trial_n":39,"span":10,"encoder":"3707344602","distractor":"3747344602","target":"present","response":"present","rt":"1913","correct":true,"confidence":4},{"trial_n":40,"span":11,"encoder":"53581213882","distractor":"53581233882","target":"present","response":"absent","rt":"4775","correct":false,"confidence":3},{"trial_n":41,"span":10,"encoder":"5197995151","distractor":"5197195151","target":"present","response":"present","rt":"1972","correct":true,"confidence":4},{"trial_n":42,"span":10,"encoder":"5888974944","distractor":"5888924944","target":"present","response":"present","rt":"3860","correct":true,"confidence":3},{"trial_n":43,"span":11,"encoder":"66633974850","distractor":"66633973850","target":"absent","response":"absent","rt":"3882.0000000001","correct":true,"confidence":4},{"trial_n":44,"span":11,"encoder":"59347150818","distractor":"59341150818","target":"absent","response":"absent","rt":"4131","correct":true,"confidence":5},{"trial_n":45,"span":12,"encoder":"613803432696","distractor":"613803432686","target":"absent","response":"absent","rt":"5978.9999999999","correct":true,"confidence":1},{"trial_n":46,"span":12,"encoder":"165262781974","distractor":"165262789974","target":"absent","response":"absent","rt":"4489","correct":true,"confidence":1},{"trial_n":47,"span":13,"encoder":"5375324786087","distractor":"5375324786047","target":"present","response":"absent","rt":"2492","correct":false,"confidence":2},{"trial_n":48,"span":12,"encoder":"489925941213","distractor":"489925941253","target":"present","response":"present","rt":"2629","correct":true,"confidence":1},{"trial_n":49,"span":12,"encoder":"507568952460","distractor":"507568952410","target":"present","response":"present","rt":"2817.0000000001","correct":true,"confidence":1},{"trial_n":50,"span":13,"encoder":"1975211636007","distractor":"1975211636907","target":"present","response":"present","rt":"4366","correct":true,"confidence":3},{"trial_n":51,"span":13,"encoder":"7378873448520","distractor":"7375873448520","target":"absent","response":"absent","rt":"3084.9999999999","correct":true,"confidence":5},{"trial_n":52,"span":14,"encoder":"50211297065396","distractor":"50211297015396","target":"absent","response":"present","rt":"5454","correct":false,"confidence":2},{"trial_n":53,"span":13,"encoder":"2784403638687","distractor":"2784493638687","target":"present","response":"present","rt":"6094.9999999999","correct":true,"confidence":1},{"trial_n":54,"span":13,"encoder":"3272687152410","distractor":"3272687152416","target":"present","response":"absent","rt":"5219.0000000001","correct":false,"confidence":1},{"trial_n":55,"span":12,"encoder":"177158545869","distractor":"177158545866","target":"absent","response":"present","rt":"4314","correct":false,"confidence":2},{"trial_n":56,"span":11,"encoder":"18673614580","distractor":"18673614520","target":"present","response":"absent","rt":"3681","correct":false,"confidence":3},{"trial_n":57,"span":10,"encoder":"6986703451","distractor":"6988703451","target":"absent","response":"present","rt":"4156","correct":false,"confidence":2},{"trial_n":58,"span":9,"encoder":"520601786","distractor":"524601786","target":"absent","response":"absent","rt":"3505","correct":true,"confidence":1},{"trial_n":59,"span":9,"encoder":"046260789","distractor":"048260789","target":"absent","response":"absent","rt":"4154","correct":true,"confidence":3},{"trial_n":60,"span":10,"encoder":"3024951710","distractor":"3024950710","target":"absent","response":"present","rt":"4245","correct":false,"confidence":3},{"trial_n":61,"span":9,"encoder":"739602475","distractor":"239602475","target":"present","response":"present","rt":"3520","correct":true,"confidence":2},{"trial_n":62,"span":9,"encoder":"298665945","distractor":"294665945","target":"absent","response":"absent","rt":"2596.9999999999","correct":true,"confidence":5},{"trial_n":63,"span":10,"encoder":"6316025121","distractor":"1316025121","target":"present","response":"present","rt":"4187","correct":true,"confidence":2},{"trial_n":64,"span":10,"encoder":"3035344932","distractor":"3635344932","target":"absent","response":"absent","rt":"3895","correct":true,"confidence":4},{"trial_n":65,"span":11,"encoder":"50680101608","distractor":"50680191608","target":"present","response":"present","rt":"4241","correct":true,"confidence":2},{"trial_n":66,"span":11,"encoder":"21174478270","distractor":"21174478272","target":"absent","response":"present","rt":"3593.9999999999","correct":false,"confidence":2},{"trial_n":67,"span":10,"encoder":"0491423192","distractor":"0491420192","target":"present","response":"present","rt":"3908.0000000001","correct":true,"confidence":2},{"trial_n":68,"span":10,"encoder":"9464283747","distractor":"9464273747","target":"present","response":"present","rt":"4758.9999999999","correct":true,"confidence":1},{"trial_n":69,"span":11,"encoder":"76394906018","distractor":"76394906098","target":"present","response":"present","rt":"4534","correct":true,"confidence":1},{"trial_n":70,"span":11,"encoder":"29438277150","distractor":"29438278150","target":"absent","response":"absent","rt":"3748.0000000001","correct":true,"confidence":4},{"trial_n":71,"span":8,"encoder":"24160144","distractor":"24960144","target":"present","response":"present","rt":"4554","correct":true,"confidence":-1},{"trial_n":72,"span":8,"encoder":"21647829","distractor":"21647828","target":"present","response":"present","rt":"1363","correct":true,"confidence":-1},{"trial_n":73,"span":9,"encoder":"942186649","distractor":"942186609","target":"absent","response":"absent","rt":"1693","correct":true,"confidence":-1},{"trial_n":74,"span":9,"encoder":"936930318","distractor":"936930388","target":"absent","response":"absent","rt":"1670","correct":true,"confidence":-1},{"trial_n":75,"span":10,"encoder":"4933429792","distractor":"4932429792","target":"present","response":"absent","rt":"6607","correct":false,"confidence":-1},{"trial_n":76,"span":9,"encoder":"680245329","distractor":"680245328","target":"absent","response":"absent","rt":"1909","correct":true,"confidence":-1},{"trial_n":77,"span":9,"encoder":"647819018","distractor":"647819918","target":"absent","response":"absent","rt":"4306","correct":true,"confidence":-1},{"trial_n":78,"span":10,"encoder":"9409441707","distractor":"9419441707","target":"present","response":"present","rt":"4088.0000000002","correct":true,"confidence":-1},{"trial_n":79,"span":10,"encoder":"7249650285","distractor":"7249650287","target":"absent","response":"absent","rt":"1534","correct":true,"confidence":-1},{"trial_n":80,"span":11,"encoder":"95466720981","distractor":"95466740981","target":"absent","response":"absent","rt":"5476","correct":true,"confidence":-1},{"trial_n":81,"span":11,"encoder":"43078930713","distractor":"43078930113","target":"present","response":"absent","rt":"10089","correct":false,"confidence":-1},{"trial_n":82,"span":10,"encoder":"5585491634","distractor":"5585421634","target":"absent","response":"absent","rt":"7295","correct":true,"confidence":-1},{"trial_n":83,"span":10,"encoder":"2003787797","distractor":"2003727797","target":"present","response":"present","rt":"4893","correct":true,"confidence":-1},{"trial_n":84,"span":11,"encoder":"29029837935","distractor":"29029937935","target":"present","response":"absent","rt":"6449.9999999998","correct":false,"confidence":-1},{"trial_n":85,"span":10,"encoder":"0867234826","distractor":"0868234826","target":"present","response":"absent","rt":"5771.9999999998","correct":false,"confidence":-1},{"trial_n":86,"span":9,"encoder":"476895941","distractor":"478895941","target":"absent","response":"absent","rt":"5732","correct":true,"confidence":-1},{"trial_n":87,"span":9,"encoder":"540241014","distractor":"540841014","target":"present","response":"present","rt":"3686.9999999998","correct":true,"confidence":-1},{"trial_n":88,"span":10,"encoder":"0993795790","distractor":"0933795790","target":"present","response":"present","rt":"2584","correct":true,"confidence":-1},{"trial_n":89,"span":10,"encoder":"9875935978","distractor":"9870935978","target":"present","response":"present","rt":"5017","correct":true,"confidence":-1},{"trial_n":90,"span":11,"encoder":"20167805649","distractor":"20167805449","target":"absent","response":"absent","rt":"1969","correct":true,"confidence":-1},{"trial_n":91,"span":11,"encoder":"91835871681","distractor":"91835871671","target":"present","response":"present","rt":"11304","correct":true,"confidence":1},{"trial_n":92,"span":12,"encoder":"808531288648","distractor":"808531288698","target":"absent","response":"absent","rt":"8084","correct":true,"confidence":4},{"trial_n":93,"span":12,"encoder":"960754137254","distractor":"960854137254","target":"present","response":"absent","rt":"7054.0000000002","correct":false,"confidence":4},{"trial_n":94,"span":11,"encoder":"14412564664","distractor":"14412504664","target":"absent","response":"absent","rt":"7744","correct":true,"confidence":5},{"trial_n":95,"span":11,"encoder":"70883267216","distractor":"70883262216","target":"present","response":"present","rt":"6918","correct":true,"confidence":2},{"trial_n":96,"span":12,"encoder":"813865393861","distractor":"813862393861","target":"present","response":"present","rt":"13651","correct":true,"confidence":1},{"trial_n":97,"span":12,"encoder":"081236362653","distractor":"081236662653","target":"absent","response":"absent","rt":"5992","correct":true,"confidence":4},{"trial_n":98,"span":13,"encoder":"2165363448643","distractor":"9165363448643","target":"absent","response":"absent","rt":"2189.0000000002","correct":true,"confidence":5},{"trial_n":99,"span":13,"encoder":"0931697069114","distractor":"0935697069114","target":"present","response":"present","rt":"7163","correct":true,"confidence":1},{"trial_n":100,"span":14,"encoder":"05922975360743","distractor":"05972975360743","target":"absent","response":"present","rt":"15798","correct":false,"confidence":4},{"trial_n":101,"span":13,"encoder":"8738053526824","distractor":"8738093526824","target":"present","response":"present","rt":"6010","correct":true,"confidence":4},{"trial_n":102,"span":13,"encoder":"5281243433739","distractor":"5281253433739","target":"present","response":"present","rt":"8300","correct":true,"confidence":5},{"trial_n":103,"span":14,"encoder":"56677873482620","distractor":"56677813482620","target":"absent","response":"present","rt":"10754","correct":false,"confidence":2},{"trial_n":104,"span":13,"encoder":"7799085937721","distractor":"7789085937721","target":"absent","response":"present","rt":"3537","correct":false,"confidence":3},{"trial_n":105,"span":12,"encoder":"267644899592","distractor":"267644899542","target":"absent","response":"absent","rt":"9157.9999999998","correct":true,"confidence":2},{"trial_n":106,"span":12,"encoder":"017453545845","distractor":"017453546845","target":"present","response":"present","rt":"18433","correct":true,"confidence":2},{"trial_n":107,"span":13,"encoder":"5611390340949","distractor":"5611390342949","target":"present","response":"absent","rt":"19561","correct":false,"confidence":2},{"trial_n":108,"span":12,"encoder":"567154352058","distractor":"567154358058","target":"absent","response":"present","rt":"12137","correct":false,"confidence":1},{"trial_n":109,"span":11,"encoder":"55558661676","distractor":"55558665676","target":"absent","response":"present","rt":"6466.9999999998","correct":false,"confidence":4},{"trial_n":110,"span":10,"encoder":"7750694301","distractor":"7950694301","target":"present","response":"present","rt":"3227","correct":true,"confidence":5},{"trial_n":111,"span":10,"encoder":"5266819575","distractor":"5266839575","target":"present","response":"present","rt":"5902.9999999998","correct":true,"confidence":1},{"trial_n":112,"span":11,"encoder":"66950160141","distractor":"66950760141","target":"present","response":"present","rt":"8322","correct":true,"confidence":2},{"trial_n":113,"span":11,"encoder":"45494490761","distractor":"40494490761","target":"absent","response":"present","rt":"3405","correct":false,"confidence":3},{"trial_n":114,"span":10,"encoder":"0924964746","distractor":"0924964743","target":"absent","response":"absent","rt":"1515","correct":true,"confidence":5},{"trial_n":115,"span":10,"encoder":"9608463853","distractor":"9608469853","target":"absent","response":"absent","rt":"10198","correct":true,"confidence":2},{"trial_n":116,"span":11,"encoder":"15772014775","distractor":"15778014775","target":"present","response":"present","rt":"4663","correct":true,"confidence":4},{"trial_n":117,"span":11,"encoder":"58183695594","distractor":"58193695594","target":"present","response":"present","rt":"7705","correct":true,"confidence":4},{"trial_n":118,"span":12,"encoder":"124601788371","distractor":"122601788371","target":"present","response":"present","rt":"9072","correct":true,"confidence":3},{"trial_n":119,"span":12,"encoder":"816393919939","distractor":"836393919939","target":"absent","response":"absent","rt":"4967","correct":true,"confidence":1},{"trial_n":120,"span":13,"encoder":"4564077009672","distractor":"3564077009672","target":"absent","response":"absent","rt":"1908.9999999998","correct":true,"confidence":5},{"trial_n":121,"span":13,"encoder":"5750437630600","distractor":"5750437638600","target":"present","response":"absent","rt":"9331","correct":false,"confidence":1},{"trial_n":122,"span":12,"encoder":"990676613972","distractor":"990976613972","target":"absent","response":"absent","rt":"6499.0000000002","correct":true,"confidence":4},{"trial_n":123,"span":12,"encoder":"029504805114","distractor":"029554805114","target":"absent","response":"present","rt":"7198","correct":false,"confidence":3},{"trial_n":124,"span":11,"encoder":"97307503812","distractor":"97307503212","target":"absent","response":"absent","rt":"1867.0000000002","correct":true,"confidence":5},{"trial_n":125,"span":11,"encoder":"88309658298","distractor":"08309658298","target":"present","response":"absent","rt":"4086","correct":false,"confidence":2},{"trial_n":126,"span":10,"encoder":"3829356197","distractor":"3829356192","target":"present","response":"absent","rt":"4167.0000000002","correct":false,"confidence":2},{"trial_n":127,"span":9,"encoder":"260032805","distractor":"660032805","target":"absent","response":"absent","rt":"2631.9999999998","correct":true,"confidence":4},{"trial_n":128,"span":9,"encoder":"751048342","distractor":"151048342","target":"present","response":"present","rt":"1591","correct":true,"confidence":4},{"trial_n":129,"span":10,"encoder":"2817687445","distractor":"2217687445","target":"present","response":"present","rt":"1459","correct":true,"confidence":4},{"trial_n":130,"span":10,"encoder":"5658011980","distractor":"1658011980","target":"present","response":"present","rt":"2398.0000000002","correct":true,"confidence":5},{"trial_n":131,"span":11,"encoder":"19511912441","distractor":"19511912449","target":"absent","response":"absent","rt":"2155.0000000002","correct":true,"confidence":5},{"trial_n":132,"span":11,"encoder":"29504773338","distractor":"79504773338","target":"present","response":"present","rt":"4100","correct":true,"confidence":3},{"trial_n":133,"span":12,"encoder":"634335763531","distractor":"634345763531","target":"absent","response":"present","rt":"6921.0000000002","correct":false,"confidence":2},{"trial_n":134,"span":11,"encoder":"92578078554","distractor":"92478078554","target":"absent","response":"present","rt":"7703.0000000007","correct":false,"confidence":1},{"trial_n":135,"span":10,"encoder":"6510193131","distractor":"3510193131","target":"absent","response":"absent","rt":"5487","correct":true,"confidence":2},{"trial_n":136,"span":10,"encoder":"3790334473","distractor":"3790334479","target":"present","response":"present","rt":"4362","correct":true,"confidence":1},{"trial_n":137,"span":11,"encoder":"38714302176","distractor":"38014302176","target":"present","response":"present","rt":"8447","correct":true,"confidence":1},{"trial_n":138,"span":11,"encoder":"39182516727","distractor":"39182516724","target":"absent","response":"absent","rt":"1647","correct":true,"confidence":5},{"trial_n":139,"span":12,"encoder":"381960064415","distractor":"381360064415","target":"absent","response":"absent","rt":"6050","correct":true,"confidence":2},{"trial_n":140,"span":12,"encoder":"854481408222","distractor":"854281408222","target":"present","response":"present","rt":"4103","correct":true,"confidence":2}]