[{"trial_n":1,"span":8,"encoder":"72828788","distractor":"82828788","target":"present","response":"present","rt":"4755.6000001431","correct":true,"confidence":-1},{"trial_n":2,"span":8,"encoder":"89416197","distractor":"89411197","target":"present","response":"present","rt":"1756.2000000477","correct":true,"confidence":-1},{"trial_n":3,"span":10,"encoder":"0954341033","distractor":"0955341033","target":"absent","response":"present","rt":"1237.1000001431","correct":false,"confidence":-1},{"trial_n":4,"span":8,"encoder":"90125926","distractor":"90425926","target":"absent","response":"absent","rt":"2903.7000000477","correct":true,"confidence":-1},{"trial_n":5,"span":8,"encoder":"36030173","distractor":"36030172","target":"present","response":"present","rt":"3097.0999999046","correct":true,"confidence":-1},{"trial_n":6,"span":10,"encoder":"7261597066","distractor":"7261587066","target":"present","response":"present","rt":"3016.2000000477","correct":true,"confidence":-1},{"trial_n":7,"span":10,"encoder":"8202524872","distractor":"8202529872","target":"present","response":"present","rt":"1558.7999999523","correct":true,"confidence":-1},{"trial_n":8,"span":12,"encoder":"873955013519","distractor":"873955017519","target":"present","response":"present","rt":"2698.2999999523","correct":true,"confidence":-1},{"trial_n":9,"span":12,"encoder":"333737192784","distractor":"333737102784","target":"present","response":"present","rt":"2045.5999999046","correct":true,"confidence":-1},{"trial_n":10,"span":14,"encoder":"63630963022661","distractor":"63630963022761","target":"absent","response":"absent","rt":"4112.2999999523","correct":true,"confidence":-1},{"trial_n":11,"span":14,"encoder":"47197185099077","distractor":"07197185099077","target":"absent","response":"absent","rt":"6544.6000001431","correct":true,"confidence":-1},{"trial_n":12,"span":15,"encoder":"055094199195828","distractor":"055094199195858","target":"absent","response":"present","rt":"4323","correct":false,"confidence":-1},{"trial_n":13,"span":14,"encoder":"87820433340490","distractor":"87820433346490","target":"absent","response":"present","rt":"2557.7000000477","correct":false,"confidence":-1},{"trial_n":14,"span":13,"encoder":"6135246672462","distractor":"6135216672462","target":"absent","response":"absent","rt":"3457.4000000954","correct":true,"confidence":-1},{"trial_n":15,"span":13,"encoder":"1205320604460","distractor":"1205320600460","target":"absent","response":"absent","rt":"2117.7000000477","correct":true,"confidence":-1},{"trial_n":16,"span":14,"encoder":"61372531497933","distractor":"61372531497983","target":"absent","response":"absent","rt":"2075.6000001431","correct":true,"confidence":-1},{"trial_n":17,"span":14,"encoder":"61697897148454","distractor":"63697897148454","target":"present","response":"present","rt":"3686.7999999523","correct":true,"confidence":-1},{"trial_n":18,"span":15,"encoder":"031164839305121","distractor":"031104839305121","target":"present","response":"present","rt":"4944.8999998569","correct":true,"confidence":-1},{"trial_n":19,"span":15,"encoder":"785076669908155","distractor":"785076669958155","target":"absent","response":"absent","rt":"3366.2999999523","correct":true,"confidence":-1},{"trial_n":20,"span":16,"encoder":"4712202624464019","distractor":"4712202624064019","target":"absent","response":"absent","rt":"2667.2999999523","correct":true,"confidence":-1},{"trial_n":21,"span":16,"encoder":"3917430863476272","distractor":"3917431863476272","target":"present","response":"present","rt":"2565.2999999523","correct":true,"confidence":4},{"trial_n":22,"span":17,"encoder":"74290441564914803","distractor":"74290441564514803","target":"present","response":"present","rt":"7872","correct":true,"confidence":3},{"trial_n":23,"span":17,"encoder":"13160524500565596","distractor":"17160524500565596","target":"present","response":"present","rt":"3199.1999998093","correct":true,"confidence":4},{"trial_n":24,"span":18,"encoder":"275338372292288356","distractor":"279338372292288356","target":"present","response":"present","rt":"5132.2000000477","correct":true,"confidence":2},{"trial_n":25,"span":18,"encoder":"630399161848936295","distractor":"630399161848939295","target":"absent","response":"absent","rt":"4046.1999998093","correct":true,"confidence":3},{"trial_n":26,"span":19,"encoder":"5773515808695735488","distractor":"4773515808695735488","target":"absent","response":"present","rt":"9581.2000000477","correct":false,"confidence":3},{"trial_n":27,"span":18,"encoder":"403144120446002576","distractor":"403144120746002576","target":"present","response":"present","rt":"4483","correct":true,"confidence":3},{"trial_n":28,"span":18,"encoder":"127374358707181357","distractor":"127774358707181357","target":"absent","response":"absent","rt":"3221","correct":true,"confidence":3},{"trial_n":29,"span":19,"encoder":"6334492706247804504","distractor":"6334092706247804504","target":"present","response":"present","rt":"10694.700000048","correct":true,"confidence":2},{"trial_n":30,"span":19,"encoder":"2742170040698745594","distractor":"2742170040698705594","target":"present","response":"present","rt":"2913.2999999523","correct":true,"confidence":2},{"trial_n":31,"span":20,"encoder":"95206869713878356294","distractor":"95206869713838356294","target":"present","response":"present","rt":"4427.7999999523","correct":true,"confidence":4},{"trial_n":32,"span":20,"encoder":"82420387582422618015","distractor":"82420367582422618015","target":"present","response":"present","rt":"9412.8999998569","correct":true,"confidence":3},{"trial_n":33,"span":21,"encoder":"509887124395796509478","distractor":"509887124395796509475","target":"absent","response":"absent","rt":"6825.6999998093","correct":true,"confidence":5},{"trial_n":34,"span":21,"encoder":"017091756697592177927","distractor":"017091756697592377927","target":"absent","response":"present","rt":"4598","correct":false,"confidence":5},{"trial_n":35,"span":20,"encoder":"96524955034919864049","distractor":"96524957034919864049","target":"present","response":"present","rt":"6585.1000001431","correct":true,"confidence":3},{"trial_n":36,"span":20,"encoder":"13814928851000526436","distractor":"13814928851000526736","target":"present","response":"present","rt":"5814.5","correct":true,"confidence":3},{"trial_n":37,"span":21,"encoder":"652785619477311992831","distractor":"652785613477311992831","target":"absent","response":"absent","rt":"6364.7999999523","correct":true,"confidence":3},{"trial_n":38,"span":21,"encoder":"044362127642894341082","distractor":"044362127672894341082","target":"present","response":"absent","rt":"6077.5","correct":false,"confidence":3},{"trial_n":39,"span":20,"encoder":"75216477507448486767","distractor":"75216477507448486967","target":"absent","response":"present","rt":"4258.7000000477","correct":false,"confidence":4},{"trial_n":40,"span":19,"encoder":"2559709472532310589","distractor":"2559709472532360589","target":"absent","response":"present","rt":"5808.2999999523","correct":false,"confidence":4},{"trial_n":41,"span":18,"encoder":"308675067824449150","distractor":"308675267824449150","target":"present","response":"absent","rt":"7524.6000001431","correct":false,"confidence":2},{"trial_n":42,"span":17,"encoder":"89137011188390469","distractor":"89137011158390469","target":"absent","response":"present","rt":"5788.5","correct":false,"confidence":3},{"trial_n":43,"span":16,"encoder":"3834124819792252","distractor":"3834124889792252","target":"present","response":"present","rt":"5684.0999999046","correct":true,"confidence":4},{"trial_n":44,"span":16,"encoder":"5396237770368587","distractor":"4396237770368587","target":"present","response":"present","rt":"3247.0999999046","correct":true,"confidence":3},{"trial_n":45,"span":17,"encoder":"22760055495548394","distractor":"22760055498548394","target":"absent","response":"present","rt":"11880.900000095","correct":false,"confidence":2},{"trial_n":46,"span":16,"encoder":"9483399739989444","distractor":"9443399739989444","target":"absent","response":"absent","rt":"8512.4000000954","correct":true,"confidence":3},{"trial_n":47,"span":16,"encoder":"0168977760152932","distractor":"0168977760152992","target":"present","response":"absent","rt":"5494.5","correct":false,"confidence":3},{"trial_n":48,"span":15,"encoder":"728739171292938","distractor":"728739111292938","target":"absent","response":"present","rt":"4228.5","correct":false,"confidence":4},{"trial_n":49,"span":14,"encoder":"59076700268269","distractor":"59076700268669","target":"absent","response":"absent","rt":"7168.7999999523","correct":true,"confidence":2},{"trial_n":50,"span":14,"encoder":"14361370903832","distractor":"14361390903832","target":"present","response":"present","rt":"4520.5","correct":true,"confidence":2},{"trial_n":51,"span":15,"encoder":"707091923702029","distractor":"707091923708029","target":"present","response":"present","rt":"3746.8999998569","correct":true,"confidence":4},{"trial_n":52,"span":15,"encoder":"403153225287827","distractor":"406153225287827","target":"absent","response":"absent","rt":"6287.0999999046","correct":true,"confidence":4},{"trial_n":53,"span":16,"encoder":"7537063438280323","distractor":"7536063438280323","target":"absent","response":"present","rt":"13592.700000048","correct":false,"confidence":3},{"trial_n":54,"span":15,"encoder":"548420593046478","distractor":"548420793046478","target":"present","response":"present","rt":"4986.7000000477","correct":true,"confidence":2},{"trial_n":55,"span":15,"encoder":"928689526753987","distractor":"928679526753987","target":"absent","response":"present","rt":"12818.700000048","correct":false,"confidence":1},{"trial_n":56,"span":14,"encoder":"60585208459380","distractor":"60585208459382","target":"absent","response":"present","rt":"4008.6000001431","correct":false,"confidence":3},{"trial_n":57,"span":13,"encoder":"2264754605185","distractor":"2264854605185","target":"absent","response":"present","rt":"3119.2999999523","correct":false,"confidence":4},{"trial_n":58,"span":12,"encoder":"531977864137","distractor":"535977864137","target":"absent","response":"absent","rt":"11953.200000048","correct":true,"confidence":2},{"trial_n":59,"span":12,"encoder":"904907238260","distractor":"904907268260","target":"present","response":"present","rt":"4318.2000000477","correct":true,"confidence":3},{"trial_n":60,"span":13,"encoder":"9000485034564","distractor":"9000465034564","target":"present","response":"present","rt":"3881.5999999046","correct":true,"confidence":4},{"trial_n":61,"span":13,"encoder":"5044456291884","distractor":"5044456296884","target":"absent","response":"absent","rt":"4250.7000000477","correct":true,"confidence":4},{"trial_n":62,"span":14,"encoder":"70240850076268","distractor":"20240850076268","target":"present","response":"present","rt":"3093.7000000477","correct":true,"confidence":3},{"trial_n":63,"span":14,"encoder":"41578879186399","distractor":"41598879186399","target":"present","response":"present","rt":"5778.7000000477","correct":true,"confidence":3},{"trial_n":64,"span":15,"encoder":"131729205148939","distractor":"131729205148938","target":"present","response":"absent","rt":"2680.3999998569","correct":false,"confidence":1},{"trial_n":65,"span":14,"encoder":"97040718884906","distractor":"87040718884906","target":"absent","response":"absent","rt":"6294.5","correct":true,"confidence":3},{"trial_n":66,"span":14,"encoder":"67809086327645","distractor":"67809082327645","target":"present","response":"present","rt":"3568.3999998569","correct":true,"confidence":3},{"trial_n":67,"span":15,"encoder":"141809891278111","distractor":"141809891278711","target":"absent","response":"present","rt":"8780.7999999523","correct":false,"confidence":1},{"trial_n":68,"span":14,"encoder":"37627797057079","distractor":"37647797057079","target":"present","response":"present","rt":"4152.5999999046","correct":true,"confidence":4},{"trial_n":69,"span":14,"encoder":"21728612471890","distractor":"21728612471840","target":"present","response":"present","rt":"5903.7000000477","correct":true,"confidence":3},{"trial_n":70,"span":15,"encoder":"465870578245699","distractor":"465870578242699","target":"absent","response":"present","rt":"3680.0999999046","correct":false,"confidence":4},{"trial_n":71,"span":8,"encoder":"44289130","distractor":"44289180","target":"present","response":"absent","rt":"16063.599999905","correct":false,"confidence":-1},{"trial_n":72,"span":7,"encoder":"1516857","distractor":"1519857","target":"present","response":"present","rt":"5036","correct":true,"confidence":-1},{"trial_n":73,"span":7,"encoder":"1709621","distractor":"1609621","target":"absent","response":"absent","rt":"3322.6000001431","correct":true,"confidence":-1},{"trial_n":74,"span":8,"encoder":"08173000","distractor":"08177000","target":"absent","response":"absent","rt":"1134.9000000954","correct":true,"confidence":-1},{"trial_n":75,"span":8,"encoder":"52686777","distractor":"53686777","target":"present","response":"present","rt":"10317.100000143","correct":true,"confidence":-1},{"trial_n":76,"span":9,"encoder":"470099853","distractor":"970099853","target":"present","response":"present","rt":"6669","correct":true,"confidence":-1},{"trial_n":77,"span":9,"encoder":"410874380","distractor":"440874380","target":"absent","response":"absent","rt":"3886.0999999046","correct":true,"confidence":-1},{"trial_n":78,"span":10,"encoder":"5597668453","distractor":"5597668853","target":"absent","response":"absent","rt":"8661","correct":true,"confidence":-1},{"trial_n":79,"span":10,"encoder":"9221353746","distractor":"9221353646","target":"absent","response":"present","rt":"6638.2000000477","correct":false,"confidence":-1},{"trial_n":80,"span":9,"encoder":"102124100","distractor":"102121100","target":"present","response":"present","rt":"5547.4000000954","correct":true,"confidence":-1},{"trial_n":81,"span":9,"encoder":"313257804","distractor":"313957804","target":"present","response":"present","rt":"992.09999990463","correct":true,"confidence":-1},{"trial_n":82,"span":10,"encoder":"6759203498","distractor":"6759203408","target":"absent","response":"present","rt":"2331.8000001907","correct":false,"confidence":-1},{"trial_n":83,"span":9,"encoder":"319708261","distractor":"319708961","target":"absent","response":"present","rt":"2252.5999999046","correct":false,"confidence":-1},{"trial_n":84,"span":8,"encoder":"21838556","distractor":"21938556","target":"present","response":"absent","rt":"1250.3999998569","correct":false,"confidence":-1},{"trial_n":85,"span":7,"encoder":"7698844","distractor":"7698846","target":"present","response":"absent","rt":"4277.6999998093","correct":false,"confidence":-1},{"trial_n":86,"span":6,"encoder":"468712","distractor":"468742","target":"absent","response":"present","rt":"24699.5","correct":false,"confidence":-1},{"trial_n":87,"span":5,"encoder":"90418","distractor":"99418","target":"present","response":"present","rt":"4503.2999999523","correct":true,"confidence":-1},{"trial_n":88,"span":5,"encoder":"00751","distractor":"00759","target":"absent","response":"present","rt":"12296.700000048","correct":false,"confidence":-1},{"trial_n":89,"span":4,"encoder":"6589","distractor":"6585","target":"present","response":"absent","rt":"9586.0999999046","correct":false,"confidence":-1},{"trial_n":90,"span":3,"encoder":"284","distractor":"884","target":"absent","response":"present","rt":"5819.1000001431","correct":false,"confidence":-1},{"trial_n":91,"span":2,"encoder":"65","distractor":"75","target":"present","response":"absent","rt":"20370.400000095","correct":false,"confidence":1},{"trial_n":92,"span":2,"encoder":"69","distractor":"59","target":"present","response":"absent","rt":"1697.2000000477","correct":false,"confidence":1},{"trial_n":93,"span":2,"encoder":"84","distractor":"88","target":"present","response":"absent","rt":"1500.1000001431","correct":false,"confidence":1},{"trial_n":94,"span":2,"encoder":"07","distractor":"37","target":"absent","response":"present","rt":"2676.7000000477","correct":false,"confidence":5},{"trial_n":95,"span":2,"encoder":"81","distractor":"41","target":"present","response":"absent","rt":"2589.2000000477","correct":false,"confidence":3},{"trial_n":96,"span":2,"encoder":"46","distractor":"26","target":"absent","response":"present","rt":"1688.9000000954","correct":false,"confidence":1},{"trial_n":97,"span":2,"encoder":"02","distractor":"05","target":"present","response":"present","rt":"3472.5999999046","correct":true,"confidence":2},{"trial_n":98,"span":2,"encoder":"23","distractor":"27","target":"absent","response":"present","rt":"2150.2999999523","correct":false,"confidence":1},{"trial_n":99,"span":2,"encoder":"86","distractor":"80","target":"absent","response":"present","rt":"2083.1000001431","correct":false,"confidence":1},{"trial_n":100,"span":2,"encoder":"86","distractor":"82","target":"present","response":"absent","rt":"1610.4000000954","correct":false,"confidence":5},{"trial_n":101,"span":2,"encoder":"47","distractor":"40","target":"present","response":"absent","rt":"1434.0999999046","correct":false,"confidence":3},{"trial_n":102,"span":2,"encoder":"08","distractor":"06","target":"absent","response":"present","rt":"1771.4000000954","correct":false,"confidence":3},{"trial_n":103,"span":2,"encoder":"11","distractor":"12","target":"absent","response":"present","rt":"2938.5999999046","correct":false,"confidence":3},{"trial_n":104,"span":2,"encoder":"26","distractor":"20","target":"absent","response":"absent","rt":"1482.7000000477","correct":true,"confidence":1},{"trial_n":105,"span":2,"encoder":"39","distractor":"29","target":"present","response":"absent","rt":"1940","correct":false,"confidence":4},{"trial_n":106,"span":2,"encoder":"75","distractor":"45","target":"absent","response":"present","rt":"2356.6999998093","correct":false,"confidence":2},{"trial_n":107,"span":2,"encoder":"05","distractor":"65","target":"present","response":"present","rt":"3416.3999998569","correct":true,"confidence":3},{"trial_n":108,"span":2,"encoder":"61","distractor":"21","target":"present","response":"absent","rt":"10149.100000143","correct":false,"confidence":3},{"trial_n":109,"span":2,"encoder":"69","distractor":"65","target":"present","response":"absent","rt":"4098","correct":false,"confidence":1},{"trial_n":110,"span":2,"encoder":"32","distractor":"02","target":"present","response":"absent","rt":"29009.600000143","correct":false,"confidence":1},{"trial_n":111,"span":2,"encoder":"18","distractor":"17","target":"absent","response":"absent","rt":"1275.2000000477","correct":true,"confidence":1},{"trial_n":112,"span":2,"encoder":"20","distractor":"40","target":"absent","response":"absent","rt":"2843.1999998093","correct":true,"confidence":1},{"trial_n":113,"span":3,"encoder":"196","distractor":"176","target":"absent","response":"present","rt":"3126.2000000477","correct":false,"confidence":1},{"trial_n":114,"span":2,"encoder":"27","distractor":"47","target":"present","response":"absent","rt":"1890.1000001431","correct":false,"confidence":1},{"trial_n":115,"span":2,"encoder":"70","distractor":"78","target":"present","response":"present","rt":"1261.7999999523","correct":true,"confidence":1},{"trial_n":116,"span":2,"encoder":"77","distractor":"70","target":"present","response":"absent","rt":"1979.5999999046","correct":false,"confidence":4},{"trial_n":117,"span":2,"encoder":"86","distractor":"81","target":"present","response":"absent","rt":"1940.2000000477","correct":false,"confidence":3},{"trial_n":118,"span":2,"encoder":"06","distractor":"07","target":"absent","response":"absent","rt":"3167.9000000954","correct":true,"confidence":3},{"trial_n":119,"span":2,"encoder":"62","distractor":"02","target":"present","response":"absent","rt":"1947.4000000954","correct":false,"confidence":1},{"trial_n":120,"span":2,"encoder":"41","distractor":"46","target":"absent","response":"present","rt":"3149.8000001907","correct":false,"confidence":2},{"trial_n":121,"span":2,"encoder":"88","distractor":"81","target":"present","response":"absent","rt":"1838.0999999046","correct":false,"confidence":5},{"trial_n":122,"span":2,"encoder":"67","distractor":"62","target":"present","response":"absent","rt":"1606.4000000954","correct":false,"confidence":3},{"trial_n":123,"span":2,"encoder":"30","distractor":"33","target":"present","response":"present","rt":"3166.7000000477","correct":true,"confidence":3},{"trial_n":124,"span":2,"encoder":"94","distractor":"24","target":"present","response":"absent","rt":"3281.4000000954","correct":false,"confidence":3},{"trial_n":125,"span":2,"encoder":"29","distractor":"20","target":"absent","response":"present","rt":"2823.6999998093","correct":false,"confidence":3},{"trial_n":126,"span":2,"encoder":"31","distractor":"35","target":"absent","response":"absent","rt":"2324.9000000954","correct":true,"confidence":3},{"trial_n":127,"span":2,"encoder":"57","distractor":"50","target":"absent","response":"absent","rt":"1694.2000000477","correct":true,"confidence":1},{"trial_n":128,"span":3,"encoder":"470","distractor":"400","target":"absent","response":"present","rt":"1779.5999999046","correct":false,"confidence":4},{"trial_n":129,"span":2,"encoder":"00","distractor":"09","target":"absent","response":"absent","rt":"1925.2999999523","correct":true,"confidence":1},{"trial_n":130,"span":2,"encoder":"54","distractor":"51","target":"absent","response":"present","rt":"2170.8999998569","correct":false,"confidence":2},{"trial_n":131,"span":2,"encoder":"30","distractor":"36","target":"absent","response":"present","rt":"4412.3000001907","correct":false,"confidence":3},{"trial_n":132,"span":2,"encoder":"91","distractor":"21","target":"present","response":"absent","rt":"10794.5","correct":false,"confidence":1},{"trial_n":133,"span":2,"encoder":"15","distractor":"19","target":"present","response":"present","rt":"10666.400000095","correct":true,"confidence":3},{"trial_n":134,"span":2,"encoder":"55","distractor":"51","target":"present","response":"absent","rt":"3263.9000000954","correct":false,"confidence":4},{"trial_n":135,"span":2,"encoder":"87","distractor":"89","target":"absent","response":"present","rt":"3319.2999999523","correct":false,"confidence":1},{"trial_n":136,"span":2,"encoder":"98","distractor":"94","target":"present","response":"present","rt":"2655.7999999523","correct":true,"confidence":5},{"trial_n":137,"span":2,"encoder":"09","distractor":"89","target":"absent","response":"absent","rt":"5755.4000000954","correct":true,"confidence":1},{"trial_n":138,"span":3,"encoder":"941","distractor":"945","target":"present","response":"absent","rt":"1662.5999999046","correct":false,"confidence":1},{"trial_n":139,"span":2,"encoder":"42","distractor":"32","target":"absent","response":"present","rt":"1591","correct":false,"confidence":1},{"trial_n":140,"span":2,"encoder":"20","distractor":"21","target":"absent","response":"absent","rt":"1350.1000001431","correct":true,"confidence":1}]