[{"trial_n":1,"n_dots":4.25,"target":"right","response":"left","rt":123445,"correct":false,"confidence":-1},{"trial_n":2,"n_dots":4.25,"target":"right","response":"left","rt":2806.9000000954,"correct":false,"confidence":-1},{"trial_n":3,"n_dots":4.65,"target":"right","response":"right","rt":1008.8000000715,"correct":true,"confidence":-1},{"trial_n":4,"n_dots":4.65,"target":"right","response":"left","rt":1137.4000000954,"correct":false,"confidence":-1},{"trial_n":5,"n_dots":5.05,"target":"left","response":"right","rt":1656.5,"correct":false,"confidence":-1},{"trial_n":6,"n_dots":5.45,"target":"left","response":"right","rt":20100.399999976,"correct":false,"confidence":-1},{"trial_n":7,"n_dots":5.743,"target":"left","response":"right","rt":14243.200000048,"correct":false,"confidence":-1},{"trial_n":8,"n_dots":5.743,"target":"right","response":"right","rt":5560.5,"correct":true,"confidence":-1},{"trial_n":9,"n_dots":5.743,"target":"left","response":"right","rt":820.60000002384,"correct":false,"confidence":-1},{"trial_n":10,"n_dots":5.743,"target":"left","response":"right","rt":660.89999997616,"correct":false,"confidence":-1},{"trial_n":11,"n_dots":5.743,"target":"left","response":"right","rt":476.89999997616,"correct":false,"confidence":-1},{"trial_n":12,"n_dots":5.743,"target":"right","response":"right","rt":271.90000009537,"correct":true,"confidence":-1},{"trial_n":13,"n_dots":5.743,"target":"left","response":"right","rt":3143.6000000238,"correct":false,"confidence":-1},{"trial_n":14,"n_dots":5.743,"target":"right","response":"right","rt":4183.7999999523,"correct":true,"confidence":-1},{"trial_n":15,"n_dots":5.743,"target":"left","response":"right","rt":1411.1000000238,"correct":false,"confidence":-1},{"trial_n":16,"n_dots":5.743,"target":"left","response":"right","rt":3413,"correct":false,"confidence":-1},{"trial_n":17,"n_dots":5.743,"target":"right","response":"right","rt":773,"correct":true,"confidence":-1},{"trial_n":18,"n_dots":5.743,"target":"right","response":"right","rt":643.10000002384,"correct":true,"confidence":-1},{"trial_n":19,"n_dots":5.643,"target":"right","response":"right","rt":723,"correct":true,"confidence":-1},{"trial_n":20,"n_dots":5.643,"target":"left","response":"right","rt":1205.1000000238,"correct":false,"confidence":-1},{"trial_n":21,"n_dots":5.743,"target":"left","response":"right","rt":1069.6999999285,"correct":false,"confidence":1},{"trial_n":22,"n_dots":5.743,"target":"right","response":"right","rt":10154.700000048,"correct":true,"confidence":1},{"trial_n":23,"n_dots":5.743,"target":"left","response":"right","rt":608.20000004768,"correct":false,"confidence":1},{"trial_n":24,"n_dots":5.743,"target":"right","response":"right","rt":10771.5,"correct":true,"confidence":1},{"trial_n":25,"n_dots":5.743,"target":"right","response":"right","rt":24686.099999905,"correct":true,"confidence":1},{"trial_n":26,"n_dots":5.643,"target":"right","response":"right","rt":2676.3000000715,"correct":true,"confidence":1},{"trial_n":27,"n_dots":5.643,"target":"right","response":"right","rt":355.30000007153,"correct":true,"confidence":1},{"trial_n":28,"n_dots":5.543,"target":"right","response":"right","rt":593.5,"correct":true,"confidence":1},{"trial_n":29,"n_dots":5.543,"target":"left","response":"right","rt":3071.2999999523,"correct":false,"confidence":1},{"trial_n":30,"n_dots":5.643,"target":"left","response":"right","rt":1134.7000000477,"correct":false,"confidence":1},{"trial_n":31,"n_dots":5.743,"target":"left","response":"right","rt":1330.9000000954,"correct":false,"confidence":1},{"trial_n":32,"n_dots":5.743,"target":"left","response":"right","rt":6276.2000000477,"correct":false,"confidence":1},{"trial_n":33,"n_dots":5.743,"target":"left","response":"right","rt":579.19999992847,"correct":false,"confidence":1},{"trial_n":34,"n_dots":5.743,"target":"left","response":"right","rt":2568.1999999285,"correct":false,"confidence":1},{"trial_n":35,"n_dots":5.743,"target":"left","response":"right","rt":787.5,"correct":false,"confidence":1},{"trial_n":36,"n_dots":5.743,"target":"left","response":"right","rt":1071.3999999762,"correct":false,"confidence":1},{"trial_n":37,"n_dots":5.743,"target":"right","response":"right","rt":2524,"correct":true,"confidence":1},{"trial_n":38,"n_dots":5.743,"target":"left","response":"right","rt":310.59999990463,"correct":false,"confidence":1},{"trial_n":39,"n_dots":5.743,"target":"right","response":"right","rt":657.40000009537,"correct":true,"confidence":1},{"trial_n":40,"n_dots":5.743,"target":"left","response":"right","rt":595.30000007153,"correct":false,"confidence":1},{"trial_n":41,"n_dots":5.743,"target":"right","response":"right","rt":460.39999997616,"correct":true,"confidence":1},{"trial_n":42,"n_dots":5.743,"target":"right","response":"right","rt":450.89999997616,"correct":true,"confidence":1},{"trial_n":43,"n_dots":5.643,"target":"right","response":"right","rt":503,"correct":true,"confidence":1},{"trial_n":44,"n_dots":5.643,"target":"left","response":"right","rt":14.899999976158,"correct":false,"confidence":1},{"trial_n":45,"n_dots":5.743,"target":"right","response":"right","rt":18.5,"correct":true,"confidence":1},{"trial_n":46,"n_dots":5.743,"target":"left","response":"right","rt":387.29999995232,"correct":false,"confidence":1},{"trial_n":47,"n_dots":5.743,"target":"right","response":"right","rt":624.5,"correct":true,"confidence":1},{"trial_n":48,"n_dots":5.743,"target":"right","response":"right","rt":509.90000009537,"correct":true,"confidence":1},{"trial_n":49,"n_dots":5.643,"target":"left","response":"right","rt":516.40000009537,"correct":false,"confidence":1},{"trial_n":50,"n_dots":5.743,"target":"right","response":"right","rt":635,"correct":true,"confidence":1},{"trial_n":51,"n_dots":5.743,"target":"left","response":"right","rt":893.10000002384,"correct":false,"confidence":1},{"trial_n":52,"n_dots":5.743,"target":"left","response":"right","rt":761.69999992847,"correct":false,"confidence":1},{"trial_n":53,"n_dots":5.743,"target":"left","response":"right","rt":607,"correct":false,"confidence":1},{"trial_n":54,"n_dots":5.743,"target":"right","response":"right","rt":1042.7000000477,"correct":true,"confidence":1},{"trial_n":55,"n_dots":5.743,"target":"right","response":"right","rt":805.80000007153,"correct":true,"confidence":1},{"trial_n":56,"n_dots":5.643,"target":"left","response":"right","rt":358.70000004768,"correct":false,"confidence":1},{"trial_n":57,"n_dots":5.743,"target":"left","response":"right","rt":441.89999997616,"correct":false,"confidence":1},{"trial_n":58,"n_dots":5.743,"target":"right","response":"right","rt":948,"correct":true,"confidence":1},{"trial_n":59,"n_dots":5.743,"target":"right","response":"right","rt":650.10000002384,"correct":true,"confidence":1},{"trial_n":60,"n_dots":5.643,"target":"right","response":"right","rt":744.5,"correct":true,"confidence":1},{"trial_n":61,"n_dots":5.643,"target":"left","response":"right","rt":1915.2000000477,"correct":false,"confidence":1},{"trial_n":62,"n_dots":5.743,"target":"right","response":"right","rt":806.5,"correct":true,"confidence":1},{"trial_n":63,"n_dots":5.743,"target":"left","response":"right","rt":719.70000004768,"correct":false,"confidence":1},{"trial_n":64,"n_dots":5.743,"target":"right","response":"right","rt":477.60000002384,"correct":true,"confidence":1},{"trial_n":65,"n_dots":5.743,"target":"right","response":"right","rt":1171.6999999285,"correct":true,"confidence":1},{"trial_n":66,"n_dots":5.643,"target":"right","response":"right","rt":2050,"correct":true,"confidence":1},{"trial_n":67,"n_dots":5.643,"target":"right","response":"right","rt":1555.2999999523,"correct":true,"confidence":1},{"trial_n":68,"n_dots":5.543,"target":"left","response":"right","rt":535.89999997616,"correct":false,"confidence":1},{"trial_n":69,"n_dots":5.643,"target":"left","response":"right","rt":332.90000009537,"correct":false,"confidence":1},{"trial_n":70,"n_dots":5.743,"target":"left","response":"right","rt":558,"correct":false,"confidence":1},{"trial_n":71,"n_dots":5.743,"target":"left","response":"right","rt":780.89999997616,"correct":false,"confidence":1},{"trial_n":72,"n_dots":5.743,"target":"left","response":"right","rt":318.70000004768,"correct":false,"confidence":1},{"trial_n":73,"n_dots":5.743,"target":"left","response":"right","rt":608,"correct":false,"confidence":1},{"trial_n":74,"n_dots":5.743,"target":"right","response":"right","rt":525.59999990463,"correct":true,"confidence":1},{"trial_n":75,"n_dots":5.743,"target":"right","response":"right","rt":505.70000004768,"correct":true,"confidence":1},{"trial_n":76,"n_dots":5.643,"target":"left","response":"right","rt":1773.5,"correct":false,"confidence":1},{"trial_n":77,"n_dots":5.743,"target":"right","response":"right","rt":1425.7000000477,"correct":true,"confidence":1},{"trial_n":78,"n_dots":5.743,"target":"right","response":"right","rt":764.20000004768,"correct":true,"confidence":1},{"trial_n":79,"n_dots":5.643,"target":"left","response":"right","rt":372.90000009537,"correct":false,"confidence":1},{"trial_n":80,"n_dots":5.743,"target":"left","response":"right","rt":810.20000004768,"correct":false,"confidence":1},{"trial_n":81,"n_dots":5.743,"target":"left","response":"right","rt":1026.4000000954,"correct":false,"confidence":1},{"trial_n":82,"n_dots":5.743,"target":"left","response":"right","rt":450.60000002384,"correct":false,"confidence":1},{"trial_n":83,"n_dots":5.743,"target":"right","response":"right","rt":994.5,"correct":true,"confidence":1},{"trial_n":84,"n_dots":5.743,"target":"left","response":"right","rt":694.19999992847,"correct":false,"confidence":1},{"trial_n":85,"n_dots":5.743,"target":"left","response":"right","rt":471.30000007153,"correct":false,"confidence":1},{"trial_n":86,"n_dots":5.743,"target":"left","response":"right","rt":372,"correct":false,"confidence":1},{"trial_n":87,"n_dots":5.743,"target":"left","response":"right","rt":630.70000004768,"correct":false,"confidence":1},{"trial_n":88,"n_dots":5.743,"target":"right","response":"right","rt":402.80000007153,"correct":true,"confidence":1},{"trial_n":89,"n_dots":5.743,"target":"left","response":"right","rt":292.90000009537,"correct":false,"confidence":1},{"trial_n":90,"n_dots":5.743,"target":"right","response":"right","rt":818,"correct":true,"confidence":1},{"trial_n":91,"n_dots":5.743,"target":"left","response":"right","rt":405,"correct":false,"confidence":1},{"trial_n":92,"n_dots":5.743,"target":"left","response":"right","rt":1210.9000000954,"correct":false,"confidence":1},{"trial_n":93,"n_dots":5.743,"target":"right","response":"right","rt":1257.9000000954,"correct":true,"confidence":1},{"trial_n":94,"n_dots":5.743,"target":"left","response":"right","rt":915.90000009537,"correct":false,"confidence":1},{"trial_n":95,"n_dots":5.743,"target":"right","response":"right","rt":328.90000009537,"correct":true,"confidence":1},{"trial_n":96,"n_dots":5.743,"target":"right","response":"right","rt":498.60000002384,"correct":true,"confidence":1},{"trial_n":97,"n_dots":5.643,"target":"right","response":"right","rt":536.30000007153,"correct":true,"confidence":1},{"trial_n":98,"n_dots":5.643,"target":"right","response":"right","rt":349.10000002384,"correct":true,"confidence":1},{"trial_n":99,"n_dots":5.543,"target":"right","response":"right","rt":875.10000002384,"correct":true,"confidence":1},{"trial_n":100,"n_dots":5.543,"target":"left","response":"right","rt":392.30000007153,"correct":false,"confidence":1},{"trial_n":101,"n_dots":5.643,"target":"right","response":"right","rt":1664.2999999523,"correct":true,"confidence":1},{"trial_n":102,"n_dots":5.643,"target":"left","response":"right","rt":1567.8999999762,"correct":false,"confidence":1},{"trial_n":103,"n_dots":5.743,"target":"right","response":"right","rt":485.80000007153,"correct":true,"confidence":1},{"trial_n":104,"n_dots":5.743,"target":"left","response":"right","rt":438.69999992847,"correct":false,"confidence":1},{"trial_n":105,"n_dots":5.743,"target":"left","response":"right","rt":1406.6000000238,"correct":false,"confidence":1},{"trial_n":106,"n_dots":5.743,"target":"right","response":"right","rt":518.5,"correct":true,"confidence":1},{"trial_n":107,"n_dots":5.743,"target":"right","response":"right","rt":458.20000004768,"correct":true,"confidence":1},{"trial_n":108,"n_dots":5.643,"target":"right","response":"right","rt":1618.2000000477,"correct":true,"confidence":1},{"trial_n":109,"n_dots":5.643,"target":"right","response":"right","rt":8133.8000000715,"correct":true,"confidence":1},{"trial_n":110,"n_dots":5.543,"target":"right","response":"right","rt":1689.2000000477,"correct":true,"confidence":1},{"trial_n":111,"n_dots":5.543,"target":"left","response":"right","rt":4590.8000000715,"correct":false,"confidence":1},{"trial_n":112,"n_dots":5.643,"target":"left","response":"right","rt":3006,"correct":false,"confidence":1},{"trial_n":113,"n_dots":5.743,"target":"left","response":"right","rt":29018.100000024,"correct":false,"confidence":1},{"trial_n":114,"n_dots":5.743,"target":"right","response":"right","rt":4872.9000000954,"correct":true,"confidence":1},{"trial_n":115,"n_dots":5.743,"target":"right","response":"right","rt":2341.3000000715,"correct":true,"confidence":1},{"trial_n":116,"n_dots":5.643,"target":"left","response":"right","rt":476.29999995232,"correct":false,"confidence":1},{"trial_n":117,"n_dots":5.743,"target":"right","response":"right","rt":206.70000004768,"correct":true,"confidence":1},{"trial_n":118,"n_dots":5.743,"target":"left","response":"right","rt":257.60000002384,"correct":false,"confidence":1},{"trial_n":119,"n_dots":5.743,"target":"right","response":"right","rt":368.10000002384,"correct":true,"confidence":1},{"trial_n":120,"n_dots":5.743,"target":"right","response":"right","rt":313.29999995232,"correct":true,"confidence":1}]