[{"trial_n":1,"min":25,"max":230,"target":"present","response":"present","rt":8208.099999994,"correct":true,"confidence":-1},{"trial_n":2,"min":25,"max":230,"target":"present","response":"absent","rt":1344.2000000179,"correct":false,"confidence":-1},{"trial_n":3,"min":9,"max":246,"target":"absent","response":"present","rt":1185.400000006,"correct":false,"confidence":-1},{"trial_n":4,"min":0,"max":255,"target":"absent","response":"absent","rt":7470.6999999881,"correct":true,"confidence":-1},{"trial_n":5,"min":0,"max":255,"target":"present","response":"present","rt":2966.3999999762,"correct":true,"confidence":-1},{"trial_n":6,"min":16,"max":239,"target":"present","response":"present","rt":1094.400000006,"correct":true,"confidence":-1},{"trial_n":7,"min":16,"max":239,"target":"present","response":"present","rt":841.19999998808,"correct":true,"confidence":-1},{"trial_n":8,"min":32,"max":223,"target":"absent","response":"absent","rt":1081.5,"correct":true,"confidence":-1},{"trial_n":9,"min":32,"max":223,"target":"absent","response":"absent","rt":1081.599999994,"correct":true,"confidence":-1},{"trial_n":10,"min":48,"max":207,"target":"present","response":"present","rt":929,"correct":true,"confidence":-1},{"trial_n":11,"min":48,"max":207,"target":"present","response":"present","rt":935.90000000596,"correct":true,"confidence":-1},{"trial_n":12,"min":56,"max":199,"target":"present","response":"present","rt":781.20000001788,"correct":true,"confidence":-1},{"trial_n":13,"min":56,"max":199,"target":"present","response":"present","rt":930.70000001788,"correct":true,"confidence":-1},{"trial_n":14,"min":64,"max":191,"target":"absent","response":"absent","rt":1171.5,"correct":true,"confidence":-1},{"trial_n":15,"min":64,"max":191,"target":"absent","response":"absent","rt":682.30000001192,"correct":true,"confidence":-1},{"trial_n":16,"min":72,"max":183,"target":"absent","response":"absent","rt":1078.8000000119,"correct":true,"confidence":-1},{"trial_n":17,"min":72,"max":183,"target":"absent","response":"absent","rt":547.39999997616,"correct":true,"confidence":-1},{"trial_n":18,"min":80,"max":175,"target":"absent","response":"absent","rt":409.39999997616,"correct":true,"confidence":-1},{"trial_n":19,"min":80,"max":175,"target":"present","response":"present","rt":1840.3000000119,"correct":true,"confidence":-1},{"trial_n":20,"min":88,"max":167,"target":"present","response":"absent","rt":616.80000001192,"correct":false,"confidence":-1},{"trial_n":21,"min":84,"max":171,"target":"absent","response":"absent","rt":1138.8000000119,"correct":true,"confidence":5},{"trial_n":22,"min":84,"max":171,"target":"absent","response":"absent","rt":919.40000000596,"correct":true,"confidence":5},{"trial_n":23,"min":88,"max":167,"target":"absent","response":"absent","rt":769.59999999404,"correct":true,"confidence":5},{"trial_n":24,"min":88,"max":167,"target":"absent","response":"absent","rt":1424.900000006,"correct":true,"confidence":5},{"trial_n":25,"min":92,"max":163,"target":"present","response":"absent","rt":1389.8999999762,"correct":false,"confidence":5},{"trial_n":26,"min":88,"max":167,"target":"absent","response":"absent","rt":1063.599999994,"correct":true,"confidence":5},{"trial_n":27,"min":88,"max":167,"target":"present","response":"absent","rt":794.10000002384,"correct":false,"confidence":5},{"trial_n":28,"min":84,"max":171,"target":"present","response":"absent","rt":1646.400000006,"correct":false,"confidence":5},{"trial_n":29,"min":80,"max":175,"target":"present","response":"absent","rt":1707.599999994,"correct":false,"confidence":5},{"trial_n":30,"min":76,"max":179,"target":"present","response":"present","rt":1711.400000006,"correct":true,"confidence":5},{"trial_n":31,"min":76,"max":179,"target":"absent","response":"absent","rt":1109,"correct":true,"confidence":5},{"trial_n":32,"min":78,"max":177,"target":"absent","response":"absent","rt":871.40000000596,"correct":true,"confidence":5},{"trial_n":33,"min":78,"max":177,"target":"absent","response":"absent","rt":1987.5,"correct":true,"confidence":5},{"trial_n":34,"min":80,"max":175,"target":"absent","response":"present","rt":1745.2999999821,"correct":false,"confidence":5},{"trial_n":35,"min":78,"max":177,"target":"absent","response":"absent","rt":818.30000001192,"correct":true,"confidence":5},{"trial_n":36,"min":78,"max":177,"target":"present","response":"present","rt":2244.6999999881,"correct":true,"confidence":5},{"trial_n":37,"min":80,"max":175,"target":"present","response":"present","rt":1281.1000000238,"correct":true,"confidence":5},{"trial_n":38,"min":80,"max":175,"target":"absent","response":"absent","rt":1064.6999999881,"correct":true,"confidence":5},{"trial_n":39,"min":82,"max":173,"target":"present","response":"absent","rt":1136.8000000119,"correct":false,"confidence":5},{"trial_n":40,"min":80,"max":175,"target":"present","response":"absent","rt":1021.5,"correct":false,"confidence":5},{"trial_n":41,"min":79,"max":176,"target":"present","response":"present","rt":1618.7000000179,"correct":true,"confidence":5},{"trial_n":42,"min":79,"max":176,"target":"absent","response":"absent","rt":1115.1999999881,"correct":true,"confidence":5},{"trial_n":43,"min":80,"max":175,"target":"present","response":"present","rt":1456.8000000119,"correct":true,"confidence":5},{"trial_n":44,"min":80,"max":175,"target":"absent","response":"absent","rt":1076.6999999881,"correct":true,"confidence":5},{"trial_n":45,"min":81,"max":174,"target":"absent","response":"present","rt":1166.900000006,"correct":false,"confidence":5},{"trial_n":46,"min":80,"max":175,"target":"present","response":"present","rt":1122.5,"correct":true,"confidence":5},{"trial_n":47,"min":80,"max":175,"target":"present","response":"absent","rt":2419.1999999881,"correct":false,"confidence":5},{"trial_n":48,"min":79,"max":176,"target":"absent","response":"absent","rt":1563.8000000119,"correct":true,"confidence":5},{"trial_n":49,"min":79,"max":176,"target":"absent","response":"absent","rt":2969.599999994,"correct":true,"confidence":5},{"trial_n":50,"min":80,"max":175,"target":"absent","response":"absent","rt":825.29999998212,"correct":true,"confidence":5},{"trial_n":51,"min":80,"max":175,"target":"absent","response":"present","rt":2132.1999999881,"correct":false,"confidence":5},{"trial_n":52,"min":79,"max":176,"target":"present","response":"absent","rt":966.20000001788,"correct":false,"confidence":5},{"trial_n":53,"min":78,"max":177,"target":"present","response":"present","rt":970.09999999404,"correct":true,"confidence":5},{"trial_n":54,"min":78,"max":177,"target":"absent","response":"absent","rt":715.90000000596,"correct":true,"confidence":5},{"trial_n":55,"min":79,"max":176,"target":"present","response":"present","rt":1164.099999994,"correct":true,"confidence":5},{"trial_n":56,"min":79,"max":176,"target":"present","response":"absent","rt":982.5,"correct":false,"confidence":5},{"trial_n":57,"min":78,"max":177,"target":"present","response":"present","rt":1282.400000006,"correct":true,"confidence":5},{"trial_n":58,"min":78,"max":177,"target":"present","response":"present","rt":913,"correct":true,"confidence":5},{"trial_n":59,"min":79,"max":176,"target":"present","response":"absent","rt":1221.2000000179,"correct":false,"confidence":5},{"trial_n":60,"min":78,"max":177,"target":"present","response":"present","rt":708.80000001192,"correct":true,"confidence":5},{"trial_n":61,"min":78,"max":177,"target":"absent","response":"absent","rt":737.5,"correct":true,"confidence":5},{"trial_n":62,"min":79,"max":176,"target":"present","response":"present","rt":878.20000001788,"correct":true,"confidence":5},{"trial_n":63,"min":79,"max":176,"target":"absent","response":"absent","rt":1306.6999999881,"correct":true,"confidence":5},{"trial_n":64,"min":80,"max":175,"target":"absent","response":"present","rt":964.59999999404,"correct":false,"confidence":5},{"trial_n":65,"min":79,"max":176,"target":"present","response":"present","rt":934.90000000596,"correct":true,"confidence":5},{"trial_n":66,"min":79,"max":176,"target":"present","response":"present","rt":1284.6999999881,"correct":true,"confidence":5},{"trial_n":67,"min":80,"max":175,"target":"present","response":"present","rt":1219.3000000119,"correct":true,"confidence":5},{"trial_n":68,"min":80,"max":175,"target":"absent","response":"absent","rt":925.59999999404,"correct":true,"confidence":5},{"trial_n":69,"min":81,"max":174,"target":"absent","response":"absent","rt":1254.1999999881,"correct":true,"confidence":5},{"trial_n":70,"min":81,"max":174,"target":"absent","response":"absent","rt":1212.7999999821,"correct":true,"confidence":5},{"trial_n":71,"min":41,"max":214,"target":"present","response":"absent","rt":3861,"correct":false,"confidence":-1},{"trial_n":72,"min":41,"max":214,"target":"present","response":"present","rt":3759.2999999821,"correct":true,"confidence":-1},{"trial_n":73,"min":41,"max":214,"target":"absent","response":"absent","rt":906.5,"correct":true,"confidence":-1},{"trial_n":74,"min":57,"max":198,"target":"absent","response":"present","rt":892.10000002384,"correct":false,"confidence":-1},{"trial_n":75,"min":41,"max":214,"target":"present","response":"present","rt":1118,"correct":true,"confidence":-1},{"trial_n":76,"min":41,"max":214,"target":"present","response":"present","rt":614,"correct":true,"confidence":-1},{"trial_n":77,"min":57,"max":198,"target":"absent","response":"absent","rt":748.70000001788,"correct":true,"confidence":-1},{"trial_n":78,"min":57,"max":198,"target":"present","response":"present","rt":673,"correct":true,"confidence":-1},{"trial_n":79,"min":73,"max":182,"target":"present","response":"present","rt":1535.5,"correct":true,"confidence":-1},{"trial_n":80,"min":73,"max":182,"target":"present","response":"present","rt":639.19999998808,"correct":true,"confidence":-1},{"trial_n":81,"min":81,"max":174,"target":"present","response":"present","rt":1350.5,"correct":true,"confidence":-1},{"trial_n":82,"min":81,"max":174,"target":"absent","response":"present","rt":1842.7999999821,"correct":false,"confidence":-1},{"trial_n":83,"min":73,"max":182,"target":"present","response":"present","rt":1167.400000006,"correct":true,"confidence":-1},{"trial_n":84,"min":73,"max":182,"target":"present","response":"present","rt":655.40000000596,"correct":true,"confidence":-1},{"trial_n":85,"min":81,"max":174,"target":"absent","response":"absent","rt":1190.7999999821,"correct":true,"confidence":-1},{"trial_n":86,"min":81,"max":174,"target":"absent","response":"absent","rt":1626.1999999881,"correct":true,"confidence":-1},{"trial_n":87,"min":89,"max":166,"target":"absent","response":"absent","rt":2259,"correct":true,"confidence":-1},{"trial_n":88,"min":89,"max":166,"target":"present","response":"absent","rt":2041.400000006,"correct":false,"confidence":-1},{"trial_n":89,"min":81,"max":174,"target":"present","response":"present","rt":1069.5,"correct":true,"confidence":-1},{"trial_n":90,"min":81,"max":174,"target":"absent","response":"absent","rt":1355,"correct":true,"confidence":-1},{"trial_n":91,"min":85,"max":170,"target":"present","response":"present","rt":836.80000001192,"correct":true,"confidence":5},{"trial_n":92,"min":85,"max":170,"target":"present","response":"present","rt":742.69999998808,"correct":true,"confidence":5},{"trial_n":93,"min":89,"max":166,"target":"absent","response":"present","rt":1148.900000006,"correct":false,"confidence":5},{"trial_n":94,"min":85,"max":170,"target":"present","response":"present","rt":1016.099999994,"correct":true,"confidence":5},{"trial_n":95,"min":85,"max":170,"target":"absent","response":"absent","rt":1211.6000000238,"correct":true,"confidence":5},{"trial_n":96,"min":89,"max":166,"target":"absent","response":"absent","rt":1195.7000000179,"correct":true,"confidence":5},{"trial_n":97,"min":89,"max":166,"target":"present","response":"present","rt":1990.7000000179,"correct":true,"confidence":5},{"trial_n":98,"min":93,"max":162,"target":"present","response":"present","rt":1832.900000006,"correct":true,"confidence":5},{"trial_n":99,"min":93,"max":162,"target":"absent","response":"present","rt":1126.7000000179,"correct":false,"confidence":5},{"trial_n":100,"min":89,"max":166,"target":"absent","response":"absent","rt":951.40000000596,"correct":true,"confidence":5},{"trial_n":101,"min":89,"max":166,"target":"absent","response":"present","rt":1750.6999999881,"correct":false,"confidence":5},{"trial_n":102,"min":87,"max":168,"target":"absent","response":"absent","rt":764.80000001192,"correct":true,"confidence":5},{"trial_n":103,"min":87,"max":168,"target":"absent","response":"absent","rt":1775.5,"correct":true,"confidence":5},{"trial_n":104,"min":89,"max":166,"target":"present","response":"present","rt":912.80000001192,"correct":true,"confidence":5},{"trial_n":105,"min":89,"max":166,"target":"absent","response":"present","rt":1151.8999999762,"correct":false,"confidence":5},{"trial_n":106,"min":87,"max":168,"target":"present","response":"present","rt":1372.8999999762,"correct":true,"confidence":5},{"trial_n":107,"min":87,"max":168,"target":"absent","response":"absent","rt":1267.599999994,"correct":true,"confidence":5},{"trial_n":108,"min":89,"max":166,"target":"present","response":"absent","rt":1363.7999999821,"correct":false,"confidence":5},{"trial_n":109,"min":87,"max":168,"target":"absent","response":"present","rt":1172.5,"correct":false,"confidence":5},{"trial_n":110,"min":85,"max":170,"target":"present","response":"absent","rt":1660.900000006,"correct":false,"confidence":5},{"trial_n":111,"min":84,"max":171,"target":"absent","response":"present","rt":1079.6999999881,"correct":false,"confidence":5},{"trial_n":112,"min":83,"max":172,"target":"present","response":"present","rt":950.90000000596,"correct":true,"confidence":5},{"trial_n":113,"min":83,"max":172,"target":"present","response":"present","rt":1449.099999994,"correct":true,"confidence":5},{"trial_n":114,"min":84,"max":171,"target":"present","response":"present","rt":779.89999997616,"correct":true,"confidence":5},{"trial_n":115,"min":84,"max":171,"target":"present","response":"present","rt":913.79999998212,"correct":true,"confidence":5},{"trial_n":116,"min":85,"max":170,"target":"present","response":"present","rt":22677.100000024,"correct":true,"confidence":5},{"trial_n":117,"min":85,"max":170,"target":"present","response":"present","rt":735.40000000596,"correct":true,"confidence":5},{"trial_n":118,"min":86,"max":169,"target":"present","response":"present","rt":880.59999999404,"correct":true,"confidence":5},{"trial_n":119,"min":86,"max":169,"target":"absent","response":"present","rt":1011.1999999881,"correct":false,"confidence":5},{"trial_n":120,"min":85,"max":170,"target":"absent","response":"present","rt":889.30000001192,"correct":false,"confidence":5},{"trial_n":121,"min":84,"max":171,"target":"absent","response":"present","rt":870.90000000596,"correct":false,"confidence":5},{"trial_n":122,"min":83,"max":172,"target":"absent","response":"absent","rt":1179.6999999881,"correct":true,"confidence":5},{"trial_n":123,"min":83,"max":172,"target":"present","response":"present","rt":618.19999998808,"correct":true,"confidence":5},{"trial_n":124,"min":84,"max":171,"target":"absent","response":"absent","rt":1371.1999999881,"correct":true,"confidence":5},{"trial_n":125,"min":84,"max":171,"target":"absent","response":"absent","rt":1754.2000000179,"correct":true,"confidence":5},{"trial_n":126,"min":85,"max":170,"target":"present","response":"present","rt":1253.5,"correct":true,"confidence":5},{"trial_n":127,"min":85,"max":170,"target":"present","response":"present","rt":1120,"correct":true,"confidence":5},{"trial_n":128,"min":86,"max":169,"target":"absent","response":"absent","rt":1456.3000000119,"correct":true,"confidence":5},{"trial_n":129,"min":86,"max":169,"target":"absent","response":"absent","rt":2345,"correct":true,"confidence":5},{"trial_n":130,"min":87,"max":168,"target":"present","response":"present","rt":705.40000000596,"correct":true,"confidence":5},{"trial_n":131,"min":87,"max":168,"target":"absent","response":"absent","rt":932,"correct":true,"confidence":5},{"trial_n":132,"min":88,"max":167,"target":"present","response":"present","rt":606.59999999404,"correct":true,"confidence":5},{"trial_n":133,"min":88,"max":167,"target":"present","response":"present","rt":534.69999998808,"correct":true,"confidence":5},{"trial_n":134,"min":89,"max":166,"target":"absent","response":"present","rt":998.40000000596,"correct":false,"confidence":5},{"trial_n":135,"min":88,"max":167,"target":"absent","response":"absent","rt":1260.400000006,"correct":true,"confidence":5},{"trial_n":136,"min":88,"max":167,"target":"present","response":"absent","rt":1635.400000006,"correct":false,"confidence":5},{"trial_n":137,"min":87,"max":168,"target":"absent","response":"present","rt":886,"correct":false,"confidence":5},{"trial_n":138,"min":86,"max":169,"target":"absent","response":"present","rt":670.59999999404,"correct":false,"confidence":5},{"trial_n":139,"min":85,"max":170,"target":"present","response":"present","rt":628.90000000596,"correct":true,"confidence":5},{"trial_n":140,"min":85,"max":170,"target":"absent","response":"absent","rt":1466.599999994,"correct":true,"confidence":5}]