[{"trial_n":1,"min":25,"max":230,"target":"present","response":"absent","rt":4395.0999999046,"correct":false,"confidence":-1},{"trial_n":2,"min":25,"max":230,"target":"present","response":"present","rt":893.69999980927,"correct":true,"confidence":-1},{"trial_n":3,"min":25,"max":230,"target":"absent","response":"absent","rt":544.09999990463,"correct":true,"confidence":-1},{"trial_n":4,"min":41,"max":214,"target":"absent","response":"absent","rt":663.5,"correct":true,"confidence":-1},{"trial_n":5,"min":41,"max":214,"target":"present","response":"present","rt":558.80000019073,"correct":true,"confidence":-1},{"trial_n":6,"min":57,"max":198,"target":"present","response":"present","rt":855.90000009537,"correct":true,"confidence":-1},{"trial_n":7,"min":57,"max":198,"target":"present","response":"present","rt":737.59999990463,"correct":true,"confidence":-1},{"trial_n":8,"min":73,"max":182,"target":"present","response":"present","rt":2386.5,"correct":true,"confidence":-1},{"trial_n":9,"min":73,"max":182,"target":"absent","response":"absent","rt":453.80000019073,"correct":true,"confidence":-1},{"trial_n":10,"min":89,"max":166,"target":"present","response":"present","rt":613.60000038147,"correct":true,"confidence":-1},{"trial_n":11,"min":89,"max":166,"target":"present","response":"present","rt":484.90000009537,"correct":true,"confidence":-1},{"trial_n":12,"min":97,"max":158,"target":"absent","response":"absent","rt":685.2999997139,"correct":true,"confidence":-1},{"trial_n":13,"min":97,"max":158,"target":"absent","response":"absent","rt":429.30000019073,"correct":true,"confidence":-1},{"trial_n":14,"min":105,"max":150,"target":"present","response":"absent","rt":428.09999990463,"correct":false,"confidence":-1},{"trial_n":15,"min":97,"max":158,"target":"present","response":"present","rt":621.5,"correct":true,"confidence":-1},{"trial_n":16,"min":97,"max":158,"target":"present","response":"absent","rt":955.30000019073,"correct":false,"confidence":-1},{"trial_n":17,"min":89,"max":166,"target":"present","response":"absent","rt":547.5,"correct":false,"confidence":-1},{"trial_n":18,"min":81,"max":174,"target":"absent","response":"absent","rt":472.90000009537,"correct":true,"confidence":-1},{"trial_n":19,"min":81,"max":174,"target":"present","response":"present","rt":804,"correct":true,"confidence":-1},{"trial_n":20,"min":89,"max":166,"target":"absent","response":"present","rt":1513,"correct":false,"confidence":-1},{"trial_n":21,"min":85,"max":170,"target":"present","response":"present","rt":545.80000019073,"correct":true,"confidence":3},{"trial_n":22,"min":85,"max":170,"target":"absent","response":"present","rt":2578.4000000954,"correct":false,"confidence":1},{"trial_n":23,"min":81,"max":174,"target":"absent","response":"present","rt":1069.2999997139,"correct":false,"confidence":3},{"trial_n":24,"min":77,"max":178,"target":"present","response":"present","rt":1773.4000000954,"correct":true,"confidence":5},{"trial_n":25,"min":77,"max":178,"target":"absent","response":"present","rt":1334.0999999046,"correct":false,"confidence":3},{"trial_n":26,"min":73,"max":182,"target":"present","response":"present","rt":554.40000009537,"correct":true,"confidence":5},{"trial_n":27,"min":73,"max":182,"target":"absent","response":"present","rt":1261.2000002861,"correct":false,"confidence":3},{"trial_n":28,"min":69,"max":186,"target":"absent","response":"present","rt":675,"correct":false,"confidence":3},{"trial_n":29,"min":65,"max":190,"target":"present","response":"present","rt":951,"correct":true,"confidence":5},{"trial_n":30,"min":65,"max":190,"target":"absent","response":"present","rt":798.60000038147,"correct":false,"confidence":3},{"trial_n":31,"min":63,"max":192,"target":"absent","response":"absent","rt":891.2999997139,"correct":true,"confidence":3},{"trial_n":32,"min":63,"max":192,"target":"present","response":"present","rt":469.89999961853,"correct":true,"confidence":5},{"trial_n":33,"min":65,"max":190,"target":"absent","response":"present","rt":477.2999997139,"correct":false,"confidence":3},{"trial_n":34,"min":63,"max":192,"target":"present","response":"present","rt":702.90000009537,"correct":true,"confidence":5},{"trial_n":35,"min":63,"max":192,"target":"present","response":"present","rt":732,"correct":true,"confidence":5},{"trial_n":36,"min":65,"max":190,"target":"present","response":"present","rt":559.2999997139,"correct":true,"confidence":5},{"trial_n":37,"min":65,"max":190,"target":"absent","response":"present","rt":862.7000002861,"correct":false,"confidence":4},{"trial_n":38,"min":63,"max":192,"target":"present","response":"present","rt":603.89999961853,"correct":true,"confidence":5},{"trial_n":39,"min":63,"max":192,"target":"present","response":"present","rt":592.7999997139,"correct":true,"confidence":5},{"trial_n":40,"min":65,"max":190,"target":"present","response":"present","rt":620.69999980927,"correct":true,"confidence":5},{"trial_n":41,"min":65,"max":190,"target":"absent","response":"absent","rt":840.80000019073,"correct":true,"confidence":4},{"trial_n":42,"min":66,"max":189,"target":"absent","response":"present","rt":622.90000009537,"correct":false,"confidence":3},{"trial_n":43,"min":65,"max":190,"target":"absent","response":"absent","rt":841.09999990463,"correct":true,"confidence":1},{"trial_n":44,"min":65,"max":190,"target":"absent","response":"present","rt":2313.1999998093,"correct":false,"confidence":2},{"trial_n":45,"min":64,"max":191,"target":"present","response":"present","rt":1242.7000002861,"correct":true,"confidence":5},{"trial_n":46,"min":64,"max":191,"target":"present","response":"present","rt":930.59999990463,"correct":true,"confidence":5},{"trial_n":47,"min":65,"max":190,"target":"absent","response":"absent","rt":503.2999997139,"correct":true,"confidence":5},{"trial_n":48,"min":65,"max":190,"target":"present","response":"present","rt":560.30000019073,"correct":true,"confidence":5},{"trial_n":49,"min":66,"max":189,"target":"absent","response":"absent","rt":590,"correct":true,"confidence":5},{"trial_n":50,"min":66,"max":189,"target":"present","response":"present","rt":4395.9000000954,"correct":true,"confidence":5},{"trial_n":51,"min":67,"max":188,"target":"absent","response":"absent","rt":1010.5,"correct":true,"confidence":4},{"trial_n":52,"min":67,"max":188,"target":"absent","response":"absent","rt":634.5,"correct":true,"confidence":3},{"trial_n":53,"min":68,"max":187,"target":"present","response":"present","rt":371.2000002861,"correct":true,"confidence":5},{"trial_n":54,"min":68,"max":187,"target":"absent","response":"absent","rt":952.09999990463,"correct":true,"confidence":4},{"trial_n":55,"min":69,"max":186,"target":"absent","response":"absent","rt":427.89999961853,"correct":true,"confidence":5},{"trial_n":56,"min":69,"max":186,"target":"absent","response":"absent","rt":531.40000009537,"correct":true,"confidence":4},{"trial_n":57,"min":70,"max":185,"target":"present","response":"present","rt":545.30000019073,"correct":true,"confidence":5},{"trial_n":58,"min":70,"max":185,"target":"present","response":"present","rt":626.5,"correct":true,"confidence":5},{"trial_n":59,"min":71,"max":184,"target":"absent","response":"absent","rt":530.2000002861,"correct":true,"confidence":4},{"trial_n":60,"min":71,"max":184,"target":"present","response":"present","rt":543.40000009537,"correct":true,"confidence":5},{"trial_n":61,"min":72,"max":183,"target":"present","response":"present","rt":694.69999980927,"correct":true,"confidence":5},{"trial_n":62,"min":72,"max":183,"target":"absent","response":"absent","rt":540.40000009537,"correct":true,"confidence":4},{"trial_n":63,"min":73,"max":182,"target":"absent","response":"absent","rt":460.30000019073,"correct":true,"confidence":5},{"trial_n":64,"min":73,"max":182,"target":"absent","response":"absent","rt":982.5,"correct":true,"confidence":1},{"trial_n":65,"min":74,"max":181,"target":"present","response":"present","rt":513.5,"correct":true,"confidence":4},{"trial_n":66,"min":74,"max":181,"target":"present","response":"present","rt":558.59999990463,"correct":true,"confidence":5},{"trial_n":67,"min":75,"max":180,"target":"present","response":"present","rt":1007.8000001907,"correct":true,"confidence":5},{"trial_n":68,"min":75,"max":180,"target":"absent","response":"present","rt":965.2999997139,"correct":false,"confidence":2},{"trial_n":69,"min":74,"max":181,"target":"absent","response":"absent","rt":727.80000019073,"correct":true,"confidence":3},{"trial_n":70,"min":74,"max":181,"target":"absent","response":"present","rt":954.59999990463,"correct":false,"confidence":1},{"trial_n":71,"min":41,"max":214,"target":"present","response":"present","rt":616.40000009537,"correct":true,"confidence":-1},{"trial_n":72,"min":41,"max":214,"target":"present","response":"present","rt":570.5,"correct":true,"confidence":-1},{"trial_n":73,"min":57,"max":198,"target":"absent","response":"absent","rt":526.59999990463,"correct":true,"confidence":-1},{"trial_n":74,"min":57,"max":198,"target":"absent","response":"absent","rt":561.19999980927,"correct":true,"confidence":-1},{"trial_n":75,"min":73,"max":182,"target":"present","response":"present","rt":669.09999990463,"correct":true,"confidence":-1},{"trial_n":76,"min":73,"max":182,"target":"absent","response":"absent","rt":398.90000009537,"correct":true,"confidence":-1},{"trial_n":77,"min":89,"max":166,"target":"present","response":"present","rt":685.90000009537,"correct":true,"confidence":-1},{"trial_n":78,"min":89,"max":166,"target":"absent","response":"absent","rt":1246.3999996185,"correct":true,"confidence":-1},{"trial_n":79,"min":105,"max":150,"target":"absent","response":"absent","rt":1507.1999998093,"correct":true,"confidence":-1},{"trial_n":80,"min":105,"max":150,"target":"absent","response":"absent","rt":1636.7000002861,"correct":true,"confidence":-1},{"trial_n":81,"min":113,"max":142,"target":"present","response":"present","rt":1760.2999997139,"correct":true,"confidence":-1},{"trial_n":82,"min":113,"max":142,"target":"absent","response":"present","rt":679.2999997139,"correct":false,"confidence":-1},{"trial_n":83,"min":105,"max":150,"target":"present","response":"present","rt":756.09999990463,"correct":true,"confidence":-1},{"trial_n":84,"min":105,"max":150,"target":"present","response":"absent","rt":767.7000002861,"correct":false,"confidence":-1},{"trial_n":85,"min":97,"max":158,"target":"present","response":"absent","rt":1241.9000000954,"correct":false,"confidence":-1},{"trial_n":86,"min":89,"max":166,"target":"present","response":"absent","rt":837.39999961853,"correct":false,"confidence":-1},{"trial_n":87,"min":81,"max":174,"target":"absent","response":"absent","rt":610.69999980927,"correct":true,"confidence":-1},{"trial_n":88,"min":81,"max":174,"target":"present","response":"present","rt":452.09999990463,"correct":true,"confidence":-1},{"trial_n":89,"min":89,"max":166,"target":"absent","response":"absent","rt":633.39999961853,"correct":true,"confidence":-1},{"trial_n":90,"min":89,"max":166,"target":"present","response":"absent","rt":607.80000019073,"correct":false,"confidence":-1},{"trial_n":91,"min":85,"max":170,"target":"present","response":"present","rt":405,"correct":true,"confidence":4},{"trial_n":92,"min":85,"max":170,"target":"present","response":"present","rt":785.90000009537,"correct":true,"confidence":5},{"trial_n":93,"min":89,"max":166,"target":"present","response":"present","rt":802.40000009537,"correct":true,"confidence":4},{"trial_n":94,"min":89,"max":166,"target":"present","response":"present","rt":1143.3000001907,"correct":true,"confidence":3},{"trial_n":95,"min":93,"max":162,"target":"absent","response":"present","rt":789.80000019073,"correct":false,"confidence":3},{"trial_n":96,"min":89,"max":166,"target":"present","response":"present","rt":484.90000009537,"correct":true,"confidence":5},{"trial_n":97,"min":89,"max":166,"target":"present","response":"present","rt":708.40000009537,"correct":true,"confidence":5},{"trial_n":98,"min":93,"max":162,"target":"present","response":"present","rt":2230.2999997139,"correct":true,"confidence":2},{"trial_n":99,"min":93,"max":162,"target":"present","response":"present","rt":800.09999990463,"correct":true,"confidence":3},{"trial_n":100,"min":97,"max":158,"target":"absent","response":"present","rt":640.7000002861,"correct":false,"confidence":2},{"trial_n":101,"min":95,"max":160,"target":"present","response":"present","rt":621,"correct":true,"confidence":2},{"trial_n":102,"min":95,"max":160,"target":"absent","response":"present","rt":800.7000002861,"correct":false,"confidence":1},{"trial_n":103,"min":93,"max":162,"target":"absent","response":"present","rt":652.5,"correct":false,"confidence":1},{"trial_n":104,"min":91,"max":164,"target":"present","response":"present","rt":584.80000019073,"correct":true,"confidence":4},{"trial_n":105,"min":91,"max":164,"target":"absent","response":"absent","rt":671.7000002861,"correct":true,"confidence":1},{"trial_n":106,"min":93,"max":162,"target":"present","response":"absent","rt":1038.1999998093,"correct":false,"confidence":1},{"trial_n":107,"min":91,"max":164,"target":"present","response":"present","rt":994.59999990463,"correct":true,"confidence":2},{"trial_n":108,"min":91,"max":164,"target":"present","response":"present","rt":705.10000038147,"correct":true,"confidence":3},{"trial_n":109,"min":93,"max":162,"target":"absent","response":"present","rt":1253.5,"correct":false,"confidence":2},{"trial_n":110,"min":91,"max":164,"target":"present","response":"present","rt":2302.8000001907,"correct":true,"confidence":2},{"trial_n":111,"min":91,"max":164,"target":"absent","response":"absent","rt":864.7000002861,"correct":true,"confidence":3},{"trial_n":112,"min":92,"max":163,"target":"absent","response":"present","rt":900.2000002861,"correct":false,"confidence":3},{"trial_n":113,"min":91,"max":164,"target":"absent","response":"present","rt":500.40000009537,"correct":false,"confidence":1},{"trial_n":114,"min":90,"max":165,"target":"absent","response":"present","rt":1070.0999999046,"correct":false,"confidence":1},{"trial_n":115,"min":89,"max":166,"target":"present","response":"absent","rt":681.59999990463,"correct":false,"confidence":2},{"trial_n":116,"min":88,"max":167,"target":"absent","response":"present","rt":557.5,"correct":false,"confidence":1},{"trial_n":117,"min":87,"max":168,"target":"present","response":"absent","rt":1053.6999998093,"correct":false,"confidence":1},{"trial_n":118,"min":86,"max":169,"target":"present","response":"present","rt":531.7000002861,"correct":true,"confidence":4},{"trial_n":119,"min":86,"max":169,"target":"absent","response":"absent","rt":1274.7999997139,"correct":true,"confidence":3},{"trial_n":120,"min":87,"max":168,"target":"present","response":"absent","rt":1153.7999997139,"correct":false,"confidence":1},{"trial_n":121,"min":86,"max":169,"target":"present","response":"present","rt":862.60000038147,"correct":true,"confidence":2},{"trial_n":122,"min":86,"max":169,"target":"present","response":"present","rt":721,"correct":true,"confidence":4},{"trial_n":123,"min":87,"max":168,"target":"absent","response":"present","rt":3065.0999999046,"correct":false,"confidence":2},{"trial_n":124,"min":86,"max":169,"target":"absent","response":"absent","rt":681.30000019073,"correct":true,"confidence":3},{"trial_n":125,"min":86,"max":169,"target":"absent","response":"absent","rt":1536.2999997139,"correct":true,"confidence":3},{"trial_n":126,"min":87,"max":168,"target":"absent","response":"absent","rt":986.69999980927,"correct":true,"confidence":4},{"trial_n":127,"min":87,"max":168,"target":"absent","response":"present","rt":2014.8000001907,"correct":false,"confidence":2},{"trial_n":128,"min":86,"max":169,"target":"absent","response":"absent","rt":700.80000019073,"correct":true,"confidence":3},{"trial_n":129,"min":86,"max":169,"target":"present","response":"absent","rt":652.10000038147,"correct":false,"confidence":1},{"trial_n":130,"min":85,"max":170,"target":"absent","response":"present","rt":1540.5999999046,"correct":false,"confidence":1},{"trial_n":131,"min":84,"max":171,"target":"present","response":"absent","rt":648.7000002861,"correct":false,"confidence":1},{"trial_n":132,"min":83,"max":172,"target":"absent","response":"absent","rt":836.90000009537,"correct":true,"confidence":3},{"trial_n":133,"min":83,"max":172,"target":"absent","response":"absent","rt":946.69999980927,"correct":true,"confidence":1},{"trial_n":134,"min":84,"max":171,"target":"present","response":"present","rt":1061.2000002861,"correct":true,"confidence":1},{"trial_n":135,"min":84,"max":171,"target":"absent","response":"absent","rt":781.19999980927,"correct":true,"confidence":1},{"trial_n":136,"min":85,"max":170,"target":"present","response":"present","rt":634.90000009537,"correct":true,"confidence":5},{"trial_n":137,"min":85,"max":170,"target":"absent","response":"absent","rt":867.5,"correct":true,"confidence":4},{"trial_n":138,"min":86,"max":169,"target":"absent","response":"absent","rt":116923.5999999,"correct":true,"confidence":1},{"trial_n":139,"min":86,"max":169,"target":"present","response":"present","rt":550.39999961853,"correct":true,"confidence":5},{"trial_n":140,"min":87,"max":168,"target":"absent","response":"present","rt":1165.8000001907,"correct":false,"confidence":3}]