[{"trial_n":1,"min":25,"max":230,"target":"present","response":"absent","rt":4934.7999999523,"correct":false,"confidence":-1},{"trial_n":2,"min":25,"max":230,"target":"present","response":"present","rt":963.29999995232,"correct":true,"confidence":-1},{"trial_n":3,"min":25,"max":230,"target":"absent","response":"absent","rt":523,"correct":true,"confidence":-1},{"trial_n":4,"min":41,"max":214,"target":"absent","response":"present","rt":528.60000002384,"correct":false,"confidence":-1},{"trial_n":5,"min":25,"max":230,"target":"present","response":"present","rt":264.20000004768,"correct":true,"confidence":-1},{"trial_n":6,"min":25,"max":230,"target":"absent","response":"absent","rt":298.90000009537,"correct":true,"confidence":-1},{"trial_n":7,"min":41,"max":214,"target":"absent","response":"absent","rt":505.40000009537,"correct":true,"confidence":-1},{"trial_n":8,"min":41,"max":214,"target":"absent","response":"absent","rt":403.60000002384,"correct":true,"confidence":-1},{"trial_n":9,"min":57,"max":198,"target":"present","response":"present","rt":204,"correct":true,"confidence":-1},{"trial_n":10,"min":57,"max":198,"target":"present","response":"present","rt":281.89999997616,"correct":true,"confidence":-1},{"trial_n":11,"min":65,"max":190,"target":"present","response":"present","rt":314.89999997616,"correct":true,"confidence":-1},{"trial_n":12,"min":65,"max":190,"target":"present","response":"present","rt":333.79999995232,"correct":true,"confidence":-1},{"trial_n":13,"min":73,"max":182,"target":"present","response":"present","rt":625.70000004768,"correct":true,"confidence":-1},{"trial_n":14,"min":73,"max":182,"target":"absent","response":"absent","rt":354.10000002384,"correct":true,"confidence":-1},{"trial_n":15,"min":81,"max":174,"target":"present","response":"present","rt":342.79999995232,"correct":true,"confidence":-1},{"trial_n":16,"min":81,"max":174,"target":"absent","response":"absent","rt":357.69999992847,"correct":true,"confidence":-1},{"trial_n":17,"min":89,"max":166,"target":"present","response":"absent","rt":267,"correct":false,"confidence":-1},{"trial_n":18,"min":81,"max":174,"target":"absent","response":"absent","rt":613.5,"correct":true,"confidence":-1},{"trial_n":19,"min":81,"max":174,"target":"absent","response":"absent","rt":329.70000004768,"correct":true,"confidence":-1},{"trial_n":20,"min":89,"max":166,"target":"present","response":"absent","rt":351.40000009537,"correct":false,"confidence":-1},{"trial_n":21,"min":85,"max":170,"target":"absent","response":"absent","rt":1416.8999999762,"correct":true,"confidence":4},{"trial_n":22,"min":85,"max":170,"target":"absent","response":"absent","rt":1151.4000000954,"correct":true,"confidence":4},{"trial_n":23,"min":89,"max":166,"target":"absent","response":"absent","rt":1391.1000000238,"correct":true,"confidence":2},{"trial_n":24,"min":89,"max":166,"target":"absent","response":"absent","rt":592.60000002384,"correct":true,"confidence":3},{"trial_n":25,"min":93,"max":162,"target":"absent","response":"absent","rt":2854,"correct":true,"confidence":1},{"trial_n":26,"min":93,"max":162,"target":"present","response":"absent","rt":682.29999995232,"correct":false,"confidence":2},{"trial_n":27,"min":89,"max":166,"target":"absent","response":"absent","rt":563.39999997616,"correct":true,"confidence":2},{"trial_n":28,"min":89,"max":166,"target":"absent","response":"absent","rt":548.89999997616,"correct":true,"confidence":2},{"trial_n":29,"min":93,"max":162,"target":"present","response":"absent","rt":395.19999992847,"correct":false,"confidence":2},{"trial_n":30,"min":89,"max":166,"target":"absent","response":"absent","rt":409.10000002384,"correct":true,"confidence":4},{"trial_n":31,"min":89,"max":166,"target":"absent","response":"absent","rt":458,"correct":true,"confidence":2},{"trial_n":32,"min":91,"max":164,"target":"present","response":"absent","rt":471.30000007153,"correct":false,"confidence":4},{"trial_n":33,"min":89,"max":166,"target":"present","response":"absent","rt":371.30000007153,"correct":false,"confidence":2},{"trial_n":34,"min":87,"max":168,"target":"absent","response":"absent","rt":371.80000007153,"correct":true,"confidence":2},{"trial_n":35,"min":87,"max":168,"target":"present","response":"absent","rt":307.79999995232,"correct":false,"confidence":2},{"trial_n":36,"min":85,"max":170,"target":"present","response":"absent","rt":647.69999992847,"correct":false,"confidence":2},{"trial_n":37,"min":83,"max":172,"target":"present","response":"absent","rt":676.89999997616,"correct":false,"confidence":3},{"trial_n":38,"min":81,"max":174,"target":"present","response":"absent","rt":267.70000004768,"correct":false,"confidence":4},{"trial_n":39,"min":79,"max":176,"target":"absent","response":"absent","rt":352.39999997616,"correct":true,"confidence":3},{"trial_n":40,"min":79,"max":176,"target":"absent","response":"absent","rt":487.5,"correct":true,"confidence":2},{"trial_n":41,"min":80,"max":175,"target":"present","response":"present","rt":1764.6999999285,"correct":true,"confidence":5},{"trial_n":42,"min":80,"max":175,"target":"absent","response":"absent","rt":480.10000002384,"correct":true,"confidence":3},{"trial_n":43,"min":81,"max":174,"target":"absent","response":"absent","rt":604.29999995232,"correct":true,"confidence":3},{"trial_n":44,"min":81,"max":174,"target":"present","response":"present","rt":628.40000009537,"correct":true,"confidence":4},{"trial_n":45,"min":82,"max":173,"target":"present","response":"present","rt":872.20000004768,"correct":true,"confidence":4},{"trial_n":46,"min":82,"max":173,"target":"present","response":"present","rt":958.80000007153,"correct":true,"confidence":4},{"trial_n":47,"min":83,"max":172,"target":"present","response":"present","rt":1072.3999999762,"correct":true,"confidence":5},{"trial_n":48,"min":83,"max":172,"target":"present","response":"present","rt":672.80000007153,"correct":true,"confidence":5},{"trial_n":49,"min":84,"max":171,"target":"present","response":"present","rt":954.60000002384,"correct":true,"confidence":5},{"trial_n":50,"min":84,"max":171,"target":"present","response":"present","rt":549.5,"correct":true,"confidence":5},{"trial_n":51,"min":85,"max":170,"target":"absent","response":"absent","rt":888,"correct":true,"confidence":1},{"trial_n":52,"min":85,"max":170,"target":"present","response":"present","rt":801.20000004768,"correct":true,"confidence":5},{"trial_n":53,"min":86,"max":169,"target":"present","response":"present","rt":452.60000002384,"correct":true,"confidence":5},{"trial_n":54,"min":86,"max":169,"target":"absent","response":"absent","rt":1178.1999999285,"correct":true,"confidence":5},{"trial_n":55,"min":87,"max":168,"target":"absent","response":"present","rt":1253.7000000477,"correct":false,"confidence":5},{"trial_n":56,"min":86,"max":169,"target":"absent","response":"absent","rt":1408.1000000238,"correct":true,"confidence":5},{"trial_n":57,"min":86,"max":169,"target":"present","response":"absent","rt":3506.2999999523,"correct":false,"confidence":1},{"trial_n":58,"min":85,"max":170,"target":"absent","response":"absent","rt":557.20000004768,"correct":true,"confidence":5},{"trial_n":59,"min":85,"max":170,"target":"present","response":"absent","rt":1696.0999999046,"correct":false,"confidence":5},{"trial_n":60,"min":84,"max":171,"target":"absent","response":"absent","rt":622.60000002384,"correct":true,"confidence":5},{"trial_n":61,"min":84,"max":171,"target":"present","response":"present","rt":1683.5,"correct":true,"confidence":5},{"trial_n":62,"min":85,"max":170,"target":"absent","response":"absent","rt":383.39999997616,"correct":true,"confidence":5},{"trial_n":63,"min":85,"max":170,"target":"absent","response":"absent","rt":682.79999995232,"correct":true,"confidence":5},{"trial_n":64,"min":86,"max":169,"target":"present","response":"present","rt":578.30000007153,"correct":true,"confidence":5},{"trial_n":65,"min":86,"max":169,"target":"absent","response":"absent","rt":405.10000002384,"correct":true,"confidence":5},{"trial_n":66,"min":87,"max":168,"target":"present","response":"present","rt":466.80000007153,"correct":true,"confidence":5},{"trial_n":67,"min":87,"max":168,"target":"absent","response":"absent","rt":368.90000009537,"correct":true,"confidence":5},{"trial_n":68,"min":88,"max":167,"target":"present","response":"present","rt":499.20000004768,"correct":true,"confidence":5},{"trial_n":69,"min":88,"max":167,"target":"absent","response":"absent","rt":2103.7000000477,"correct":true,"confidence":1},{"trial_n":70,"min":89,"max":166,"target":"present","response":"present","rt":1378.5999999046,"correct":true,"confidence":5},{"trial_n":71,"min":41,"max":214,"target":"present","response":"present","rt":2469.4000000954,"correct":true,"confidence":-1},{"trial_n":72,"min":41,"max":214,"target":"present","response":"absent","rt":673.5,"correct":false,"confidence":-1},{"trial_n":73,"min":25,"max":230,"target":"absent","response":"absent","rt":404.39999997616,"correct":true,"confidence":-1},{"trial_n":74,"min":25,"max":230,"target":"absent","response":"absent","rt":424.29999995232,"correct":true,"confidence":-1},{"trial_n":75,"min":41,"max":214,"target":"present","response":"present","rt":212.29999995232,"correct":true,"confidence":-1},{"trial_n":76,"min":41,"max":214,"target":"present","response":"present","rt":207.59999990463,"correct":true,"confidence":-1},{"trial_n":77,"min":57,"max":198,"target":"present","response":"present","rt":248.5,"correct":true,"confidence":-1},{"trial_n":78,"min":57,"max":198,"target":"absent","response":"absent","rt":849.60000002384,"correct":true,"confidence":-1},{"trial_n":79,"min":73,"max":182,"target":"absent","response":"present","rt":293.5,"correct":false,"confidence":-1},{"trial_n":80,"min":57,"max":198,"target":"present","response":"present","rt":357.30000007153,"correct":true,"confidence":-1},{"trial_n":81,"min":57,"max":198,"target":"absent","response":"absent","rt":217.10000002384,"correct":true,"confidence":-1},{"trial_n":82,"min":65,"max":190,"target":"absent","response":"present","rt":399.39999997616,"correct":false,"confidence":-1},{"trial_n":83,"min":57,"max":198,"target":"absent","response":"absent","rt":314.5,"correct":true,"confidence":-1},{"trial_n":84,"min":57,"max":198,"target":"present","response":"present","rt":218,"correct":true,"confidence":-1},{"trial_n":85,"min":65,"max":190,"target":"present","response":"present","rt":159.19999992847,"correct":true,"confidence":-1},{"trial_n":86,"min":65,"max":190,"target":"absent","response":"absent","rt":219.5,"correct":true,"confidence":-1},{"trial_n":87,"min":73,"max":182,"target":"absent","response":"absent","rt":276.60000002384,"correct":true,"confidence":-1},{"trial_n":88,"min":73,"max":182,"target":"absent","response":"present","rt":884.30000007153,"correct":false,"confidence":-1},{"trial_n":89,"min":65,"max":190,"target":"present","response":"present","rt":303.5,"correct":true,"confidence":-1},{"trial_n":90,"min":65,"max":190,"target":"absent","response":"absent","rt":171.60000002384,"correct":true,"confidence":-1},{"trial_n":91,"min":69,"max":186,"target":"absent","response":"absent","rt":523.59999990463,"correct":true,"confidence":5},{"trial_n":92,"min":69,"max":186,"target":"present","response":"present","rt":1026.1999999285,"correct":true,"confidence":5},{"trial_n":93,"min":73,"max":182,"target":"present","response":"absent","rt":433.5,"correct":false,"confidence":5},{"trial_n":94,"min":69,"max":186,"target":"absent","response":"present","rt":597.60000002384,"correct":false,"confidence":5},{"trial_n":95,"min":65,"max":190,"target":"present","response":"absent","rt":411.69999992847,"correct":false,"confidence":4},{"trial_n":96,"min":61,"max":194,"target":"present","response":"absent","rt":618.79999995232,"correct":false,"confidence":4},{"trial_n":97,"min":57,"max":198,"target":"present","response":"present","rt":370.09999990463,"correct":true,"confidence":4},{"trial_n":98,"min":57,"max":198,"target":"present","response":"present","rt":866.29999995232,"correct":true,"confidence":4},{"trial_n":99,"min":61,"max":194,"target":"absent","response":"absent","rt":358.5,"correct":true,"confidence":4},{"trial_n":100,"min":61,"max":194,"target":"absent","response":"absent","rt":675.29999995232,"correct":true,"confidence":4},{"trial_n":101,"min":63,"max":192,"target":"present","response":"absent","rt":688.10000002384,"correct":false,"confidence":4},{"trial_n":102,"min":61,"max":194,"target":"present","response":"absent","rt":506.60000002384,"correct":false,"confidence":4},{"trial_n":103,"min":59,"max":196,"target":"present","response":"present","rt":393.29999995232,"correct":true,"confidence":4},{"trial_n":104,"min":59,"max":196,"target":"present","response":"present","rt":318.69999992847,"correct":true,"confidence":4},{"trial_n":105,"min":61,"max":194,"target":"absent","response":"absent","rt":546.5,"correct":true,"confidence":5},{"trial_n":106,"min":61,"max":194,"target":"present","response":"present","rt":374.39999997616,"correct":true,"confidence":4},{"trial_n":107,"min":63,"max":192,"target":"absent","response":"absent","rt":384.79999995232,"correct":true,"confidence":4},{"trial_n":108,"min":63,"max":192,"target":"present","response":"present","rt":298.90000009537,"correct":true,"confidence":4},{"trial_n":109,"min":65,"max":190,"target":"absent","response":"absent","rt":536.20000004768,"correct":true,"confidence":5},{"trial_n":110,"min":65,"max":190,"target":"present","response":"present","rt":370.20000004768,"correct":true,"confidence":4},{"trial_n":111,"min":66,"max":189,"target":"absent","response":"absent","rt":372.5,"correct":true,"confidence":4},{"trial_n":112,"min":66,"max":189,"target":"present","response":"absent","rt":787.5,"correct":false,"confidence":4},{"trial_n":113,"min":65,"max":190,"target":"absent","response":"absent","rt":400.39999997616,"correct":true,"confidence":4},{"trial_n":114,"min":65,"max":190,"target":"absent","response":"present","rt":448.5,"correct":false,"confidence":4},{"trial_n":115,"min":64,"max":191,"target":"absent","response":"absent","rt":382.10000002384,"correct":true,"confidence":4},{"trial_n":116,"min":64,"max":191,"target":"present","response":"absent","rt":459.20000004768,"correct":false,"confidence":4},{"trial_n":117,"min":63,"max":192,"target":"absent","response":"present","rt":277.20000004768,"correct":false,"confidence":4},{"trial_n":118,"min":62,"max":193,"target":"present","response":"present","rt":301.60000002384,"correct":true,"confidence":4},{"trial_n":119,"min":62,"max":193,"target":"present","response":"absent","rt":335.20000004768,"correct":false,"confidence":4},{"trial_n":120,"min":61,"max":194,"target":"absent","response":"absent","rt":687.20000004768,"correct":true,"confidence":4},{"trial_n":121,"min":61,"max":194,"target":"present","response":"present","rt":468,"correct":true,"confidence":1},{"trial_n":122,"min":62,"max":193,"target":"absent","response":"absent","rt":575.19999992847,"correct":true,"confidence":1},{"trial_n":123,"min":62,"max":193,"target":"present","response":"present","rt":710.39999997616,"correct":true,"confidence":1},{"trial_n":124,"min":63,"max":192,"target":"absent","response":"absent","rt":376,"correct":true,"confidence":4},{"trial_n":125,"min":63,"max":192,"target":"absent","response":"absent","rt":533.20000004768,"correct":true,"confidence":1},{"trial_n":126,"min":64,"max":191,"target":"present","response":"absent","rt":418.89999997616,"correct":false,"confidence":4},{"trial_n":127,"min":63,"max":192,"target":"absent","response":"present","rt":452.40000009537,"correct":false,"confidence":4},{"trial_n":128,"min":62,"max":193,"target":"present","response":"present","rt":208.39999997616,"correct":true,"confidence":4},{"trial_n":129,"min":62,"max":193,"target":"present","response":"present","rt":479.89999997616,"correct":true,"confidence":4},{"trial_n":130,"min":63,"max":192,"target":"absent","response":"present","rt":523.10000002384,"correct":false,"confidence":4},{"trial_n":131,"min":62,"max":193,"target":"absent","response":"absent","rt":323.29999995232,"correct":true,"confidence":4},{"trial_n":132,"min":62,"max":193,"target":"absent","response":"absent","rt":423.5,"correct":true,"confidence":5},{"trial_n":133,"min":63,"max":192,"target":"present","response":"present","rt":251.39999997616,"correct":true,"confidence":4},{"trial_n":134,"min":63,"max":192,"target":"absent","response":"present","rt":393.60000002384,"correct":false,"confidence":4},{"trial_n":135,"min":62,"max":193,"target":"absent","response":"absent","rt":277,"correct":true,"confidence":5},{"trial_n":136,"min":62,"max":193,"target":"present","response":"present","rt":333.20000004768,"correct":true,"confidence":4},{"trial_n":137,"min":63,"max":192,"target":"absent","response":"present","rt":365,"correct":false,"confidence":5},{"trial_n":138,"min":62,"max":193,"target":"present","response":"present","rt":288.39999997616,"correct":true,"confidence":5},{"trial_n":139,"min":62,"max":193,"target":"present","response":"present","rt":257.69999992847,"correct":true,"confidence":4},{"trial_n":140,"min":63,"max":192,"target":"present","response":"absent","rt":221.10000002384,"correct":false,"confidence":4}]