[{"trial_n":1,"n_dots":4.25,"target":"right","response":"right","rt":5026.5999999046,"correct":true,"confidence":-1},{"trial_n":2,"n_dots":4.25,"target":"right","response":"left","rt":952,"correct":false,"confidence":-1},{"trial_n":3,"n_dots":4.65,"target":"right","response":"left","rt":814.5,"correct":false,"confidence":-1},{"trial_n":4,"n_dots":5.05,"target":"left","response":"left","rt":755.19999980927,"correct":true,"confidence":-1},{"trial_n":5,"n_dots":5.05,"target":"right","response":"right","rt":622.90000009537,"correct":true,"confidence":-1},{"trial_n":6,"n_dots":4.65,"target":"right","response":"right","rt":375.80000019073,"correct":true,"confidence":-1},{"trial_n":7,"n_dots":4.65,"target":"right","response":"right","rt":126.19999980927,"correct":true,"confidence":-1},{"trial_n":8,"n_dots":4.45,"target":"right","response":"right","rt":349,"correct":true,"confidence":-1},{"trial_n":9,"n_dots":4.45,"target":"left","response":"left","rt":383.69999980927,"correct":true,"confidence":-1},{"trial_n":10,"n_dots":4.25,"target":"left","response":"left","rt":608.5,"correct":true,"confidence":-1},{"trial_n":11,"n_dots":4.25,"target":"left","response":"left","rt":345.69999980927,"correct":true,"confidence":-1},{"trial_n":12,"n_dots":4.05,"target":"right","response":"right","rt":585.19999980927,"correct":true,"confidence":-1},{"trial_n":13,"n_dots":4.05,"target":"left","response":"left","rt":805.30000019073,"correct":true,"confidence":-1},{"trial_n":14,"n_dots":3.95,"target":"left","response":"right","rt":939.90000009537,"correct":false,"confidence":-1},{"trial_n":15,"n_dots":4.05,"target":"left","response":"left","rt":627.09999990463,"correct":true,"confidence":-1},{"trial_n":16,"n_dots":4.05,"target":"right","response":"right","rt":534.40000009537,"correct":true,"confidence":-1},{"trial_n":17,"n_dots":3.95,"target":"left","response":"right","rt":714.2000002861,"correct":false,"confidence":-1},{"trial_n":18,"n_dots":4.05,"target":"left","response":"left","rt":940.90000009537,"correct":true,"confidence":-1},{"trial_n":19,"n_dots":4.05,"target":"left","response":"left","rt":683.59999990463,"correct":true,"confidence":-1},{"trial_n":20,"n_dots":3.95,"target":"left","response":"left","rt":467.7000002861,"correct":true,"confidence":-1},{"trial_n":21,"n_dots":3.95,"target":"left","response":"right","rt":743,"correct":false,"confidence":4},{"trial_n":22,"n_dots":4.05,"target":"left","response":"left","rt":711.69999980927,"correct":true,"confidence":5},{"trial_n":23,"n_dots":4.05,"target":"right","response":"right","rt":294,"correct":true,"confidence":4},{"trial_n":24,"n_dots":3.95,"target":"left","response":"left","rt":586.40000009537,"correct":true,"confidence":2},{"trial_n":25,"n_dots":3.95,"target":"left","response":"left","rt":809.2000002861,"correct":true,"confidence":3},{"trial_n":26,"n_dots":3.85,"target":"right","response":"right","rt":576.5,"correct":true,"confidence":3},{"trial_n":27,"n_dots":3.85,"target":"right","response":"right","rt":1120.5999999046,"correct":true,"confidence":2},{"trial_n":28,"n_dots":3.75,"target":"left","response":"left","rt":775.59999990463,"correct":true,"confidence":2},{"trial_n":29,"n_dots":3.75,"target":"left","response":"left","rt":591.2999997139,"correct":true,"confidence":3},{"trial_n":30,"n_dots":3.65,"target":"right","response":"right","rt":735.5,"correct":true,"confidence":3},{"trial_n":31,"n_dots":3.65,"target":"left","response":"right","rt":551.89999961853,"correct":false,"confidence":3},{"trial_n":32,"n_dots":3.75,"target":"left","response":"left","rt":569.59999990463,"correct":true,"confidence":2},{"trial_n":33,"n_dots":3.75,"target":"left","response":"right","rt":657.7000002861,"correct":false,"confidence":3},{"trial_n":34,"n_dots":3.85,"target":"right","response":"right","rt":742,"correct":true,"confidence":3},{"trial_n":35,"n_dots":3.85,"target":"right","response":"right","rt":1341.6999998093,"correct":true,"confidence":4},{"trial_n":36,"n_dots":3.75,"target":"right","response":"right","rt":586,"correct":true,"confidence":4},{"trial_n":37,"n_dots":3.75,"target":"left","response":"left","rt":635.69999980927,"correct":true,"confidence":3},{"trial_n":38,"n_dots":3.65,"target":"left","response":"left","rt":688.30000019073,"correct":true,"confidence":3},{"trial_n":39,"n_dots":3.65,"target":"right","response":"right","rt":1056.5999999046,"correct":true,"confidence":3},{"trial_n":40,"n_dots":3.55,"target":"left","response":"left","rt":642.7999997139,"correct":true,"confidence":2},{"trial_n":41,"n_dots":3.55,"target":"left","response":"left","rt":439.69999980927,"correct":true,"confidence":4},{"trial_n":42,"n_dots":3.45,"target":"right","response":"right","rt":581.40000009537,"correct":true,"confidence":1},{"trial_n":43,"n_dots":3.45,"target":"right","response":"left","rt":550.89999961853,"correct":false,"confidence":3},{"trial_n":44,"n_dots":3.55,"target":"left","response":"left","rt":630.10000038147,"correct":true,"confidence":3},{"trial_n":45,"n_dots":3.55,"target":"right","response":"right","rt":494.90000009537,"correct":true,"confidence":4},{"trial_n":46,"n_dots":3.45,"target":"left","response":"left","rt":1306.1999998093,"correct":true,"confidence":1},{"trial_n":47,"n_dots":3.45,"target":"left","response":"right","rt":459.5,"correct":false,"confidence":3},{"trial_n":48,"n_dots":3.55,"target":"right","response":"left","rt":1524.3000001907,"correct":false,"confidence":2},{"trial_n":49,"n_dots":3.65,"target":"left","response":"left","rt":440.59999990463,"correct":true,"confidence":2},{"trial_n":50,"n_dots":3.65,"target":"right","response":"right","rt":687,"correct":true,"confidence":3},{"trial_n":51,"n_dots":3.55,"target":"right","response":"right","rt":432.7000002861,"correct":true,"confidence":3},{"trial_n":52,"n_dots":3.55,"target":"left","response":"right","rt":1313.5999999046,"correct":false,"confidence":3},{"trial_n":53,"n_dots":3.65,"target":"left","response":"left","rt":731.2000002861,"correct":true,"confidence":3},{"trial_n":54,"n_dots":3.65,"target":"right","response":"right","rt":695.30000019073,"correct":true,"confidence":4},{"trial_n":55,"n_dots":3.55,"target":"right","response":"right","rt":768.59999990463,"correct":true,"confidence":2},{"trial_n":56,"n_dots":3.55,"target":"left","response":"left","rt":477.89999961853,"correct":true,"confidence":3},{"trial_n":57,"n_dots":3.45,"target":"left","response":"right","rt":363.80000019073,"correct":false,"confidence":3},{"trial_n":58,"n_dots":3.55,"target":"left","response":"left","rt":753.2999997139,"correct":true,"confidence":4},{"trial_n":59,"n_dots":3.55,"target":"right","response":"right","rt":834.39999961853,"correct":true,"confidence":3},{"trial_n":60,"n_dots":3.45,"target":"right","response":"right","rt":421.59999990463,"correct":true,"confidence":4},{"trial_n":61,"n_dots":3.45,"target":"left","response":"left","rt":881,"correct":true,"confidence":3},{"trial_n":62,"n_dots":3.35,"target":"left","response":"right","rt":603.2999997139,"correct":false,"confidence":2},{"trial_n":63,"n_dots":3.45,"target":"left","response":"left","rt":516.09999990463,"correct":true,"confidence":3},{"trial_n":64,"n_dots":3.45,"target":"left","response":"right","rt":438,"correct":false,"confidence":3},{"trial_n":65,"n_dots":3.55,"target":"right","response":"right","rt":1147.0999999046,"correct":true,"confidence":4},{"trial_n":66,"n_dots":3.55,"target":"right","response":"right","rt":1498.2999997139,"correct":true,"confidence":1},{"trial_n":67,"n_dots":3.45,"target":"right","response":"right","rt":436.5,"correct":true,"confidence":2},{"trial_n":68,"n_dots":3.45,"target":"left","response":"left","rt":548.30000019073,"correct":true,"confidence":4},{"trial_n":69,"n_dots":3.35,"target":"right","response":"right","rt":428.09999990463,"correct":true,"confidence":4},{"trial_n":70,"n_dots":3.35,"target":"right","response":"right","rt":402.80000019073,"correct":true,"confidence":3},{"trial_n":71,"n_dots":3.25,"target":"right","response":"right","rt":421.59999990463,"correct":true,"confidence":1},{"trial_n":72,"n_dots":3.25,"target":"right","response":"right","rt":386.7000002861,"correct":true,"confidence":2},{"trial_n":73,"n_dots":3.15,"target":"right","response":"right","rt":1076.5,"correct":true,"confidence":3},{"trial_n":74,"n_dots":3.15,"target":"right","response":"right","rt":285.5,"correct":true,"confidence":3},{"trial_n":75,"n_dots":3.05,"target":"left","response":"left","rt":541.19999980927,"correct":true,"confidence":3},{"trial_n":76,"n_dots":3.05,"target":"right","response":"right","rt":368.90000009537,"correct":true,"confidence":4},{"trial_n":77,"n_dots":2.95,"target":"left","response":"left","rt":531,"correct":true,"confidence":3},{"trial_n":78,"n_dots":2.95,"target":"left","response":"right","rt":858.09999990463,"correct":false,"confidence":4},{"trial_n":79,"n_dots":3.05,"target":"left","response":"left","rt":720.69999980927,"correct":true,"confidence":3},{"trial_n":80,"n_dots":3.05,"target":"right","response":"right","rt":442.80000019073,"correct":true,"confidence":3},{"trial_n":81,"n_dots":2.95,"target":"left","response":"right","rt":531,"correct":false,"confidence":3},{"trial_n":82,"n_dots":3.05,"target":"right","response":"right","rt":350.80000019073,"correct":true,"confidence":3},{"trial_n":83,"n_dots":3.05,"target":"right","response":"right","rt":308.80000019073,"correct":true,"confidence":4},{"trial_n":84,"n_dots":2.95,"target":"right","response":"right","rt":366.80000019073,"correct":true,"confidence":5},{"trial_n":85,"n_dots":2.95,"target":"right","response":"right","rt":354.39999961853,"correct":true,"confidence":4},{"trial_n":86,"n_dots":2.85,"target":"left","response":"right","rt":361.7999997139,"correct":false,"confidence":4},{"trial_n":87,"n_dots":2.95,"target":"right","response":"right","rt":344.59999990463,"correct":true,"confidence":4},{"trial_n":88,"n_dots":2.95,"target":"left","response":"right","rt":636.7999997139,"correct":false,"confidence":4},{"trial_n":89,"n_dots":3.05,"target":"right","response":"right","rt":50.699999809265,"correct":true,"confidence":4},{"trial_n":90,"n_dots":3.05,"target":"right","response":"right","rt":2275.4000000954,"correct":true,"confidence":4},{"trial_n":91,"n_dots":2.95,"target":"left","response":"left","rt":844.2000002861,"correct":true,"confidence":3},{"trial_n":92,"n_dots":2.95,"target":"right","response":"right","rt":150.5,"correct":true,"confidence":4},{"trial_n":93,"n_dots":2.85,"target":"right","response":"left","rt":816.09999990463,"correct":false,"confidence":3},{"trial_n":94,"n_dots":2.95,"target":"left","response":"left","rt":370.5,"correct":true,"confidence":4},{"trial_n":95,"n_dots":2.95,"target":"right","response":"right","rt":223.5,"correct":true,"confidence":5},{"trial_n":96,"n_dots":2.85,"target":"left","response":"right","rt":16273.200000286,"correct":false,"confidence":1},{"trial_n":97,"n_dots":2.95,"target":"right","response":"right","rt":389.60000038147,"correct":true,"confidence":3},{"trial_n":98,"n_dots":2.95,"target":"left","response":"right","rt":1912.2000002861,"correct":false,"confidence":3},{"trial_n":99,"n_dots":3.05,"target":"left","response":"right","rt":652.40000009537,"correct":false,"confidence":4},{"trial_n":100,"n_dots":3.15,"target":"right","response":"right","rt":288.90000009537,"correct":true,"confidence":5},{"trial_n":101,"n_dots":3.15,"target":"right","response":"right","rt":211.59999990463,"correct":true,"confidence":5},{"trial_n":102,"n_dots":3.05,"target":"left","response":"right","rt":396.40000009537,"correct":false,"confidence":3},{"trial_n":103,"n_dots":3.15,"target":"right","response":"right","rt":458.7000002861,"correct":true,"confidence":4},{"trial_n":104,"n_dots":3.15,"target":"left","response":"right","rt":687.69999980927,"correct":false,"confidence":4},{"trial_n":105,"n_dots":3.25,"target":"right","response":"right","rt":404.80000019073,"correct":true,"confidence":5},{"trial_n":106,"n_dots":3.25,"target":"left","response":"right","rt":275.69999980927,"correct":false,"confidence":4},{"trial_n":107,"n_dots":3.35,"target":"left","response":"right","rt":291.09999990463,"correct":false,"confidence":4},{"trial_n":108,"n_dots":3.45,"target":"right","response":"right","rt":625.5,"correct":true,"confidence":4},{"trial_n":109,"n_dots":3.45,"target":"right","response":"right","rt":145.90000009537,"correct":true,"confidence":5},{"trial_n":110,"n_dots":3.35,"target":"left","response":"right","rt":633.40000009537,"correct":false,"confidence":4},{"trial_n":111,"n_dots":3.45,"target":"right","response":"right","rt":282.19999980927,"correct":true,"confidence":5},{"trial_n":112,"n_dots":3.45,"target":"right","response":"right","rt":617.40000009537,"correct":true,"confidence":4},{"trial_n":113,"n_dots":3.35,"target":"left","response":"right","rt":27.699999809265,"correct":false,"confidence":4},{"trial_n":114,"n_dots":3.45,"target":"right","response":"right","rt":563.10000038147,"correct":true,"confidence":4},{"trial_n":115,"n_dots":3.45,"target":"left","response":"right","rt":167.69999980927,"correct":false,"confidence":4},{"trial_n":116,"n_dots":3.55,"target":"right","response":"right","rt":278.59999990463,"correct":true,"confidence":4},{"trial_n":117,"n_dots":3.55,"target":"right","response":"right","rt":624.09999990463,"correct":true,"confidence":3},{"trial_n":118,"n_dots":3.45,"target":"left","response":"right","rt":123.2999997139,"correct":false,"confidence":4},{"trial_n":119,"n_dots":3.55,"target":"left","response":"right","rt":241.7000002861,"correct":false,"confidence":3},{"trial_n":120,"n_dots":3.65,"target":"left","response":"right","rt":447,"correct":false,"confidence":4}]