[{"trial_n":1,"min":25,"max":230,"target":"present","response":"present","rt":2175.5,"correct":true,"confidence":-1},{"trial_n":2,"min":25,"max":230,"target":"present","response":"present","rt":385.60000002384,"correct":true,"confidence":-1},{"trial_n":3,"min":41,"max":214,"target":"absent","response":"present","rt":300.89999997616,"correct":false,"confidence":-1},{"trial_n":4,"min":25,"max":230,"target":"absent","response":"present","rt":981.69999992847,"correct":false,"confidence":-1},{"trial_n":5,"min":9,"max":246,"target":"present","response":"present","rt":497.10000002384,"correct":true,"confidence":-1},{"trial_n":6,"min":9,"max":246,"target":"present","response":"present","rt":414.10000002384,"correct":true,"confidence":-1},{"trial_n":7,"min":25,"max":230,"target":"absent","response":"present","rt":363.90000009537,"correct":false,"confidence":-1},{"trial_n":8,"min":9,"max":246,"target":"absent","response":"present","rt":291.29999995232,"correct":false,"confidence":-1},{"trial_n":9,"min":0,"max":255,"target":"present","response":"present","rt":298.10000002384,"correct":true,"confidence":-1},{"trial_n":10,"min":0,"max":255,"target":"absent","response":"present","rt":302.5,"correct":false,"confidence":-1},{"trial_n":11,"min":0,"max":255,"target":"absent","response":"present","rt":328,"correct":false,"confidence":-1},{"trial_n":12,"min":0,"max":255,"target":"present","response":"present","rt":236.69999992847,"correct":true,"confidence":-1},{"trial_n":13,"min":0,"max":255,"target":"present","response":"present","rt":236.30000007153,"correct":true,"confidence":-1},{"trial_n":14,"min":8,"max":247,"target":"present","response":"present","rt":178.30000007153,"correct":true,"confidence":-1},{"trial_n":15,"min":8,"max":247,"target":"absent","response":"present","rt":195.20000004768,"correct":false,"confidence":-1},{"trial_n":16,"min":0,"max":255,"target":"present","response":"present","rt":301.40000009537,"correct":true,"confidence":-1},{"trial_n":17,"min":0,"max":255,"target":"absent","response":"present","rt":323.60000002384,"correct":false,"confidence":-1},{"trial_n":18,"min":0,"max":255,"target":"absent","response":"present","rt":751.79999995232,"correct":false,"confidence":-1},{"trial_n":19,"min":0,"max":255,"target":"present","response":"present","rt":332.80000007153,"correct":true,"confidence":-1},{"trial_n":20,"min":0,"max":255,"target":"present","response":"present","rt":387.5,"correct":true,"confidence":-1},{"trial_n":21,"min":4,"max":251,"target":"present","response":"present","rt":347.20000004768,"correct":true,"confidence":1},{"trial_n":22,"min":4,"max":251,"target":"present","response":"present","rt":593.10000002384,"correct":true,"confidence":1},{"trial_n":23,"min":8,"max":247,"target":"present","response":"present","rt":542.5,"correct":true,"confidence":1},{"trial_n":24,"min":8,"max":247,"target":"absent","response":"present","rt":401.39999997616,"correct":false,"confidence":1},{"trial_n":25,"min":4,"max":251,"target":"absent","response":"present","rt":342.20000004768,"correct":false,"confidence":1},{"trial_n":26,"min":0,"max":255,"target":"present","response":"present","rt":400.29999995232,"correct":true,"confidence":1},{"trial_n":27,"min":0,"max":255,"target":"absent","response":"present","rt":352.20000004768,"correct":false,"confidence":1},{"trial_n":28,"min":0,"max":255,"target":"absent","response":"present","rt":655.80000007153,"correct":false,"confidence":1},{"trial_n":29,"min":0,"max":255,"target":"absent","response":"present","rt":423.30000007153,"correct":false,"confidence":1},{"trial_n":30,"min":0,"max":255,"target":"present","response":"present","rt":415.59999990463,"correct":true,"confidence":1},{"trial_n":31,"min":0,"max":255,"target":"absent","response":"present","rt":177.59999990463,"correct":false,"confidence":1},{"trial_n":32,"min":0,"max":255,"target":"present","response":"present","rt":282.5,"correct":true,"confidence":1},{"trial_n":33,"min":0,"max":255,"target":"absent","response":"present","rt":320.79999995232,"correct":false,"confidence":1},{"trial_n":34,"min":0,"max":255,"target":"present","response":"present","rt":243.59999990463,"correct":true,"confidence":1},{"trial_n":35,"min":0,"max":255,"target":"present","response":"present","rt":281.39999997616,"correct":true,"confidence":1},{"trial_n":36,"min":2,"max":253,"target":"present","response":"present","rt":286.10000002384,"correct":true,"confidence":1},{"trial_n":37,"min":2,"max":253,"target":"present","response":"present","rt":286.30000007153,"correct":true,"confidence":1},{"trial_n":38,"min":4,"max":251,"target":"absent","response":"present","rt":283.5,"correct":false,"confidence":1},{"trial_n":39,"min":2,"max":253,"target":"absent","response":"present","rt":367.60000002384,"correct":false,"confidence":1},{"trial_n":40,"min":0,"max":255,"target":"absent","response":"present","rt":217,"correct":false,"confidence":1},{"trial_n":41,"min":0,"max":255,"target":"absent","response":"present","rt":196.39999997616,"correct":false,"confidence":1},{"trial_n":42,"min":0,"max":255,"target":"present","response":"present","rt":233.5,"correct":true,"confidence":1},{"trial_n":43,"min":0,"max":255,"target":"absent","response":"present","rt":208,"correct":false,"confidence":1},{"trial_n":44,"min":0,"max":255,"target":"absent","response":"present","rt":254.60000002384,"correct":false,"confidence":1},{"trial_n":45,"min":0,"max":255,"target":"present","response":"present","rt":150.90000009537,"correct":true,"confidence":1},{"trial_n":46,"min":0,"max":255,"target":"present","response":"present","rt":245,"correct":true,"confidence":1},{"trial_n":47,"min":1,"max":254,"target":"absent","response":"present","rt":192.19999992847,"correct":false,"confidence":1},{"trial_n":48,"min":0,"max":255,"target":"present","response":"present","rt":190.30000007153,"correct":true,"confidence":1},{"trial_n":49,"min":0,"max":255,"target":"absent","response":"present","rt":264.40000009537,"correct":false,"confidence":1},{"trial_n":50,"min":0,"max":255,"target":"absent","response":"present","rt":224.29999995232,"correct":false,"confidence":1},{"trial_n":51,"min":0,"max":255,"target":"present","response":"present","rt":118.89999997616,"correct":true,"confidence":1},{"trial_n":52,"min":0,"max":255,"target":"present","response":"present","rt":193.70000004768,"correct":true,"confidence":1},{"trial_n":53,"min":1,"max":254,"target":"present","response":"present","rt":79,"correct":true,"confidence":1},{"trial_n":54,"min":1,"max":254,"target":"present","response":"present","rt":156.19999992847,"correct":true,"confidence":1},{"trial_n":55,"min":2,"max":253,"target":"absent","response":"present","rt":208.70000004768,"correct":false,"confidence":1},{"trial_n":56,"min":1,"max":254,"target":"present","response":"present","rt":116.89999997616,"correct":true,"confidence":1},{"trial_n":57,"min":1,"max":254,"target":"absent","response":"present","rt":194.70000004768,"correct":false,"confidence":1},{"trial_n":58,"min":0,"max":255,"target":"absent","response":"present","rt":121,"correct":false,"confidence":1},{"trial_n":59,"min":0,"max":255,"target":"present","response":"present","rt":216.10000002384,"correct":true,"confidence":1},{"trial_n":60,"min":0,"max":255,"target":"absent","response":"present","rt":287.30000007153,"correct":false,"confidence":1},{"trial_n":61,"min":0,"max":255,"target":"present","response":"present","rt":81.399999976158,"correct":true,"confidence":1},{"trial_n":62,"min":0,"max":255,"target":"present","response":"present","rt":1836,"correct":true,"confidence":1},{"trial_n":63,"min":1,"max":254,"target":"present","response":"present","rt":303.89999997616,"correct":true,"confidence":1},{"trial_n":64,"min":1,"max":254,"target":"absent","response":"present","rt":272.79999995232,"correct":false,"confidence":1},{"trial_n":65,"min":0,"max":255,"target":"present","response":"present","rt":289.10000002384,"correct":true,"confidence":1},{"trial_n":66,"min":0,"max":255,"target":"absent","response":"present","rt":357.30000007153,"correct":false,"confidence":1},{"trial_n":67,"min":0,"max":255,"target":"absent","response":"present","rt":296.70000004768,"correct":false,"confidence":1},{"trial_n":68,"min":0,"max":255,"target":"absent","response":"present","rt":317,"correct":false,"confidence":1},{"trial_n":69,"min":0,"max":255,"target":"present","response":"present","rt":340.60000002384,"correct":true,"confidence":1},{"trial_n":70,"min":0,"max":255,"target":"absent","response":"present","rt":341.10000002384,"correct":false,"confidence":1},{"trial_n":71,"min":41,"max":214,"target":"present","response":"present","rt":2088.8000000715,"correct":true,"confidence":-1},{"trial_n":72,"min":41,"max":214,"target":"present","response":"present","rt":343.90000009537,"correct":true,"confidence":-1},{"trial_n":73,"min":57,"max":198,"target":"absent","response":"present","rt":422.5,"correct":false,"confidence":-1},{"trial_n":74,"min":41,"max":214,"target":"absent","response":"present","rt":1487.8999999762,"correct":false,"confidence":-1},{"trial_n":75,"min":25,"max":230,"target":"present","response":"present","rt":279.10000002384,"correct":true,"confidence":-1},{"trial_n":76,"min":25,"max":230,"target":"absent","response":"present","rt":175.10000002384,"correct":false,"confidence":-1},{"trial_n":77,"min":9,"max":246,"target":"present","response":"present","rt":206.80000007153,"correct":true,"confidence":-1},{"trial_n":78,"min":9,"max":246,"target":"absent","response":"present","rt":235.60000002384,"correct":false,"confidence":-1},{"trial_n":79,"min":0,"max":255,"target":"absent","response":"present","rt":1722.1000000238,"correct":false,"confidence":-1},{"trial_n":80,"min":0,"max":255,"target":"absent","response":"present","rt":131,"correct":false,"confidence":-1},{"trial_n":81,"min":0,"max":255,"target":"present","response":"present","rt":452.39999997616,"correct":true,"confidence":-1},{"trial_n":82,"min":0,"max":255,"target":"absent","response":"present","rt":160.39999997616,"correct":false,"confidence":-1},{"trial_n":83,"min":0,"max":255,"target":"absent","response":"present","rt":278.90000009537,"correct":false,"confidence":-1},{"trial_n":84,"min":0,"max":255,"target":"absent","response":"present","rt":513.79999995232,"correct":false,"confidence":-1},{"trial_n":85,"min":0,"max":255,"target":"absent","response":"present","rt":755.10000002384,"correct":false,"confidence":-1},{"trial_n":86,"min":0,"max":255,"target":"absent","response":"present","rt":239.30000007153,"correct":false,"confidence":-1},{"trial_n":87,"min":0,"max":255,"target":"present","response":"present","rt":573.89999997616,"correct":true,"confidence":-1},{"trial_n":88,"min":0,"max":255,"target":"absent","response":"present","rt":349.20000004768,"correct":false,"confidence":-1},{"trial_n":89,"min":0,"max":255,"target":"present","response":"present","rt":803,"correct":true,"confidence":-1},{"trial_n":90,"min":0,"max":255,"target":"absent","response":"present","rt":444.59999990463,"correct":false,"confidence":-1},{"trial_n":91,"min":0,"max":255,"target":"absent","response":"present","rt":323.5,"correct":false,"confidence":1},{"trial_n":92,"min":0,"max":255,"target":"present","response":"present","rt":249,"correct":true,"confidence":1},{"trial_n":93,"min":0,"max":255,"target":"present","response":"present","rt":391.30000007153,"correct":true,"confidence":1},{"trial_n":94,"min":4,"max":251,"target":"present","response":"present","rt":363.80000007153,"correct":true,"confidence":1},{"trial_n":95,"min":4,"max":251,"target":"present","response":"present","rt":1416.8999999762,"correct":true,"confidence":1},{"trial_n":96,"min":8,"max":247,"target":"present","response":"present","rt":142.79999995232,"correct":true,"confidence":1},{"trial_n":97,"min":8,"max":247,"target":"absent","response":"present","rt":340,"correct":false,"confidence":1},{"trial_n":98,"min":4,"max":251,"target":"absent","response":"present","rt":274.39999997616,"correct":false,"confidence":1},{"trial_n":99,"min":0,"max":255,"target":"present","response":"present","rt":372.29999995232,"correct":true,"confidence":1},{"trial_n":100,"min":0,"max":255,"target":"absent","response":"present","rt":1255.3999999762,"correct":false,"confidence":1},{"trial_n":101,"min":0,"max":255,"target":"present","response":"present","rt":265.60000002384,"correct":true,"confidence":1},{"trial_n":102,"min":0,"max":255,"target":"present","response":"present","rt":1479.3000000715,"correct":true,"confidence":1},{"trial_n":103,"min":2,"max":253,"target":"present","response":"present","rt":282.70000004768,"correct":true,"confidence":1},{"trial_n":104,"min":2,"max":253,"target":"present","response":"present","rt":44.200000047684,"correct":true,"confidence":1},{"trial_n":105,"min":4,"max":251,"target":"absent","response":"present","rt":379,"correct":false,"confidence":1},{"trial_n":106,"min":2,"max":253,"target":"absent","response":"present","rt":393.39999997616,"correct":false,"confidence":1},{"trial_n":107,"min":0,"max":255,"target":"absent","response":"present","rt":438,"correct":false,"confidence":1},{"trial_n":108,"min":0,"max":255,"target":"present","response":"present","rt":443.89999997616,"correct":true,"confidence":1},{"trial_n":109,"min":0,"max":255,"target":"absent","response":"present","rt":466.69999992847,"correct":false,"confidence":1},{"trial_n":110,"min":0,"max":255,"target":"present","response":"present","rt":344.10000002384,"correct":true,"confidence":1},{"trial_n":111,"min":0,"max":255,"target":"absent","response":"present","rt":494.29999995232,"correct":false,"confidence":1},{"trial_n":112,"min":0,"max":255,"target":"absent","response":"present","rt":307.20000004768,"correct":false,"confidence":1},{"trial_n":113,"min":0,"max":255,"target":"absent","response":"present","rt":364.20000004768,"correct":false,"confidence":1},{"trial_n":114,"min":0,"max":255,"target":"present","response":"present","rt":329.60000002384,"correct":true,"confidence":1},{"trial_n":115,"min":0,"max":255,"target":"absent","response":"present","rt":264.19999992847,"correct":false,"confidence":1},{"trial_n":116,"min":0,"max":255,"target":"absent","response":"present","rt":307.39999997616,"correct":false,"confidence":1},{"trial_n":117,"min":0,"max":255,"target":"present","response":"present","rt":178.80000007153,"correct":true,"confidence":1},{"trial_n":118,"min":0,"max":255,"target":"present","response":"present","rt":156.10000002384,"correct":true,"confidence":1},{"trial_n":119,"min":1,"max":254,"target":"absent","response":"present","rt":66.799999952316,"correct":false,"confidence":1},{"trial_n":120,"min":0,"max":255,"target":"absent","response":"present","rt":332.89999997616,"correct":false,"confidence":1},{"trial_n":121,"min":0,"max":255,"target":"present","response":"present","rt":286.30000007153,"correct":true,"confidence":1},{"trial_n":122,"min":0,"max":255,"target":"present","response":"present","rt":286.69999992847,"correct":true,"confidence":1},{"trial_n":123,"min":1,"max":254,"target":"present","response":"present","rt":300.70000004768,"correct":true,"confidence":1},{"trial_n":124,"min":1,"max":254,"target":"present","response":"present","rt":781.59999990463,"correct":true,"confidence":1},{"trial_n":125,"min":2,"max":253,"target":"present","response":"present","rt":774.20000004768,"correct":true,"confidence":1},{"trial_n":126,"min":2,"max":253,"target":"present","response":"present","rt":702.70000004768,"correct":true,"confidence":1},{"trial_n":127,"min":3,"max":252,"target":"present","response":"present","rt":330.79999995232,"correct":true,"confidence":1},{"trial_n":128,"min":3,"max":252,"target":"present","response":"present","rt":976.40000009537,"correct":true,"confidence":1},{"trial_n":129,"min":4,"max":251,"target":"present","response":"present","rt":332.40000009537,"correct":true,"confidence":1},{"trial_n":130,"min":4,"max":251,"target":"absent","response":"present","rt":379.20000004768,"correct":false,"confidence":1},{"trial_n":131,"min":3,"max":252,"target":"absent","response":"present","rt":50.200000047684,"correct":false,"confidence":1},{"trial_n":132,"min":2,"max":253,"target":"absent","response":"present","rt":119.79999995232,"correct":false,"confidence":1},{"trial_n":133,"min":1,"max":254,"target":"present","response":"present","rt":38.199999928474,"correct":true,"confidence":1},{"trial_n":134,"min":1,"max":254,"target":"absent","response":"present","rt":676.69999992847,"correct":false,"confidence":1},{"trial_n":135,"min":0,"max":255,"target":"present","response":"absent","rt":265.10000002384,"correct":false,"confidence":1},{"trial_n":136,"min":0,"max":255,"target":"present","response":"absent","rt":344.70000004768,"correct":false,"confidence":1},{"trial_n":137,"min":0,"max":255,"target":"absent","response":"absent","rt":236.79999995232,"correct":true,"confidence":1},{"trial_n":138,"min":0,"max":255,"target":"absent","response":"absent","rt":301.90000009537,"correct":true,"confidence":1},{"trial_n":139,"min":1,"max":254,"target":"present","response":"absent","rt":205.79999995232,"correct":false,"confidence":1},{"trial_n":140,"min":0,"max":255,"target":"present","response":"absent","rt":221.80000007153,"correct":false,"confidence":1}]