[{"trial_n":1,"span":8,"encoder":"11284321","distractor":"13284321","target":"present","response":"absent","rt":"3158.2000000477","correct":false,"confidence":-1},{"trial_n":2,"span":6,"encoder":"791861","distractor":"771861","target":"present","response":"absent","rt":"2879.8999999762","correct":false,"confidence":-1},{"trial_n":3,"span":4,"encoder":"4910","distractor":"4710","target":"absent","response":"present","rt":"4656.2999999523","correct":false,"confidence":-1},{"trial_n":4,"span":2,"encoder":"01","distractor":"06","target":"absent","response":"absent","rt":"1639.2000000477","correct":true,"confidence":-1},{"trial_n":5,"span":2,"encoder":"16","distractor":"13","target":"present","response":"present","rt":"1641.3999999762","correct":true,"confidence":-1},{"trial_n":6,"span":4,"encoder":"4720","distractor":"4740","target":"present","response":"present","rt":"1256.7999999523","correct":true,"confidence":-1},{"trial_n":7,"span":4,"encoder":"6880","distractor":"6883","target":"absent","response":"absent","rt":"1582.2999999523","correct":true,"confidence":-1},{"trial_n":8,"span":6,"encoder":"819387","distractor":"819388","target":"present","response":"present","rt":"2685.3999999762","correct":true,"confidence":-1},{"trial_n":9,"span":6,"encoder":"167648","distractor":"467648","target":"present","response":"present","rt":"1528.2000000477","correct":true,"confidence":-1},{"trial_n":10,"span":8,"encoder":"41193279","distractor":"01193279","target":"absent","response":"absent","rt":"1800.2000000477","correct":true,"confidence":-1},{"trial_n":11,"span":8,"encoder":"74218731","distractor":"44218731","target":"absent","response":"present","rt":"1460.8999999762","correct":false,"confidence":-1},{"trial_n":12,"span":7,"encoder":"9910047","distractor":"9910042","target":"absent","response":"present","rt":"1755.5","correct":false,"confidence":-1},{"trial_n":13,"span":6,"encoder":"312522","distractor":"352522","target":"absent","response":"absent","rt":"2010","correct":true,"confidence":-1},{"trial_n":14,"span":6,"encoder":"707293","distractor":"701293","target":"present","response":"present","rt":"1210.5","correct":true,"confidence":-1},{"trial_n":15,"span":7,"encoder":"6128750","distractor":"6108750","target":"present","response":"present","rt":"1824.7999999523","correct":true,"confidence":-1},{"trial_n":16,"span":7,"encoder":"5484923","distractor":"5484023","target":"present","response":"absent","rt":"1983.6000000238","correct":false,"confidence":-1},{"trial_n":17,"span":6,"encoder":"622532","distractor":"222532","target":"present","response":"present","rt":"2012.2000000477","correct":true,"confidence":-1},{"trial_n":18,"span":6,"encoder":"936593","distractor":"936553","target":"absent","response":"present","rt":"1307.6999999285","correct":false,"confidence":-1},{"trial_n":19,"span":5,"encoder":"50959","distractor":"50979","target":"absent","response":"absent","rt":"2356.2999999523","correct":true,"confidence":-1},{"trial_n":20,"span":5,"encoder":"13289","distractor":"16289","target":"present","response":"present","rt":"1702","correct":true,"confidence":-1},{"trial_n":21,"span":6,"encoder":"659951","distractor":"659751","target":"present","response":"present","rt":"1836.6000000238","correct":true,"confidence":5},{"trial_n":22,"span":6,"encoder":"107721","distractor":"107723","target":"absent","response":"absent","rt":"1869.6999999285","correct":true,"confidence":4},{"trial_n":23,"span":7,"encoder":"7553710","distractor":"7553713","target":"absent","response":"absent","rt":"2162.7000000477","correct":true,"confidence":5},{"trial_n":24,"span":7,"encoder":"2310145","distractor":"4310145","target":"absent","response":"present","rt":"2374.1000000238","correct":false,"confidence":4},{"trial_n":25,"span":6,"encoder":"580712","distractor":"590712","target":"absent","response":"absent","rt":"2138.1999999285","correct":true,"confidence":5},{"trial_n":26,"span":6,"encoder":"865760","distractor":"765760","target":"absent","response":"absent","rt":"2482.5","correct":true,"confidence":4},{"trial_n":27,"span":7,"encoder":"9892114","distractor":"9892124","target":"present","response":"present","rt":"1723.7999999523","correct":true,"confidence":3},{"trial_n":28,"span":7,"encoder":"6184190","distractor":"6124190","target":"absent","response":"absent","rt":"1860.3000000715","correct":true,"confidence":3},{"trial_n":29,"span":8,"encoder":"32310261","distractor":"22310261","target":"absent","response":"present","rt":"2531.3999999762","correct":false,"confidence":2},{"trial_n":30,"span":7,"encoder":"4054130","distractor":"4054135","target":"absent","response":"absent","rt":"2906.3999999762","correct":true,"confidence":3},{"trial_n":31,"span":7,"encoder":"0583408","distractor":"0583498","target":"present","response":"present","rt":"2328.8000000715","correct":true,"confidence":4},{"trial_n":32,"span":8,"encoder":"59699575","distractor":"59699375","target":"present","response":"absent","rt":"3468.5","correct":false,"confidence":3},{"trial_n":33,"span":7,"encoder":"2975636","distractor":"2475636","target":"present","response":"present","rt":"1966","correct":true,"confidence":3},{"trial_n":34,"span":7,"encoder":"7166970","distractor":"7166770","target":"absent","response":"absent","rt":"2920.7000000477","correct":true,"confidence":2},{"trial_n":35,"span":8,"encoder":"14835922","distractor":"14835912","target":"present","response":"absent","rt":"3500.5","correct":false,"confidence":3},{"trial_n":36,"span":7,"encoder":"5902678","distractor":"5902378","target":"absent","response":"absent","rt":"2347.2999999523","correct":true,"confidence":3},{"trial_n":37,"span":7,"encoder":"9467672","distractor":"9867672","target":"present","response":"present","rt":"1614.3999999762","correct":true,"confidence":2},{"trial_n":38,"span":8,"encoder":"50053863","distractor":"56053863","target":"present","response":"present","rt":"4250.7000000477","correct":true,"confidence":1},{"trial_n":39,"span":8,"encoder":"54520834","distractor":"54526834","target":"absent","response":"absent","rt":"3310.2999999523","correct":true,"confidence":3},{"trial_n":40,"span":9,"encoder":"351284759","distractor":"353284759","target":"absent","response":"absent","rt":"1784.8000000715","correct":true,"confidence":5},{"trial_n":41,"span":9,"encoder":"123486566","distractor":"123486266","target":"present","response":"present","rt":"3165.5","correct":true,"confidence":5},{"trial_n":42,"span":10,"encoder":"1493325227","distractor":"1493325247","target":"present","response":"absent","rt":"1919","correct":false,"confidence":3},{"trial_n":43,"span":9,"encoder":"356715731","distractor":"256715731","target":"present","response":"present","rt":"2132","correct":true,"confidence":4},{"trial_n":44,"span":9,"encoder":"640176769","distractor":"640176669","target":"absent","response":"absent","rt":"1862.8999999762","correct":true,"confidence":5},{"trial_n":45,"span":10,"encoder":"4239177896","distractor":"4539177896","target":"present","response":"absent","rt":"3625.7999999523","correct":false,"confidence":4},{"trial_n":46,"span":9,"encoder":"229344542","distractor":"229347542","target":"present","response":"present","rt":"1550.7000000477","correct":true,"confidence":5},{"trial_n":47,"span":9,"encoder":"260448695","distractor":"290448695","target":"present","response":"absent","rt":"2228.3000000715","correct":false,"confidence":5},{"trial_n":48,"span":8,"encoder":"93547809","distractor":"93547609","target":"absent","response":"absent","rt":"2399.5","correct":true,"confidence":5},{"trial_n":49,"span":8,"encoder":"07005246","distractor":"07005256","target":"absent","response":"absent","rt":"3099.6000000238","correct":true,"confidence":2},{"trial_n":50,"span":9,"encoder":"991846980","distractor":"991886980","target":"absent","response":"present","rt":"2238.2000000477","correct":false,"confidence":1},{"trial_n":51,"span":8,"encoder":"32490282","distractor":"32490182","target":"present","response":"present","rt":"2205.3999999762","correct":true,"confidence":4},{"trial_n":52,"span":8,"encoder":"49622884","distractor":"45622884","target":"absent","response":"present","rt":"2811.5","correct":false,"confidence":5},{"trial_n":53,"span":7,"encoder":"0432768","distractor":"0432763","target":"present","response":"present","rt":"1941.3000000715","correct":true,"confidence":4},{"trial_n":54,"span":7,"encoder":"8547319","distractor":"8548319","target":"present","response":"present","rt":"2353.1999999285","correct":true,"confidence":3},{"trial_n":55,"span":8,"encoder":"18741020","distractor":"18741220","target":"present","response":"present","rt":"2458","correct":true,"confidence":3},{"trial_n":56,"span":8,"encoder":"89813109","distractor":"99813109","target":"absent","response":"present","rt":"3108.7999999523","correct":false,"confidence":1},{"trial_n":57,"span":7,"encoder":"1512727","distractor":"1212727","target":"absent","response":"absent","rt":"7019.8999999762","correct":true,"confidence":2},{"trial_n":58,"span":7,"encoder":"3882061","distractor":"3282061","target":"present","response":"present","rt":"2000.7999999523","correct":true,"confidence":3},{"trial_n":59,"span":8,"encoder":"54735941","distractor":"74735941","target":"present","response":"present","rt":"1868.5999999046","correct":true,"confidence":2},{"trial_n":60,"span":8,"encoder":"10816422","distractor":"40816422","target":"absent","response":"absent","rt":"1850.2000000477","correct":true,"confidence":5},{"trial_n":61,"span":9,"encoder":"924842294","distractor":"924842094","target":"present","response":"present","rt":"1477.3999999762","correct":true,"confidence":4},{"trial_n":62,"span":9,"encoder":"732969427","distractor":"232969427","target":"absent","response":"present","rt":"2587.5","correct":false,"confidence":5},{"trial_n":63,"span":8,"encoder":"15148011","distractor":"15848011","target":"present","response":"present","rt":"1308.8999999762","correct":true,"confidence":5},{"trial_n":64,"span":8,"encoder":"59321984","distractor":"59391984","target":"absent","response":"absent","rt":"1618.6000000238","correct":true,"confidence":1},{"trial_n":65,"span":9,"encoder":"594113253","distractor":"593113253","target":"absent","response":"absent","rt":"2788.2000000477","correct":true,"confidence":4},{"trial_n":66,"span":9,"encoder":"422509094","distractor":"422509294","target":"present","response":"present","rt":"5224.8999999762","correct":true,"confidence":3},{"trial_n":67,"span":10,"encoder":"6113996546","distractor":"6113996946","target":"present","response":"absent","rt":"3399.9000000954","correct":false,"confidence":5},{"trial_n":68,"span":9,"encoder":"432875284","distractor":"432855284","target":"absent","response":"absent","rt":"2484","correct":true,"confidence":5},{"trial_n":69,"span":9,"encoder":"698381120","distractor":"698381720","target":"present","response":"present","rt":"1111.3000000715","correct":true,"confidence":4},{"trial_n":70,"span":10,"encoder":"7498991193","distractor":"7498991190","target":"absent","response":"absent","rt":"817","correct":true,"confidence":2},{"trial_n":71,"span":8,"encoder":"96677515","distractor":"46677515","target":"present","response":"present","rt":"3049.8000000715","correct":true,"confidence":-1},{"trial_n":72,"span":8,"encoder":"28886035","distractor":"38886035","target":"present","response":"present","rt":"2496.5999999046","correct":true,"confidence":-1},{"trial_n":73,"span":9,"encoder":"955340952","distractor":"955940952","target":"absent","response":"absent","rt":"4099.8999999762","correct":true,"confidence":-1},{"trial_n":74,"span":9,"encoder":"348828564","distractor":"348878564","target":"absent","response":"absent","rt":"6296.5","correct":true,"confidence":-1},{"trial_n":75,"span":10,"encoder":"1146203834","distractor":"1143203834","target":"present","response":"present","rt":"5465.3000000715","correct":true,"confidence":-1},{"trial_n":76,"span":10,"encoder":"7445799759","distractor":"7445798759","target":"absent","response":"present","rt":"1584.5","correct":false,"confidence":-1},{"trial_n":77,"span":9,"encoder":"686425782","distractor":"686429782","target":"absent","response":"absent","rt":"3274.3000000715","correct":true,"confidence":-1},{"trial_n":78,"span":9,"encoder":"902115668","distractor":"902175668","target":"absent","response":"absent","rt":"3271.5","correct":true,"confidence":-1},{"trial_n":79,"span":10,"encoder":"6859661241","distractor":"6859661261","target":"absent","response":"present","rt":"1077.7000000477","correct":false,"confidence":-1},{"trial_n":80,"span":9,"encoder":"396175317","distractor":"316175317","target":"present","response":"present","rt":"692.89999997616","correct":true,"confidence":-1},{"trial_n":81,"span":9,"encoder":"023015227","distractor":"033015227","target":"present","response":"absent","rt":"1171.6000000238","correct":false,"confidence":-1},{"trial_n":82,"span":8,"encoder":"32333648","distractor":"32333348","target":"absent","response":"absent","rt":"1697.4000000954","correct":true,"confidence":-1},{"trial_n":83,"span":8,"encoder":"29785126","distractor":"29795126","target":"present","response":"present","rt":"724.79999995232","correct":true,"confidence":-1},{"trial_n":84,"span":9,"encoder":"248930251","distractor":"249930251","target":"present","response":"absent","rt":"642.19999992847","correct":false,"confidence":-1},{"trial_n":85,"span":8,"encoder":"61269883","distractor":"61769883","target":"absent","response":"present","rt":"2859.1000000238","correct":false,"confidence":-1},{"trial_n":86,"span":7,"encoder":"2571297","distractor":"5571297","target":"present","response":"present","rt":"3079.9000000954","correct":true,"confidence":-1},{"trial_n":87,"span":7,"encoder":"6896559","distractor":"6996559","target":"absent","response":"absent","rt":"2819.3999999762","correct":true,"confidence":-1},{"trial_n":88,"span":8,"encoder":"51822521","distractor":"81822521","target":"present","response":"present","rt":"3692.5","correct":true,"confidence":-1},{"trial_n":89,"span":8,"encoder":"72888106","distractor":"72588106","target":"present","response":"absent","rt":"2607.8000000715","correct":false,"confidence":-1},{"trial_n":90,"span":7,"encoder":"5857640","distractor":"3857640","target":"present","response":"present","rt":"4129.6000000238","correct":true,"confidence":-1},{"trial_n":91,"span":7,"encoder":"2382442","distractor":"2386442","target":"present","response":"absent","rt":"1368.3999999762","correct":false,"confidence":4},{"trial_n":92,"span":6,"encoder":"438584","distractor":"428584","target":"present","response":"present","rt":"1047.1000000238","correct":true,"confidence":4},{"trial_n":93,"span":6,"encoder":"904707","distractor":"904107","target":"absent","response":"present","rt":"1104.5999999046","correct":false,"confidence":3},{"trial_n":94,"span":5,"encoder":"86282","distractor":"86262","target":"present","response":"absent","rt":"2801.1999999285","correct":false,"confidence":3},{"trial_n":95,"span":4,"encoder":"9252","distractor":"8252","target":"present","response":"absent","rt":"1058.2999999523","correct":false,"confidence":5},{"trial_n":96,"span":3,"encoder":"636","distractor":"666","target":"present","response":"absent","rt":"2695.7000000477","correct":false,"confidence":2},{"trial_n":97,"span":2,"encoder":"20","distractor":"90","target":"absent","response":"present","rt":"7545.8999999762","correct":false,"confidence":5},{"trial_n":98,"span":2,"encoder":"68","distractor":"61","target":"absent","response":"absent","rt":"10358.299999952","correct":true,"confidence":2},{"trial_n":99,"span":2,"encoder":"24","distractor":"23","target":"present","response":"present","rt":"4733.2999999523","correct":true,"confidence":2},{"trial_n":100,"span":3,"encoder":"002","distractor":"008","target":"absent","response":"absent","rt":"2606.5","correct":true,"confidence":4},{"trial_n":101,"span":3,"encoder":"614","distractor":"615","target":"present","response":"present","rt":"2106.1000000238","correct":true,"confidence":3},{"trial_n":102,"span":4,"encoder":"6040","distractor":"9040","target":"present","response":"present","rt":"1426","correct":true,"confidence":5},{"trial_n":103,"span":4,"encoder":"1822","distractor":"2822","target":"present","response":"present","rt":"1591.4000000954","correct":true,"confidence":4},{"trial_n":104,"span":5,"encoder":"69788","distractor":"63788","target":"present","response":"absent","rt":"1666.8999999762","correct":false,"confidence":4},{"trial_n":105,"span":4,"encoder":"3757","distractor":"3357","target":"absent","response":"present","rt":"1595","correct":false,"confidence":1},{"trial_n":106,"span":3,"encoder":"135","distractor":"105","target":"absent","response":"absent","rt":"1891.8999999762","correct":true,"confidence":4},{"trial_n":107,"span":3,"encoder":"404","distractor":"484","target":"absent","response":"present","rt":"2758.7000000477","correct":false,"confidence":4},{"trial_n":108,"span":2,"encoder":"51","distractor":"41","target":"absent","response":"absent","rt":"1447.2999999523","correct":true,"confidence":3},{"trial_n":109,"span":2,"encoder":"38","distractor":"48","target":"absent","response":"absent","rt":"2441.1999999285","correct":true,"confidence":4},{"trial_n":110,"span":3,"encoder":"999","distractor":"799","target":"absent","response":"absent","rt":"5761.3000000715","correct":true,"confidence":3},{"trial_n":111,"span":3,"encoder":"291","distractor":"491","target":"present","response":"present","rt":"1595.6000000238","correct":true,"confidence":3},{"trial_n":112,"span":4,"encoder":"7912","distractor":"0912","target":"absent","response":"absent","rt":"2283.1000000238","correct":true,"confidence":2},{"trial_n":113,"span":4,"encoder":"8742","distractor":"8744","target":"absent","response":"absent","rt":"2206","correct":true,"confidence":5},{"trial_n":114,"span":5,"encoder":"03586","distractor":"03556","target":"absent","response":"absent","rt":"2740.2000000477","correct":true,"confidence":5},{"trial_n":115,"span":5,"encoder":"03556","distractor":"03856","target":"present","response":"absent","rt":"5678.2000000477","correct":false,"confidence":4},{"trial_n":116,"span":4,"encoder":"7092","distractor":"7090","target":"present","response":"present","rt":"1430","correct":true,"confidence":3},{"trial_n":117,"span":4,"encoder":"7821","distractor":"7881","target":"absent","response":"absent","rt":"1257.7000000477","correct":true,"confidence":3},{"trial_n":118,"span":5,"encoder":"74526","distractor":"74522","target":"present","response":"present","rt":"2672.7000000477","correct":true,"confidence":3},{"trial_n":119,"span":5,"encoder":"29931","distractor":"29935","target":"present","response":"present","rt":"1575.7000000477","correct":true,"confidence":5},{"trial_n":120,"span":6,"encoder":"908649","distractor":"908249","target":"absent","response":"absent","rt":"3540.6000000238","correct":true,"confidence":2},{"trial_n":121,"span":6,"encoder":"538842","distractor":"538849","target":"present","response":"present","rt":"2752.2999999523","correct":true,"confidence":2},{"trial_n":122,"span":7,"encoder":"5161226","distractor":"7161226","target":"absent","response":"present","rt":"1049.9000000954","correct":false,"confidence":4},{"trial_n":123,"span":6,"encoder":"696082","distractor":"698082","target":"absent","response":"present","rt":"937.60000002384","correct":false,"confidence":4},{"trial_n":124,"span":5,"encoder":"28048","distractor":"78048","target":"present","response":"present","rt":"1200.2000000477","correct":true,"confidence":3},{"trial_n":125,"span":5,"encoder":"95298","distractor":"95218","target":"absent","response":"absent","rt":"1370.5","correct":true,"confidence":4},{"trial_n":126,"span":6,"encoder":"210443","distractor":"200443","target":"present","response":"absent","rt":"523.80000007153","correct":false,"confidence":2},{"trial_n":127,"span":5,"encoder":"92133","distractor":"94133","target":"present","response":"present","rt":"1232.6000000238","correct":true,"confidence":3},{"trial_n":128,"span":5,"encoder":"68617","distractor":"88617","target":"absent","response":"absent","rt":"1382","correct":true,"confidence":4},{"trial_n":129,"span":6,"encoder":"504080","distractor":"404080","target":"present","response":"absent","rt":"1381.1000000238","correct":false,"confidence":4},{"trial_n":130,"span":5,"encoder":"54653","distractor":"54633","target":"present","response":"present","rt":"987.20000004768","correct":true,"confidence":3},{"trial_n":131,"span":5,"encoder":"78474","distractor":"48474","target":"present","response":"present","rt":"2791.0999999046","correct":true,"confidence":4},{"trial_n":132,"span":6,"encoder":"473936","distractor":"474936","target":"absent","response":"present","rt":"1509.5","correct":false,"confidence":3},{"trial_n":133,"span":5,"encoder":"06769","distractor":"36769","target":"present","response":"absent","rt":"1078.6000000238","correct":false,"confidence":4},{"trial_n":134,"span":4,"encoder":"2866","distractor":"4866","target":"absent","response":"present","rt":"891.10000002384","correct":false,"confidence":3},{"trial_n":135,"span":3,"encoder":"035","distractor":"045","target":"absent","response":"present","rt":"1586.2999999523","correct":false,"confidence":1},{"trial_n":136,"span":2,"encoder":"72","distractor":"70","target":"present","response":"present","rt":"1988.1999999285","correct":true,"confidence":1},{"trial_n":137,"span":2,"encoder":"59","distractor":"53","target":"present","response":"present","rt":"1163.1000000238","correct":true,"confidence":5},{"trial_n":138,"span":3,"encoder":"113","distractor":"103","target":"absent","response":"absent","rt":"2741.6000000238","correct":true,"confidence":5},{"trial_n":139,"span":3,"encoder":"481","distractor":"421","target":"absent","response":"absent","rt":"1667.1000000238","correct":true,"confidence":5},{"trial_n":140,"span":4,"encoder":"8478","distractor":"8418","target":"absent","response":"absent","rt":"1976.1999999285","correct":true,"confidence":5}]