[{"trial_n":1,"span":8,"encoder":"80537230","distractor":"80567230","target":"present","response":"present","rt":"1920.599999994","correct":true,"confidence":-1},{"trial_n":2,"span":8,"encoder":"57665116","distractor":"52665116","target":"present","response":"present","rt":"1682.900000006","correct":true,"confidence":-1},{"trial_n":3,"span":10,"encoder":"5940588472","distractor":"5940588372","target":"absent","response":"present","rt":"1001.599999994","correct":false,"confidence":-1},{"trial_n":4,"span":8,"encoder":"30218212","distractor":"30518212","target":"absent","response":"present","rt":"788.5","correct":false,"confidence":-1},{"trial_n":5,"span":6,"encoder":"316629","distractor":"116629","target":"present","response":"absent","rt":"1328.5","correct":false,"confidence":-1},{"trial_n":6,"span":4,"encoder":"3878","distractor":"3872","target":"absent","response":"absent","rt":"13209.899999976","correct":true,"confidence":-1},{"trial_n":7,"span":4,"encoder":"6560","distractor":"6500","target":"absent","response":"present","rt":"2617.3000000119","correct":false,"confidence":-1},{"trial_n":8,"span":2,"encoder":"74","distractor":"71","target":"present","response":"present","rt":"1839.599999994","correct":true,"confidence":-1},{"trial_n":9,"span":2,"encoder":"29","distractor":"26","target":"absent","response":"absent","rt":"1562.3000000119","correct":true,"confidence":-1},{"trial_n":10,"span":4,"encoder":"0718","distractor":"0768","target":"present","response":"present","rt":"1723.2000000179","correct":true,"confidence":-1},{"trial_n":11,"span":4,"encoder":"4763","distractor":"4263","target":"absent","response":"absent","rt":"2981.2999999821","correct":true,"confidence":-1},{"trial_n":12,"span":5,"encoder":"90590","distractor":"96590","target":"present","response":"present","rt":"1297.400000006","correct":true,"confidence":-1},{"trial_n":13,"span":5,"encoder":"40481","distractor":"40486","target":"present","response":"present","rt":"1225.599999994","correct":true,"confidence":-1},{"trial_n":14,"span":6,"encoder":"385347","distractor":"380347","target":"absent","response":"present","rt":"868.79999998212","correct":false,"confidence":-1},{"trial_n":15,"span":5,"encoder":"89380","distractor":"89360","target":"present","response":"present","rt":"2170.099999994","correct":true,"confidence":-1},{"trial_n":16,"span":5,"encoder":"27846","distractor":"27806","target":"absent","response":"absent","rt":"2539.400000006","correct":true,"confidence":-1},{"trial_n":17,"span":6,"encoder":"646211","distractor":"640211","target":"present","response":"present","rt":"1463.400000006","correct":true,"confidence":-1},{"trial_n":18,"span":6,"encoder":"517477","distractor":"517475","target":"present","response":"absent","rt":"4596.8999999762","correct":false,"confidence":-1},{"trial_n":19,"span":5,"encoder":"77850","distractor":"78850","target":"absent","response":"absent","rt":"2406.2999999821","correct":true,"confidence":-1},{"trial_n":20,"span":5,"encoder":"20283","distractor":"29283","target":"present","response":"present","rt":"1281.599999994","correct":true,"confidence":-1},{"trial_n":21,"span":6,"encoder":"004697","distractor":"007697","target":"present","response":"present","rt":"2826.2999999821","correct":true,"confidence":5},{"trial_n":22,"span":6,"encoder":"330500","distractor":"350500","target":"present","response":"present","rt":"2064.6999999881","correct":true,"confidence":5},{"trial_n":23,"span":7,"encoder":"1781085","distractor":"1781885","target":"absent","response":"absent","rt":"1943.3000000119","correct":true,"confidence":5},{"trial_n":24,"span":7,"encoder":"9419737","distractor":"9409737","target":"absent","response":"absent","rt":"1651.2999999821","correct":true,"confidence":5},{"trial_n":25,"span":8,"encoder":"46087380","distractor":"46077380","target":"present","response":"present","rt":"1590.2999999821","correct":true,"confidence":5},{"trial_n":26,"span":8,"encoder":"44244245","distractor":"44244045","target":"present","response":"present","rt":"2413.6999999881","correct":true,"confidence":5},{"trial_n":27,"span":9,"encoder":"089176441","distractor":"089179441","target":"present","response":"present","rt":"1079.1000000238","correct":true,"confidence":5},{"trial_n":28,"span":9,"encoder":"437612434","distractor":"437615434","target":"absent","response":"absent","rt":"2899.2000000179","correct":true,"confidence":5},{"trial_n":29,"span":10,"encoder":"0205146694","distractor":"0205126694","target":"present","response":"absent","rt":"4098","correct":false,"confidence":5},{"trial_n":30,"span":9,"encoder":"703899299","distractor":"703896299","target":"present","response":"present","rt":"1561.900000006","correct":true,"confidence":5},{"trial_n":31,"span":9,"encoder":"686860531","distractor":"886860531","target":"absent","response":"absent","rt":"1824.5","correct":true,"confidence":5},{"trial_n":32,"span":10,"encoder":"2853914909","distractor":"2853914939","target":"present","response":"absent","rt":"1445.599999994","correct":false,"confidence":5},{"trial_n":33,"span":9,"encoder":"757151333","distractor":"757151303","target":"present","response":"present","rt":"1633","correct":true,"confidence":5},{"trial_n":34,"span":9,"encoder":"496595437","distractor":"496595447","target":"present","response":"present","rt":"1702.3000000119","correct":true,"confidence":5},{"trial_n":35,"span":10,"encoder":"9212341049","distractor":"0212341049","target":"absent","response":"present","rt":"1317.1999999881","correct":false,"confidence":5},{"trial_n":36,"span":9,"encoder":"280970348","distractor":"280370348","target":"absent","response":"present","rt":"2272.1000000238","correct":false,"confidence":5},{"trial_n":37,"span":8,"encoder":"23952548","distractor":"23954548","target":"present","response":"absent","rt":"1809.6000000238","correct":false,"confidence":5},{"trial_n":38,"span":7,"encoder":"7987041","distractor":"7287041","target":"absent","response":"present","rt":"1563.2999999821","correct":false,"confidence":5},{"trial_n":39,"span":6,"encoder":"348703","distractor":"348709","target":"present","response":"present","rt":"2071.400000006","correct":true,"confidence":5},{"trial_n":40,"span":6,"encoder":"834406","distractor":"834476","target":"present","response":"present","rt":"1575.5","correct":true,"confidence":5},{"trial_n":41,"span":7,"encoder":"4379403","distractor":"4372403","target":"present","response":"present","rt":"2720.400000006","correct":true,"confidence":5},{"trial_n":42,"span":7,"encoder":"4754495","distractor":"4654495","target":"absent","response":"absent","rt":"2085.900000006","correct":true,"confidence":5},{"trial_n":43,"span":8,"encoder":"51813958","distractor":"41813958","target":"present","response":"present","rt":"1350","correct":true,"confidence":5},{"trial_n":44,"span":8,"encoder":"28014908","distractor":"21014908","target":"absent","response":"present","rt":"1990.7000000179","correct":false,"confidence":5},{"trial_n":45,"span":7,"encoder":"5192167","distractor":"5192137","target":"absent","response":"present","rt":"1519.900000006","correct":false,"confidence":5},{"trial_n":46,"span":6,"encoder":"751465","distractor":"751765","target":"absent","response":"present","rt":"1465.6999999881","correct":false,"confidence":5},{"trial_n":47,"span":5,"encoder":"28872","distractor":"26872","target":"absent","response":"present","rt":"1627.599999994","correct":false,"confidence":5},{"trial_n":48,"span":4,"encoder":"8258","distractor":"9258","target":"present","response":"present","rt":"1358.8000000119","correct":true,"confidence":5},{"trial_n":49,"span":4,"encoder":"8696","distractor":"8699","target":"present","response":"present","rt":"1931.599999994","correct":true,"confidence":5},{"trial_n":50,"span":5,"encoder":"34593","distractor":"34533","target":"present","response":"present","rt":"1303.099999994","correct":true,"confidence":5},{"trial_n":51,"span":5,"encoder":"03794","distractor":"93794","target":"absent","response":"absent","rt":"1304.400000006","correct":true,"confidence":5},{"trial_n":52,"span":6,"encoder":"656091","distractor":"656591","target":"present","response":"present","rt":"1614.8000000119","correct":true,"confidence":5},{"trial_n":53,"span":6,"encoder":"881648","distractor":"881643","target":"present","response":"present","rt":"2782.6000000238","correct":true,"confidence":5},{"trial_n":54,"span":7,"encoder":"7005349","distractor":"4005349","target":"absent","response":"present","rt":"2167.599999994","correct":false,"confidence":5},{"trial_n":55,"span":6,"encoder":"935681","distractor":"935687","target":"absent","response":"absent","rt":"1329.7999999821","correct":true,"confidence":5},{"trial_n":56,"span":6,"encoder":"747586","distractor":"547586","target":"absent","response":"present","rt":"2246.8000000119","correct":false,"confidence":5},{"trial_n":57,"span":5,"encoder":"05200","distractor":"35200","target":"absent","response":"present","rt":"2428.099999994","correct":false,"confidence":5},{"trial_n":58,"span":4,"encoder":"9002","distractor":"9062","target":"absent","response":"absent","rt":"1504.599999994","correct":true,"confidence":5},{"trial_n":59,"span":4,"encoder":"3944","distractor":"3946","target":"absent","response":"absent","rt":"1221.400000006","correct":true,"confidence":5},{"trial_n":60,"span":5,"encoder":"52081","distractor":"52091","target":"absent","response":"absent","rt":"1414.099999994","correct":true,"confidence":5},{"trial_n":61,"span":5,"encoder":"78771","distractor":"78791","target":"absent","response":"absent","rt":"2930","correct":true,"confidence":5},{"trial_n":62,"span":6,"encoder":"551440","distractor":"551445","target":"absent","response":"absent","rt":"1754.3999999762","correct":true,"confidence":5},{"trial_n":63,"span":6,"encoder":"983436","distractor":"983636","target":"absent","response":"present","rt":"3347.7999999821","correct":false,"confidence":5},{"trial_n":64,"span":5,"encoder":"88479","distractor":"98479","target":"present","response":"present","rt":"2747.7000000179","correct":true,"confidence":5},{"trial_n":65,"span":5,"encoder":"28417","distractor":"21417","target":"present","response":"present","rt":"1948.3000000119","correct":true,"confidence":5},{"trial_n":66,"span":6,"encoder":"220557","distractor":"220551","target":"absent","response":"absent","rt":"3005.3000000119","correct":true,"confidence":5},{"trial_n":67,"span":6,"encoder":"747614","distractor":"747214","target":"present","response":"absent","rt":"2374","correct":false,"confidence":5},{"trial_n":68,"span":5,"encoder":"02879","distractor":"02869","target":"present","response":"present","rt":"1845","correct":true,"confidence":5},{"trial_n":69,"span":5,"encoder":"88163","distractor":"88263","target":"absent","response":"absent","rt":"4068.900000006","correct":true,"confidence":5},{"trial_n":70,"span":6,"encoder":"365882","distractor":"365862","target":"present","response":"present","rt":"3043.900000006","correct":true,"confidence":5},{"trial_n":71,"span":8,"encoder":"51506024","distractor":"57506024","target":"present","response":"present","rt":"2907.5","correct":true,"confidence":-1},{"trial_n":72,"span":8,"encoder":"04656523","distractor":"04656623","target":"present","response":"present","rt":"2353.5","correct":true,"confidence":-1},{"trial_n":73,"span":9,"encoder":"955986784","distractor":"955980784","target":"absent","response":"present","rt":"2405.3999999762","correct":false,"confidence":-1},{"trial_n":74,"span":8,"encoder":"66412004","distractor":"66412044","target":"absent","response":"absent","rt":"1964","correct":true,"confidence":-1},{"trial_n":75,"span":8,"encoder":"60107997","distractor":"60157997","target":"present","response":"absent","rt":"1162.400000006","correct":false,"confidence":-1},{"trial_n":76,"span":7,"encoder":"0570946","distractor":"9570946","target":"present","response":"present","rt":"1757.6999999881","correct":true,"confidence":-1},{"trial_n":77,"span":7,"encoder":"2214058","distractor":"2014058","target":"present","response":"present","rt":"2914","correct":true,"confidence":-1},{"trial_n":78,"span":8,"encoder":"24230302","distractor":"25230302","target":"present","response":"present","rt":"870.90000000596","correct":true,"confidence":-1},{"trial_n":79,"span":8,"encoder":"76613766","distractor":"76663766","target":"present","response":"absent","rt":"4463.900000006","correct":false,"confidence":-1},{"trial_n":80,"span":7,"encoder":"0243258","distractor":"0543258","target":"absent","response":"present","rt":"1509.1999999881","correct":false,"confidence":-1},{"trial_n":81,"span":6,"encoder":"091298","distractor":"031298","target":"absent","response":"present","rt":"2208.900000006","correct":false,"confidence":-1},{"trial_n":82,"span":5,"encoder":"89258","distractor":"89238","target":"absent","response":"absent","rt":"1200","correct":true,"confidence":-1},{"trial_n":83,"span":5,"encoder":"07186","distractor":"87186","target":"absent","response":"absent","rt":"2200","correct":true,"confidence":-1},{"trial_n":84,"span":6,"encoder":"239506","distractor":"232506","target":"present","response":"present","rt":"3398.599999994","correct":true,"confidence":-1},{"trial_n":85,"span":6,"encoder":"622890","distractor":"622790","target":"absent","response":"present","rt":"1748.2999999821","correct":false,"confidence":-1},{"trial_n":86,"span":5,"encoder":"25372","distractor":"25370","target":"absent","response":"absent","rt":"2611","correct":true,"confidence":-1},{"trial_n":87,"span":5,"encoder":"40231","distractor":"40230","target":"absent","response":"absent","rt":"219","correct":true,"confidence":-1},{"trial_n":88,"span":6,"encoder":"323573","distractor":"323073","target":"present","response":"absent","rt":"266.5","correct":false,"confidence":-1},{"trial_n":89,"span":5,"encoder":"57324","distractor":"57524","target":"absent","response":"absent","rt":"299.80000001192","correct":true,"confidence":-1},{"trial_n":90,"span":5,"encoder":"27541","distractor":"27941","target":"absent","response":"absent","rt":"239.59999999404","correct":true,"confidence":-1},{"trial_n":91,"span":6,"encoder":"499896","distractor":"499899","target":"present","response":"absent","rt":"374.09999999404","correct":false,"confidence":5},{"trial_n":92,"span":5,"encoder":"14979","distractor":"12979","target":"present","response":"present","rt":"1422.8000000119","correct":true,"confidence":4},{"trial_n":93,"span":5,"encoder":"45790","distractor":"40790","target":"present","response":"absent","rt":"635.5","correct":false,"confidence":4},{"trial_n":94,"span":4,"encoder":"5700","distractor":"5720","target":"present","response":"present","rt":"1263.7000000179","correct":true,"confidence":4},{"trial_n":95,"span":4,"encoder":"3265","distractor":"3295","target":"absent","response":"absent","rt":"2350.5","correct":true,"confidence":4},{"trial_n":96,"span":5,"encoder":"01717","distractor":"21717","target":"absent","response":"absent","rt":"1751.6999999881","correct":true,"confidence":5},{"trial_n":97,"span":5,"encoder":"36506","distractor":"36536","target":"present","response":"present","rt":"1997.099999994","correct":true,"confidence":5},{"trial_n":98,"span":6,"encoder":"805485","distractor":"895485","target":"present","response":"present","rt":"6453.900000006","correct":true,"confidence":4},{"trial_n":99,"span":6,"encoder":"288970","distractor":"288973","target":"absent","response":"absent","rt":"2138.5","correct":true,"confidence":5},{"trial_n":100,"span":7,"encoder":"4157209","distractor":"4157289","target":"absent","response":"absent","rt":"1993.2000000179","correct":true,"confidence":5},{"trial_n":101,"span":7,"encoder":"1283674","distractor":"1263674","target":"present","response":"present","rt":"2242.3000000119","correct":true,"confidence":5},{"trial_n":102,"span":8,"encoder":"71403230","distractor":"71403270","target":"absent","response":"absent","rt":"2607.3000000119","correct":true,"confidence":5},{"trial_n":103,"span":8,"encoder":"02936437","distractor":"02936337","target":"absent","response":"present","rt":"2255.8000000119","correct":false,"confidence":5},{"trial_n":104,"span":7,"encoder":"9531655","distractor":"8531655","target":"present","response":"present","rt":"7607","correct":true,"confidence":5},{"trial_n":105,"span":7,"encoder":"0489725","distractor":"1489725","target":"present","response":"present","rt":"6195.8000000119","correct":true,"confidence":5},{"trial_n":106,"span":8,"encoder":"58177295","distractor":"98177295","target":"present","response":"present","rt":"2501.900000006","correct":true,"confidence":5},{"trial_n":107,"span":8,"encoder":"16220308","distractor":"16260308","target":"absent","response":"present","rt":"1268.3000000119","correct":false,"confidence":5},{"trial_n":108,"span":7,"encoder":"7639703","distractor":"7619703","target":"absent","response":"present","rt":"10008.599999994","correct":false,"confidence":5},{"trial_n":109,"span":6,"encoder":"597556","distractor":"597558","target":"absent","response":"absent","rt":"1921","correct":true,"confidence":5},{"trial_n":110,"span":6,"encoder":"439400","distractor":"433400","target":"absent","response":"absent","rt":"1902.7000000179","correct":true,"confidence":5},{"trial_n":111,"span":7,"encoder":"2609409","distractor":"2699409","target":"absent","response":"absent","rt":"4434","correct":true,"confidence":5},{"trial_n":112,"span":7,"encoder":"7760097","distractor":"7710097","target":"absent","response":"present","rt":"3740.400000006","correct":false,"confidence":5},{"trial_n":113,"span":6,"encoder":"578621","distractor":"078621","target":"absent","response":"absent","rt":"4007.900000006","correct":true,"confidence":5},{"trial_n":114,"span":6,"encoder":"129524","distractor":"129584","target":"absent","response":"present","rt":"3314","correct":false,"confidence":5},{"trial_n":115,"span":5,"encoder":"75675","distractor":"75655","target":"absent","response":"present","rt":"2576.1999999881","correct":false,"confidence":5},{"trial_n":116,"span":4,"encoder":"8393","distractor":"5393","target":"present","response":"absent","rt":"3992.900000006","correct":false,"confidence":5},{"trial_n":117,"span":3,"encoder":"907","distractor":"902","target":"present","response":"present","rt":"1774","correct":true,"confidence":5},{"trial_n":118,"span":3,"encoder":"942","distractor":"842","target":"present","response":"present","rt":"1661","correct":true,"confidence":5},{"trial_n":119,"span":4,"encoder":"1099","distractor":"3099","target":"absent","response":"absent","rt":"1611.2999999821","correct":true,"confidence":5},{"trial_n":120,"span":4,"encoder":"0486","distractor":"4486","target":"present","response":"present","rt":"3298.599999994","correct":true,"confidence":5},{"trial_n":121,"span":5,"encoder":"24207","distractor":"24201","target":"absent","response":"absent","rt":"1961.099999994","correct":true,"confidence":5},{"trial_n":122,"span":5,"encoder":"89806","distractor":"89803","target":"present","response":"present","rt":"2475.599999994","correct":true,"confidence":5},{"trial_n":123,"span":6,"encoder":"225007","distractor":"225057","target":"present","response":"absent","rt":"2845.400000006","correct":false,"confidence":5},{"trial_n":124,"span":5,"encoder":"66247","distractor":"56247","target":"absent","response":"absent","rt":"2843.6999999881","correct":true,"confidence":5},{"trial_n":125,"span":5,"encoder":"89319","distractor":"09319","target":"present","response":"present","rt":"2055.3000000119","correct":true,"confidence":5},{"trial_n":126,"span":6,"encoder":"678312","distractor":"078312","target":"present","response":"present","rt":"1286.1999999881","correct":true,"confidence":5},{"trial_n":127,"span":6,"encoder":"643011","distractor":"643811","target":"absent","response":"absent","rt":"1779","correct":true,"confidence":5},{"trial_n":128,"span":7,"encoder":"6872703","distractor":"6872733","target":"absent","response":"present","rt":"6525.099999994","correct":false,"confidence":5},{"trial_n":129,"span":6,"encoder":"373488","distractor":"323488","target":"present","response":"present","rt":"2369.2000000179","correct":true,"confidence":5},{"trial_n":130,"span":6,"encoder":"835127","distractor":"855127","target":"present","response":"present","rt":"2096.900000006","correct":true,"confidence":5},{"trial_n":131,"span":7,"encoder":"7329063","distractor":"7327063","target":"present","response":"present","rt":"2962.599999994","correct":true,"confidence":5},{"trial_n":132,"span":7,"encoder":"4988838","distractor":"4989838","target":"present","response":"present","rt":"1953.1999999881","correct":true,"confidence":5},{"trial_n":133,"span":8,"encoder":"55000689","distractor":"55000189","target":"absent","response":"present","rt":"2342.5","correct":false,"confidence":5},{"trial_n":134,"span":7,"encoder":"9782554","distractor":"9782553","target":"present","response":"present","rt":"3288.8000000119","correct":true,"confidence":5},{"trial_n":135,"span":7,"encoder":"2468777","distractor":"2463777","target":"present","response":"present","rt":"4509.8000000119","correct":true,"confidence":5},{"trial_n":136,"span":8,"encoder":"04179426","distractor":"08179426","target":"present","response":"present","rt":"267675.5","correct":true,"confidence":5},{"trial_n":137,"span":8,"encoder":"66796587","distractor":"66796487","target":"absent","response":"absent","rt":"2119.7999999821","correct":true,"confidence":5},{"trial_n":138,"span":9,"encoder":"721298688","distractor":"791298688","target":"absent","response":"absent","rt":"2261.2999999821","correct":true,"confidence":5},{"trial_n":139,"span":9,"encoder":"692748798","distractor":"692748788","target":"present","response":"absent","rt":"2868.5","correct":false,"confidence":5},{"trial_n":140,"span":8,"encoder":"92258674","distractor":"92258678","target":"present","response":"absent","rt":"11373.800000012","correct":false,"confidence":5}]