[{"trial_n":1,"span":8,"encoder":"85986283","distractor":"85981283","target":"present","response":"present","rt":"5169.1999999285","correct":true,"confidence":-1},{"trial_n":2,"span":8,"encoder":"91842273","distractor":"91842263","target":"present","response":"present","rt":"518.39999997616","correct":true,"confidence":-1},{"trial_n":3,"span":10,"encoder":"5733034903","distractor":"5733034003","target":"absent","response":"absent","rt":"1840.2999999523","correct":true,"confidence":-1},{"trial_n":4,"span":10,"encoder":"7047703198","distractor":"7097703198","target":"absent","response":"present","rt":"1625.1000000238","correct":false,"confidence":-1},{"trial_n":5,"span":8,"encoder":"93535039","distractor":"93575039","target":"present","response":"present","rt":"1256.7000000477","correct":true,"confidence":-1},{"trial_n":6,"span":8,"encoder":"90421635","distractor":"90423635","target":"absent","response":"present","rt":"750.39999997616","correct":false,"confidence":-1},{"trial_n":7,"span":6,"encoder":"772261","distractor":"772561","target":"present","response":"absent","rt":"1035.6000000238","correct":false,"confidence":-1},{"trial_n":8,"span":4,"encoder":"8401","distractor":"8408","target":"present","response":"absent","rt":"954.29999995232","correct":false,"confidence":-1},{"trial_n":9,"span":2,"encoder":"70","distractor":"90","target":"absent","response":"absent","rt":"758.70000004768","correct":true,"confidence":-1},{"trial_n":10,"span":2,"encoder":"11","distractor":"01","target":"absent","response":"present","rt":"1504.6999999285","correct":false,"confidence":-1},{"trial_n":11,"span":2,"encoder":"82","distractor":"22","target":"present","response":"present","rt":"1022.8999999762","correct":true,"confidence":-1},{"trial_n":12,"span":2,"encoder":"17","distractor":"19","target":"present","response":"present","rt":"1058.3999999762","correct":true,"confidence":-1},{"trial_n":13,"span":3,"encoder":"195","distractor":"115","target":"present","response":"present","rt":"1099.6999999285","correct":true,"confidence":-1},{"trial_n":14,"span":3,"encoder":"991","distractor":"990","target":"present","response":"absent","rt":"4660.6000000238","correct":false,"confidence":-1},{"trial_n":15,"span":2,"encoder":"59","distractor":"57","target":"present","response":"present","rt":"861.79999995232","correct":true,"confidence":-1},{"trial_n":16,"span":2,"encoder":"40","distractor":"49","target":"absent","response":"absent","rt":"907.5","correct":true,"confidence":-1},{"trial_n":17,"span":3,"encoder":"585","distractor":"385","target":"present","response":"present","rt":"1040.7000000477","correct":true,"confidence":-1},{"trial_n":18,"span":3,"encoder":"214","distractor":"212","target":"present","response":"present","rt":"952.40000009537","correct":true,"confidence":-1},{"trial_n":19,"span":4,"encoder":"2455","distractor":"2405","target":"absent","response":"absent","rt":"881.39999997616","correct":true,"confidence":-1},{"trial_n":20,"span":4,"encoder":"7662","distractor":"7062","target":"absent","response":"absent","rt":"1110.1000000238","correct":true,"confidence":-1},{"trial_n":21,"span":5,"encoder":"40987","distractor":"40982","target":"present","response":"present","rt":"1036.8999999762","correct":true,"confidence":3},{"trial_n":22,"span":5,"encoder":"25798","distractor":"65798","target":"absent","response":"present","rt":"1235.7000000477","correct":false,"confidence":3},{"trial_n":23,"span":4,"encoder":"7639","distractor":"4639","target":"present","response":"absent","rt":"1350.8999999762","correct":false,"confidence":3},{"trial_n":24,"span":3,"encoder":"423","distractor":"323","target":"present","response":"present","rt":"1582.6000000238","correct":true,"confidence":3},{"trial_n":25,"span":3,"encoder":"060","distractor":"090","target":"present","response":"present","rt":"1814.6000000238","correct":true,"confidence":4},{"trial_n":26,"span":4,"encoder":"3797","distractor":"3798","target":"absent","response":"absent","rt":"2325.3999999762","correct":true,"confidence":4},{"trial_n":27,"span":4,"encoder":"7370","distractor":"7371","target":"absent","response":"absent","rt":"4350","correct":true,"confidence":3},{"trial_n":28,"span":5,"encoder":"75803","distractor":"95803","target":"absent","response":"present","rt":"1345.8999999762","correct":false,"confidence":3},{"trial_n":29,"span":4,"encoder":"0306","distractor":"0366","target":"absent","response":"absent","rt":"2198.5","correct":true,"confidence":3},{"trial_n":30,"span":4,"encoder":"7501","distractor":"7551","target":"present","response":"present","rt":"986.29999995232","correct":true,"confidence":3},{"trial_n":31,"span":5,"encoder":"18835","distractor":"18825","target":"absent","response":"absent","rt":"1225.8999999762","correct":true,"confidence":1},{"trial_n":32,"span":5,"encoder":"64693","distractor":"64593","target":"present","response":"present","rt":"3299.2000000477","correct":true,"confidence":1},{"trial_n":33,"span":6,"encoder":"027976","distractor":"027972","target":"present","response":"present","rt":"4681.1999999285","correct":true,"confidence":2},{"trial_n":34,"span":6,"encoder":"959912","distractor":"953912","target":"present","response":"absent","rt":"5383.5","correct":false,"confidence":3},{"trial_n":35,"span":5,"encoder":"75929","distractor":"75926","target":"present","response":"present","rt":"880.79999995232","correct":true,"confidence":3},{"trial_n":36,"span":5,"encoder":"71479","distractor":"71779","target":"absent","response":"present","rt":"6008.2999999523","correct":false,"confidence":3},{"trial_n":37,"span":4,"encoder":"9086","distractor":"9081","target":"present","response":"present","rt":"4850.7000000477","correct":true,"confidence":4},{"trial_n":38,"span":4,"encoder":"6301","distractor":"6300","target":"absent","response":"absent","rt":"33677","correct":true,"confidence":1},{"trial_n":39,"span":5,"encoder":"71514","distractor":"71814","target":"absent","response":"absent","rt":"41705.299999952","correct":true,"confidence":1},{"trial_n":40,"span":5,"encoder":"37488","distractor":"37418","target":"absent","response":"absent","rt":"2734.8999999762","correct":true,"confidence":4},{"trial_n":41,"span":6,"encoder":"751484","distractor":"751584","target":"present","response":"present","rt":"1899.2999999523","correct":true,"confidence":3},{"trial_n":42,"span":6,"encoder":"205529","distractor":"205569","target":"present","response":"present","rt":"2062.1999999285","correct":true,"confidence":1},{"trial_n":43,"span":7,"encoder":"7551186","distractor":"7551166","target":"absent","response":"present","rt":"349.39999997616","correct":false,"confidence":1},{"trial_n":44,"span":6,"encoder":"576772","distractor":"577772","target":"absent","response":"present","rt":"539.19999992847","correct":false,"confidence":1},{"trial_n":45,"span":5,"encoder":"34147","distractor":"34143","target":"present","response":"present","rt":"405.20000004768","correct":true,"confidence":1},{"trial_n":46,"span":5,"encoder":"03031","distractor":"53031","target":"absent","response":"present","rt":"489.10000002384","correct":false,"confidence":1},{"trial_n":47,"span":4,"encoder":"1525","distractor":"1520","target":"present","response":"present","rt":"340.10000002384","correct":true,"confidence":1},{"trial_n":48,"span":4,"encoder":"1817","distractor":"1811","target":"present","response":"present","rt":"307.70000004768","correct":true,"confidence":1},{"trial_n":49,"span":5,"encoder":"57310","distractor":"57360","target":"present","response":"present","rt":"255","correct":true,"confidence":1},{"trial_n":50,"span":5,"encoder":"30004","distractor":"30008","target":"present","response":"present","rt":"550.30000007153","correct":true,"confidence":1},{"trial_n":51,"span":6,"encoder":"013048","distractor":"713048","target":"absent","response":"present","rt":"366.39999997616","correct":false,"confidence":1},{"trial_n":52,"span":5,"encoder":"15052","distractor":"45052","target":"present","response":"present","rt":"285.89999997616","correct":true,"confidence":1},{"trial_n":53,"span":5,"encoder":"45807","distractor":"45808","target":"present","response":"present","rt":"326.20000004768","correct":true,"confidence":1},{"trial_n":54,"span":6,"encoder":"285941","distractor":"281941","target":"absent","response":"present","rt":"301.5","correct":false,"confidence":1},{"trial_n":55,"span":5,"encoder":"69032","distractor":"69932","target":"absent","response":"present","rt":"461.69999992847","correct":false,"confidence":1},{"trial_n":56,"span":4,"encoder":"4200","distractor":"4280","target":"absent","response":"present","rt":"364.5","correct":false,"confidence":1},{"trial_n":57,"span":3,"encoder":"358","distractor":"758","target":"absent","response":"present","rt":"699.30000007153","correct":false,"confidence":1},{"trial_n":58,"span":2,"encoder":"34","distractor":"64","target":"absent","response":"present","rt":"1072.2000000477","correct":false,"confidence":1},{"trial_n":59,"span":2,"encoder":"74","distractor":"72","target":"present","response":"present","rt":"1415.8000000715","correct":true,"confidence":1},{"trial_n":60,"span":2,"encoder":"14","distractor":"74","target":"present","response":"present","rt":"3119.7000000477","correct":true,"confidence":1},{"trial_n":61,"span":3,"encoder":"139","distractor":"133","target":"absent","response":"present","rt":"1341.2999999523","correct":false,"confidence":1},{"trial_n":62,"span":2,"encoder":"05","distractor":"95","target":"absent","response":"present","rt":"459.19999992847","correct":false,"confidence":1},{"trial_n":63,"span":2,"encoder":"69","distractor":"09","target":"absent","response":"present","rt":"435.5","correct":false,"confidence":1},{"trial_n":64,"span":2,"encoder":"00","distractor":"04","target":"absent","response":"present","rt":"414.89999997616","correct":false,"confidence":1},{"trial_n":65,"span":2,"encoder":"02","distractor":"00","target":"present","response":"present","rt":"974.70000004768","correct":true,"confidence":1},{"trial_n":66,"span":2,"encoder":"33","distractor":"35","target":"absent","response":"absent","rt":"393","correct":true,"confidence":1},{"trial_n":67,"span":3,"encoder":"691","distractor":"651","target":"absent","response":"absent","rt":"715.39999997616","correct":true,"confidence":1},{"trial_n":68,"span":3,"encoder":"104","distractor":"108","target":"absent","response":"absent","rt":"260.10000002384","correct":true,"confidence":1},{"trial_n":69,"span":4,"encoder":"5939","distractor":"5439","target":"present","response":"absent","rt":"419.89999997616","correct":false,"confidence":1},{"trial_n":70,"span":3,"encoder":"545","distractor":"595","target":"present","response":"absent","rt":"2215.2999999523","correct":false,"confidence":1},{"trial_n":71,"span":8,"encoder":"05673447","distractor":"75673447","target":"present","response":"present","rt":"4294.3000000715","correct":true,"confidence":-1},{"trial_n":72,"span":8,"encoder":"02560533","distractor":"02560503","target":"present","response":"present","rt":"3772.2000000477","correct":true,"confidence":-1},{"trial_n":73,"span":9,"encoder":"664823745","distractor":"661823745","target":"absent","response":"present","rt":"1329.3999999762","correct":false,"confidence":-1},{"trial_n":74,"span":8,"encoder":"20768070","distractor":"40768070","target":"absent","response":"present","rt":"1977.6999999285","correct":false,"confidence":-1},{"trial_n":75,"span":7,"encoder":"5509979","distractor":"5509879","target":"present","response":"present","rt":"625.5","correct":true,"confidence":-1},{"trial_n":76,"span":7,"encoder":"4784691","distractor":"4789691","target":"present","response":"present","rt":"327.10000002384","correct":true,"confidence":-1},{"trial_n":77,"span":8,"encoder":"23385867","distractor":"23285867","target":"absent","response":"present","rt":"512.39999997616","correct":false,"confidence":-1},{"trial_n":78,"span":7,"encoder":"6081513","distractor":"9081513","target":"absent","response":"present","rt":"741.20000004768","correct":false,"confidence":-1},{"trial_n":79,"span":6,"encoder":"577525","distractor":"577535","target":"absent","response":"present","rt":"576.79999995232","correct":false,"confidence":-1},{"trial_n":80,"span":5,"encoder":"38824","distractor":"38820","target":"absent","response":"present","rt":"523.30000007153","correct":false,"confidence":-1},{"trial_n":81,"span":4,"encoder":"0056","distractor":"0856","target":"absent","response":"present","rt":"544","correct":false,"confidence":-1},{"trial_n":82,"span":3,"encoder":"569","distractor":"769","target":"absent","response":"present","rt":"1978.8999999762","correct":false,"confidence":-1},{"trial_n":83,"span":2,"encoder":"82","distractor":"84","target":"present","response":"present","rt":"556.89999997616","correct":true,"confidence":-1},{"trial_n":84,"span":2,"encoder":"64","distractor":"34","target":"present","response":"present","rt":"1771.8999999762","correct":true,"confidence":-1},{"trial_n":85,"span":3,"encoder":"013","distractor":"083","target":"absent","response":"present","rt":"630.10000002384","correct":false,"confidence":-1},{"trial_n":86,"span":2,"encoder":"70","distractor":"30","target":"absent","response":"present","rt":"841.30000007153","correct":false,"confidence":-1},{"trial_n":87,"span":2,"encoder":"94","distractor":"96","target":"present","response":"present","rt":"401.39999997616","correct":true,"confidence":-1},{"trial_n":88,"span":2,"encoder":"32","distractor":"33","target":"present","response":"present","rt":"2412.5999999046","correct":true,"confidence":-1},{"trial_n":89,"span":3,"encoder":"231","distractor":"201","target":"present","response":"present","rt":"1256.7000000477","correct":true,"confidence":-1},{"trial_n":90,"span":3,"encoder":"452","distractor":"432","target":"present","response":"present","rt":"610.70000004768","correct":true,"confidence":-1},{"trial_n":91,"span":4,"encoder":"2628","distractor":"7628","target":"present","response":"present","rt":"1516.7000000477","correct":true,"confidence":1},{"trial_n":92,"span":4,"encoder":"5178","distractor":"5778","target":"absent","response":"present","rt":"15644.600000024","correct":false,"confidence":1},{"trial_n":93,"span":3,"encoder":"089","distractor":"079","target":"absent","response":"present","rt":"565.10000002384","correct":false,"confidence":1},{"trial_n":94,"span":2,"encoder":"93","distractor":"83","target":"present","response":"present","rt":"1542.3000000715","correct":true,"confidence":1},{"trial_n":95,"span":2,"encoder":"41","distractor":"91","target":"absent","response":"present","rt":"520.20000004768","correct":false,"confidence":1},{"trial_n":96,"span":2,"encoder":"57","distractor":"17","target":"absent","response":"present","rt":"398.39999997616","correct":false,"confidence":1},{"trial_n":97,"span":2,"encoder":"61","distractor":"62","target":"present","response":"present","rt":"381","correct":true,"confidence":1},{"trial_n":98,"span":2,"encoder":"23","distractor":"29","target":"present","response":"present","rt":"624.79999995232","correct":true,"confidence":1},{"trial_n":99,"span":3,"encoder":"405","distractor":"005","target":"present","response":"present","rt":"244.80000007153","correct":true,"confidence":1},{"trial_n":100,"span":3,"encoder":"496","distractor":"493","target":"present","response":"present","rt":"348.10000002384","correct":true,"confidence":1},{"trial_n":101,"span":4,"encoder":"1758","distractor":"1458","target":"present","response":"present","rt":"402.5","correct":true,"confidence":1},{"trial_n":102,"span":4,"encoder":"5739","distractor":"9739","target":"absent","response":"present","rt":"340.79999995232","correct":false,"confidence":1},{"trial_n":103,"span":3,"encoder":"110","distractor":"112","target":"absent","response":"present","rt":"400.20000004768","correct":false,"confidence":1},{"trial_n":104,"span":2,"encoder":"97","distractor":"17","target":"absent","response":"present","rt":"562.89999997616","correct":false,"confidence":1},{"trial_n":105,"span":2,"encoder":"48","distractor":"68","target":"present","response":"present","rt":"1165.3999999762","correct":true,"confidence":1},{"trial_n":106,"span":2,"encoder":"21","distractor":"27","target":"present","response":"present","rt":"517.80000007153","correct":true,"confidence":1},{"trial_n":107,"span":3,"encoder":"315","distractor":"316","target":"present","response":"present","rt":"760.60000002384","correct":true,"confidence":1},{"trial_n":108,"span":3,"encoder":"606","distractor":"608","target":"absent","response":"present","rt":"329.39999997616","correct":false,"confidence":1},{"trial_n":109,"span":2,"encoder":"25","distractor":"65","target":"absent","response":"present","rt":"357.60000002384","correct":false,"confidence":1},{"trial_n":110,"span":2,"encoder":"52","distractor":"51","target":"present","response":"present","rt":"367.10000002384","correct":true,"confidence":1},{"trial_n":111,"span":2,"encoder":"36","distractor":"06","target":"absent","response":"present","rt":"466","correct":false,"confidence":1},{"trial_n":112,"span":2,"encoder":"95","distractor":"75","target":"present","response":"present","rt":"286.60000002384","correct":true,"confidence":1},{"trial_n":113,"span":2,"encoder":"48","distractor":"78","target":"absent","response":"present","rt":"407.70000004768","correct":false,"confidence":1},{"trial_n":114,"span":2,"encoder":"43","distractor":"44","target":"absent","response":"present","rt":"339.20000004768","correct":false,"confidence":1},{"trial_n":115,"span":2,"encoder":"60","distractor":"66","target":"absent","response":"present","rt":"286.5","correct":false,"confidence":1},{"trial_n":116,"span":2,"encoder":"09","distractor":"03","target":"present","response":"present","rt":"301.29999995232","correct":true,"confidence":1},{"trial_n":117,"span":2,"encoder":"07","distractor":"08","target":"absent","response":"present","rt":"598.5","correct":false,"confidence":1},{"trial_n":118,"span":2,"encoder":"32","distractor":"33","target":"absent","response":"present","rt":"379.70000004768","correct":false,"confidence":1},{"trial_n":119,"span":2,"encoder":"35","distractor":"95","target":"present","response":"present","rt":"341.89999997616","correct":true,"confidence":1},{"trial_n":120,"span":2,"encoder":"92","distractor":"97","target":"absent","response":"present","rt":"518.59999990463","correct":false,"confidence":1},{"trial_n":121,"span":2,"encoder":"79","distractor":"09","target":"present","response":"present","rt":"618.5","correct":true,"confidence":1},{"trial_n":122,"span":2,"encoder":"45","distractor":"44","target":"absent","response":"present","rt":"308.10000002384","correct":false,"confidence":1},{"trial_n":123,"span":2,"encoder":"76","distractor":"36","target":"present","response":"present","rt":"416","correct":true,"confidence":1},{"trial_n":124,"span":2,"encoder":"41","distractor":"40","target":"present","response":"present","rt":"250.5","correct":true,"confidence":1},{"trial_n":125,"span":3,"encoder":"863","distractor":"865","target":"present","response":"present","rt":"261.39999997616","correct":true,"confidence":1},{"trial_n":126,"span":3,"encoder":"393","distractor":"394","target":"present","response":"present","rt":"262.89999997616","correct":true,"confidence":1},{"trial_n":127,"span":4,"encoder":"7977","distractor":"7987","target":"present","response":"present","rt":"473.70000004768","correct":true,"confidence":1},{"trial_n":128,"span":4,"encoder":"0840","distractor":"0845","target":"absent","response":"present","rt":"626.19999992847","correct":false,"confidence":1},{"trial_n":129,"span":3,"encoder":"484","distractor":"404","target":"absent","response":"present","rt":"293","correct":false,"confidence":1},{"trial_n":130,"span":2,"encoder":"35","distractor":"34","target":"present","response":"present","rt":"350.60000002384","correct":true,"confidence":1},{"trial_n":131,"span":2,"encoder":"99","distractor":"69","target":"absent","response":"present","rt":"430.10000002384","correct":false,"confidence":1},{"trial_n":132,"span":2,"encoder":"10","distractor":"18","target":"present","response":"present","rt":"341.10000002384","correct":true,"confidence":1},{"trial_n":133,"span":2,"encoder":"99","distractor":"90","target":"absent","response":"present","rt":"336.5","correct":false,"confidence":1},{"trial_n":134,"span":2,"encoder":"85","distractor":"89","target":"present","response":"present","rt":"758.29999995232","correct":true,"confidence":1},{"trial_n":135,"span":2,"encoder":"06","distractor":"03","target":"absent","response":"present","rt":"683.60000002384","correct":false,"confidence":1},{"trial_n":136,"span":2,"encoder":"11","distractor":"91","target":"present","response":"present","rt":"320.69999992847","correct":true,"confidence":1},{"trial_n":137,"span":2,"encoder":"84","distractor":"44","target":"present","response":"present","rt":"428.69999992847","correct":true,"confidence":1},{"trial_n":138,"span":3,"encoder":"248","distractor":"348","target":"absent","response":"present","rt":"1659.5","correct":false,"confidence":1},{"trial_n":139,"span":2,"encoder":"71","distractor":"76","target":"absent","response":"present","rt":"527.89999997616","correct":false,"confidence":1},{"trial_n":140,"span":2,"encoder":"87","distractor":"83","target":"present","response":"present","rt":"829.60000002384","correct":true,"confidence":1}]