[{"trial_n":1,"span":8,"encoder":"79099087","distractor":"76099087","target":"present","response":"absent","rt":"50430.400000095","correct":false,"confidence":-1},{"trial_n":2,"span":6,"encoder":"205071","distractor":"201071","target":"present","response":"present","rt":"2567","correct":true,"confidence":-1},{"trial_n":3,"span":6,"encoder":"097225","distractor":"897225","target":"absent","response":"absent","rt":"1182.5999999046","correct":true,"confidence":-1},{"trial_n":4,"span":8,"encoder":"92855922","distractor":"92455922","target":"absent","response":"absent","rt":"2009.7999997139","correct":true,"confidence":-1},{"trial_n":5,"span":8,"encoder":"82251462","distractor":"72251462","target":"present","response":"present","rt":"330279.80000019","correct":true,"confidence":-1},{"trial_n":6,"span":10,"encoder":"7617800739","distractor":"7617800789","target":"present","response":"present","rt":"2257.0999999046","correct":true,"confidence":-1},{"trial_n":7,"span":10,"encoder":"6518481380","distractor":"6518481383","target":"absent","response":"absent","rt":"1817.1999998093","correct":true,"confidence":-1},{"trial_n":8,"span":12,"encoder":"085965258943","distractor":"085965258903","target":"present","response":"absent","rt":"2616.7999997139","correct":false,"confidence":-1},{"trial_n":9,"span":10,"encoder":"0914791200","distractor":"0912791200","target":"absent","response":"present","rt":"1368.6999998093","correct":false,"confidence":-1},{"trial_n":10,"span":8,"encoder":"30267880","distractor":"30267380","target":"present","response":"absent","rt":"1216.5999999046","correct":false,"confidence":-1},{"trial_n":11,"span":6,"encoder":"497605","distractor":"497705","target":"present","response":"present","rt":"1061.2999997139","correct":true,"confidence":-1},{"trial_n":12,"span":6,"encoder":"213501","distractor":"413501","target":"present","response":"present","rt":"1170.7999997139","correct":true,"confidence":-1},{"trial_n":13,"span":7,"encoder":"6564068","distractor":"6264068","target":"present","response":"present","rt":"1363.4000000954","correct":true,"confidence":-1},{"trial_n":14,"span":7,"encoder":"1125163","distractor":"1125143","target":"present","response":"present","rt":"1048.2999997139","correct":true,"confidence":-1},{"trial_n":15,"span":8,"encoder":"01399505","distractor":"01699505","target":"present","response":"present","rt":"728.5","correct":true,"confidence":-1},{"trial_n":16,"span":8,"encoder":"27510446","distractor":"27010446","target":"present","response":"present","rt":"791.90000009537","correct":true,"confidence":-1},{"trial_n":17,"span":9,"encoder":"733122979","distractor":"733126979","target":"absent","response":"present","rt":"607.30000019073","correct":false,"confidence":-1},{"trial_n":18,"span":8,"encoder":"32163515","distractor":"32163595","target":"present","response":"present","rt":"663.90000009537","correct":true,"confidence":-1},{"trial_n":19,"span":8,"encoder":"43340496","distractor":"45340496","target":"absent","response":"present","rt":"703","correct":false,"confidence":-1},{"trial_n":20,"span":7,"encoder":"8443238","distractor":"8443230","target":"present","response":"present","rt":"733.30000019073","correct":true,"confidence":-1},{"trial_n":21,"span":7,"encoder":"1409207","distractor":"1409208","target":"present","response":"present","rt":"1482.1999998093","correct":true,"confidence":4},{"trial_n":22,"span":8,"encoder":"71167975","distractor":"71167978","target":"absent","response":"absent","rt":"1559.3000001907","correct":true,"confidence":5},{"trial_n":23,"span":8,"encoder":"24879178","distractor":"24869178","target":"present","response":"present","rt":"1906.4000000954","correct":true,"confidence":5},{"trial_n":24,"span":9,"encoder":"922779704","distractor":"922779774","target":"absent","response":"absent","rt":"3618.3999996185","correct":true,"confidence":5},{"trial_n":25,"span":9,"encoder":"371580987","distractor":"371580887","target":"present","response":"absent","rt":"2463.5999999046","correct":false,"confidence":4},{"trial_n":26,"span":8,"encoder":"97786659","distractor":"97786559","target":"present","response":"present","rt":"1402.4000000954","correct":true,"confidence":3},{"trial_n":27,"span":8,"encoder":"81205011","distractor":"81205061","target":"absent","response":"present","rt":"939.30000019073","correct":false,"confidence":4},{"trial_n":28,"span":7,"encoder":"6323582","distractor":"6723582","target":"absent","response":"absent","rt":"1408.0999999046","correct":true,"confidence":4},{"trial_n":29,"span":7,"encoder":"1171030","distractor":"1174030","target":"absent","response":"absent","rt":"1144.9000000954","correct":true,"confidence":3},{"trial_n":30,"span":8,"encoder":"63551465","distractor":"63551765","target":"absent","response":"absent","rt":"1574.5","correct":true,"confidence":4},{"trial_n":31,"span":8,"encoder":"26382237","distractor":"26388237","target":"present","response":"absent","rt":"3999.2999997139","correct":false,"confidence":3},{"trial_n":32,"span":7,"encoder":"2231860","distractor":"2230860","target":"absent","response":"absent","rt":"1177.5","correct":true,"confidence":1},{"trial_n":33,"span":7,"encoder":"5332541","distractor":"5332549","target":"absent","response":"absent","rt":"1681.0999999046","correct":true,"confidence":5},{"trial_n":34,"span":8,"encoder":"61650370","distractor":"61655370","target":"absent","response":"absent","rt":"1657.5","correct":true,"confidence":4},{"trial_n":35,"span":8,"encoder":"14597923","distractor":"94597923","target":"absent","response":"absent","rt":"1573.1999998093","correct":true,"confidence":5},{"trial_n":36,"span":9,"encoder":"032122369","distractor":"032822369","target":"present","response":"present","rt":"1775.5999999046","correct":true,"confidence":5},{"trial_n":37,"span":9,"encoder":"469350408","distractor":"169350408","target":"absent","response":"absent","rt":"1374.4000000954","correct":true,"confidence":5},{"trial_n":38,"span":10,"encoder":"6688222634","distractor":"2688222634","target":"present","response":"absent","rt":"2577.4000000954","correct":false,"confidence":3},{"trial_n":39,"span":9,"encoder":"024064930","distractor":"004064930","target":"present","response":"present","rt":"2328.5","correct":true,"confidence":4},{"trial_n":40,"span":9,"encoder":"848465370","distractor":"148465370","target":"present","response":"present","rt":"1913.9000000954","correct":true,"confidence":5},{"trial_n":41,"span":10,"encoder":"9915656095","distractor":"9914656095","target":"present","response":"present","rt":"3967.6999998093","correct":true,"confidence":4},{"trial_n":42,"span":10,"encoder":"8727708756","distractor":"8727709756","target":"present","response":"present","rt":"2636.0999999046","correct":true,"confidence":3},{"trial_n":43,"span":11,"encoder":"17501204904","distractor":"17501204924","target":"present","response":"absent","rt":"2732.5","correct":false,"confidence":2},{"trial_n":44,"span":10,"encoder":"7340582842","distractor":"0340582842","target":"absent","response":"absent","rt":"1531.6999998093","correct":true,"confidence":5},{"trial_n":45,"span":10,"encoder":"6581275271","distractor":"2581275271","target":"absent","response":"absent","rt":"1216.5999999046","correct":true,"confidence":1},{"trial_n":46,"span":11,"encoder":"80588965466","distractor":"80588945466","target":"absent","response":"present","rt":"1337.1999998093","correct":false,"confidence":5},{"trial_n":47,"span":10,"encoder":"0846499364","distractor":"0846499362","target":"present","response":"present","rt":"1610.0999999046","correct":true,"confidence":5},{"trial_n":48,"span":10,"encoder":"2830899971","distractor":"2830819971","target":"present","response":"absent","rt":"2037.5","correct":false,"confidence":2},{"trial_n":49,"span":9,"encoder":"665388351","distractor":"685388351","target":"absent","response":"present","rt":"2288.1000003815","correct":false,"confidence":1},{"trial_n":50,"span":8,"encoder":"23707166","distractor":"29707166","target":"present","response":"absent","rt":"888.89999961853","correct":false,"confidence":1},{"trial_n":51,"span":7,"encoder":"0633967","distractor":"0633964","target":"absent","response":"absent","rt":"4063.6000003815","correct":true,"confidence":3},{"trial_n":52,"span":7,"encoder":"9105560","distractor":"9185560","target":"present","response":"present","rt":"2340.5","correct":true,"confidence":5},{"trial_n":53,"span":8,"encoder":"90268412","distractor":"90268812","target":"absent","response":"absent","rt":"2609.6999998093","correct":true,"confidence":3},{"trial_n":54,"span":8,"encoder":"81842105","distractor":"81842505","target":"present","response":"present","rt":"1985","correct":true,"confidence":5},{"trial_n":55,"span":9,"encoder":"231790822","distractor":"231793822","target":"present","response":"absent","rt":"2790","correct":false,"confidence":2},{"trial_n":56,"span":8,"encoder":"00398874","distractor":"00398814","target":"absent","response":"present","rt":"1525.2000002861","correct":false,"confidence":5},{"trial_n":57,"span":7,"encoder":"1733626","distractor":"5733626","target":"absent","response":"absent","rt":"1508.5","correct":true,"confidence":3},{"trial_n":58,"span":7,"encoder":"0533414","distractor":"0538414","target":"present","response":"present","rt":"1470.5","correct":true,"confidence":4},{"trial_n":59,"span":8,"encoder":"60493568","distractor":"61493568","target":"present","response":"present","rt":"1484.0999999046","correct":true,"confidence":2},{"trial_n":60,"span":8,"encoder":"54957537","distractor":"54957534","target":"absent","response":"present","rt":"2274","correct":false,"confidence":5},{"trial_n":61,"span":7,"encoder":"6779824","distractor":"6719824","target":"present","response":"present","rt":"2104.5999999046","correct":true,"confidence":5},{"trial_n":62,"span":7,"encoder":"1115544","distractor":"1115744","target":"absent","response":"absent","rt":"4112.4000000954","correct":true,"confidence":5},{"trial_n":63,"span":8,"encoder":"86634388","distractor":"06634388","target":"absent","response":"absent","rt":"1427.6000003815","correct":true,"confidence":1},{"trial_n":64,"span":8,"encoder":"11147971","distractor":"11047971","target":"absent","response":"absent","rt":"1561.5","correct":true,"confidence":4},{"trial_n":65,"span":9,"encoder":"190737688","distractor":"190737988","target":"absent","response":"present","rt":"4496.9000000954","correct":false,"confidence":4},{"trial_n":66,"span":8,"encoder":"08216656","distractor":"08616656","target":"present","response":"absent","rt":"1796.0999999046","correct":false,"confidence":4},{"trial_n":67,"span":7,"encoder":"8352183","distractor":"8352783","target":"absent","response":"absent","rt":"1308.8000001907","correct":true,"confidence":4},{"trial_n":68,"span":7,"encoder":"9704590","distractor":"9704596","target":"absent","response":"absent","rt":"2458.1000003815","correct":true,"confidence":4},{"trial_n":69,"span":8,"encoder":"74583175","distractor":"74581175","target":"absent","response":"absent","rt":"3059.6999998093","correct":true,"confidence":3},{"trial_n":70,"span":8,"encoder":"13572715","distractor":"13542715","target":"absent","response":"absent","rt":"2069.0999999046","correct":true,"confidence":4},{"trial_n":71,"span":8,"encoder":"38286138","distractor":"18286138","target":"present","response":"present","rt":"1908","correct":true,"confidence":-1},{"trial_n":72,"span":8,"encoder":"67371925","distractor":"67371915","target":"present","response":"present","rt":"3077.3000001907","correct":true,"confidence":-1},{"trial_n":73,"span":9,"encoder":"368283340","distractor":"868283340","target":"absent","response":"absent","rt":"2274","correct":true,"confidence":-1},{"trial_n":74,"span":9,"encoder":"809834731","distractor":"800834731","target":"absent","response":"absent","rt":"3227.5999999046","correct":true,"confidence":-1},{"trial_n":75,"span":10,"encoder":"7089984588","distractor":"7089984581","target":"present","response":"absent","rt":"3940.2999997139","correct":false,"confidence":-1},{"trial_n":76,"span":9,"encoder":"332908806","distractor":"432908806","target":"absent","response":"absent","rt":"1363.0999999046","correct":true,"confidence":-1},{"trial_n":77,"span":9,"encoder":"362150757","distractor":"362152757","target":"present","response":"absent","rt":"1175.5999999046","correct":false,"confidence":-1},{"trial_n":78,"span":8,"encoder":"15889337","distractor":"15589337","target":"absent","response":"present","rt":"2356.4000000954","correct":false,"confidence":-1},{"trial_n":79,"span":7,"encoder":"1513302","distractor":"1313302","target":"present","response":"present","rt":"2037.0999999046","correct":true,"confidence":-1},{"trial_n":80,"span":7,"encoder":"8671233","distractor":"8681233","target":"present","response":"present","rt":"2560.4000000954","correct":true,"confidence":-1},{"trial_n":81,"span":8,"encoder":"57183574","distractor":"57183579","target":"present","response":"absent","rt":"3102.7999997139","correct":false,"confidence":-1},{"trial_n":82,"span":7,"encoder":"5399076","distractor":"5399066","target":"present","response":"present","rt":"2905.8000001907","correct":true,"confidence":-1},{"trial_n":83,"span":7,"encoder":"1595563","distractor":"1595763","target":"absent","response":"absent","rt":"860.7999997139","correct":true,"confidence":-1},{"trial_n":84,"span":8,"encoder":"70378404","distractor":"70378484","target":"present","response":"absent","rt":"1161.3000001907","correct":false,"confidence":-1},{"trial_n":85,"span":7,"encoder":"7320038","distractor":"7320938","target":"absent","response":"absent","rt":"2732.0999999046","correct":true,"confidence":-1},{"trial_n":86,"span":7,"encoder":"0647892","distractor":"0607892","target":"present","response":"absent","rt":"3710.0999999046","correct":false,"confidence":-1},{"trial_n":87,"span":6,"encoder":"891163","distractor":"091163","target":"absent","response":"absent","rt":"2341.0999999046","correct":true,"confidence":-1},{"trial_n":88,"span":6,"encoder":"847978","distractor":"847478","target":"absent","response":"absent","rt":"2167","correct":true,"confidence":-1},{"trial_n":89,"span":7,"encoder":"4732194","distractor":"4732144","target":"absent","response":"absent","rt":"1818.9000000954","correct":true,"confidence":-1},{"trial_n":90,"span":7,"encoder":"8905376","distractor":"8905371","target":"present","response":"present","rt":"2161.7000002861","correct":true,"confidence":-1},{"trial_n":91,"span":8,"encoder":"15634699","distractor":"15634659","target":"absent","response":"absent","rt":"3863.3999996185","correct":true,"confidence":5},{"trial_n":92,"span":8,"encoder":"51805666","distractor":"51905666","target":"present","response":"present","rt":"2340.9000000954","correct":true,"confidence":5},{"trial_n":93,"span":9,"encoder":"638413707","distractor":"638463707","target":"present","response":"present","rt":"5854.4000000954","correct":true,"confidence":4},{"trial_n":94,"span":9,"encoder":"174007955","distractor":"174007455","target":"present","response":"present","rt":"3762.4000000954","correct":true,"confidence":4},{"trial_n":95,"span":10,"encoder":"3330259534","distractor":"3330259544","target":"absent","response":"absent","rt":"2774.3000001907","correct":true,"confidence":4},{"trial_n":96,"span":10,"encoder":"2032018668","distractor":"2032028668","target":"absent","response":"absent","rt":"3443.3000001907","correct":true,"confidence":4},{"trial_n":97,"span":11,"encoder":"79343556803","distractor":"76343556803","target":"present","response":"absent","rt":"4046.5","correct":false,"confidence":3},{"trial_n":98,"span":10,"encoder":"8770931835","distractor":"8770936835","target":"present","response":"absent","rt":"3600.3000001907","correct":false,"confidence":1},{"trial_n":99,"span":9,"encoder":"887490903","distractor":"887390903","target":"absent","response":"absent","rt":"5224.8000001907","correct":true,"confidence":3},{"trial_n":100,"span":9,"encoder":"603972653","distractor":"603972613","target":"absent","response":"absent","rt":"2904.4000000954","correct":true,"confidence":1},{"trial_n":101,"span":10,"encoder":"7466058799","distractor":"7466068799","target":"present","response":"absent","rt":"3527.7999997139","correct":false,"confidence":1},{"trial_n":102,"span":9,"encoder":"295228850","distractor":"295228150","target":"absent","response":"absent","rt":"2423.0999999046","correct":true,"confidence":3},{"trial_n":103,"span":9,"encoder":"278073014","distractor":"278073024","target":"absent","response":"absent","rt":"3613.5999999046","correct":true,"confidence":4},{"trial_n":104,"span":10,"encoder":"9343467710","distractor":"9343477710","target":"absent","response":"absent","rt":"1892.3000001907","correct":true,"confidence":5},{"trial_n":105,"span":10,"encoder":"1027016151","distractor":"1027016951","target":"absent","response":"present","rt":"5502.9000000954","correct":false,"confidence":1},{"trial_n":106,"span":9,"encoder":"987686325","distractor":"987685325","target":"present","response":"present","rt":"6150.2000002861","correct":true,"confidence":3},{"trial_n":107,"span":9,"encoder":"342773433","distractor":"342773437","target":"present","response":"present","rt":"4530.3000001907","correct":true,"confidence":4},{"trial_n":108,"span":10,"encoder":"8348262867","distractor":"8348262267","target":"present","response":"absent","rt":"4678.8999996185","correct":false,"confidence":1},{"trial_n":109,"span":9,"encoder":"480321535","distractor":"480321595","target":"absent","response":"absent","rt":"2938.1999998093","correct":true,"confidence":5},{"trial_n":110,"span":9,"encoder":"430074815","distractor":"430064815","target":"present","response":"present","rt":"2791.6999998093","correct":true,"confidence":5},{"trial_n":111,"span":10,"encoder":"4028614147","distractor":"0028614147","target":"absent","response":"absent","rt":"1589.3000001907","correct":true,"confidence":5},{"trial_n":112,"span":10,"encoder":"6504420292","distractor":"0504420292","target":"present","response":"absent","rt":"6636.5","correct":false,"confidence":3},{"trial_n":113,"span":9,"encoder":"134208064","distractor":"134208164","target":"present","response":"absent","rt":"3947.8000001907","correct":false,"confidence":1},{"trial_n":114,"span":8,"encoder":"16891595","distractor":"16899595","target":"absent","response":"absent","rt":"14744.599999905","correct":true,"confidence":1},{"trial_n":115,"span":8,"encoder":"38779765","distractor":"38479765","target":"absent","response":"absent","rt":"3599.3000001907","correct":true,"confidence":5},{"trial_n":116,"span":9,"encoder":"364322328","distractor":"334322328","target":"present","response":"present","rt":"3064.5","correct":true,"confidence":5},{"trial_n":117,"span":9,"encoder":"924933158","distractor":"974933158","target":"present","response":"present","rt":"6335","correct":true,"confidence":4},{"trial_n":118,"span":10,"encoder":"2220441246","distractor":"2220441248","target":"absent","response":"absent","rt":"3765.4000000954","correct":true,"confidence":5},{"trial_n":119,"span":10,"encoder":"2212959805","distractor":"2212958805","target":"absent","response":"absent","rt":"1880.5","correct":true,"confidence":5},{"trial_n":120,"span":11,"encoder":"07741620857","distractor":"01741620857","target":"present","response":"absent","rt":"4193.5","correct":false,"confidence":1},{"trial_n":121,"span":10,"encoder":"3986422987","distractor":"3936422987","target":"absent","response":"present","rt":"5599.5","correct":false,"confidence":3},{"trial_n":122,"span":9,"encoder":"592723812","distractor":"592793812","target":"present","response":"present","rt":"6277.3000001907","correct":true,"confidence":4},{"trial_n":123,"span":9,"encoder":"526967598","distractor":"527967598","target":"present","response":"present","rt":"15992.5","correct":true,"confidence":1},{"trial_n":124,"span":10,"encoder":"9701808489","distractor":"9701806489","target":"absent","response":"present","rt":"3574.7999997139","correct":false,"confidence":1},{"trial_n":125,"span":9,"encoder":"878711918","distractor":"878711908","target":"absent","response":"absent","rt":"23216.600000381","correct":true,"confidence":3},{"trial_n":126,"span":9,"encoder":"088679661","distractor":"087679661","target":"absent","response":"present","rt":"11233.799999714","correct":false,"confidence":1},{"trial_n":127,"span":8,"encoder":"23058865","distractor":"23058265","target":"present","response":"present","rt":"2462","correct":true,"confidence":3},{"trial_n":128,"span":8,"encoder":"28742624","distractor":"24742624","target":"absent","response":"absent","rt":"2110.2000002861","correct":true,"confidence":5},{"trial_n":129,"span":9,"encoder":"001670123","distractor":"001670423","target":"present","response":"present","rt":"4889.5","correct":true,"confidence":4},{"trial_n":130,"span":9,"encoder":"933818086","distractor":"933818087","target":"absent","response":"present","rt":"11442.800000191","correct":false,"confidence":1},{"trial_n":131,"span":8,"encoder":"07824738","distractor":"07824838","target":"present","response":"absent","rt":"4350.5","correct":false,"confidence":2},{"trial_n":132,"span":7,"encoder":"1238798","distractor":"1238768","target":"absent","response":"absent","rt":"3200.3000001907","correct":true,"confidence":5},{"trial_n":133,"span":7,"encoder":"7698573","distractor":"7698543","target":"present","response":"present","rt":"7581.5","correct":true,"confidence":4},{"trial_n":134,"span":8,"encoder":"52587066","distractor":"52588066","target":"present","response":"present","rt":"3724.3000001907","correct":true,"confidence":4},{"trial_n":135,"span":8,"encoder":"09413524","distractor":"09413224","target":"absent","response":"absent","rt":"3539.1999998093","correct":true,"confidence":2},{"trial_n":136,"span":9,"encoder":"348426605","distractor":"328426605","target":"present","response":"absent","rt":"2493.2999997139","correct":false,"confidence":3},{"trial_n":137,"span":8,"encoder":"77534142","distractor":"77537142","target":"absent","response":"absent","rt":"2111.4000000954","correct":true,"confidence":5},{"trial_n":138,"span":8,"encoder":"40295322","distractor":"48295322","target":"present","response":"absent","rt":"1775.2999997139","correct":false,"confidence":3},{"trial_n":139,"span":7,"encoder":"0178612","distractor":"0198612","target":"present","response":"absent","rt":"142145.60000038","correct":false,"confidence":1},{"trial_n":140,"span":6,"encoder":"359369","distractor":"399369","target":"absent","response":"absent","rt":"2573.5","correct":true,"confidence":5}]