[{"trial_n":1,"n_dots":4.25,"target":"right","response":"right","rt":16275.899999976,"correct":true,"confidence":-1},{"trial_n":2,"n_dots":4.25,"target":"right","response":"right","rt":1808.2999999821,"correct":true,"confidence":-1},{"trial_n":3,"n_dots":3.85,"target":"left","response":"left","rt":3577.8000000119,"correct":true,"confidence":-1},{"trial_n":4,"n_dots":3.85,"target":"left","response":"left","rt":811,"correct":true,"confidence":-1},{"trial_n":5,"n_dots":3.45,"target":"left","response":"left","rt":1816.3000000119,"correct":true,"confidence":-1},{"trial_n":6,"n_dots":3.45,"target":"left","response":"left","rt":428.09999999404,"correct":true,"confidence":-1},{"trial_n":7,"n_dots":3.05,"target":"left","response":"right","rt":1128,"correct":false,"confidence":-1},{"trial_n":8,"n_dots":3.25,"target":"right","response":"left","rt":1171.1999999881,"correct":false,"confidence":-1},{"trial_n":9,"n_dots":3.45,"target":"right","response":"right","rt":816.90000000596,"correct":true,"confidence":-1},{"trial_n":10,"n_dots":3.45,"target":"left","response":"left","rt":1541.2000000179,"correct":true,"confidence":-1},{"trial_n":11,"n_dots":3.25,"target":"left","response":"left","rt":579.30000001192,"correct":true,"confidence":-1},{"trial_n":12,"n_dots":3.25,"target":"left","response":"left","rt":733.19999998808,"correct":true,"confidence":-1},{"trial_n":13,"n_dots":3.15,"target":"left","response":"left","rt":982.69999998808,"correct":true,"confidence":-1},{"trial_n":14,"n_dots":3.15,"target":"right","response":"right","rt":632.29999998212,"correct":true,"confidence":-1},{"trial_n":15,"n_dots":3.05,"target":"left","response":"right","rt":1141.3000000119,"correct":false,"confidence":-1},{"trial_n":16,"n_dots":3.15,"target":"left","response":"left","rt":1017,"correct":true,"confidence":-1},{"trial_n":17,"n_dots":3.15,"target":"left","response":"right","rt":1211.3999999762,"correct":false,"confidence":-1},{"trial_n":18,"n_dots":3.25,"target":"left","response":"left","rt":845.30000001192,"correct":true,"confidence":-1},{"trial_n":19,"n_dots":3.25,"target":"left","response":"right","rt":499.60000002384,"correct":false,"confidence":-1},{"trial_n":20,"n_dots":3.35,"target":"left","response":"right","rt":480.59999999404,"correct":false,"confidence":-1},{"trial_n":21,"n_dots":3.45,"target":"right","response":"left","rt":592.30000001192,"correct":false,"confidence":4},{"trial_n":22,"n_dots":3.55,"target":"right","response":"right","rt":880.69999998808,"correct":true,"confidence":5},{"trial_n":23,"n_dots":3.55,"target":"right","response":"right","rt":941.90000000596,"correct":true,"confidence":5},{"trial_n":24,"n_dots":3.45,"target":"left","response":"left","rt":771.09999999404,"correct":true,"confidence":5},{"trial_n":25,"n_dots":3.45,"target":"right","response":"right","rt":2577.8000000119,"correct":true,"confidence":4},{"trial_n":26,"n_dots":3.35,"target":"left","response":"left","rt":684.69999998808,"correct":true,"confidence":4},{"trial_n":27,"n_dots":3.35,"target":"left","response":"left","rt":888.60000002384,"correct":true,"confidence":5},{"trial_n":28,"n_dots":3.25,"target":"left","response":"right","rt":1058.599999994,"correct":false,"confidence":3},{"trial_n":29,"n_dots":3.35,"target":"right","response":"left","rt":724.70000001788,"correct":false,"confidence":4},{"trial_n":30,"n_dots":3.45,"target":"left","response":"left","rt":398.09999999404,"correct":true,"confidence":5},{"trial_n":31,"n_dots":3.45,"target":"right","response":"right","rt":870.80000001192,"correct":true,"confidence":5},{"trial_n":32,"n_dots":3.35,"target":"right","response":"right","rt":602.19999998808,"correct":true,"confidence":1},{"trial_n":33,"n_dots":3.35,"target":"right","response":"left","rt":3014.599999994,"correct":false,"confidence":4},{"trial_n":34,"n_dots":3.45,"target":"left","response":"left","rt":1144.6000000238,"correct":true,"confidence":5},{"trial_n":35,"n_dots":3.45,"target":"left","response":"left","rt":2241.599999994,"correct":true,"confidence":4},{"trial_n":36,"n_dots":3.35,"target":"right","response":"right","rt":606.5,"correct":true,"confidence":5},{"trial_n":37,"n_dots":3.35,"target":"right","response":"right","rt":918.09999999404,"correct":true,"confidence":5},{"trial_n":38,"n_dots":3.25,"target":"right","response":"left","rt":2209,"correct":false,"confidence":2},{"trial_n":39,"n_dots":3.35,"target":"left","response":"left","rt":843.69999998808,"correct":true,"confidence":4},{"trial_n":40,"n_dots":3.35,"target":"left","response":"left","rt":601.09999999404,"correct":true,"confidence":4},{"trial_n":41,"n_dots":3.25,"target":"right","response":"right","rt":442.19999998808,"correct":true,"confidence":4},{"trial_n":42,"n_dots":3.25,"target":"right","response":"right","rt":695.40000000596,"correct":true,"confidence":4},{"trial_n":43,"n_dots":3.15,"target":"left","response":"right","rt":648.09999999404,"correct":false,"confidence":4},{"trial_n":44,"n_dots":3.25,"target":"right","response":"right","rt":627.09999999404,"correct":true,"confidence":4},{"trial_n":45,"n_dots":3.25,"target":"left","response":"right","rt":1319,"correct":false,"confidence":4},{"trial_n":46,"n_dots":3.35,"target":"right","response":"right","rt":661.30000001192,"correct":true,"confidence":4},{"trial_n":47,"n_dots":3.35,"target":"left","response":"left","rt":870,"correct":true,"confidence":4},{"trial_n":48,"n_dots":3.25,"target":"left","response":"left","rt":3943.900000006,"correct":true,"confidence":1},{"trial_n":49,"n_dots":3.25,"target":"right","response":"right","rt":486.59999999404,"correct":true,"confidence":4},{"trial_n":50,"n_dots":3.15,"target":"right","response":"left","rt":1654.5,"correct":false,"confidence":2},{"trial_n":51,"n_dots":3.25,"target":"left","response":"right","rt":869,"correct":false,"confidence":3},{"trial_n":52,"n_dots":3.35,"target":"left","response":"left","rt":1216.5,"correct":true,"confidence":4},{"trial_n":53,"n_dots":3.35,"target":"left","response":"left","rt":978.80000001192,"correct":true,"confidence":4},{"trial_n":54,"n_dots":3.25,"target":"left","response":"left","rt":1921.2000000179,"correct":true,"confidence":3},{"trial_n":55,"n_dots":3.25,"target":"left","response":"left","rt":862,"correct":true,"confidence":4},{"trial_n":56,"n_dots":3.15,"target":"right","response":"right","rt":696.5,"correct":true,"confidence":2},{"trial_n":57,"n_dots":3.15,"target":"right","response":"right","rt":1017.6000000238,"correct":true,"confidence":4},{"trial_n":58,"n_dots":3.05,"target":"right","response":"right","rt":1208.2999999821,"correct":true,"confidence":4},{"trial_n":59,"n_dots":3.05,"target":"right","response":"right","rt":383.79999998212,"correct":true,"confidence":5},{"trial_n":60,"n_dots":2.95,"target":"left","response":"left","rt":664.70000001788,"correct":true,"confidence":5},{"trial_n":61,"n_dots":2.95,"target":"left","response":"left","rt":683.40000000596,"correct":true,"confidence":5},{"trial_n":62,"n_dots":2.85,"target":"right","response":"left","rt":893.70000001788,"correct":false,"confidence":5},{"trial_n":63,"n_dots":2.95,"target":"right","response":"left","rt":2754.5,"correct":false,"confidence":1},{"trial_n":64,"n_dots":3.05,"target":"left","response":"right","rt":1261.6999999881,"correct":false,"confidence":1},{"trial_n":65,"n_dots":3.15,"target":"right","response":"left","rt":1131.5,"correct":false,"confidence":5},{"trial_n":66,"n_dots":3.25,"target":"right","response":"right","rt":649,"correct":true,"confidence":5},{"trial_n":67,"n_dots":3.25,"target":"left","response":"left","rt":969.79999998212,"correct":true,"confidence":4},{"trial_n":68,"n_dots":3.15,"target":"left","response":"right","rt":103959.80000001,"correct":false,"confidence":1},{"trial_n":69,"n_dots":3.25,"target":"right","response":"left","rt":464.90000000596,"correct":false,"confidence":4},{"trial_n":70,"n_dots":3.35,"target":"left","response":"left","rt":526.89999997616,"correct":true,"confidence":4},{"trial_n":71,"n_dots":3.35,"target":"right","response":"right","rt":299.70000001788,"correct":true,"confidence":4},{"trial_n":72,"n_dots":3.25,"target":"left","response":"right","rt":802.5,"correct":false,"confidence":5},{"trial_n":73,"n_dots":3.35,"target":"right","response":"left","rt":1018.6000000238,"correct":false,"confidence":3},{"trial_n":74,"n_dots":3.45,"target":"left","response":"right","rt":313,"correct":false,"confidence":4},{"trial_n":75,"n_dots":3.55,"target":"right","response":"right","rt":606.29999998212,"correct":true,"confidence":5},{"trial_n":76,"n_dots":3.55,"target":"left","response":"left","rt":755.20000001788,"correct":true,"confidence":2},{"trial_n":77,"n_dots":3.45,"target":"left","response":"right","rt":671.19999998808,"correct":false,"confidence":4},{"trial_n":78,"n_dots":3.55,"target":"right","response":"left","rt":810.90000000596,"correct":false,"confidence":4},{"trial_n":79,"n_dots":3.65,"target":"right","response":"right","rt":1095.900000006,"correct":true,"confidence":5},{"trial_n":80,"n_dots":3.65,"target":"right","response":"right","rt":598.09999999404,"correct":true,"confidence":5},{"trial_n":81,"n_dots":3.55,"target":"left","response":"left","rt":925.29999998212,"correct":true,"confidence":5},{"trial_n":82,"n_dots":3.55,"target":"right","response":"right","rt":801.90000000596,"correct":true,"confidence":1},{"trial_n":83,"n_dots":3.45,"target":"left","response":"right","rt":599.90000000596,"correct":false,"confidence":4},{"trial_n":84,"n_dots":3.55,"target":"left","response":"left","rt":664,"correct":true,"confidence":3},{"trial_n":85,"n_dots":3.55,"target":"right","response":"right","rt":462.30000001192,"correct":true,"confidence":3},{"trial_n":86,"n_dots":3.45,"target":"left","response":"left","rt":618.90000000596,"correct":true,"confidence":4},{"trial_n":87,"n_dots":3.45,"target":"left","response":"left","rt":559.5,"correct":true,"confidence":4},{"trial_n":88,"n_dots":3.35,"target":"right","response":"right","rt":681.69999998808,"correct":true,"confidence":4},{"trial_n":89,"n_dots":3.35,"target":"right","response":"left","rt":642.69999998808,"correct":false,"confidence":3},{"trial_n":90,"n_dots":3.45,"target":"right","response":"right","rt":795.29999998212,"correct":true,"confidence":4},{"trial_n":91,"n_dots":3.45,"target":"right","response":"right","rt":756.20000001788,"correct":true,"confidence":4},{"trial_n":92,"n_dots":3.35,"target":"right","response":"right","rt":882.5,"correct":true,"confidence":4},{"trial_n":93,"n_dots":3.35,"target":"right","response":"right","rt":561,"correct":true,"confidence":4},{"trial_n":94,"n_dots":3.25,"target":"left","response":"right","rt":1553.400000006,"correct":false,"confidence":4},{"trial_n":95,"n_dots":3.35,"target":"left","response":"left","rt":473.40000000596,"correct":true,"confidence":3},{"trial_n":96,"n_dots":3.35,"target":"left","response":"left","rt":1010.7999999821,"correct":true,"confidence":4},{"trial_n":97,"n_dots":3.25,"target":"left","response":"right","rt":719.39999997616,"correct":false,"confidence":4},{"trial_n":98,"n_dots":3.35,"target":"left","response":"left","rt":843.40000000596,"correct":true,"confidence":1},{"trial_n":99,"n_dots":3.35,"target":"left","response":"left","rt":406.59999999404,"correct":true,"confidence":4},{"trial_n":100,"n_dots":3.25,"target":"right","response":"right","rt":210.19999998808,"correct":true,"confidence":3},{"trial_n":101,"n_dots":3.25,"target":"right","response":"right","rt":2919.3000000119,"correct":true,"confidence":4},{"trial_n":102,"n_dots":3.15,"target":"left","response":"right","rt":501.5,"correct":false,"confidence":4},{"trial_n":103,"n_dots":3.25,"target":"left","response":"left","rt":2.8999999761581,"correct":true,"confidence":3},{"trial_n":104,"n_dots":3.25,"target":"right","response":"right","rt":651.70000001788,"correct":true,"confidence":4},{"trial_n":105,"n_dots":3.15,"target":"right","response":"right","rt":565.80000001192,"correct":true,"confidence":4},{"trial_n":106,"n_dots":3.15,"target":"right","response":"right","rt":577,"correct":true,"confidence":4},{"trial_n":107,"n_dots":3.05,"target":"right","response":"left","rt":9204.400000006,"correct":false,"confidence":1},{"trial_n":108,"n_dots":3.15,"target":"right","response":"right","rt":647.09999999404,"correct":true,"confidence":4},{"trial_n":109,"n_dots":3.15,"target":"right","response":"right","rt":400.29999998212,"correct":true,"confidence":4},{"trial_n":110,"n_dots":3.05,"target":"right","response":"left","rt":825.89999997616,"correct":false,"confidence":4},{"trial_n":111,"n_dots":3.15,"target":"right","response":"right","rt":859311.90000001,"correct":true,"confidence":1},{"trial_n":112,"n_dots":3.15,"target":"left","response":"right","rt":2383.1999999881,"correct":false,"confidence":1},{"trial_n":113,"n_dots":3.25,"target":"right","response":"right","rt":427.10000002384,"correct":true,"confidence":4},{"trial_n":114,"n_dots":3.25,"target":"right","response":"right","rt":558.09999999404,"correct":true,"confidence":3},{"trial_n":115,"n_dots":3.15,"target":"left","response":"right","rt":300.30000001192,"correct":false,"confidence":4},{"trial_n":116,"n_dots":3.25,"target":"left","response":"right","rt":316.40000000596,"correct":false,"confidence":4},{"trial_n":117,"n_dots":3.35,"target":"right","response":"right","rt":406.69999998808,"correct":true,"confidence":3},{"trial_n":118,"n_dots":3.35,"target":"right","response":"right","rt":51.299999982119,"correct":true,"confidence":4},{"trial_n":119,"n_dots":3.25,"target":"right","response":"right","rt":7821.7000000179,"correct":true,"confidence":3},{"trial_n":120,"n_dots":3.25,"target":"left","response":"right","rt":591.20000001788,"correct":false,"confidence":4}]