[{"trial_n":1,"n_dots":4.25,"target":"left","response":"left","rt":3074.1000000238,"correct":true,"confidence":-1},{"trial_n":2,"n_dots":4.25,"target":"right","response":"right","rt":1665,"correct":true,"confidence":-1},{"trial_n":3,"n_dots":3.85,"target":"right","response":"right","rt":-0.60000002384186,"correct":true,"confidence":-1},{"trial_n":4,"n_dots":3.85,"target":"left","response":"left","rt":56.300000071526,"correct":true,"confidence":-1},{"trial_n":5,"n_dots":3.45,"target":"right","response":"left","rt":6808.1999999285,"correct":false,"confidence":-1},{"trial_n":6,"n_dots":3.85,"target":"left","response":"left","rt":272.39999997616,"correct":true,"confidence":-1},{"trial_n":7,"n_dots":3.85,"target":"left","response":"left","rt":455.29999995232,"correct":true,"confidence":-1},{"trial_n":8,"n_dots":3.65,"target":"left","response":"right","rt":911.69999992847,"correct":false,"confidence":-1},{"trial_n":9,"n_dots":3.85,"target":"right","response":"right","rt":372.60000002384,"correct":true,"confidence":-1},{"trial_n":10,"n_dots":3.85,"target":"right","response":"right","rt":378.80000007153,"correct":true,"confidence":-1},{"trial_n":11,"n_dots":3.65,"target":"left","response":"left","rt":306,"correct":true,"confidence":-1},{"trial_n":12,"n_dots":3.65,"target":"right","response":"right","rt":326.20000004768,"correct":true,"confidence":-1},{"trial_n":13,"n_dots":3.55,"target":"right","response":"right","rt":287.39999997616,"correct":true,"confidence":-1},{"trial_n":14,"n_dots":3.55,"target":"right","response":"left","rt":483.5,"correct":false,"confidence":-1},{"trial_n":15,"n_dots":3.65,"target":"left","response":"left","rt":384.09999990463,"correct":true,"confidence":-1},{"trial_n":16,"n_dots":3.65,"target":"left","response":"left","rt":303.5,"correct":true,"confidence":-1},{"trial_n":17,"n_dots":3.55,"target":"left","response":"right","rt":454.70000004768,"correct":false,"confidence":-1},{"trial_n":18,"n_dots":3.65,"target":"right","response":"right","rt":154.90000009537,"correct":true,"confidence":-1},{"trial_n":19,"n_dots":3.65,"target":"left","response":"left","rt":381.79999995232,"correct":true,"confidence":-1},{"trial_n":20,"n_dots":3.55,"target":"left","response":"left","rt":309.79999995232,"correct":true,"confidence":-1},{"trial_n":21,"n_dots":3.55,"target":"right","response":"right","rt":252.40000009537,"correct":true,"confidence":2},{"trial_n":22,"n_dots":3.45,"target":"right","response":"right","rt":679.10000002384,"correct":true,"confidence":2},{"trial_n":23,"n_dots":3.45,"target":"left","response":"left","rt":2714.2000000477,"correct":true,"confidence":4},{"trial_n":24,"n_dots":3.35,"target":"right","response":"right","rt":1500,"correct":true,"confidence":3},{"trial_n":25,"n_dots":3.35,"target":"left","response":"left","rt":874.79999995232,"correct":true,"confidence":3},{"trial_n":26,"n_dots":3.25,"target":"right","response":"left","rt":1641.1999999285,"correct":false,"confidence":2},{"trial_n":27,"n_dots":3.35,"target":"right","response":"right","rt":962.10000002384,"correct":true,"confidence":4},{"trial_n":28,"n_dots":3.35,"target":"left","response":"left","rt":1334.2999999523,"correct":true,"confidence":3},{"trial_n":29,"n_dots":3.25,"target":"left","response":"left","rt":2016.7999999523,"correct":true,"confidence":2},{"trial_n":30,"n_dots":3.25,"target":"left","response":"left","rt":2549.2999999523,"correct":true,"confidence":4},{"trial_n":31,"n_dots":3.15,"target":"right","response":"right","rt":1636.8000000715,"correct":true,"confidence":4},{"trial_n":32,"n_dots":3.15,"target":"left","response":"left","rt":1375.6999999285,"correct":true,"confidence":2},{"trial_n":33,"n_dots":3.05,"target":"right","response":"right","rt":1953,"correct":true,"confidence":2},{"trial_n":34,"n_dots":3.05,"target":"right","response":"left","rt":2235.5999999046,"correct":false,"confidence":2},{"trial_n":35,"n_dots":3.15,"target":"right","response":"right","rt":1402.8999999762,"correct":true,"confidence":4},{"trial_n":36,"n_dots":3.15,"target":"left","response":"left","rt":2292.8999999762,"correct":true,"confidence":5},{"trial_n":37,"n_dots":3.05,"target":"left","response":"left","rt":2025.7999999523,"correct":true,"confidence":2},{"trial_n":38,"n_dots":3.05,"target":"left","response":"right","rt":1714.1000000238,"correct":false,"confidence":4},{"trial_n":39,"n_dots":3.15,"target":"right","response":"right","rt":1403,"correct":true,"confidence":5},{"trial_n":40,"n_dots":3.15,"target":"left","response":"left","rt":1462,"correct":true,"confidence":5},{"trial_n":41,"n_dots":3.05,"target":"right","response":"left","rt":1681.7000000477,"correct":false,"confidence":4},{"trial_n":42,"n_dots":3.15,"target":"right","response":"right","rt":1121.3999999762,"correct":true,"confidence":4},{"trial_n":43,"n_dots":3.15,"target":"left","response":"left","rt":1244,"correct":true,"confidence":2},{"trial_n":44,"n_dots":3.05,"target":"right","response":"left","rt":1299.5,"correct":false,"confidence":2},{"trial_n":45,"n_dots":3.15,"target":"right","response":"right","rt":1429.6000000238,"correct":true,"confidence":5},{"trial_n":46,"n_dots":3.15,"target":"right","response":"right","rt":1186.7000000477,"correct":true,"confidence":5},{"trial_n":47,"n_dots":3.05,"target":"left","response":"right","rt":3196.2000000477,"correct":false,"confidence":5},{"trial_n":48,"n_dots":3.15,"target":"left","response":"left","rt":3144.6999999285,"correct":true,"confidence":2},{"trial_n":49,"n_dots":3.15,"target":"right","response":"right","rt":2537.5,"correct":true,"confidence":5},{"trial_n":50,"n_dots":3.05,"target":"left","response":"left","rt":2991,"correct":true,"confidence":4},{"trial_n":51,"n_dots":3.05,"target":"left","response":"right","rt":1511.3999999762,"correct":false,"confidence":5},{"trial_n":52,"n_dots":3.15,"target":"left","response":"left","rt":1426.8999999762,"correct":true,"confidence":5},{"trial_n":53,"n_dots":3.15,"target":"left","response":"right","rt":1836.8000000715,"correct":false,"confidence":5},{"trial_n":54,"n_dots":3.25,"target":"left","response":"right","rt":2141,"correct":false,"confidence":4},{"trial_n":55,"n_dots":3.35,"target":"right","response":"right","rt":2456.1999999285,"correct":true,"confidence":5},{"trial_n":56,"n_dots":3.35,"target":"right","response":"right","rt":1255.3999999762,"correct":true,"confidence":5},{"trial_n":57,"n_dots":3.25,"target":"right","response":"left","rt":1148.2000000477,"correct":false,"confidence":3},{"trial_n":58,"n_dots":3.35,"target":"left","response":"left","rt":1216.6999999285,"correct":true,"confidence":2},{"trial_n":59,"n_dots":3.35,"target":"right","response":"right","rt":703.69999992847,"correct":true,"confidence":5},{"trial_n":60,"n_dots":3.25,"target":"right","response":"right","rt":1378.2999999523,"correct":true,"confidence":5},{"trial_n":61,"n_dots":3.25,"target":"left","response":"right","rt":2148.5,"correct":false,"confidence":5},{"trial_n":62,"n_dots":3.35,"target":"right","response":"right","rt":856,"correct":true,"confidence":4},{"trial_n":63,"n_dots":3.35,"target":"right","response":"right","rt":757,"correct":true,"confidence":4},{"trial_n":64,"n_dots":3.25,"target":"right","response":"left","rt":5033.1000000238,"correct":false,"confidence":4},{"trial_n":65,"n_dots":3.35,"target":"left","response":"left","rt":1092.3999999762,"correct":true,"confidence":5},{"trial_n":66,"n_dots":3.35,"target":"left","response":"right","rt":1481.7999999523,"correct":false,"confidence":5},{"trial_n":67,"n_dots":3.45,"target":"right","response":"right","rt":1018.6000000238,"correct":true,"confidence":5},{"trial_n":68,"n_dots":3.45,"target":"left","response":"left","rt":1381.7999999523,"correct":true,"confidence":3},{"trial_n":69,"n_dots":3.35,"target":"left","response":"left","rt":840,"correct":true,"confidence":2},{"trial_n":70,"n_dots":3.35,"target":"left","response":"right","rt":838.5,"correct":false,"confidence":5},{"trial_n":71,"n_dots":3.45,"target":"right","response":"right","rt":843.60000002384,"correct":true,"confidence":5},{"trial_n":72,"n_dots":3.45,"target":"left","response":"left","rt":1104.2000000477,"correct":true,"confidence":2},{"trial_n":73,"n_dots":3.35,"target":"left","response":"left","rt":948.10000002384,"correct":true,"confidence":2},{"trial_n":74,"n_dots":3.35,"target":"left","response":"left","rt":2860.1000000238,"correct":true,"confidence":2},{"trial_n":75,"n_dots":3.25,"target":"left","response":"left","rt":983.29999995232,"correct":true,"confidence":4},{"trial_n":76,"n_dots":3.25,"target":"right","response":"left","rt":1950.3000000715,"correct":false,"confidence":3},{"trial_n":77,"n_dots":3.35,"target":"right","response":"right","rt":1626,"correct":true,"confidence":4},{"trial_n":78,"n_dots":3.35,"target":"right","response":"left","rt":1043.8999999762,"correct":false,"confidence":3},{"trial_n":79,"n_dots":3.45,"target":"right","response":"right","rt":1581.1999999285,"correct":true,"confidence":4},{"trial_n":80,"n_dots":3.45,"target":"right","response":"left","rt":1012.2000000477,"correct":false,"confidence":2},{"trial_n":81,"n_dots":3.55,"target":"left","response":"left","rt":788.10000002384,"correct":true,"confidence":2},{"trial_n":82,"n_dots":3.55,"target":"left","response":"left","rt":893.90000009537,"correct":true,"confidence":5},{"trial_n":83,"n_dots":3.45,"target":"left","response":"left","rt":935.60000002384,"correct":true,"confidence":5},{"trial_n":84,"n_dots":3.45,"target":"right","response":"right","rt":708.60000002384,"correct":true,"confidence":5},{"trial_n":85,"n_dots":3.35,"target":"left","response":"left","rt":786.39999997616,"correct":true,"confidence":1},{"trial_n":86,"n_dots":3.35,"target":"right","response":"left","rt":1031,"correct":false,"confidence":4},{"trial_n":87,"n_dots":3.45,"target":"left","response":"left","rt":720.89999997616,"correct":true,"confidence":4},{"trial_n":88,"n_dots":3.45,"target":"left","response":"left","rt":833.60000002384,"correct":true,"confidence":5},{"trial_n":89,"n_dots":3.35,"target":"left","response":"left","rt":737.5,"correct":true,"confidence":4},{"trial_n":90,"n_dots":3.35,"target":"right","response":"left","rt":758.89999997616,"correct":false,"confidence":4},{"trial_n":91,"n_dots":3.45,"target":"left","response":"right","rt":916.39999997616,"correct":false,"confidence":4},{"trial_n":92,"n_dots":3.55,"target":"left","response":"left","rt":876.5,"correct":true,"confidence":3},{"trial_n":93,"n_dots":3.55,"target":"right","response":"left","rt":706.09999990463,"correct":false,"confidence":5},{"trial_n":94,"n_dots":3.65,"target":"left","response":"left","rt":821.10000002384,"correct":true,"confidence":2},{"trial_n":95,"n_dots":3.65,"target":"left","response":"left","rt":936.09999990463,"correct":true,"confidence":5},{"trial_n":96,"n_dots":3.55,"target":"right","response":"right","rt":707.5,"correct":true,"confidence":4},{"trial_n":97,"n_dots":3.55,"target":"right","response":"right","rt":901.30000007153,"correct":true,"confidence":5},{"trial_n":98,"n_dots":3.45,"target":"left","response":"right","rt":1447.5999999046,"correct":false,"confidence":2},{"trial_n":99,"n_dots":3.55,"target":"left","response":"right","rt":727,"correct":false,"confidence":5},{"trial_n":100,"n_dots":3.65,"target":"left","response":"left","rt":1172.5,"correct":true,"confidence":5},{"trial_n":101,"n_dots":3.65,"target":"right","response":"right","rt":624,"correct":true,"confidence":5},{"trial_n":102,"n_dots":3.55,"target":"left","response":"left","rt":2180.7000000477,"correct":true,"confidence":2},{"trial_n":103,"n_dots":3.55,"target":"right","response":"right","rt":894.89999997616,"correct":true,"confidence":5},{"trial_n":104,"n_dots":3.45,"target":"left","response":"right","rt":521.39999997616,"correct":false,"confidence":5},{"trial_n":105,"n_dots":3.55,"target":"right","response":"right","rt":2553.3999999762,"correct":true,"confidence":4},{"trial_n":106,"n_dots":3.55,"target":"right","response":"right","rt":446.89999997616,"correct":true,"confidence":3},{"trial_n":107,"n_dots":3.45,"target":"right","response":"right","rt":464.79999995232,"correct":true,"confidence":5},{"trial_n":108,"n_dots":3.45,"target":"left","response":"left","rt":815.29999995232,"correct":true,"confidence":5},{"trial_n":109,"n_dots":3.35,"target":"right","response":"right","rt":676.70000004768,"correct":true,"confidence":5},{"trial_n":110,"n_dots":3.35,"target":"left","response":"left","rt":1790.3999999762,"correct":true,"confidence":4},{"trial_n":111,"n_dots":3.25,"target":"right","response":"right","rt":852.89999997616,"correct":true,"confidence":4},{"trial_n":112,"n_dots":3.25,"target":"left","response":"left","rt":1304.0999999046,"correct":true,"confidence":2},{"trial_n":113,"n_dots":3.15,"target":"right","response":"right","rt":1514.9000000954,"correct":true,"confidence":2},{"trial_n":114,"n_dots":3.15,"target":"right","response":"left","rt":1181.7000000477,"correct":false,"confidence":1},{"trial_n":115,"n_dots":3.25,"target":"right","response":"left","rt":1061.5,"correct":false,"confidence":3},{"trial_n":116,"n_dots":3.35,"target":"left","response":"left","rt":790.30000007153,"correct":true,"confidence":1},{"trial_n":117,"n_dots":3.35,"target":"right","response":"right","rt":925.59999990463,"correct":true,"confidence":4},{"trial_n":118,"n_dots":3.25,"target":"right","response":"right","rt":455.5,"correct":true,"confidence":4},{"trial_n":119,"n_dots":3.25,"target":"right","response":"right","rt":368.5,"correct":true,"confidence":4},{"trial_n":120,"n_dots":3.15,"target":"right","response":"left","rt":2025.3999999762,"correct":false,"confidence":3}]