[{"trial_n":1,"span":8,"encoder":"48142395","distractor":"45142395","target":"present","response":"absent","rt":"10831.700000048","correct":false,"confidence":-1},{"trial_n":2,"span":6,"encoder":"379622","distractor":"329622","target":"present","response":"present","rt":"1098.2000000477","correct":true,"confidence":-1},{"trial_n":3,"span":6,"encoder":"843396","distractor":"943396","target":"absent","response":"absent","rt":"1021.8999998569","correct":true,"confidence":-1},{"trial_n":4,"span":8,"encoder":"65057566","distractor":"65057466","target":"absent","response":"present","rt":"1989.2000000477","correct":false,"confidence":-1},{"trial_n":5,"span":6,"encoder":"639165","distractor":"639169","target":"present","response":"absent","rt":"793.5","correct":false,"confidence":-1},{"trial_n":6,"span":4,"encoder":"4717","distractor":"4714","target":"present","response":"present","rt":"1073.4000000954","correct":true,"confidence":-1},{"trial_n":7,"span":4,"encoder":"8030","distractor":"9030","target":"present","response":"present","rt":"843.5","correct":true,"confidence":-1},{"trial_n":8,"span":6,"encoder":"817654","distractor":"817651","target":"absent","response":"present","rt":"743.39999985695","correct":false,"confidence":-1},{"trial_n":9,"span":4,"encoder":"1264","distractor":"1864","target":"absent","response":"absent","rt":"1582","correct":true,"confidence":-1},{"trial_n":10,"span":4,"encoder":"6142","distractor":"6145","target":"present","response":"present","rt":"1125.5999999046","correct":true,"confidence":-1},{"trial_n":11,"span":6,"encoder":"200236","distractor":"200286","target":"present","response":"present","rt":"850.60000014305","correct":true,"confidence":-1},{"trial_n":12,"span":6,"encoder":"040072","distractor":"040372","target":"present","response":"present","rt":"862","correct":true,"confidence":-1},{"trial_n":13,"span":7,"encoder":"1951849","distractor":"1551849","target":"present","response":"present","rt":"923","correct":true,"confidence":-1},{"trial_n":14,"span":7,"encoder":"2567456","distractor":"2567453","target":"present","response":"absent","rt":"1456.5","correct":false,"confidence":-1},{"trial_n":15,"span":6,"encoder":"148837","distractor":"148637","target":"absent","response":"present","rt":"812.40000009537","correct":false,"confidence":-1},{"trial_n":16,"span":5,"encoder":"97795","distractor":"97295","target":"present","response":"absent","rt":"506.19999980927","correct":false,"confidence":-1},{"trial_n":17,"span":4,"encoder":"8457","distractor":"8453","target":"present","response":"present","rt":"645.5","correct":true,"confidence":-1},{"trial_n":18,"span":4,"encoder":"3236","distractor":"3239","target":"present","response":"present","rt":"988.90000009537","correct":true,"confidence":-1},{"trial_n":19,"span":5,"encoder":"52788","distractor":"52781","target":"absent","response":"present","rt":"702.80000019073","correct":false,"confidence":-1},{"trial_n":20,"span":4,"encoder":"5021","distractor":"5024","target":"present","response":"absent","rt":"396.20000004768","correct":false,"confidence":-1},{"trial_n":21,"span":3,"encoder":"867","distractor":"869","target":"absent","response":"present","rt":"588.09999990463","correct":false,"confidence":4},{"trial_n":22,"span":2,"encoder":"49","distractor":"39","target":"present","response":"present","rt":"2108.2000000477","correct":true,"confidence":5},{"trial_n":23,"span":2,"encoder":"57","distractor":"77","target":"absent","response":"present","rt":"3069.3999998569","correct":false,"confidence":5},{"trial_n":24,"span":2,"encoder":"91","distractor":"51","target":"present","response":"present","rt":"1669.0999999046","correct":true,"confidence":5},{"trial_n":25,"span":2,"encoder":"82","distractor":"72","target":"absent","response":"absent","rt":"1386.7999999523","correct":true,"confidence":5},{"trial_n":26,"span":3,"encoder":"435","distractor":"035","target":"absent","response":"absent","rt":"1119.5999999046","correct":true,"confidence":4},{"trial_n":27,"span":3,"encoder":"652","distractor":"657","target":"absent","response":"absent","rt":"1618","correct":true,"confidence":5},{"trial_n":28,"span":4,"encoder":"4867","distractor":"4860","target":"present","response":"present","rt":"1760.2000000477","correct":true,"confidence":5},{"trial_n":29,"span":4,"encoder":"9386","distractor":"8386","target":"absent","response":"absent","rt":"1449.2999999523","correct":true,"confidence":5},{"trial_n":30,"span":5,"encoder":"99090","distractor":"99690","target":"present","response":"present","rt":"894.90000009537","correct":true,"confidence":5},{"trial_n":31,"span":5,"encoder":"08479","distractor":"08499","target":"absent","response":"absent","rt":"1396.4000000954","correct":true,"confidence":5},{"trial_n":32,"span":6,"encoder":"927751","distractor":"727751","target":"absent","response":"present","rt":"1646.2999999523","correct":false,"confidence":5},{"trial_n":33,"span":5,"encoder":"17941","distractor":"27941","target":"absent","response":"absent","rt":"1196","correct":true,"confidence":5},{"trial_n":34,"span":5,"encoder":"56317","distractor":"54317","target":"absent","response":"absent","rt":"1623","correct":true,"confidence":5},{"trial_n":35,"span":6,"encoder":"435018","distractor":"135018","target":"present","response":"present","rt":"1581.7000000477","correct":true,"confidence":5},{"trial_n":36,"span":6,"encoder":"136185","distractor":"436185","target":"present","response":"present","rt":"1751.2000000477","correct":true,"confidence":5},{"trial_n":37,"span":7,"encoder":"9336087","distractor":"9336687","target":"present","response":"present","rt":"827.10000014305","correct":true,"confidence":5},{"trial_n":38,"span":7,"encoder":"7308509","distractor":"2308509","target":"absent","response":"absent","rt":"1444.3000001907","correct":true,"confidence":5},{"trial_n":39,"span":8,"encoder":"67753861","distractor":"67753881","target":"present","response":"present","rt":"2397.5","correct":true,"confidence":5},{"trial_n":40,"span":8,"encoder":"62352332","distractor":"62352334","target":"absent","response":"absent","rt":"3218","correct":true,"confidence":5},{"trial_n":41,"span":9,"encoder":"441865278","distractor":"471865278","target":"present","response":"absent","rt":"1559.0999999046","correct":false,"confidence":5},{"trial_n":42,"span":8,"encoder":"84703912","distractor":"84703712","target":"absent","response":"absent","rt":"1631.2000000477","correct":true,"confidence":5},{"trial_n":43,"span":8,"encoder":"66277955","distractor":"66277958","target":"present","response":"absent","rt":"2134.1000001431","correct":false,"confidence":5},{"trial_n":44,"span":7,"encoder":"5894343","distractor":"5814343","target":"absent","response":"absent","rt":"1572.5","correct":true,"confidence":5},{"trial_n":45,"span":7,"encoder":"3031929","distractor":"3031969","target":"absent","response":"absent","rt":"2156.0999999046","correct":true,"confidence":5},{"trial_n":46,"span":8,"encoder":"92312760","distractor":"92315760","target":"absent","response":"absent","rt":"2711.2999999523","correct":true,"confidence":5},{"trial_n":47,"span":8,"encoder":"31119814","distractor":"31109814","target":"absent","response":"present","rt":"1364.5999999046","correct":false,"confidence":5},{"trial_n":48,"span":7,"encoder":"9504670","distractor":"9504679","target":"absent","response":"absent","rt":"3684.1999998093","correct":true,"confidence":5},{"trial_n":49,"span":7,"encoder":"6156948","distractor":"3156948","target":"present","response":"present","rt":"2200.5","correct":true,"confidence":5},{"trial_n":50,"span":8,"encoder":"32724840","distractor":"32721840","target":"absent","response":"absent","rt":"3539.2999999523","correct":true,"confidence":5},{"trial_n":51,"span":8,"encoder":"42047202","distractor":"42047502","target":"present","response":"absent","rt":"5501.7999999523","correct":false,"confidence":4},{"trial_n":52,"span":7,"encoder":"6694781","distractor":"6894781","target":"present","response":"present","rt":"1472.5999999046","correct":true,"confidence":5},{"trial_n":53,"span":7,"encoder":"5359832","distractor":"1359832","target":"present","response":"present","rt":"1204.0999999046","correct":true,"confidence":5},{"trial_n":54,"span":8,"encoder":"88011715","distractor":"88011705","target":"absent","response":"present","rt":"1421.8999998569","correct":false,"confidence":5},{"trial_n":55,"span":7,"encoder":"6392828","distractor":"1392828","target":"absent","response":"absent","rt":"4829.9000000954","correct":true,"confidence":5},{"trial_n":56,"span":7,"encoder":"2529353","distractor":"6529353","target":"present","response":"present","rt":"952.60000014305","correct":true,"confidence":5},{"trial_n":57,"span":8,"encoder":"66997856","distractor":"96997856","target":"absent","response":"present","rt":"3269.3000001907","correct":false,"confidence":5},{"trial_n":58,"span":7,"encoder":"5348374","distractor":"5748374","target":"absent","response":"present","rt":"799","correct":false,"confidence":5},{"trial_n":59,"span":6,"encoder":"176926","distractor":"176924","target":"present","response":"present","rt":"638.29999995232","correct":true,"confidence":5},{"trial_n":60,"span":6,"encoder":"573903","distractor":"573905","target":"absent","response":"absent","rt":"1232.2999999523","correct":true,"confidence":5},{"trial_n":61,"span":7,"encoder":"8697669","distractor":"3697669","target":"present","response":"present","rt":"1797.3000001907","correct":true,"confidence":5},{"trial_n":62,"span":7,"encoder":"2360552","distractor":"2360252","target":"absent","response":"absent","rt":"2116.2999999523","correct":true,"confidence":5},{"trial_n":63,"span":8,"encoder":"78791171","distractor":"38791171","target":"present","response":"present","rt":"3108.0999999046","correct":true,"confidence":5},{"trial_n":64,"span":8,"encoder":"07493878","distractor":"07493478","target":"present","response":"present","rt":"3717.9000000954","correct":true,"confidence":5},{"trial_n":65,"span":9,"encoder":"618398071","distractor":"618398061","target":"absent","response":"absent","rt":"4445.5","correct":true,"confidence":5},{"trial_n":66,"span":9,"encoder":"843125242","distractor":"843725242","target":"absent","response":"present","rt":"3198.0999999046","correct":false,"confidence":5},{"trial_n":67,"span":8,"encoder":"79290663","distractor":"79299663","target":"absent","response":"present","rt":"1015.9000000954","correct":false,"confidence":5},{"trial_n":68,"span":7,"encoder":"3316121","distractor":"3216121","target":"present","response":"present","rt":"2676.0999999046","correct":true,"confidence":5},{"trial_n":69,"span":7,"encoder":"1876209","distractor":"1806209","target":"present","response":"present","rt":"1882.1999998093","correct":true,"confidence":5},{"trial_n":70,"span":8,"encoder":"18955895","distractor":"18955891","target":"present","response":"present","rt":"3567.8999998569","correct":true,"confidence":5},{"trial_n":71,"span":8,"encoder":"75335330","distractor":"75375330","target":"present","response":"present","rt":"3167.7999999523","correct":true,"confidence":-1},{"trial_n":72,"span":8,"encoder":"84974737","distractor":"04974737","target":"present","response":"absent","rt":"937.09999990463","correct":false,"confidence":-1},{"trial_n":73,"span":7,"encoder":"4697816","distractor":"4997816","target":"absent","response":"present","rt":"1019.2000000477","correct":false,"confidence":-1},{"trial_n":74,"span":6,"encoder":"883843","distractor":"883853","target":"absent","response":"absent","rt":"893.09999990463","correct":true,"confidence":-1},{"trial_n":75,"span":6,"encoder":"725131","distractor":"725231","target":"present","response":"absent","rt":"579.90000009537","correct":false,"confidence":-1},{"trial_n":76,"span":5,"encoder":"61189","distractor":"01189","target":"absent","response":"present","rt":"852.79999995232","correct":false,"confidence":-1},{"trial_n":77,"span":4,"encoder":"9515","distractor":"9518","target":"present","response":"absent","rt":"791","correct":false,"confidence":-1},{"trial_n":78,"span":3,"encoder":"026","distractor":"029","target":"absent","response":"present","rt":"957.70000004768","correct":false,"confidence":-1},{"trial_n":79,"span":2,"encoder":"56","distractor":"54","target":"present","response":"present","rt":"1220","correct":true,"confidence":-1},{"trial_n":80,"span":2,"encoder":"70","distractor":"80","target":"present","response":"present","rt":"1182.2000000477","correct":true,"confidence":-1},{"trial_n":81,"span":3,"encoder":"836","distractor":"876","target":"absent","response":"absent","rt":"1047.7000000477","correct":true,"confidence":-1},{"trial_n":82,"span":3,"encoder":"047","distractor":"046","target":"present","response":"present","rt":"1151.2999999523","correct":true,"confidence":-1},{"trial_n":83,"span":4,"encoder":"4840","distractor":"4847","target":"present","response":"present","rt":"1009.2999999523","correct":true,"confidence":-1},{"trial_n":84,"span":4,"encoder":"7708","distractor":"7705","target":"absent","response":"absent","rt":"1499.0999999046","correct":true,"confidence":-1},{"trial_n":85,"span":5,"encoder":"70335","distractor":"70835","target":"absent","response":"absent","rt":"2140.8000001907","correct":true,"confidence":-1},{"trial_n":86,"span":5,"encoder":"90174","distractor":"20174","target":"absent","response":"absent","rt":"1426.6999998093","correct":true,"confidence":-1},{"trial_n":87,"span":6,"encoder":"922597","distractor":"422597","target":"present","response":"present","rt":"2053.8999998569","correct":true,"confidence":-1},{"trial_n":88,"span":6,"encoder":"152699","distractor":"152619","target":"absent","response":"absent","rt":"1955.3999998569","correct":true,"confidence":-1},{"trial_n":89,"span":7,"encoder":"0628216","distractor":"0648216","target":"absent","response":"absent","rt":"1787","correct":true,"confidence":-1},{"trial_n":90,"span":7,"encoder":"6218827","distractor":"6218822","target":"absent","response":"absent","rt":"2369.8000001907","correct":true,"confidence":-1},{"trial_n":91,"span":8,"encoder":"75555972","distractor":"75557972","target":"present","response":"absent","rt":"2051.5999999046","correct":false,"confidence":3},{"trial_n":92,"span":7,"encoder":"0940266","distractor":"0949266","target":"absent","response":"absent","rt":"2074.0999999046","correct":true,"confidence":3},{"trial_n":93,"span":7,"encoder":"4025226","distractor":"4005226","target":"present","response":"present","rt":"3273.2000000477","correct":true,"confidence":4},{"trial_n":94,"span":8,"encoder":"03099315","distractor":"03099415","target":"absent","response":"absent","rt":"2001.2999999523","correct":true,"confidence":3},{"trial_n":95,"span":8,"encoder":"85830938","distractor":"85830138","target":"present","response":"absent","rt":"3663.7999999523","correct":false,"confidence":1},{"trial_n":96,"span":7,"encoder":"9471787","distractor":"9421787","target":"present","response":"present","rt":"3738.0999999046","correct":true,"confidence":5},{"trial_n":97,"span":7,"encoder":"4285579","distractor":"4288579","target":"absent","response":"absent","rt":"2835.2000000477","correct":true,"confidence":1},{"trial_n":98,"span":8,"encoder":"42029505","distractor":"42029503","target":"present","response":"present","rt":"1484.5","correct":true,"confidence":5},{"trial_n":99,"span":8,"encoder":"06299618","distractor":"06299518","target":"present","response":"present","rt":"3320.6000001431","correct":true,"confidence":4},{"trial_n":100,"span":9,"encoder":"418018133","distractor":"418018533","target":"present","response":"present","rt":"1656.2000000477","correct":true,"confidence":3},{"trial_n":101,"span":9,"encoder":"650396372","distractor":"650395372","target":"present","response":"absent","rt":"1677.4000000954","correct":false,"confidence":4},{"trial_n":102,"span":8,"encoder":"65102883","distractor":"65102683","target":"absent","response":"present","rt":"2711.2000000477","correct":false,"confidence":3},{"trial_n":103,"span":7,"encoder":"9987492","distractor":"9917492","target":"present","response":"present","rt":"3015.0999999046","correct":true,"confidence":5},{"trial_n":104,"span":7,"encoder":"6019409","distractor":"6019479","target":"absent","response":"present","rt":"3916.0999999046","correct":false,"confidence":5},{"trial_n":105,"span":6,"encoder":"826466","distractor":"827466","target":"absent","response":"absent","rt":"1963.6999998093","correct":true,"confidence":5},{"trial_n":106,"span":6,"encoder":"601011","distractor":"651011","target":"present","response":"present","rt":"2508.2000000477","correct":true,"confidence":5},{"trial_n":107,"span":7,"encoder":"3478715","distractor":"3478915","target":"absent","response":"absent","rt":"2764.8999998569","correct":true,"confidence":5},{"trial_n":108,"span":7,"encoder":"1479803","distractor":"1473803","target":"present","response":"present","rt":"5195.2000000477","correct":true,"confidence":5},{"trial_n":109,"span":8,"encoder":"29259538","distractor":"89259538","target":"absent","response":"absent","rt":"1199.5","correct":true,"confidence":5},{"trial_n":110,"span":8,"encoder":"87744184","distractor":"87741184","target":"absent","response":"absent","rt":"2233.2999999523","correct":true,"confidence":5},{"trial_n":111,"span":9,"encoder":"912804400","distractor":"916804400","target":"present","response":"present","rt":"3481.2999999523","correct":true,"confidence":5},{"trial_n":112,"span":9,"encoder":"085064543","distractor":"085364543","target":"present","response":"present","rt":"660.59999990463","correct":true,"confidence":3},{"trial_n":113,"span":10,"encoder":"5025430468","distractor":"5025430458","target":"present","response":"present","rt":"794.60000014305","correct":true,"confidence":3},{"trial_n":114,"span":10,"encoder":"3183610891","distractor":"3187610891","target":"present","response":"absent","rt":"681.79999995232","correct":false,"confidence":1},{"trial_n":115,"span":9,"encoder":"918316763","distractor":"918316723","target":"present","response":"present","rt":"745.5","correct":true,"confidence":1},{"trial_n":116,"span":9,"encoder":"597039727","distractor":"597039527","target":"present","response":"present","rt":"630.5","correct":true,"confidence":1},{"trial_n":117,"span":10,"encoder":"7192078887","distractor":"7892078887","target":"present","response":"absent","rt":"703.29999995232","correct":false,"confidence":1},{"trial_n":118,"span":9,"encoder":"405644170","distractor":"405634170","target":"absent","response":"absent","rt":"703.09999990463","correct":true,"confidence":1},{"trial_n":119,"span":9,"encoder":"504533185","distractor":"104533185","target":"absent","response":"present","rt":"2252.9000000954","correct":false,"confidence":1},{"trial_n":120,"span":8,"encoder":"69131075","distractor":"69131575","target":"absent","response":"present","rt":"1002.0999999046","correct":false,"confidence":1},{"trial_n":121,"span":7,"encoder":"5345603","distractor":"4345603","target":"present","response":"absent","rt":"716.30000019073","correct":false,"confidence":1},{"trial_n":122,"span":6,"encoder":"727002","distractor":"728002","target":"absent","response":"absent","rt":"597.09999990463","correct":true,"confidence":1},{"trial_n":123,"span":6,"encoder":"233328","distractor":"233728","target":"present","response":"present","rt":"776","correct":true,"confidence":1},{"trial_n":124,"span":7,"encoder":"6232523","distractor":"6232513","target":"present","response":"present","rt":"646.70000004768","correct":true,"confidence":1},{"trial_n":125,"span":7,"encoder":"9438270","distractor":"9138270","target":"absent","response":"present","rt":"1578.7999999523","correct":false,"confidence":1},{"trial_n":126,"span":6,"encoder":"910125","distractor":"900125","target":"present","response":"absent","rt":"551.5","correct":false,"confidence":1},{"trial_n":127,"span":5,"encoder":"18810","distractor":"18610","target":"absent","response":"present","rt":"828.89999985695","correct":false,"confidence":1},{"trial_n":128,"span":4,"encoder":"3522","distractor":"8522","target":"absent","response":"absent","rt":"1079.4000000954","correct":true,"confidence":1},{"trial_n":129,"span":4,"encoder":"8768","distractor":"8778","target":"present","response":"present","rt":"672.09999990463","correct":true,"confidence":1},{"trial_n":130,"span":5,"encoder":"32979","distractor":"32975","target":"absent","response":"absent","rt":"844.79999995232","correct":true,"confidence":1},{"trial_n":131,"span":5,"encoder":"17736","distractor":"11736","target":"absent","response":"absent","rt":"581.79999995232","correct":true,"confidence":1},{"trial_n":132,"span":6,"encoder":"914975","distractor":"914935","target":"present","response":"present","rt":"1721.5","correct":true,"confidence":1},{"trial_n":133,"span":6,"encoder":"945615","distractor":"945685","target":"absent","response":"present","rt":"1468.5999999046","correct":false,"confidence":1},{"trial_n":134,"span":5,"encoder":"13345","distractor":"13344","target":"absent","response":"absent","rt":"974.40000009537","correct":true,"confidence":1},{"trial_n":135,"span":5,"encoder":"54749","distractor":"54049","target":"present","response":"present","rt":"1229.4000000954","correct":true,"confidence":1},{"trial_n":136,"span":6,"encoder":"316035","distractor":"310035","target":"present","response":"absent","rt":"979.90000009537","correct":false,"confidence":1},{"trial_n":137,"span":5,"encoder":"30782","distractor":"30582","target":"absent","response":"present","rt":"889.90000009537","correct":false,"confidence":1},{"trial_n":138,"span":4,"encoder":"3240","distractor":"3249","target":"present","response":"present","rt":"952.29999995232","correct":true,"confidence":1},{"trial_n":139,"span":4,"encoder":"2748","distractor":"2744","target":"absent","response":"absent","rt":"912.80000019073","correct":true,"confidence":1},{"trial_n":140,"span":5,"encoder":"18767","distractor":"98767","target":"absent","response":"absent","rt":"1160","correct":true,"confidence":1}]