[{"trial_n":1,"span":8,"encoder":"50731533","distractor":"51731533","target":"present","response":"present","rt":"5447","correct":true,"confidence":-1},{"trial_n":2,"span":8,"encoder":"33209919","distractor":"33206919","target":"present","response":"present","rt":"1037","correct":true,"confidence":-1},{"trial_n":3,"span":10,"encoder":"7174375028","distractor":"7174335028","target":"absent","response":"present","rt":"1135","correct":false,"confidence":-1},{"trial_n":4,"span":8,"encoder":"61875491","distractor":"61875481","target":"absent","response":"present","rt":"997","correct":false,"confidence":-1},{"trial_n":5,"span":6,"encoder":"005952","distractor":"001952","target":"present","response":"present","rt":"2018","correct":true,"confidence":-1},{"trial_n":6,"span":6,"encoder":"338672","distractor":"338670","target":"absent","response":"absent","rt":"1391","correct":true,"confidence":-1},{"trial_n":7,"span":8,"encoder":"53829831","distractor":"53819831","target":"present","response":"present","rt":"1100","correct":true,"confidence":-1},{"trial_n":8,"span":8,"encoder":"18738942","distractor":"18238942","target":"absent","response":"absent","rt":"1057","correct":true,"confidence":-1},{"trial_n":9,"span":10,"encoder":"9398018421","distractor":"9378018421","target":"absent","response":"present","rt":"871","correct":false,"confidence":-1},{"trial_n":10,"span":8,"encoder":"66371009","distractor":"66371002","target":"present","response":"absent","rt":"413.00000000003","correct":false,"confidence":-1},{"trial_n":11,"span":6,"encoder":"671932","distractor":"671930","target":"present","response":"present","rt":"530.99999999997","correct":true,"confidence":-1},{"trial_n":12,"span":6,"encoder":"757481","distractor":"757461","target":"absent","response":"present","rt":"118","correct":false,"confidence":-1},{"trial_n":13,"span":5,"encoder":"15495","distractor":"15795","target":"absent","response":"present","rt":"499","correct":false,"confidence":-1},{"trial_n":14,"span":4,"encoder":"4457","distractor":"4477","target":"present","response":"absent","rt":"1687","correct":false,"confidence":-1},{"trial_n":15,"span":3,"encoder":"713","distractor":"113","target":"present","response":"present","rt":"1094","correct":true,"confidence":-1},{"trial_n":16,"span":3,"encoder":"012","distractor":"062","target":"present","response":"present","rt":"571","correct":true,"confidence":-1},{"trial_n":17,"span":4,"encoder":"4616","distractor":"4613","target":"absent","response":"present","rt":"557.00000000003","correct":false,"confidence":-1},{"trial_n":18,"span":3,"encoder":"656","distractor":"256","target":"present","response":"present","rt":"1292","correct":true,"confidence":-1},{"trial_n":19,"span":3,"encoder":"119","distractor":"179","target":"absent","response":"present","rt":"881","correct":false,"confidence":-1},{"trial_n":20,"span":2,"encoder":"14","distractor":"15","target":"present","response":"present","rt":"687","correct":true,"confidence":-1},{"trial_n":21,"span":2,"encoder":"54","distractor":"59","target":"absent","response":"absent","rt":"2791","correct":true,"confidence":5},{"trial_n":22,"span":3,"encoder":"240","distractor":"440","target":"present","response":"present","rt":"942","correct":true,"confidence":5},{"trial_n":23,"span":3,"encoder":"427","distractor":"477","target":"absent","response":"absent","rt":"1115","correct":true,"confidence":5},{"trial_n":24,"span":4,"encoder":"0336","distractor":"0436","target":"absent","response":"absent","rt":"1814","correct":true,"confidence":5},{"trial_n":25,"span":4,"encoder":"6562","distractor":"6262","target":"absent","response":"absent","rt":"1437.0000000001","correct":true,"confidence":4},{"trial_n":26,"span":5,"encoder":"90128","distractor":"90328","target":"present","response":"present","rt":"2160","correct":true,"confidence":5},{"trial_n":27,"span":5,"encoder":"25129","distractor":"22129","target":"absent","response":"absent","rt":"1971","correct":true,"confidence":4},{"trial_n":28,"span":6,"encoder":"440016","distractor":"440019","target":"absent","response":"absent","rt":"1303","correct":true,"confidence":5},{"trial_n":29,"span":6,"encoder":"257057","distractor":"257357","target":"absent","response":"absent","rt":"1589","correct":true,"confidence":4},{"trial_n":30,"span":7,"encoder":"4101064","distractor":"4501064","target":"absent","response":"absent","rt":"1568","correct":true,"confidence":1},{"trial_n":31,"span":7,"encoder":"8820330","distractor":"9820330","target":"absent","response":"absent","rt":"1167","correct":true,"confidence":5},{"trial_n":32,"span":8,"encoder":"44740421","distractor":"44540421","target":"absent","response":"absent","rt":"1408","correct":true,"confidence":5},{"trial_n":33,"span":8,"encoder":"18478287","distractor":"18478227","target":"absent","response":"absent","rt":"1947","correct":true,"confidence":5},{"trial_n":34,"span":9,"encoder":"920683834","distractor":"920683839","target":"present","response":"present","rt":"1539","correct":true,"confidence":4},{"trial_n":35,"span":9,"encoder":"063995121","distractor":"063991121","target":"present","response":"absent","rt":"1743","correct":false,"confidence":4},{"trial_n":36,"span":8,"encoder":"13275270","distractor":"13285270","target":"present","response":"present","rt":"2031","correct":true,"confidence":5},{"trial_n":37,"span":8,"encoder":"69852413","distractor":"69852453","target":"present","response":"absent","rt":"1233.9999999999","correct":false,"confidence":1},{"trial_n":38,"span":7,"encoder":"4854715","distractor":"4954715","target":"absent","response":"absent","rt":"1437","correct":true,"confidence":5},{"trial_n":39,"span":7,"encoder":"2083890","distractor":"2083870","target":"present","response":"present","rt":"1815.0000000001","correct":true,"confidence":4},{"trial_n":40,"span":8,"encoder":"57468424","distractor":"57468724","target":"present","response":"present","rt":"2518","correct":true,"confidence":4},{"trial_n":41,"span":8,"encoder":"58536528","distractor":"58536228","target":"absent","response":"present","rt":"3389","correct":false,"confidence":3},{"trial_n":42,"span":7,"encoder":"9545522","distractor":"9549522","target":"present","response":"present","rt":"2339","correct":true,"confidence":4},{"trial_n":43,"span":7,"encoder":"6226189","distractor":"6206189","target":"present","response":"present","rt":"889","correct":true,"confidence":3},{"trial_n":44,"span":8,"encoder":"34752222","distractor":"34755222","target":"absent","response":"present","rt":"1274","correct":false,"confidence":2},{"trial_n":45,"span":7,"encoder":"5918132","distractor":"5918832","target":"present","response":"present","rt":"2474","correct":true,"confidence":4},{"trial_n":46,"span":7,"encoder":"6887137","distractor":"6882137","target":"absent","response":"present","rt":"1330","correct":false,"confidence":3},{"trial_n":47,"span":6,"encoder":"444473","distractor":"044473","target":"present","response":"present","rt":"953","correct":true,"confidence":5},{"trial_n":48,"span":6,"encoder":"504236","distractor":"504036","target":"present","response":"absent","rt":"2197","correct":false,"confidence":4},{"trial_n":49,"span":5,"encoder":"96924","distractor":"98924","target":"present","response":"present","rt":"2199","correct":true,"confidence":5},{"trial_n":50,"span":5,"encoder":"02293","distractor":"12293","target":"absent","response":"present","rt":"1459.0000000001","correct":false,"confidence":1},{"trial_n":51,"span":4,"encoder":"6023","distractor":"6025","target":"absent","response":"absent","rt":"1514.9999999999","correct":true,"confidence":5},{"trial_n":52,"span":4,"encoder":"5900","distractor":"5907","target":"present","response":"present","rt":"1183","correct":true,"confidence":5},{"trial_n":53,"span":5,"encoder":"79841","distractor":"79041","target":"absent","response":"absent","rt":"2272.9999999999","correct":true,"confidence":5},{"trial_n":54,"span":5,"encoder":"82278","distractor":"22278","target":"absent","response":"absent","rt":"1294.0000000001","correct":true,"confidence":5},{"trial_n":55,"span":6,"encoder":"200920","distractor":"900920","target":"absent","response":"absent","rt":"1574","correct":true,"confidence":5},{"trial_n":56,"span":6,"encoder":"127141","distractor":"129141","target":"absent","response":"absent","rt":"1925","correct":true,"confidence":5},{"trial_n":57,"span":7,"encoder":"9305172","distractor":"9305178","target":"absent","response":"present","rt":"1461","correct":false,"confidence":3},{"trial_n":58,"span":6,"encoder":"678157","distractor":"672157","target":"present","response":"present","rt":"1297","correct":true,"confidence":3},{"trial_n":59,"span":6,"encoder":"072674","distractor":"072774","target":"present","response":"present","rt":"3180.9999999998","correct":true,"confidence":4},{"trial_n":60,"span":7,"encoder":"3407549","distractor":"3407542","target":"present","response":"present","rt":"1499","correct":true,"confidence":3},{"trial_n":61,"span":7,"encoder":"4801353","distractor":"4601353","target":"absent","response":"absent","rt":"2659","correct":true,"confidence":5},{"trial_n":62,"span":8,"encoder":"96943024","distractor":"96941024","target":"present","response":"present","rt":"2357","correct":true,"confidence":4},{"trial_n":63,"span":8,"encoder":"29238126","distractor":"29278126","target":"present","response":"present","rt":"2666","correct":true,"confidence":4},{"trial_n":64,"span":9,"encoder":"260511207","distractor":"260511707","target":"present","response":"absent","rt":"2399","correct":false,"confidence":5},{"trial_n":65,"span":8,"encoder":"26614895","distractor":"26514895","target":"absent","response":"absent","rt":"2763.0000000002","correct":true,"confidence":5},{"trial_n":66,"span":8,"encoder":"62341199","distractor":"62341399","target":"present","response":"present","rt":"1672","correct":true,"confidence":1},{"trial_n":67,"span":9,"encoder":"194606149","distractor":"194609149","target":"present","response":"present","rt":"2117","correct":true,"confidence":4},{"trial_n":68,"span":9,"encoder":"511661175","distractor":"511661173","target":"present","response":"present","rt":"963","correct":true,"confidence":3},{"trial_n":69,"span":10,"encoder":"4526916326","distractor":"4626916326","target":"absent","response":"absent","rt":"1900","correct":true,"confidence":5},{"trial_n":70,"span":10,"encoder":"2955501782","distractor":"2955501762","target":"present","response":"absent","rt":"3204","correct":false,"confidence":3},{"trial_n":71,"span":8,"encoder":"19648402","distractor":"17648402","target":"present","response":"present","rt":"2379","correct":true,"confidence":-1},{"trial_n":72,"span":8,"encoder":"72105811","distractor":"72105814","target":"present","response":"absent","rt":"3238","correct":false,"confidence":-1},{"trial_n":73,"span":7,"encoder":"7771942","distractor":"5771942","target":"absent","response":"absent","rt":"2033","correct":true,"confidence":-1},{"trial_n":74,"span":7,"encoder":"1077571","distractor":"1077511","target":"absent","response":"absent","rt":"2678","correct":true,"confidence":-1},{"trial_n":75,"span":8,"encoder":"84477563","distractor":"84377563","target":"present","response":"present","rt":"699","correct":true,"confidence":-1},{"trial_n":76,"span":8,"encoder":"71220419","distractor":"71220019","target":"absent","response":"absent","rt":"1225","correct":true,"confidence":-1},{"trial_n":77,"span":9,"encoder":"411867259","distractor":"411867229","target":"absent","response":"absent","rt":"660","correct":true,"confidence":-1},{"trial_n":78,"span":9,"encoder":"998757430","distractor":"098757430","target":"absent","response":"present","rt":"465","correct":false,"confidence":-1},{"trial_n":79,"span":8,"encoder":"76495147","distractor":"06495147","target":"present","response":"present","rt":"326","correct":true,"confidence":-1},{"trial_n":80,"span":8,"encoder":"92868630","distractor":"92862630","target":"present","response":"absent","rt":"546.00000000023","correct":false,"confidence":-1},{"trial_n":81,"span":7,"encoder":"4621876","distractor":"4621476","target":"present","response":"present","rt":"484","correct":true,"confidence":-1},{"trial_n":82,"span":7,"encoder":"2827940","distractor":"2827240","target":"absent","response":"present","rt":"872","correct":false,"confidence":-1},{"trial_n":83,"span":6,"encoder":"651224","distractor":"651229","target":"absent","response":"absent","rt":"537","correct":true,"confidence":-1},{"trial_n":84,"span":6,"encoder":"562904","distractor":"560904","target":"absent","response":"present","rt":"417","correct":false,"confidence":-1},{"trial_n":85,"span":5,"encoder":"33851","distractor":"33451","target":"present","response":"absent","rt":"372","correct":false,"confidence":-1},{"trial_n":86,"span":4,"encoder":"1422","distractor":"4422","target":"absent","response":"absent","rt":"495","correct":true,"confidence":-1},{"trial_n":87,"span":4,"encoder":"2127","distractor":"2167","target":"present","response":"absent","rt":"397.99999999977","correct":false,"confidence":-1},{"trial_n":88,"span":3,"encoder":"183","distractor":"483","target":"present","response":"absent","rt":"545","correct":false,"confidence":-1},{"trial_n":89,"span":2,"encoder":"39","distractor":"35","target":"present","response":"present","rt":"1373","correct":true,"confidence":-1},{"trial_n":90,"span":2,"encoder":"22","distractor":"23","target":"present","response":"present","rt":"817","correct":true,"confidence":-1},{"trial_n":91,"span":3,"encoder":"338","distractor":"538","target":"present","response":"present","rt":"2797","correct":true,"confidence":5},{"trial_n":92,"span":3,"encoder":"442","distractor":"482","target":"absent","response":"absent","rt":"962.00000000047","correct":true,"confidence":5},{"trial_n":93,"span":4,"encoder":"1521","distractor":"1721","target":"present","response":"present","rt":"1525","correct":true,"confidence":5},{"trial_n":94,"span":4,"encoder":"9919","distractor":"4919","target":"absent","response":"absent","rt":"1830","correct":true,"confidence":4},{"trial_n":95,"span":5,"encoder":"45359","distractor":"45399","target":"absent","response":"absent","rt":"2482","correct":true,"confidence":5},{"trial_n":96,"span":5,"encoder":"38455","distractor":"48455","target":"present","response":"present","rt":"4186","correct":true,"confidence":5},{"trial_n":97,"span":6,"encoder":"143358","distractor":"443358","target":"present","response":"present","rt":"2169","correct":true,"confidence":5},{"trial_n":98,"span":6,"encoder":"994312","distractor":"997312","target":"present","response":"present","rt":"2120","correct":true,"confidence":5},{"trial_n":99,"span":7,"encoder":"9095722","distractor":"9095725","target":"present","response":"present","rt":"4312","correct":true,"confidence":2},{"trial_n":100,"span":7,"encoder":"2259508","distractor":"2259507","target":"present","response":"present","rt":"1892","correct":true,"confidence":5},{"trial_n":101,"span":8,"encoder":"37793265","distractor":"37793285","target":"absent","response":"present","rt":"3482","correct":false,"confidence":2},{"trial_n":102,"span":7,"encoder":"9604262","distractor":"9204262","target":"present","response":"present","rt":"2535","correct":true,"confidence":5},{"trial_n":103,"span":7,"encoder":"8426628","distractor":"8416628","target":"present","response":"present","rt":"3326","correct":true,"confidence":5},{"trial_n":104,"span":8,"encoder":"63551744","distractor":"65551744","target":"present","response":"present","rt":"3676","correct":true,"confidence":5},{"trial_n":105,"span":8,"encoder":"11591745","distractor":"11491745","target":"absent","response":"absent","rt":"4292","correct":true,"confidence":3},{"trial_n":106,"span":9,"encoder":"730803934","distractor":"750803934","target":"absent","response":"absent","rt":"2571.0000000005","correct":true,"confidence":5},{"trial_n":107,"span":9,"encoder":"454903398","distractor":"454603398","target":"present","response":"present","rt":"3698","correct":true,"confidence":5},{"trial_n":108,"span":10,"encoder":"6956908123","distractor":"6956908143","target":"absent","response":"present","rt":"7013","correct":false,"confidence":1},{"trial_n":109,"span":9,"encoder":"365694528","distractor":"365664528","target":"present","response":"present","rt":"3356","correct":true,"confidence":5},{"trial_n":110,"span":9,"encoder":"812378640","distractor":"812578640","target":"absent","response":"present","rt":"3260","correct":false,"confidence":1},{"trial_n":111,"span":8,"encoder":"37176492","distractor":"37176498","target":"present","response":"present","rt":"5110","correct":true,"confidence":1},{"trial_n":112,"span":8,"encoder":"16477540","distractor":"17477540","target":"present","response":"present","rt":"2311","correct":true,"confidence":5},{"trial_n":113,"span":9,"encoder":"394312118","distractor":"394372118","target":"present","response":"absent","rt":"4245","correct":false,"confidence":1},{"trial_n":114,"span":8,"encoder":"54762977","distractor":"24762977","target":"present","response":"present","rt":"3025","correct":true,"confidence":5},{"trial_n":115,"span":8,"encoder":"98391929","distractor":"98331929","target":"present","response":"present","rt":"5018.9999999995","correct":true,"confidence":3},{"trial_n":116,"span":9,"encoder":"443666924","distractor":"444666924","target":"absent","response":"absent","rt":"2911","correct":true,"confidence":3},{"trial_n":117,"span":9,"encoder":"119627868","distractor":"819627868","target":"absent","response":"absent","rt":"2757","correct":true,"confidence":5},{"trial_n":118,"span":10,"encoder":"7822877863","distractor":"7822879863","target":"absent","response":"present","rt":"2482","correct":false,"confidence":1},{"trial_n":119,"span":9,"encoder":"944826991","distractor":"944826961","target":"absent","response":"present","rt":"3881","correct":false,"confidence":1},{"trial_n":120,"span":8,"encoder":"78630664","distractor":"78630614","target":"absent","response":"absent","rt":"6787","correct":true,"confidence":1},{"trial_n":121,"span":8,"encoder":"28904026","distractor":"28904126","target":"absent","response":"absent","rt":"4048","correct":true,"confidence":1},{"trial_n":122,"span":9,"encoder":"837213828","distractor":"537213828","target":"absent","response":"absent","rt":"1945","correct":true,"confidence":5},{"trial_n":123,"span":9,"encoder":"220828884","distractor":"222828884","target":"absent","response":"absent","rt":"3976.0000000005","correct":true,"confidence":5},{"trial_n":124,"span":10,"encoder":"7891167598","distractor":"7891157598","target":"present","response":"absent","rt":"4406","correct":false,"confidence":4},{"trial_n":125,"span":9,"encoder":"100012097","distractor":"800012097","target":"present","response":"present","rt":"2850","correct":true,"confidence":5},{"trial_n":126,"span":9,"encoder":"445528420","distractor":"445508420","target":"present","response":"present","rt":"4073","correct":true,"confidence":5},{"trial_n":127,"span":10,"encoder":"4775305371","distractor":"9775305371","target":"absent","response":"absent","rt":"2087.9999999995","correct":true,"confidence":5},{"trial_n":128,"span":10,"encoder":"3490952236","distractor":"3490952436","target":"absent","response":"present","rt":"5145","correct":false,"confidence":1},{"trial_n":129,"span":9,"encoder":"898487147","distractor":"898487047","target":"absent","response":"absent","rt":"3937","correct":true,"confidence":1},{"trial_n":130,"span":9,"encoder":"689667247","distractor":"619667247","target":"present","response":"present","rt":"2425","correct":true,"confidence":5},{"trial_n":131,"span":10,"encoder":"1209770962","distractor":"1209070962","target":"absent","response":"absent","rt":"6501","correct":true,"confidence":5},{"trial_n":132,"span":10,"encoder":"2710694086","distractor":"2610694086","target":"present","response":"present","rt":"3163.9999999991","correct":true,"confidence":5},{"trial_n":133,"span":11,"encoder":"09751021688","distractor":"09751121688","target":"absent","response":"present","rt":"4694","correct":false,"confidence":1},{"trial_n":134,"span":10,"encoder":"8411920967","distractor":"8401920967","target":"absent","response":"absent","rt":"2387","correct":true,"confidence":5},{"trial_n":135,"span":10,"encoder":"3174405114","distractor":"3174445114","target":"absent","response":"absent","rt":"2495","correct":true,"confidence":3},{"trial_n":136,"span":11,"encoder":"54429285251","distractor":"54427285251","target":"present","response":"present","rt":"2407","correct":true,"confidence":5},{"trial_n":137,"span":11,"encoder":"89693454122","distractor":"89623454122","target":"absent","response":"absent","rt":"2862.0000000009","correct":true,"confidence":5},{"trial_n":138,"span":12,"encoder":"833802283032","distractor":"833805283032","target":"present","response":"present","rt":"3604","correct":true,"confidence":1},{"trial_n":139,"span":12,"encoder":"324158477095","distractor":"324158473095","target":"present","response":"present","rt":"6125","correct":true,"confidence":1},{"trial_n":140,"span":13,"encoder":"9467966423389","distractor":"9427966423389","target":"absent","response":"absent","rt":"3491","correct":true,"confidence":5}]