[{"trial_n":1,"n_dots":4.25,"target":"right","response":"left","rt":4304,"correct":false,"confidence":-1},{"trial_n":2,"n_dots":4.25,"target":"right","response":"left","rt":1120,"correct":false,"confidence":-1},{"trial_n":3,"n_dots":4.65,"target":"left","response":"right","rt":919,"correct":false,"confidence":-1},{"trial_n":4,"n_dots":5.05,"target":"right","response":"right","rt":914,"correct":true,"confidence":-1},{"trial_n":5,"n_dots":5.05,"target":"right","response":"right","rt":1029,"correct":true,"confidence":-1},{"trial_n":6,"n_dots":4.65,"target":"left","response":"left","rt":706,"correct":true,"confidence":-1},{"trial_n":7,"n_dots":4.65,"target":"left","response":"left","rt":690,"correct":true,"confidence":-1},{"trial_n":8,"n_dots":4.45,"target":"left","response":"left","rt":511,"correct":true,"confidence":-1},{"trial_n":9,"n_dots":4.45,"target":"left","response":"left","rt":1127,"correct":true,"confidence":-1},{"trial_n":10,"n_dots":4.25,"target":"left","response":"right","rt":745.00000000001,"correct":false,"confidence":-1},{"trial_n":11,"n_dots":4.45,"target":"left","response":"left","rt":514,"correct":true,"confidence":-1},{"trial_n":12,"n_dots":4.45,"target":"left","response":"left","rt":314,"correct":true,"confidence":-1},{"trial_n":13,"n_dots":4.35,"target":"left","response":"left","rt":263,"correct":true,"confidence":-1},{"trial_n":14,"n_dots":4.35,"target":"left","response":"left","rt":360,"correct":true,"confidence":-1},{"trial_n":15,"n_dots":4.25,"target":"right","response":"right","rt":795,"correct":true,"confidence":-1},{"trial_n":16,"n_dots":4.25,"target":"right","response":"right","rt":575.00000000001,"correct":true,"confidence":-1},{"trial_n":17,"n_dots":4.15,"target":"left","response":"left","rt":171,"correct":true,"confidence":-1},{"trial_n":18,"n_dots":4.15,"target":"right","response":"right","rt":475,"correct":true,"confidence":-1},{"trial_n":19,"n_dots":4.05,"target":"right","response":"right","rt":1185,"correct":true,"confidence":-1},{"trial_n":20,"n_dots":4.05,"target":"left","response":"left","rt":348,"correct":true,"confidence":-1},{"trial_n":21,"n_dots":3.95,"target":"right","response":"right","rt":198,"correct":true,"confidence":5},{"trial_n":22,"n_dots":3.95,"target":"left","response":"right","rt":2110,"correct":false,"confidence":3},{"trial_n":23,"n_dots":4.05,"target":"right","response":"right","rt":1283,"correct":true,"confidence":4},{"trial_n":24,"n_dots":4.05,"target":"left","response":"left","rt":1489,"correct":true,"confidence":3},{"trial_n":25,"n_dots":3.95,"target":"left","response":"left","rt":994.99999999999,"correct":true,"confidence":2},{"trial_n":26,"n_dots":3.95,"target":"right","response":"right","rt":937,"correct":true,"confidence":4},{"trial_n":27,"n_dots":3.85,"target":"right","response":"right","rt":1102,"correct":true,"confidence":3},{"trial_n":28,"n_dots":3.85,"target":"left","response":"left","rt":2754,"correct":true,"confidence":1},{"trial_n":29,"n_dots":3.75,"target":"right","response":"right","rt":1138,"correct":true,"confidence":4},{"trial_n":30,"n_dots":3.75,"target":"left","response":"left","rt":1325,"correct":true,"confidence":2},{"trial_n":31,"n_dots":3.65,"target":"left","response":"right","rt":1253,"correct":false,"confidence":1},{"trial_n":32,"n_dots":3.75,"target":"left","response":"left","rt":1622,"correct":true,"confidence":1},{"trial_n":33,"n_dots":3.75,"target":"right","response":"right","rt":1124,"correct":true,"confidence":3},{"trial_n":34,"n_dots":3.65,"target":"left","response":"left","rt":1336,"correct":true,"confidence":2},{"trial_n":35,"n_dots":3.65,"target":"right","response":"right","rt":708,"correct":true,"confidence":4},{"trial_n":36,"n_dots":3.55,"target":"right","response":"right","rt":1400,"correct":true,"confidence":3},{"trial_n":37,"n_dots":3.55,"target":"right","response":"right","rt":720.99999999997,"correct":true,"confidence":3},{"trial_n":38,"n_dots":3.45,"target":"left","response":"left","rt":873.99999999997,"correct":true,"confidence":3},{"trial_n":39,"n_dots":3.45,"target":"right","response":"right","rt":797,"correct":true,"confidence":4},{"trial_n":40,"n_dots":3.35,"target":"left","response":"left","rt":870,"correct":true,"confidence":3},{"trial_n":41,"n_dots":3.35,"target":"right","response":"right","rt":619.00000000006,"correct":true,"confidence":3},{"trial_n":42,"n_dots":3.25,"target":"left","response":"left","rt":453,"correct":true,"confidence":1},{"trial_n":43,"n_dots":3.25,"target":"left","response":"right","rt":962,"correct":false,"confidence":4},{"trial_n":44,"n_dots":3.35,"target":"left","response":"right","rt":742,"correct":false,"confidence":3},{"trial_n":45,"n_dots":3.45,"target":"right","response":"right","rt":541,"correct":true,"confidence":5},{"trial_n":46,"n_dots":3.45,"target":"left","response":"right","rt":628.99999999994,"correct":false,"confidence":3},{"trial_n":47,"n_dots":3.55,"target":"right","response":"right","rt":460,"correct":true,"confidence":4},{"trial_n":48,"n_dots":3.55,"target":"right","response":"right","rt":607,"correct":true,"confidence":3},{"trial_n":49,"n_dots":3.45,"target":"right","response":"right","rt":419,"correct":true,"confidence":2},{"trial_n":50,"n_dots":3.45,"target":"right","response":"right","rt":414,"correct":true,"confidence":3},{"trial_n":51,"n_dots":3.35,"target":"left","response":"right","rt":852.99999999994,"correct":false,"confidence":1},{"trial_n":52,"n_dots":3.45,"target":"right","response":"right","rt":723,"correct":true,"confidence":3},{"trial_n":53,"n_dots":3.45,"target":"left","response":"right","rt":1505,"correct":false,"confidence":1},{"trial_n":54,"n_dots":3.55,"target":"right","response":"right","rt":804,"correct":true,"confidence":3},{"trial_n":55,"n_dots":3.55,"target":"left","response":"left","rt":674,"correct":true,"confidence":3},{"trial_n":56,"n_dots":3.45,"target":"right","response":"right","rt":642,"correct":true,"confidence":2},{"trial_n":57,"n_dots":3.45,"target":"right","response":"right","rt":834,"correct":true,"confidence":2},{"trial_n":58,"n_dots":3.35,"target":"left","response":"left","rt":712.00000000012,"correct":true,"confidence":2},{"trial_n":59,"n_dots":3.35,"target":"left","response":"left","rt":687,"correct":true,"confidence":1},{"trial_n":60,"n_dots":3.25,"target":"left","response":"left","rt":741.99999999988,"correct":true,"confidence":1},{"trial_n":61,"n_dots":3.25,"target":"right","response":"left","rt":558,"correct":false,"confidence":2},{"trial_n":62,"n_dots":3.35,"target":"left","response":"left","rt":263,"correct":true,"confidence":3},{"trial_n":63,"n_dots":3.35,"target":"right","response":"right","rt":401,"correct":true,"confidence":2},{"trial_n":64,"n_dots":3.25,"target":"right","response":"left","rt":209,"correct":false,"confidence":2},{"trial_n":65,"n_dots":3.35,"target":"right","response":"right","rt":556,"correct":true,"confidence":3},{"trial_n":66,"n_dots":3.35,"target":"right","response":"right","rt":238,"correct":true,"confidence":4},{"trial_n":67,"n_dots":3.25,"target":"right","response":"right","rt":246,"correct":true,"confidence":3},{"trial_n":68,"n_dots":3.25,"target":"right","response":"left","rt":375,"correct":false,"confidence":2},{"trial_n":69,"n_dots":3.35,"target":"right","response":"right","rt":194,"correct":true,"confidence":3},{"trial_n":70,"n_dots":3.35,"target":"right","response":"right","rt":219,"correct":true,"confidence":3},{"trial_n":71,"n_dots":3.25,"target":"right","response":"right","rt":159,"correct":true,"confidence":3},{"trial_n":72,"n_dots":3.25,"target":"right","response":"right","rt":12388,"correct":true,"confidence":1},{"trial_n":73,"n_dots":3.15,"target":"right","response":"right","rt":231,"correct":true,"confidence":2},{"trial_n":74,"n_dots":3.15,"target":"left","response":"left","rt":365,"correct":true,"confidence":2},{"trial_n":75,"n_dots":3.05,"target":"right","response":"right","rt":398.00000000012,"correct":true,"confidence":3},{"trial_n":76,"n_dots":3.05,"target":"right","response":"left","rt":668,"correct":false,"confidence":1},{"trial_n":77,"n_dots":3.15,"target":"left","response":"left","rt":1004,"correct":true,"confidence":2},{"trial_n":78,"n_dots":3.15,"target":"right","response":"right","rt":231,"correct":true,"confidence":3},{"trial_n":79,"n_dots":3.05,"target":"right","response":"right","rt":222,"correct":true,"confidence":2},{"trial_n":80,"n_dots":3.05,"target":"right","response":"right","rt":503,"correct":true,"confidence":4},{"trial_n":81,"n_dots":2.95,"target":"right","response":"right","rt":268.99999999988,"correct":true,"confidence":3},{"trial_n":82,"n_dots":2.95,"target":"left","response":"left","rt":506,"correct":true,"confidence":2},{"trial_n":83,"n_dots":2.85,"target":"left","response":"left","rt":721,"correct":true,"confidence":2},{"trial_n":84,"n_dots":2.85,"target":"right","response":"right","rt":608,"correct":true,"confidence":1},{"trial_n":85,"n_dots":2.75,"target":"right","response":"left","rt":675,"correct":false,"confidence":2},{"trial_n":86,"n_dots":2.85,"target":"left","response":"left","rt":408.99999999988,"correct":true,"confidence":4},{"trial_n":87,"n_dots":2.85,"target":"left","response":"left","rt":258,"correct":true,"confidence":2},{"trial_n":88,"n_dots":2.75,"target":"left","response":"left","rt":233,"correct":true,"confidence":3},{"trial_n":89,"n_dots":2.75,"target":"right","response":"left","rt":266,"correct":false,"confidence":4},{"trial_n":90,"n_dots":2.85,"target":"left","response":"left","rt":198,"correct":true,"confidence":2},{"trial_n":91,"n_dots":2.85,"target":"left","response":"left","rt":197.99999999988,"correct":true,"confidence":3},{"trial_n":92,"n_dots":2.75,"target":"left","response":"left","rt":250.99999999988,"correct":true,"confidence":4},{"trial_n":93,"n_dots":2.75,"target":"right","response":"right","rt":635,"correct":true,"confidence":3},{"trial_n":94,"n_dots":2.65,"target":"left","response":"left","rt":260.99999999988,"correct":true,"confidence":2},{"trial_n":95,"n_dots":2.65,"target":"left","response":"left","rt":224,"correct":true,"confidence":1},{"trial_n":96,"n_dots":2.55,"target":"left","response":"left","rt":286.00000000012,"correct":true,"confidence":2},{"trial_n":97,"n_dots":2.55,"target":"left","response":"left","rt":255.99999999988,"correct":true,"confidence":3},{"trial_n":98,"n_dots":2.45,"target":"right","response":"left","rt":200,"correct":false,"confidence":2},{"trial_n":99,"n_dots":2.55,"target":"left","response":"left","rt":594,"correct":true,"confidence":3},{"trial_n":100,"n_dots":2.55,"target":"right","response":"left","rt":283,"correct":false,"confidence":4},{"trial_n":101,"n_dots":2.65,"target":"left","response":"left","rt":542,"correct":true,"confidence":2},{"trial_n":102,"n_dots":2.65,"target":"right","response":"right","rt":239,"correct":true,"confidence":3},{"trial_n":103,"n_dots":2.55,"target":"right","response":"right","rt":340,"correct":true,"confidence":3},{"trial_n":104,"n_dots":2.55,"target":"right","response":"right","rt":173,"correct":true,"confidence":3},{"trial_n":105,"n_dots":2.45,"target":"right","response":"right","rt":175,"correct":true,"confidence":3},{"trial_n":106,"n_dots":2.45,"target":"left","response":"left","rt":365,"correct":true,"confidence":2},{"trial_n":107,"n_dots":2.35,"target":"right","response":"right","rt":96,"correct":true,"confidence":3},{"trial_n":108,"n_dots":2.35,"target":"left","response":"left","rt":363,"correct":true,"confidence":2},{"trial_n":109,"n_dots":2.25,"target":"left","response":"left","rt":1099,"correct":true,"confidence":2},{"trial_n":110,"n_dots":2.25,"target":"left","response":"left","rt":136,"correct":true,"confidence":2},{"trial_n":111,"n_dots":2.15,"target":"left","response":"right","rt":320,"correct":false,"confidence":3},{"trial_n":112,"n_dots":2.25,"target":"left","response":"left","rt":37.000000000233,"correct":true,"confidence":3},{"trial_n":113,"n_dots":2.25,"target":"left","response":"left","rt":724,"correct":true,"confidence":2},{"trial_n":114,"n_dots":2.15,"target":"right","response":"right","rt":649,"correct":true,"confidence":2},{"trial_n":115,"n_dots":2.15,"target":"left","response":"right","rt":490,"correct":false,"confidence":3},{"trial_n":116,"n_dots":2.25,"target":"right","response":"right","rt":372,"correct":true,"confidence":3},{"trial_n":117,"n_dots":2.25,"target":"left","response":"left","rt":244,"correct":true,"confidence":3},{"trial_n":118,"n_dots":2.15,"target":"right","response":"right","rt":176,"correct":true,"confidence":4},{"trial_n":119,"n_dots":2.15,"target":"left","response":"left","rt":170,"correct":true,"confidence":2},{"trial_n":120,"n_dots":2.05,"target":"left","response":"left","rt":562,"correct":true,"confidence":1}]