[{"trial_n":1,"min":25,"max":230,"target":"present","response":"absent","rt":6257.1000001431,"correct":false,"confidence":-1},{"trial_n":2,"min":25,"max":230,"target":"present","response":"present","rt":596.19999980927,"correct":true,"confidence":-1},{"trial_n":3,"min":25,"max":230,"target":"absent","response":"present","rt":558.39999985695,"correct":false,"confidence":-1},{"trial_n":4,"min":9,"max":246,"target":"absent","response":"absent","rt":597.09999990463,"correct":true,"confidence":-1},{"trial_n":5,"min":9,"max":246,"target":"present","response":"present","rt":1058,"correct":true,"confidence":-1},{"trial_n":6,"min":25,"max":230,"target":"present","response":"present","rt":967.70000004768,"correct":true,"confidence":-1},{"trial_n":7,"min":25,"max":230,"target":"absent","response":"absent","rt":856.29999995232,"correct":true,"confidence":-1},{"trial_n":8,"min":41,"max":214,"target":"present","response":"present","rt":1334.0999999046,"correct":true,"confidence":-1},{"trial_n":9,"min":41,"max":214,"target":"absent","response":"absent","rt":875.39999985695,"correct":true,"confidence":-1},{"trial_n":10,"min":57,"max":198,"target":"present","response":"absent","rt":2151.2999999523,"correct":false,"confidence":-1},{"trial_n":11,"min":49,"max":206,"target":"absent","response":"absent","rt":319.5,"correct":true,"confidence":-1},{"trial_n":12,"min":49,"max":206,"target":"absent","response":"absent","rt":253.29999995232,"correct":true,"confidence":-1},{"trial_n":13,"min":57,"max":198,"target":"present","response":"present","rt":363,"correct":true,"confidence":-1},{"trial_n":14,"min":57,"max":198,"target":"present","response":"present","rt":285,"correct":true,"confidence":-1},{"trial_n":15,"min":65,"max":190,"target":"absent","response":"absent","rt":681.59999990463,"correct":true,"confidence":-1},{"trial_n":16,"min":65,"max":190,"target":"present","response":"present","rt":585.5,"correct":true,"confidence":-1},{"trial_n":17,"min":73,"max":182,"target":"absent","response":"absent","rt":466.19999980927,"correct":true,"confidence":-1},{"trial_n":18,"min":73,"max":182,"target":"present","response":"present","rt":406.80000019073,"correct":true,"confidence":-1},{"trial_n":19,"min":81,"max":174,"target":"present","response":"absent","rt":400.60000014305,"correct":false,"confidence":-1},{"trial_n":20,"min":73,"max":182,"target":"absent","response":"absent","rt":532.70000004768,"correct":true,"confidence":-1},{"trial_n":21,"min":73,"max":182,"target":"present","response":"absent","rt":1301.2999999523,"correct":false,"confidence":3},{"trial_n":22,"min":69,"max":186,"target":"absent","response":"present","rt":1410.6999998093,"correct":false,"confidence":1},{"trial_n":23,"min":65,"max":190,"target":"absent","response":"present","rt":722.40000009537,"correct":false,"confidence":1},{"trial_n":24,"min":61,"max":194,"target":"absent","response":"present","rt":3186.6000001431,"correct":false,"confidence":1},{"trial_n":25,"min":57,"max":198,"target":"absent","response":"absent","rt":600,"correct":true,"confidence":1},{"trial_n":26,"min":57,"max":198,"target":"absent","response":"absent","rt":297,"correct":true,"confidence":1},{"trial_n":27,"min":61,"max":194,"target":"absent","response":"absent","rt":393.29999995232,"correct":true,"confidence":1},{"trial_n":28,"min":61,"max":194,"target":"present","response":"present","rt":459.29999995232,"correct":true,"confidence":1},{"trial_n":29,"min":65,"max":190,"target":"present","response":"present","rt":524.79999995232,"correct":true,"confidence":1},{"trial_n":30,"min":65,"max":190,"target":"absent","response":"absent","rt":626.40000009537,"correct":true,"confidence":1},{"trial_n":31,"min":67,"max":188,"target":"present","response":"present","rt":491,"correct":true,"confidence":1},{"trial_n":32,"min":67,"max":188,"target":"absent","response":"absent","rt":1922.5,"correct":true,"confidence":1},{"trial_n":33,"min":69,"max":186,"target":"present","response":"present","rt":759.29999995232,"correct":true,"confidence":1},{"trial_n":34,"min":69,"max":186,"target":"present","response":"present","rt":418.20000004768,"correct":true,"confidence":1},{"trial_n":35,"min":71,"max":184,"target":"present","response":"present","rt":480.90000009537,"correct":true,"confidence":1},{"trial_n":36,"min":71,"max":184,"target":"absent","response":"absent","rt":400.29999995232,"correct":true,"confidence":1},{"trial_n":37,"min":73,"max":182,"target":"absent","response":"absent","rt":590.19999980927,"correct":true,"confidence":1},{"trial_n":38,"min":73,"max":182,"target":"absent","response":"absent","rt":519.79999995232,"correct":true,"confidence":1},{"trial_n":39,"min":75,"max":180,"target":"absent","response":"absent","rt":439,"correct":true,"confidence":1},{"trial_n":40,"min":75,"max":180,"target":"absent","response":"absent","rt":1086.7999999523,"correct":true,"confidence":1},{"trial_n":41,"min":76,"max":179,"target":"present","response":"present","rt":628.79999995232,"correct":true,"confidence":1},{"trial_n":42,"min":76,"max":179,"target":"absent","response":"absent","rt":840.79999995232,"correct":true,"confidence":1},{"trial_n":43,"min":77,"max":178,"target":"absent","response":"absent","rt":159.60000014305,"correct":true,"confidence":1},{"trial_n":44,"min":77,"max":178,"target":"absent","response":"absent","rt":70.900000095367,"correct":true,"confidence":1},{"trial_n":45,"min":78,"max":177,"target":"present","response":"absent","rt":62.399999856949,"correct":false,"confidence":1},{"trial_n":46,"min":77,"max":178,"target":"present","response":"absent","rt":54.099999904633,"correct":false,"confidence":1},{"trial_n":47,"min":76,"max":179,"target":"present","response":"present","rt":606.19999980927,"correct":true,"confidence":1},{"trial_n":48,"min":76,"max":179,"target":"present","response":"absent","rt":695.09999990463,"correct":false,"confidence":1},{"trial_n":49,"min":75,"max":180,"target":"absent","response":"absent","rt":202.59999990463,"correct":true,"confidence":1},{"trial_n":50,"min":75,"max":180,"target":"absent","response":"absent","rt":312.20000004768,"correct":true,"confidence":1},{"trial_n":51,"min":76,"max":179,"target":"absent","response":"absent","rt":275.79999995232,"correct":true,"confidence":1},{"trial_n":52,"min":76,"max":179,"target":"present","response":"absent","rt":88.400000095367,"correct":false,"confidence":1},{"trial_n":53,"min":75,"max":180,"target":"absent","response":"absent","rt":375.5,"correct":true,"confidence":1},{"trial_n":54,"min":75,"max":180,"target":"present","response":"absent","rt":195.29999995232,"correct":false,"confidence":1},{"trial_n":55,"min":74,"max":181,"target":"present","response":"present","rt":303.29999995232,"correct":true,"confidence":1},{"trial_n":56,"min":74,"max":181,"target":"present","response":"present","rt":286.09999990463,"correct":true,"confidence":1},{"trial_n":57,"min":75,"max":180,"target":"absent","response":"absent","rt":318.5,"correct":true,"confidence":1},{"trial_n":58,"min":75,"max":180,"target":"absent","response":"absent","rt":324.59999990463,"correct":true,"confidence":1},{"trial_n":59,"min":76,"max":179,"target":"absent","response":"absent","rt":115.09999990463,"correct":true,"confidence":1},{"trial_n":60,"min":76,"max":179,"target":"present","response":"absent","rt":51.700000047684,"correct":false,"confidence":1},{"trial_n":61,"min":75,"max":180,"target":"present","response":"present","rt":308.79999995232,"correct":true,"confidence":1},{"trial_n":62,"min":75,"max":180,"target":"present","response":"absent","rt":185.79999995232,"correct":false,"confidence":1},{"trial_n":63,"min":74,"max":181,"target":"present","response":"absent","rt":573.70000004768,"correct":false,"confidence":1},{"trial_n":64,"min":73,"max":182,"target":"absent","response":"absent","rt":276.79999995232,"correct":true,"confidence":1},{"trial_n":65,"min":73,"max":182,"target":"present","response":"present","rt":330.59999990463,"correct":true,"confidence":1},{"trial_n":66,"min":74,"max":181,"target":"present","response":"present","rt":362.5,"correct":true,"confidence":1},{"trial_n":67,"min":74,"max":181,"target":"absent","response":"absent","rt":245.59999990463,"correct":true,"confidence":1},{"trial_n":68,"min":75,"max":180,"target":"present","response":"present","rt":162.90000009537,"correct":true,"confidence":1},{"trial_n":69,"min":75,"max":180,"target":"present","response":"present","rt":315.20000004768,"correct":true,"confidence":1},{"trial_n":70,"min":76,"max":179,"target":"present","response":"present","rt":281.20000004768,"correct":true,"confidence":1},{"trial_n":71,"min":41,"max":214,"target":"present","response":"present","rt":8912.1000001431,"correct":true,"confidence":-1},{"trial_n":72,"min":41,"max":214,"target":"present","response":"present","rt":2080.7999999523,"correct":true,"confidence":-1},{"trial_n":73,"min":57,"max":198,"target":"absent","response":"absent","rt":914.89999985695,"correct":true,"confidence":-1},{"trial_n":74,"min":57,"max":198,"target":"absent","response":"absent","rt":503.59999990463,"correct":true,"confidence":-1},{"trial_n":75,"min":73,"max":182,"target":"present","response":"absent","rt":557.20000004768,"correct":false,"confidence":-1},{"trial_n":76,"min":57,"max":198,"target":"present","response":"present","rt":1015.5999999046,"correct":true,"confidence":-1},{"trial_n":77,"min":57,"max":198,"target":"present","response":"present","rt":712.40000009537,"correct":true,"confidence":-1},{"trial_n":78,"min":73,"max":182,"target":"present","response":"present","rt":289.39999985695,"correct":true,"confidence":-1},{"trial_n":79,"min":73,"max":182,"target":"absent","response":"absent","rt":403.20000004768,"correct":true,"confidence":-1},{"trial_n":80,"min":89,"max":166,"target":"present","response":"present","rt":583.5,"correct":true,"confidence":-1},{"trial_n":81,"min":89,"max":166,"target":"absent","response":"present","rt":223.79999995232,"correct":false,"confidence":-1},{"trial_n":82,"min":81,"max":174,"target":"present","response":"absent","rt":378.79999995232,"correct":false,"confidence":-1},{"trial_n":83,"min":73,"max":182,"target":"absent","response":"present","rt":1234.5,"correct":false,"confidence":-1},{"trial_n":84,"min":65,"max":190,"target":"present","response":"present","rt":715.39999985695,"correct":true,"confidence":-1},{"trial_n":85,"min":65,"max":190,"target":"present","response":"present","rt":342.40000009537,"correct":true,"confidence":-1},{"trial_n":86,"min":73,"max":182,"target":"absent","response":"present","rt":648.19999980927,"correct":false,"confidence":-1},{"trial_n":87,"min":65,"max":190,"target":"absent","response":"present","rt":1560.7999999523,"correct":false,"confidence":-1},{"trial_n":88,"min":57,"max":198,"target":"present","response":"present","rt":844.5,"correct":true,"confidence":-1},{"trial_n":89,"min":57,"max":198,"target":"absent","response":"present","rt":560,"correct":false,"confidence":-1},{"trial_n":90,"min":49,"max":206,"target":"absent","response":"present","rt":468.10000014305,"correct":false,"confidence":-1},{"trial_n":91,"min":45,"max":210,"target":"present","response":"present","rt":1787,"correct":true,"confidence":1},{"trial_n":92,"min":45,"max":210,"target":"present","response":"present","rt":1335.2999999523,"correct":true,"confidence":1},{"trial_n":93,"min":49,"max":206,"target":"absent","response":"present","rt":388.20000004768,"correct":false,"confidence":1},{"trial_n":94,"min":45,"max":210,"target":"present","response":"present","rt":750.09999990463,"correct":true,"confidence":1},{"trial_n":95,"min":45,"max":210,"target":"present","response":"present","rt":376.20000004768,"correct":true,"confidence":1},{"trial_n":96,"min":49,"max":206,"target":"present","response":"present","rt":431.40000009537,"correct":true,"confidence":1},{"trial_n":97,"min":49,"max":206,"target":"absent","response":"present","rt":645,"correct":false,"confidence":1},{"trial_n":98,"min":45,"max":210,"target":"absent","response":"present","rt":3592.0999999046,"correct":false,"confidence":1},{"trial_n":99,"min":41,"max":214,"target":"present","response":"present","rt":315.10000014305,"correct":true,"confidence":1},{"trial_n":100,"min":41,"max":214,"target":"present","response":"present","rt":300.20000004768,"correct":true,"confidence":1},{"trial_n":101,"min":43,"max":212,"target":"present","response":"present","rt":437.5,"correct":true,"confidence":1},{"trial_n":102,"min":43,"max":212,"target":"absent","response":"absent","rt":429,"correct":true,"confidence":1},{"trial_n":103,"min":45,"max":210,"target":"present","response":"present","rt":292.30000019073,"correct":true,"confidence":1},{"trial_n":104,"min":45,"max":210,"target":"present","response":"present","rt":338.29999995232,"correct":true,"confidence":1},{"trial_n":105,"min":47,"max":208,"target":"present","response":"present","rt":313.69999980927,"correct":true,"confidence":1},{"trial_n":106,"min":47,"max":208,"target":"absent","response":"absent","rt":789,"correct":true,"confidence":1},{"trial_n":107,"min":49,"max":206,"target":"absent","response":"absent","rt":345.40000009537,"correct":true,"confidence":1},{"trial_n":108,"min":49,"max":206,"target":"present","response":"present","rt":1247.3999998569,"correct":true,"confidence":1},{"trial_n":109,"min":51,"max":204,"target":"absent","response":"absent","rt":361.29999995232,"correct":true,"confidence":1},{"trial_n":110,"min":51,"max":204,"target":"absent","response":"absent","rt":348.10000014305,"correct":true,"confidence":1},{"trial_n":111,"min":52,"max":203,"target":"absent","response":"absent","rt":586.20000004768,"correct":true,"confidence":1},{"trial_n":112,"min":52,"max":203,"target":"present","response":"present","rt":350.80000019073,"correct":true,"confidence":1},{"trial_n":113,"min":53,"max":202,"target":"absent","response":"absent","rt":324.20000004768,"correct":true,"confidence":1},{"trial_n":114,"min":53,"max":202,"target":"present","response":"present","rt":95,"correct":true,"confidence":1},{"trial_n":115,"min":54,"max":201,"target":"present","response":"absent","rt":459,"correct":false,"confidence":1},{"trial_n":116,"min":53,"max":202,"target":"absent","response":"absent","rt":271.59999990463,"correct":true,"confidence":1},{"trial_n":117,"min":53,"max":202,"target":"absent","response":"present","rt":266.70000004768,"correct":false,"confidence":1},{"trial_n":118,"min":52,"max":203,"target":"present","response":"present","rt":575.5,"correct":true,"confidence":1},{"trial_n":119,"min":52,"max":203,"target":"absent","response":"absent","rt":249.90000009537,"correct":true,"confidence":1},{"trial_n":120,"min":53,"max":202,"target":"present","response":"present","rt":239.5,"correct":true,"confidence":1},{"trial_n":121,"min":53,"max":202,"target":"absent","response":"absent","rt":162.59999990463,"correct":true,"confidence":1},{"trial_n":122,"min":54,"max":201,"target":"absent","response":"absent","rt":282.29999995232,"correct":true,"confidence":1},{"trial_n":123,"min":54,"max":201,"target":"absent","response":"absent","rt":141.70000004768,"correct":true,"confidence":1},{"trial_n":124,"min":55,"max":200,"target":"present","response":"present","rt":257.09999990463,"correct":true,"confidence":1},{"trial_n":125,"min":55,"max":200,"target":"present","response":"present","rt":147.40000009537,"correct":true,"confidence":1},{"trial_n":126,"min":56,"max":199,"target":"present","response":"present","rt":206.40000009537,"correct":true,"confidence":1},{"trial_n":127,"min":56,"max":199,"target":"absent","response":"absent","rt":253.09999990463,"correct":true,"confidence":1},{"trial_n":128,"min":57,"max":198,"target":"absent","response":"absent","rt":361.90000009537,"correct":true,"confidence":1},{"trial_n":129,"min":57,"max":198,"target":"present","response":"absent","rt":342.60000014305,"correct":false,"confidence":1},{"trial_n":130,"min":56,"max":199,"target":"present","response":"absent","rt":144.70000004768,"correct":false,"confidence":1},{"trial_n":131,"min":55,"max":200,"target":"absent","response":"absent","rt":747.70000004768,"correct":true,"confidence":1},{"trial_n":132,"min":55,"max":200,"target":"absent","response":"absent","rt":223.5,"correct":true,"confidence":1},{"trial_n":133,"min":56,"max":199,"target":"absent","response":"absent","rt":117.59999990463,"correct":true,"confidence":1},{"trial_n":134,"min":56,"max":199,"target":"absent","response":"absent","rt":125.5,"correct":true,"confidence":1},{"trial_n":135,"min":57,"max":198,"target":"absent","response":"absent","rt":76.5,"correct":true,"confidence":1},{"trial_n":136,"min":57,"max":198,"target":"absent","response":"absent","rt":291.70000004768,"correct":true,"confidence":1},{"trial_n":137,"min":58,"max":197,"target":"present","response":"present","rt":527.79999995232,"correct":true,"confidence":1},{"trial_n":138,"min":58,"max":197,"target":"absent","response":"absent","rt":244.29999995232,"correct":true,"confidence":1},{"trial_n":139,"min":59,"max":196,"target":"present","response":"present","rt":253.89999985695,"correct":true,"confidence":1},{"trial_n":140,"min":59,"max":196,"target":"present","response":"present","rt":539,"correct":true,"confidence":1}]