[{"trial_n":1,"min":25,"max":230,"target":"present","response":"present","rt":8719.3999998569,"correct":true,"confidence":-1},{"trial_n":2,"min":25,"max":230,"target":"present","response":"present","rt":1453.1000001431,"correct":true,"confidence":-1},{"trial_n":3,"min":41,"max":214,"target":"absent","response":"absent","rt":586.79999995232,"correct":true,"confidence":-1},{"trial_n":4,"min":41,"max":214,"target":"absent","response":"absent","rt":517.19999980927,"correct":true,"confidence":-1},{"trial_n":5,"min":57,"max":198,"target":"present","response":"present","rt":532.90000009537,"correct":true,"confidence":-1},{"trial_n":6,"min":57,"max":198,"target":"absent","response":"absent","rt":499.70000004768,"correct":true,"confidence":-1},{"trial_n":7,"min":73,"max":182,"target":"present","response":"absent","rt":608.19999980927,"correct":false,"confidence":-1},{"trial_n":8,"min":57,"max":198,"target":"absent","response":"present","rt":554.10000014305,"correct":false,"confidence":-1},{"trial_n":9,"min":41,"max":214,"target":"absent","response":"absent","rt":404.70000004768,"correct":true,"confidence":-1},{"trial_n":10,"min":41,"max":214,"target":"present","response":"present","rt":486.70000004768,"correct":true,"confidence":-1},{"trial_n":11,"min":49,"max":206,"target":"absent","response":"absent","rt":444.20000004768,"correct":true,"confidence":-1},{"trial_n":12,"min":49,"max":206,"target":"absent","response":"present","rt":536.70000004768,"correct":false,"confidence":-1},{"trial_n":13,"min":41,"max":214,"target":"present","response":"present","rt":565.29999995232,"correct":true,"confidence":-1},{"trial_n":14,"min":41,"max":214,"target":"present","response":"present","rt":507.70000004768,"correct":true,"confidence":-1},{"trial_n":15,"min":49,"max":206,"target":"absent","response":"absent","rt":349.5,"correct":true,"confidence":-1},{"trial_n":16,"min":49,"max":206,"target":"absent","response":"absent","rt":561.29999995232,"correct":true,"confidence":-1},{"trial_n":17,"min":57,"max":198,"target":"absent","response":"absent","rt":406.29999995232,"correct":true,"confidence":-1},{"trial_n":18,"min":57,"max":198,"target":"present","response":"present","rt":176.70000004768,"correct":true,"confidence":-1},{"trial_n":19,"min":65,"max":190,"target":"present","response":"present","rt":717.20000004768,"correct":true,"confidence":-1},{"trial_n":20,"min":65,"max":190,"target":"present","response":"present","rt":653.90000009537,"correct":true,"confidence":-1},{"trial_n":21,"min":69,"max":186,"target":"absent","response":"absent","rt":489,"correct":true,"confidence":5},{"trial_n":22,"min":69,"max":186,"target":"absent","response":"absent","rt":425.89999985695,"correct":true,"confidence":5},{"trial_n":23,"min":73,"max":182,"target":"absent","response":"absent","rt":521.90000009537,"correct":true,"confidence":5},{"trial_n":24,"min":73,"max":182,"target":"absent","response":"absent","rt":620.10000014305,"correct":true,"confidence":4},{"trial_n":25,"min":77,"max":178,"target":"present","response":"present","rt":759.09999990463,"correct":true,"confidence":5},{"trial_n":26,"min":77,"max":178,"target":"absent","response":"absent","rt":465.20000004768,"correct":true,"confidence":3},{"trial_n":27,"min":81,"max":174,"target":"present","response":"absent","rt":416.40000009537,"correct":false,"confidence":3},{"trial_n":28,"min":77,"max":178,"target":"present","response":"present","rt":479.20000004768,"correct":true,"confidence":5},{"trial_n":29,"min":77,"max":178,"target":"absent","response":"absent","rt":355.20000004768,"correct":true,"confidence":2},{"trial_n":30,"min":81,"max":174,"target":"absent","response":"absent","rt":585.09999990463,"correct":true,"confidence":5},{"trial_n":31,"min":81,"max":174,"target":"absent","response":"absent","rt":401.09999990463,"correct":true,"confidence":4},{"trial_n":32,"min":83,"max":172,"target":"present","response":"absent","rt":512.09999990463,"correct":false,"confidence":4},{"trial_n":33,"min":81,"max":174,"target":"present","response":"present","rt":576.20000004768,"correct":true,"confidence":3},{"trial_n":34,"min":81,"max":174,"target":"absent","response":"absent","rt":469.20000004768,"correct":true,"confidence":5},{"trial_n":35,"min":83,"max":172,"target":"present","response":"present","rt":433.29999995232,"correct":true,"confidence":5},{"trial_n":36,"min":83,"max":172,"target":"present","response":"present","rt":659.30000019073,"correct":true,"confidence":4},{"trial_n":37,"min":85,"max":170,"target":"present","response":"present","rt":718.79999995232,"correct":true,"confidence":2},{"trial_n":38,"min":85,"max":170,"target":"present","response":"present","rt":386.20000004768,"correct":true,"confidence":1},{"trial_n":39,"min":87,"max":168,"target":"absent","response":"absent","rt":467.70000004768,"correct":true,"confidence":4},{"trial_n":40,"min":87,"max":168,"target":"present","response":"absent","rt":555.40000009537,"correct":false,"confidence":3},{"trial_n":41,"min":86,"max":169,"target":"absent","response":"absent","rt":429.79999995232,"correct":true,"confidence":4},{"trial_n":42,"min":86,"max":169,"target":"present","response":"absent","rt":554.29999995232,"correct":false,"confidence":4},{"trial_n":43,"min":85,"max":170,"target":"present","response":"absent","rt":520.59999990463,"correct":false,"confidence":3},{"trial_n":44,"min":84,"max":171,"target":"present","response":"present","rt":476.39999985695,"correct":true,"confidence":5},{"trial_n":45,"min":84,"max":171,"target":"absent","response":"absent","rt":609.70000004768,"correct":true,"confidence":2},{"trial_n":46,"min":85,"max":170,"target":"absent","response":"absent","rt":459.59999990463,"correct":true,"confidence":3},{"trial_n":47,"min":85,"max":170,"target":"absent","response":"absent","rt":731.59999990463,"correct":true,"confidence":3},{"trial_n":48,"min":86,"max":169,"target":"absent","response":"present","rt":348.09999990463,"correct":false,"confidence":4},{"trial_n":49,"min":85,"max":170,"target":"absent","response":"present","rt":265.30000019073,"correct":false,"confidence":1},{"trial_n":50,"min":84,"max":171,"target":"present","response":"present","rt":400.39999985695,"correct":true,"confidence":1},{"trial_n":51,"min":84,"max":171,"target":"present","response":"present","rt":526.29999995232,"correct":true,"confidence":4},{"trial_n":52,"min":85,"max":170,"target":"present","response":"absent","rt":533.40000009537,"correct":false,"confidence":3},{"trial_n":53,"min":84,"max":171,"target":"present","response":"absent","rt":318.89999985695,"correct":false,"confidence":1},{"trial_n":54,"min":83,"max":172,"target":"present","response":"present","rt":373.89999985695,"correct":true,"confidence":5},{"trial_n":55,"min":83,"max":172,"target":"present","response":"present","rt":321.5,"correct":true,"confidence":1},{"trial_n":56,"min":84,"max":171,"target":"present","response":"present","rt":686,"correct":true,"confidence":5},{"trial_n":57,"min":84,"max":171,"target":"absent","response":"absent","rt":303.40000009537,"correct":true,"confidence":3},{"trial_n":58,"min":85,"max":170,"target":"absent","response":"absent","rt":362.5,"correct":true,"confidence":4},{"trial_n":59,"min":85,"max":170,"target":"present","response":"present","rt":639.10000014305,"correct":true,"confidence":5},{"trial_n":60,"min":86,"max":169,"target":"present","response":"present","rt":391.10000014305,"correct":true,"confidence":5},{"trial_n":61,"min":86,"max":169,"target":"absent","response":"absent","rt":403.09999990463,"correct":true,"confidence":4},{"trial_n":62,"min":87,"max":168,"target":"absent","response":"present","rt":329.70000004768,"correct":false,"confidence":5},{"trial_n":63,"min":86,"max":169,"target":"absent","response":"absent","rt":207.30000019073,"correct":true,"confidence":3},{"trial_n":64,"min":86,"max":169,"target":"absent","response":"absent","rt":407.30000019073,"correct":true,"confidence":1},{"trial_n":65,"min":87,"max":168,"target":"present","response":"present","rt":390.09999990463,"correct":true,"confidence":4},{"trial_n":66,"min":87,"max":168,"target":"present","response":"present","rt":432.29999995232,"correct":true,"confidence":3},{"trial_n":67,"min":88,"max":167,"target":"present","response":"absent","rt":460.80000019073,"correct":false,"confidence":4},{"trial_n":68,"min":87,"max":168,"target":"present","response":"absent","rt":332.5,"correct":false,"confidence":4},{"trial_n":69,"min":86,"max":169,"target":"absent","response":"absent","rt":230.10000014305,"correct":true,"confidence":1},{"trial_n":70,"min":86,"max":169,"target":"absent","response":"present","rt":249.79999995232,"correct":false,"confidence":2},{"trial_n":71,"min":41,"max":214,"target":"present","response":"present","rt":6908.1999998093,"correct":true,"confidence":-1},{"trial_n":72,"min":41,"max":214,"target":"present","response":"absent","rt":173.09999990463,"correct":false,"confidence":-1},{"trial_n":73,"min":25,"max":230,"target":"absent","response":"absent","rt":415.70000004768,"correct":true,"confidence":-1},{"trial_n":74,"min":25,"max":230,"target":"absent","response":"present","rt":393.20000004768,"correct":false,"confidence":-1},{"trial_n":75,"min":9,"max":246,"target":"present","response":"present","rt":600.39999985695,"correct":true,"confidence":-1},{"trial_n":76,"min":9,"max":246,"target":"present","response":"present","rt":374.79999995232,"correct":true,"confidence":-1},{"trial_n":77,"min":25,"max":230,"target":"present","response":"present","rt":435.20000004768,"correct":true,"confidence":-1},{"trial_n":78,"min":25,"max":230,"target":"present","response":"present","rt":353.79999995232,"correct":true,"confidence":-1},{"trial_n":79,"min":41,"max":214,"target":"present","response":"present","rt":462.19999980927,"correct":true,"confidence":-1},{"trial_n":80,"min":41,"max":214,"target":"absent","response":"absent","rt":356.80000019073,"correct":true,"confidence":-1},{"trial_n":81,"min":49,"max":206,"target":"absent","response":"absent","rt":528.5,"correct":true,"confidence":-1},{"trial_n":82,"min":49,"max":206,"target":"absent","response":"absent","rt":442.40000009537,"correct":true,"confidence":-1},{"trial_n":83,"min":57,"max":198,"target":"present","response":"present","rt":751.40000009537,"correct":true,"confidence":-1},{"trial_n":84,"min":57,"max":198,"target":"present","response":"present","rt":451.89999985695,"correct":true,"confidence":-1},{"trial_n":85,"min":65,"max":190,"target":"present","response":"present","rt":548.29999995232,"correct":true,"confidence":-1},{"trial_n":86,"min":65,"max":190,"target":"absent","response":"absent","rt":723.39999985695,"correct":true,"confidence":-1},{"trial_n":87,"min":73,"max":182,"target":"absent","response":"absent","rt":479.5,"correct":true,"confidence":-1},{"trial_n":88,"min":73,"max":182,"target":"absent","response":"absent","rt":471.5,"correct":true,"confidence":-1},{"trial_n":89,"min":81,"max":174,"target":"present","response":"present","rt":647.89999985695,"correct":true,"confidence":-1},{"trial_n":90,"min":81,"max":174,"target":"absent","response":"present","rt":464.29999995232,"correct":false,"confidence":-1},{"trial_n":91,"min":77,"max":178,"target":"present","response":"absent","rt":312.60000014305,"correct":false,"confidence":2},{"trial_n":92,"min":73,"max":182,"target":"absent","response":"present","rt":378.19999980927,"correct":false,"confidence":5},{"trial_n":93,"min":69,"max":186,"target":"present","response":"absent","rt":734,"correct":false,"confidence":4},{"trial_n":94,"min":65,"max":190,"target":"absent","response":"absent","rt":1133.7000000477,"correct":true,"confidence":3},{"trial_n":95,"min":65,"max":190,"target":"present","response":"present","rt":244.40000009537,"correct":true,"confidence":5},{"trial_n":96,"min":69,"max":186,"target":"absent","response":"absent","rt":557.79999995232,"correct":true,"confidence":4},{"trial_n":97,"min":69,"max":186,"target":"absent","response":"absent","rt":551.19999980927,"correct":true,"confidence":4},{"trial_n":98,"min":73,"max":182,"target":"present","response":"absent","rt":629.20000004768,"correct":false,"confidence":3},{"trial_n":99,"min":69,"max":186,"target":"absent","response":"absent","rt":481.40000009537,"correct":true,"confidence":4},{"trial_n":100,"min":69,"max":186,"target":"absent","response":"absent","rt":590.39999985695,"correct":true,"confidence":1},{"trial_n":101,"min":71,"max":184,"target":"present","response":"present","rt":503.20000004768,"correct":true,"confidence":5},{"trial_n":102,"min":71,"max":184,"target":"absent","response":"absent","rt":488.5,"correct":true,"confidence":4},{"trial_n":103,"min":73,"max":182,"target":"present","response":"present","rt":690.70000004768,"correct":true,"confidence":3},{"trial_n":104,"min":73,"max":182,"target":"absent","response":"present","rt":724.29999995232,"correct":false,"confidence":4},{"trial_n":105,"min":71,"max":184,"target":"present","response":"present","rt":484.79999995232,"correct":true,"confidence":5},{"trial_n":106,"min":71,"max":184,"target":"absent","response":"absent","rt":485.5,"correct":true,"confidence":1},{"trial_n":107,"min":73,"max":182,"target":"present","response":"present","rt":464.5,"correct":true,"confidence":1},{"trial_n":108,"min":73,"max":182,"target":"present","response":"present","rt":497,"correct":true,"confidence":4},{"trial_n":109,"min":75,"max":180,"target":"present","response":"present","rt":503.09999990463,"correct":true,"confidence":3},{"trial_n":110,"min":75,"max":180,"target":"absent","response":"absent","rt":547.70000004768,"correct":true,"confidence":5},{"trial_n":111,"min":76,"max":179,"target":"absent","response":"absent","rt":522.40000009537,"correct":true,"confidence":4},{"trial_n":112,"min":76,"max":179,"target":"present","response":"present","rt":659.59999990463,"correct":true,"confidence":5},{"trial_n":113,"min":77,"max":178,"target":"absent","response":"absent","rt":555.79999995232,"correct":true,"confidence":3},{"trial_n":114,"min":77,"max":178,"target":"absent","response":"absent","rt":561.69999980927,"correct":true,"confidence":2},{"trial_n":115,"min":78,"max":177,"target":"absent","response":"absent","rt":775.29999995232,"correct":true,"confidence":1},{"trial_n":116,"min":78,"max":177,"target":"present","response":"present","rt":558,"correct":true,"confidence":4},{"trial_n":117,"min":79,"max":176,"target":"absent","response":"absent","rt":638.79999995232,"correct":true,"confidence":5},{"trial_n":118,"min":79,"max":176,"target":"absent","response":"present","rt":570.5,"correct":false,"confidence":1},{"trial_n":119,"min":78,"max":177,"target":"present","response":"present","rt":798.59999990463,"correct":true,"confidence":1},{"trial_n":120,"min":78,"max":177,"target":"present","response":"present","rt":488.59999990463,"correct":true,"confidence":5},{"trial_n":121,"min":79,"max":176,"target":"absent","response":"absent","rt":593.79999995232,"correct":true,"confidence":5},{"trial_n":122,"min":79,"max":176,"target":"present","response":"present","rt":534.29999995232,"correct":true,"confidence":4},{"trial_n":123,"min":80,"max":175,"target":"absent","response":"absent","rt":772.69999980927,"correct":true,"confidence":5},{"trial_n":124,"min":80,"max":175,"target":"absent","response":"absent","rt":675.10000014305,"correct":true,"confidence":3},{"trial_n":125,"min":81,"max":174,"target":"present","response":"absent","rt":481.89999985695,"correct":false,"confidence":1},{"trial_n":126,"min":80,"max":175,"target":"absent","response":"present","rt":319.20000004768,"correct":false,"confidence":5},{"trial_n":127,"min":79,"max":176,"target":"absent","response":"present","rt":443.59999990463,"correct":false,"confidence":1},{"trial_n":128,"min":78,"max":177,"target":"present","response":"present","rt":507.39999985695,"correct":true,"confidence":5},{"trial_n":129,"min":78,"max":177,"target":"present","response":"present","rt":570.79999995232,"correct":true,"confidence":4},{"trial_n":130,"min":79,"max":176,"target":"absent","response":"absent","rt":476.29999995232,"correct":true,"confidence":3},{"trial_n":131,"min":79,"max":176,"target":"present","response":"absent","rt":415.29999995232,"correct":false,"confidence":4},{"trial_n":132,"min":78,"max":177,"target":"absent","response":"present","rt":605.20000004768,"correct":false,"confidence":1},{"trial_n":133,"min":77,"max":178,"target":"present","response":"absent","rt":263,"correct":false,"confidence":4},{"trial_n":134,"min":76,"max":179,"target":"absent","response":"absent","rt":543.5,"correct":true,"confidence":3},{"trial_n":135,"min":76,"max":179,"target":"present","response":"absent","rt":521.30000019073,"correct":false,"confidence":2},{"trial_n":136,"min":75,"max":180,"target":"absent","response":"absent","rt":495.90000009537,"correct":true,"confidence":5},{"trial_n":137,"min":75,"max":180,"target":"present","response":"present","rt":586.89999985695,"correct":true,"confidence":4},{"trial_n":138,"min":76,"max":179,"target":"present","response":"present","rt":579.40000009537,"correct":true,"confidence":5},{"trial_n":139,"min":76,"max":179,"target":"present","response":"present","rt":551.70000004768,"correct":true,"confidence":5},{"trial_n":140,"min":77,"max":178,"target":"present","response":"present","rt":597.59999990463,"correct":true,"confidence":5}]