[{"trial_n":1,"n_dots":4.25,"target":"left","response":"left","rt":2943,"correct":true,"confidence":-1},{"trial_n":2,"n_dots":4.25,"target":"left","response":"left","rt":746,"correct":true,"confidence":-1},{"trial_n":3,"n_dots":3.85,"target":"right","response":"right","rt":420.89999985695,"correct":true,"confidence":-1},{"trial_n":4,"n_dots":3.85,"target":"left","response":"left","rt":457.79999995232,"correct":true,"confidence":-1},{"trial_n":5,"n_dots":3.45,"target":"right","response":"right","rt":359.40000009537,"correct":true,"confidence":-1},{"trial_n":6,"n_dots":3.45,"target":"left","response":"left","rt":382.90000009537,"correct":true,"confidence":-1},{"trial_n":7,"n_dots":3.05,"target":"left","response":"right","rt":348.69999980927,"correct":false,"confidence":-1},{"trial_n":8,"n_dots":3.25,"target":"left","response":"left","rt":224.29999995232,"correct":true,"confidence":-1},{"trial_n":9,"n_dots":3.25,"target":"left","response":"right","rt":379.20000004768,"correct":false,"confidence":-1},{"trial_n":10,"n_dots":3.45,"target":"left","response":"left","rt":408.09999990463,"correct":true,"confidence":-1},{"trial_n":11,"n_dots":3.45,"target":"left","response":"left","rt":449.90000009537,"correct":true,"confidence":-1},{"trial_n":12,"n_dots":3.25,"target":"right","response":"right","rt":447.69999980927,"correct":true,"confidence":-1},{"trial_n":13,"n_dots":3.25,"target":"left","response":"right","rt":414.69999980927,"correct":false,"confidence":-1},{"trial_n":14,"n_dots":3.35,"target":"left","response":"left","rt":666.79999995232,"correct":true,"confidence":-1},{"trial_n":15,"n_dots":3.35,"target":"right","response":"right","rt":374.59999990463,"correct":true,"confidence":-1},{"trial_n":16,"n_dots":3.25,"target":"right","response":"right","rt":431.70000004768,"correct":true,"confidence":-1},{"trial_n":17,"n_dots":3.25,"target":"left","response":"left","rt":430.20000004768,"correct":true,"confidence":-1},{"trial_n":18,"n_dots":3.15,"target":"right","response":"right","rt":438.60000014305,"correct":true,"confidence":-1},{"trial_n":19,"n_dots":3.15,"target":"right","response":"right","rt":435.29999995232,"correct":true,"confidence":-1},{"trial_n":20,"n_dots":3.05,"target":"right","response":"right","rt":465.59999990463,"correct":true,"confidence":-1},{"trial_n":21,"n_dots":3.05,"target":"right","response":"right","rt":253.09999990463,"correct":true,"confidence":4},{"trial_n":22,"n_dots":2.95,"target":"left","response":"left","rt":429.60000014305,"correct":true,"confidence":3},{"trial_n":23,"n_dots":2.95,"target":"right","response":"right","rt":342.29999995232,"correct":true,"confidence":4},{"trial_n":24,"n_dots":2.85,"target":"left","response":"left","rt":452.09999990463,"correct":true,"confidence":3},{"trial_n":25,"n_dots":2.85,"target":"right","response":"right","rt":253.60000014305,"correct":true,"confidence":2},{"trial_n":26,"n_dots":2.75,"target":"left","response":"left","rt":376.5,"correct":true,"confidence":5},{"trial_n":27,"n_dots":2.75,"target":"right","response":"left","rt":342.59999990463,"correct":false,"confidence":4},{"trial_n":28,"n_dots":2.85,"target":"right","response":"left","rt":366.20000004768,"correct":false,"confidence":4},{"trial_n":29,"n_dots":2.95,"target":"right","response":"right","rt":417.5,"correct":true,"confidence":3},{"trial_n":30,"n_dots":2.95,"target":"right","response":"left","rt":440.5,"correct":false,"confidence":2},{"trial_n":31,"n_dots":3.05,"target":"right","response":"left","rt":570.5,"correct":false,"confidence":3},{"trial_n":32,"n_dots":3.15,"target":"right","response":"left","rt":602,"correct":false,"confidence":1},{"trial_n":33,"n_dots":3.25,"target":"left","response":"left","rt":320.29999995232,"correct":true,"confidence":4},{"trial_n":34,"n_dots":3.25,"target":"right","response":"right","rt":317.79999995232,"correct":true,"confidence":3},{"trial_n":35,"n_dots":3.15,"target":"right","response":"right","rt":646.89999985695,"correct":true,"confidence":3},{"trial_n":36,"n_dots":3.15,"target":"right","response":"left","rt":447.20000004768,"correct":false,"confidence":2},{"trial_n":37,"n_dots":3.25,"target":"left","response":"left","rt":421.39999985695,"correct":true,"confidence":4},{"trial_n":38,"n_dots":3.25,"target":"right","response":"right","rt":364,"correct":true,"confidence":4},{"trial_n":39,"n_dots":3.15,"target":"left","response":"left","rt":356.89999985695,"correct":true,"confidence":4},{"trial_n":40,"n_dots":3.15,"target":"left","response":"left","rt":408.90000009537,"correct":true,"confidence":5},{"trial_n":41,"n_dots":3.05,"target":"left","response":"right","rt":1166,"correct":false,"confidence":3},{"trial_n":42,"n_dots":3.15,"target":"left","response":"left","rt":2713.2000000477,"correct":true,"confidence":3},{"trial_n":43,"n_dots":3.15,"target":"left","response":"right","rt":2287.0999999046,"correct":false,"confidence":1},{"trial_n":44,"n_dots":3.25,"target":"right","response":"left","rt":505.5,"correct":false,"confidence":4},{"trial_n":45,"n_dots":3.35,"target":"left","response":"left","rt":2309.9000000954,"correct":true,"confidence":4},{"trial_n":46,"n_dots":3.35,"target":"left","response":"left","rt":4799,"correct":true,"confidence":1},{"trial_n":47,"n_dots":3.25,"target":"right","response":"left","rt":363.79999995232,"correct":false,"confidence":3},{"trial_n":48,"n_dots":3.35,"target":"left","response":"right","rt":329.09999990463,"correct":false,"confidence":3},{"trial_n":49,"n_dots":3.45,"target":"right","response":"right","rt":351.30000019073,"correct":true,"confidence":3},{"trial_n":50,"n_dots":3.45,"target":"left","response":"left","rt":352.70000004768,"correct":true,"confidence":4},{"trial_n":51,"n_dots":3.35,"target":"right","response":"right","rt":309.89999985695,"correct":true,"confidence":3},{"trial_n":52,"n_dots":3.35,"target":"left","response":"left","rt":364,"correct":true,"confidence":4},{"trial_n":53,"n_dots":3.25,"target":"left","response":"left","rt":496.70000004768,"correct":true,"confidence":5},{"trial_n":54,"n_dots":3.25,"target":"left","response":"left","rt":347.40000009537,"correct":true,"confidence":3},{"trial_n":55,"n_dots":3.15,"target":"right","response":"right","rt":339.60000014305,"correct":true,"confidence":2},{"trial_n":56,"n_dots":3.15,"target":"right","response":"right","rt":326.09999990463,"correct":true,"confidence":3},{"trial_n":57,"n_dots":3.05,"target":"left","response":"left","rt":320.89999985695,"correct":true,"confidence":4},{"trial_n":58,"n_dots":3.05,"target":"left","response":"left","rt":85.600000143051,"correct":true,"confidence":4},{"trial_n":59,"n_dots":2.95,"target":"right","response":"right","rt":295.90000009537,"correct":true,"confidence":5},{"trial_n":60,"n_dots":2.95,"target":"left","response":"left","rt":92.700000047684,"correct":true,"confidence":4},{"trial_n":61,"n_dots":2.85,"target":"right","response":"left","rt":311.80000019073,"correct":false,"confidence":3},{"trial_n":62,"n_dots":2.95,"target":"right","response":"right","rt":300.59999990463,"correct":true,"confidence":4},{"trial_n":63,"n_dots":2.95,"target":"left","response":"left","rt":167.90000009537,"correct":true,"confidence":3},{"trial_n":64,"n_dots":2.85,"target":"left","response":"left","rt":299.5,"correct":true,"confidence":5},{"trial_n":65,"n_dots":2.85,"target":"right","response":"left","rt":192.70000004768,"correct":false,"confidence":3},{"trial_n":66,"n_dots":2.95,"target":"right","response":"right","rt":317.5,"correct":true,"confidence":2},{"trial_n":67,"n_dots":2.95,"target":"left","response":"left","rt":250.09999990463,"correct":true,"confidence":4},{"trial_n":68,"n_dots":2.85,"target":"right","response":"right","rt":344.10000014305,"correct":true,"confidence":4},{"trial_n":69,"n_dots":2.85,"target":"right","response":"right","rt":339.90000009537,"correct":true,"confidence":3},{"trial_n":70,"n_dots":2.75,"target":"right","response":"left","rt":300.79999995232,"correct":false,"confidence":3},{"trial_n":71,"n_dots":2.85,"target":"left","response":"left","rt":353.70000004768,"correct":true,"confidence":2},{"trial_n":72,"n_dots":2.85,"target":"left","response":"left","rt":375.29999995232,"correct":true,"confidence":5},{"trial_n":73,"n_dots":2.75,"target":"left","response":"left","rt":519.09999990463,"correct":true,"confidence":3},{"trial_n":74,"n_dots":2.75,"target":"right","response":"left","rt":426.80000019073,"correct":false,"confidence":2},{"trial_n":75,"n_dots":2.85,"target":"left","response":"right","rt":699,"correct":false,"confidence":5},{"trial_n":76,"n_dots":2.95,"target":"left","response":"left","rt":303.69999980927,"correct":true,"confidence":5},{"trial_n":77,"n_dots":2.95,"target":"left","response":"left","rt":807.59999990463,"correct":true,"confidence":5},{"trial_n":78,"n_dots":2.85,"target":"right","response":"right","rt":893.40000009537,"correct":true,"confidence":2},{"trial_n":79,"n_dots":2.85,"target":"right","response":"left","rt":1237.5,"correct":false,"confidence":1},{"trial_n":80,"n_dots":2.95,"target":"left","response":"left","rt":786.79999995232,"correct":true,"confidence":2},{"trial_n":81,"n_dots":2.95,"target":"left","response":"left","rt":63,"correct":true,"confidence":5},{"trial_n":82,"n_dots":2.85,"target":"left","response":"left","rt":384.29999995232,"correct":true,"confidence":4},{"trial_n":83,"n_dots":2.85,"target":"left","response":"left","rt":1380.4000000954,"correct":true,"confidence":4},{"trial_n":84,"n_dots":2.75,"target":"right","response":"left","rt":951.79999995232,"correct":false,"confidence":4},{"trial_n":85,"n_dots":2.85,"target":"right","response":"right","rt":523.59999990463,"correct":true,"confidence":4},{"trial_n":86,"n_dots":2.85,"target":"left","response":"left","rt":338.90000009537,"correct":true,"confidence":3},{"trial_n":87,"n_dots":2.75,"target":"left","response":"left","rt":750.5,"correct":true,"confidence":4},{"trial_n":88,"n_dots":2.75,"target":"right","response":"right","rt":437.5,"correct":true,"confidence":3},{"trial_n":89,"n_dots":2.65,"target":"right","response":"left","rt":263.40000009537,"correct":false,"confidence":2},{"trial_n":90,"n_dots":2.75,"target":"left","response":"left","rt":533.70000004768,"correct":true,"confidence":5},{"trial_n":91,"n_dots":2.75,"target":"right","response":"right","rt":1185.5,"correct":true,"confidence":3},{"trial_n":92,"n_dots":2.65,"target":"right","response":"right","rt":628.29999995232,"correct":true,"confidence":3},{"trial_n":93,"n_dots":2.65,"target":"right","response":"right","rt":334.20000004768,"correct":true,"confidence":5},{"trial_n":94,"n_dots":2.55,"target":"left","response":"left","rt":235.59999990463,"correct":true,"confidence":4},{"trial_n":95,"n_dots":2.55,"target":"left","response":"left","rt":267.5,"correct":true,"confidence":3},{"trial_n":96,"n_dots":2.45,"target":"left","response":"left","rt":400.29999995232,"correct":true,"confidence":2},{"trial_n":97,"n_dots":2.45,"target":"right","response":"right","rt":270.10000014305,"correct":true,"confidence":5},{"trial_n":98,"n_dots":2.35,"target":"left","response":"left","rt":890.29999995232,"correct":true,"confidence":3},{"trial_n":99,"n_dots":2.35,"target":"right","response":"right","rt":533.90000009537,"correct":true,"confidence":4},{"trial_n":100,"n_dots":2.25,"target":"right","response":"right","rt":935,"correct":true,"confidence":3},{"trial_n":101,"n_dots":2.25,"target":"left","response":"left","rt":269.29999995232,"correct":true,"confidence":4},{"trial_n":102,"n_dots":2.15,"target":"left","response":"left","rt":83.600000143051,"correct":true,"confidence":3},{"trial_n":103,"n_dots":2.15,"target":"right","response":"left","rt":424.60000014305,"correct":false,"confidence":2},{"trial_n":104,"n_dots":2.25,"target":"left","response":"left","rt":118.29999995232,"correct":true,"confidence":5},{"trial_n":105,"n_dots":2.25,"target":"right","response":"left","rt":364.59999990463,"correct":false,"confidence":4},{"trial_n":106,"n_dots":2.35,"target":"right","response":"right","rt":160.79999995232,"correct":true,"confidence":4},{"trial_n":107,"n_dots":2.35,"target":"left","response":"left","rt":259.60000014305,"correct":true,"confidence":4},{"trial_n":108,"n_dots":2.25,"target":"right","response":"right","rt":419.70000004768,"correct":true,"confidence":3},{"trial_n":109,"n_dots":2.25,"target":"right","response":"left","rt":375.59999990463,"correct":false,"confidence":3},{"trial_n":110,"n_dots":2.35,"target":"right","response":"left","rt":327.89999985695,"correct":false,"confidence":2},{"trial_n":111,"n_dots":2.45,"target":"right","response":"right","rt":188.5,"correct":true,"confidence":1},{"trial_n":112,"n_dots":2.45,"target":"right","response":"right","rt":204.60000014305,"correct":true,"confidence":5},{"trial_n":113,"n_dots":2.35,"target":"left","response":"left","rt":92.399999856949,"correct":true,"confidence":5},{"trial_n":114,"n_dots":2.35,"target":"left","response":"right","rt":172.60000014305,"correct":false,"confidence":4},{"trial_n":115,"n_dots":2.45,"target":"left","response":"left","rt":398.40000009537,"correct":true,"confidence":4},{"trial_n":116,"n_dots":2.45,"target":"right","response":"right","rt":262.89999985695,"correct":true,"confidence":3},{"trial_n":117,"n_dots":2.35,"target":"right","response":"left","rt":245.90000009537,"correct":false,"confidence":2},{"trial_n":118,"n_dots":2.45,"target":"right","response":"right","rt":55,"correct":true,"confidence":5},{"trial_n":119,"n_dots":2.45,"target":"left","response":"left","rt":43.399999856949,"correct":true,"confidence":5},{"trial_n":120,"n_dots":2.35,"target":"right","response":"left","rt":1324.9000000954,"correct":false,"confidence":4}]