[{"trial_n":1,"n_dots":4.25,"target":"left","response":"left","rt":4697,"correct":true,"confidence":-1},{"trial_n":2,"n_dots":4.25,"target":"left","response":"left","rt":988.90000009537,"correct":true,"confidence":-1},{"trial_n":3,"n_dots":3.85,"target":"right","response":"right","rt":503.20000004768,"correct":true,"confidence":-1},{"trial_n":4,"n_dots":3.85,"target":"left","response":"left","rt":387.10000014305,"correct":true,"confidence":-1},{"trial_n":5,"n_dots":3.45,"target":"right","response":"right","rt":35.700000047684,"correct":true,"confidence":-1},{"trial_n":6,"n_dots":3.45,"target":"right","response":"right","rt":403.09999990463,"correct":true,"confidence":-1},{"trial_n":7,"n_dots":3.05,"target":"right","response":"left","rt":696,"correct":false,"confidence":-1},{"trial_n":8,"n_dots":3.25,"target":"right","response":"right","rt":313.60000014305,"correct":true,"confidence":-1},{"trial_n":9,"n_dots":3.25,"target":"right","response":"right","rt":729.29999995232,"correct":true,"confidence":-1},{"trial_n":10,"n_dots":3.05,"target":"left","response":"left","rt":380.09999990463,"correct":true,"confidence":-1},{"trial_n":11,"n_dots":3.05,"target":"right","response":"right","rt":304,"correct":true,"confidence":-1},{"trial_n":12,"n_dots":2.85,"target":"left","response":"left","rt":166.59999990463,"correct":true,"confidence":-1},{"trial_n":13,"n_dots":2.85,"target":"left","response":"left","rt":286.20000004768,"correct":true,"confidence":-1},{"trial_n":14,"n_dots":2.75,"target":"left","response":"right","rt":383.40000009537,"correct":false,"confidence":-1},{"trial_n":15,"n_dots":2.85,"target":"left","response":"right","rt":61.900000095367,"correct":false,"confidence":-1},{"trial_n":16,"n_dots":2.95,"target":"right","response":"right","rt":87,"correct":true,"confidence":-1},{"trial_n":17,"n_dots":2.95,"target":"left","response":"right","rt":366.60000014305,"correct":false,"confidence":-1},{"trial_n":18,"n_dots":3.05,"target":"left","response":"left","rt":366.79999995232,"correct":true,"confidence":-1},{"trial_n":19,"n_dots":3.05,"target":"right","response":"left","rt":1409.2999999523,"correct":false,"confidence":-1},{"trial_n":20,"n_dots":3.15,"target":"left","response":"right","rt":419.09999990463,"correct":false,"confidence":-1},{"trial_n":21,"n_dots":3.25,"target":"left","response":"right","rt":422.60000014305,"correct":false,"confidence":3},{"trial_n":22,"n_dots":3.35,"target":"left","response":"left","rt":1370.5999999046,"correct":true,"confidence":3},{"trial_n":23,"n_dots":3.35,"target":"left","response":"left","rt":577.39999985695,"correct":true,"confidence":3},{"trial_n":24,"n_dots":3.25,"target":"right","response":"right","rt":1874.1999998093,"correct":true,"confidence":3},{"trial_n":25,"n_dots":3.25,"target":"left","response":"left","rt":898.79999995232,"correct":true,"confidence":3},{"trial_n":26,"n_dots":3.15,"target":"left","response":"left","rt":1080.0999999046,"correct":true,"confidence":3},{"trial_n":27,"n_dots":3.15,"target":"right","response":"right","rt":1066.9000000954,"correct":true,"confidence":4},{"trial_n":28,"n_dots":3.05,"target":"left","response":"right","rt":2583.5,"correct":false,"confidence":4},{"trial_n":29,"n_dots":3.15,"target":"right","response":"right","rt":566.80000019073,"correct":true,"confidence":4},{"trial_n":30,"n_dots":3.15,"target":"right","response":"right","rt":1813.0999999046,"correct":true,"confidence":3},{"trial_n":31,"n_dots":3.05,"target":"right","response":"right","rt":788.60000014305,"correct":true,"confidence":5},{"trial_n":32,"n_dots":3.05,"target":"right","response":"right","rt":621.29999995232,"correct":true,"confidence":3},{"trial_n":33,"n_dots":2.95,"target":"left","response":"right","rt":471,"correct":false,"confidence":2},{"trial_n":34,"n_dots":3.05,"target":"right","response":"right","rt":472.89999985695,"correct":true,"confidence":5},{"trial_n":35,"n_dots":3.05,"target":"left","response":"right","rt":553,"correct":false,"confidence":3},{"trial_n":36,"n_dots":3.15,"target":"right","response":"right","rt":369.69999980927,"correct":true,"confidence":2},{"trial_n":37,"n_dots":3.15,"target":"left","response":"right","rt":332.5,"correct":false,"confidence":5},{"trial_n":38,"n_dots":3.25,"target":"right","response":"right","rt":421.40000009537,"correct":true,"confidence":3},{"trial_n":39,"n_dots":3.25,"target":"left","response":"left","rt":624.10000014305,"correct":true,"confidence":5},{"trial_n":40,"n_dots":3.15,"target":"right","response":"right","rt":959,"correct":true,"confidence":4},{"trial_n":41,"n_dots":3.15,"target":"left","response":"right","rt":1430.2999999523,"correct":false,"confidence":4},{"trial_n":42,"n_dots":3.25,"target":"left","response":"left","rt":710.09999990463,"correct":true,"confidence":5},{"trial_n":43,"n_dots":3.25,"target":"right","response":"right","rt":1204.3000001907,"correct":true,"confidence":4},{"trial_n":44,"n_dots":3.15,"target":"left","response":"left","rt":356.90000009537,"correct":true,"confidence":3},{"trial_n":45,"n_dots":3.15,"target":"right","response":"right","rt":1208.4000000954,"correct":true,"confidence":4},{"trial_n":46,"n_dots":3.05,"target":"right","response":"right","rt":216.79999995232,"correct":true,"confidence":3},{"trial_n":47,"n_dots":3.05,"target":"left","response":"right","rt":382.39999985695,"correct":false,"confidence":2},{"trial_n":48,"n_dots":3.15,"target":"right","response":"right","rt":192.80000019073,"correct":true,"confidence":5},{"trial_n":49,"n_dots":3.15,"target":"left","response":"right","rt":406.10000014305,"correct":false,"confidence":4},{"trial_n":50,"n_dots":3.25,"target":"left","response":"left","rt":821.5,"correct":true,"confidence":4},{"trial_n":51,"n_dots":3.25,"target":"right","response":"left","rt":336.09999990463,"correct":false,"confidence":3},{"trial_n":52,"n_dots":3.35,"target":"left","response":"right","rt":1371.4000000954,"correct":false,"confidence":4},{"trial_n":53,"n_dots":3.45,"target":"right","response":"right","rt":48.299999952316,"correct":true,"confidence":3},{"trial_n":54,"n_dots":3.45,"target":"right","response":"right","rt":2418.5,"correct":true,"confidence":4},{"trial_n":55,"n_dots":3.35,"target":"left","response":"left","rt":571.60000014305,"correct":true,"confidence":4},{"trial_n":56,"n_dots":3.35,"target":"right","response":"right","rt":657.10000014305,"correct":true,"confidence":5},{"trial_n":57,"n_dots":3.25,"target":"right","response":"right","rt":90.900000095367,"correct":true,"confidence":3},{"trial_n":58,"n_dots":3.25,"target":"left","response":"left","rt":917.5,"correct":true,"confidence":5},{"trial_n":59,"n_dots":3.15,"target":"left","response":"left","rt":682.70000004768,"correct":true,"confidence":4},{"trial_n":60,"n_dots":3.15,"target":"right","response":"right","rt":1191.3000001907,"correct":true,"confidence":5},{"trial_n":61,"n_dots":3.05,"target":"right","response":"left","rt":971.40000009537,"correct":false,"confidence":2},{"trial_n":62,"n_dots":3.15,"target":"left","response":"left","rt":309.69999980927,"correct":true,"confidence":5},{"trial_n":63,"n_dots":3.15,"target":"left","response":"right","rt":959.80000019073,"correct":false,"confidence":3},{"trial_n":64,"n_dots":3.25,"target":"right","response":"left","rt":811.29999995232,"correct":false,"confidence":3},{"trial_n":65,"n_dots":3.35,"target":"left","response":"left","rt":80.700000047684,"correct":true,"confidence":5},{"trial_n":66,"n_dots":3.35,"target":"left","response":"left","rt":298.39999985695,"correct":true,"confidence":5},{"trial_n":67,"n_dots":3.25,"target":"left","response":"left","rt":164.60000014305,"correct":true,"confidence":5},{"trial_n":68,"n_dots":3.25,"target":"left","response":"left","rt":417.20000004768,"correct":true,"confidence":4},{"trial_n":69,"n_dots":3.15,"target":"right","response":"left","rt":72.900000095367,"correct":false,"confidence":5},{"trial_n":70,"n_dots":3.25,"target":"right","response":"right","rt":1293.7000000477,"correct":true,"confidence":3},{"trial_n":71,"n_dots":3.25,"target":"left","response":"right","rt":735.90000009537,"correct":false,"confidence":1},{"trial_n":72,"n_dots":3.35,"target":"left","response":"left","rt":510,"correct":true,"confidence":5},{"trial_n":73,"n_dots":3.35,"target":"right","response":"left","rt":231.30000019073,"correct":false,"confidence":3},{"trial_n":74,"n_dots":3.45,"target":"left","response":"left","rt":1547.3999998569,"correct":true,"confidence":5},{"trial_n":75,"n_dots":3.45,"target":"left","response":"left","rt":189,"correct":true,"confidence":4},{"trial_n":76,"n_dots":3.35,"target":"right","response":"right","rt":911.40000009537,"correct":true,"confidence":5},{"trial_n":77,"n_dots":3.35,"target":"left","response":"left","rt":899,"correct":true,"confidence":4},{"trial_n":78,"n_dots":3.25,"target":"left","response":"left","rt":238.39999985695,"correct":true,"confidence":5},{"trial_n":79,"n_dots":3.25,"target":"left","response":"left","rt":844.09999990463,"correct":true,"confidence":5},{"trial_n":80,"n_dots":3.15,"target":"right","response":"right","rt":1121.5,"correct":true,"confidence":4},{"trial_n":81,"n_dots":3.15,"target":"left","response":"left","rt":1113.8000001907,"correct":true,"confidence":5},{"trial_n":82,"n_dots":3.05,"target":"right","response":"right","rt":738,"correct":true,"confidence":5},{"trial_n":83,"n_dots":3.05,"target":"right","response":"left","rt":1306.5,"correct":false,"confidence":3},{"trial_n":84,"n_dots":3.15,"target":"left","response":"left","rt":827.29999995232,"correct":true,"confidence":2},{"trial_n":85,"n_dots":3.15,"target":"left","response":"left","rt":448,"correct":true,"confidence":2},{"trial_n":86,"n_dots":3.05,"target":"right","response":"right","rt":580.79999995232,"correct":true,"confidence":5},{"trial_n":87,"n_dots":3.05,"target":"left","response":"right","rt":572,"correct":false,"confidence":5},{"trial_n":88,"n_dots":3.15,"target":"right","response":"right","rt":806.79999995232,"correct":true,"confidence":5},{"trial_n":89,"n_dots":3.15,"target":"right","response":"right","rt":344.89999985695,"correct":true,"confidence":5},{"trial_n":90,"n_dots":3.05,"target":"left","response":"left","rt":571.5,"correct":true,"confidence":4},{"trial_n":91,"n_dots":3.05,"target":"left","response":"left","rt":434.5,"correct":true,"confidence":4},{"trial_n":92,"n_dots":2.95,"target":"left","response":"right","rt":473.79999995232,"correct":false,"confidence":5},{"trial_n":93,"n_dots":3.05,"target":"left","response":"left","rt":983.29999995232,"correct":true,"confidence":5},{"trial_n":94,"n_dots":3.05,"target":"right","response":"right","rt":786.90000009537,"correct":true,"confidence":5},{"trial_n":95,"n_dots":2.95,"target":"right","response":"left","rt":766.20000004768,"correct":false,"confidence":1},{"trial_n":96,"n_dots":3.05,"target":"left","response":"right","rt":451.5,"correct":false,"confidence":5},{"trial_n":97,"n_dots":3.15,"target":"left","response":"right","rt":1526.5,"correct":false,"confidence":5},{"trial_n":98,"n_dots":3.25,"target":"right","response":"right","rt":1432.5999999046,"correct":true,"confidence":5},{"trial_n":99,"n_dots":3.25,"target":"right","response":"right","rt":1577.5,"correct":true,"confidence":5},{"trial_n":100,"n_dots":3.15,"target":"left","response":"right","rt":1020.7999999523,"correct":false,"confidence":5},{"trial_n":101,"n_dots":3.25,"target":"right","response":"right","rt":1297.1000001431,"correct":true,"confidence":5},{"trial_n":102,"n_dots":3.25,"target":"left","response":"right","rt":1715.8999998569,"correct":false,"confidence":5},{"trial_n":103,"n_dots":3.35,"target":"right","response":"right","rt":872.90000009537,"correct":true,"confidence":3},{"trial_n":104,"n_dots":3.35,"target":"right","response":"right","rt":435,"correct":true,"confidence":3},{"trial_n":105,"n_dots":3.25,"target":"right","response":"right","rt":156.29999995232,"correct":true,"confidence":3},{"trial_n":106,"n_dots":3.25,"target":"right","response":"right","rt":215.59999990463,"correct":true,"confidence":2},{"trial_n":107,"n_dots":3.15,"target":"left","response":"left","rt":772.70000004768,"correct":true,"confidence":4},{"trial_n":108,"n_dots":3.15,"target":"right","response":"left","rt":447,"correct":false,"confidence":3},{"trial_n":109,"n_dots":3.25,"target":"right","response":"left","rt":384.5,"correct":false,"confidence":5},{"trial_n":110,"n_dots":3.35,"target":"right","response":"left","rt":236.40000009537,"correct":false,"confidence":4},{"trial_n":111,"n_dots":3.45,"target":"right","response":"left","rt":224.10000014305,"correct":false,"confidence":5},{"trial_n":112,"n_dots":3.55,"target":"left","response":"left","rt":83.099999904633,"correct":true,"confidence":5},{"trial_n":113,"n_dots":3.55,"target":"right","response":"left","rt":348.20000004768,"correct":false,"confidence":5},{"trial_n":114,"n_dots":3.65,"target":"right","response":"left","rt":294.09999990463,"correct":false,"confidence":5},{"trial_n":115,"n_dots":3.75,"target":"right","response":"left","rt":456.89999985695,"correct":false,"confidence":4},{"trial_n":116,"n_dots":3.85,"target":"left","response":"left","rt":1434.5999999046,"correct":true,"confidence":5},{"trial_n":117,"n_dots":3.85,"target":"right","response":"left","rt":144.40000009537,"correct":false,"confidence":4},{"trial_n":118,"n_dots":3.95,"target":"right","response":"left","rt":1246.1000001431,"correct":false,"confidence":4},{"trial_n":119,"n_dots":4.05,"target":"left","response":"left","rt":778.5,"correct":true,"confidence":5},{"trial_n":120,"n_dots":4.05,"target":"right","response":"left","rt":828.70000004768,"correct":false,"confidence":5}]