[{"trial_n":1,"min":25,"max":230,"target":"present","response":"present","rt":8608,"correct":true,"confidence":-1},{"trial_n":2,"min":25,"max":230,"target":"present","response":"present","rt":1368,"correct":true,"confidence":-1},{"trial_n":3,"min":41,"max":214,"target":"absent","response":"absent","rt":846.00000000001,"correct":true,"confidence":-1},{"trial_n":4,"min":41,"max":214,"target":"absent","response":"absent","rt":724,"correct":true,"confidence":-1},{"trial_n":5,"min":57,"max":198,"target":"present","response":"present","rt":662,"correct":true,"confidence":-1},{"trial_n":6,"min":57,"max":198,"target":"absent","response":"absent","rt":724.00000000001,"correct":true,"confidence":-1},{"trial_n":7,"min":73,"max":182,"target":"absent","response":"absent","rt":771.99999999999,"correct":true,"confidence":-1},{"trial_n":8,"min":73,"max":182,"target":"absent","response":"absent","rt":618,"correct":true,"confidence":-1},{"trial_n":9,"min":89,"max":166,"target":"present","response":"present","rt":1653,"correct":true,"confidence":-1},{"trial_n":10,"min":89,"max":166,"target":"absent","response":"absent","rt":788.99999999999,"correct":true,"confidence":-1},{"trial_n":11,"min":97,"max":158,"target":"absent","response":"absent","rt":552,"correct":true,"confidence":-1},{"trial_n":12,"min":97,"max":158,"target":"absent","response":"absent","rt":707,"correct":true,"confidence":-1},{"trial_n":13,"min":105,"max":150,"target":"absent","response":"absent","rt":771.99999999999,"correct":true,"confidence":-1},{"trial_n":14,"min":105,"max":150,"target":"absent","response":"absent","rt":489.00000000001,"correct":true,"confidence":-1},{"trial_n":15,"min":113,"max":142,"target":"present","response":"absent","rt":902.99999999999,"correct":false,"confidence":-1},{"trial_n":16,"min":105,"max":150,"target":"present","response":"absent","rt":1198,"correct":false,"confidence":-1},{"trial_n":17,"min":97,"max":158,"target":"present","response":"absent","rt":840.99999999999,"correct":false,"confidence":-1},{"trial_n":18,"min":89,"max":166,"target":"absent","response":"absent","rt":953,"correct":true,"confidence":-1},{"trial_n":19,"min":89,"max":166,"target":"present","response":"absent","rt":1109,"correct":false,"confidence":-1},{"trial_n":20,"min":81,"max":174,"target":"present","response":"present","rt":653,"correct":true,"confidence":-1},{"trial_n":21,"min":81,"max":174,"target":"present","response":"present","rt":740,"correct":true,"confidence":4},{"trial_n":22,"min":85,"max":170,"target":"absent","response":"present","rt":1312,"correct":false,"confidence":3},{"trial_n":23,"min":81,"max":174,"target":"present","response":"present","rt":832,"correct":true,"confidence":5},{"trial_n":24,"min":81,"max":174,"target":"absent","response":"absent","rt":725,"correct":true,"confidence":3},{"trial_n":25,"min":85,"max":170,"target":"present","response":"present","rt":1076,"correct":true,"confidence":4},{"trial_n":26,"min":85,"max":170,"target":"absent","response":"present","rt":1384,"correct":false,"confidence":2},{"trial_n":27,"min":81,"max":174,"target":"absent","response":"present","rt":1059,"correct":false,"confidence":2},{"trial_n":28,"min":77,"max":178,"target":"absent","response":"absent","rt":1270,"correct":true,"confidence":2},{"trial_n":29,"min":77,"max":178,"target":"absent","response":"present","rt":807,"correct":false,"confidence":4},{"trial_n":30,"min":73,"max":182,"target":"absent","response":"present","rt":1254,"correct":false,"confidence":2},{"trial_n":31,"min":71,"max":184,"target":"absent","response":"present","rt":876.99999999999,"correct":false,"confidence":3},{"trial_n":32,"min":69,"max":186,"target":"present","response":"present","rt":963,"correct":true,"confidence":5},{"trial_n":33,"min":69,"max":186,"target":"present","response":"present","rt":720,"correct":true,"confidence":5},{"trial_n":34,"min":71,"max":184,"target":"present","response":"present","rt":705,"correct":true,"confidence":5},{"trial_n":35,"min":71,"max":184,"target":"absent","response":"present","rt":1328,"correct":false,"confidence":2},{"trial_n":36,"min":69,"max":186,"target":"present","response":"present","rt":688,"correct":true,"confidence":5},{"trial_n":37,"min":69,"max":186,"target":"present","response":"present","rt":665,"correct":true,"confidence":5},{"trial_n":38,"min":71,"max":184,"target":"present","response":"present","rt":657,"correct":true,"confidence":5},{"trial_n":39,"min":71,"max":184,"target":"absent","response":"absent","rt":921,"correct":true,"confidence":4},{"trial_n":40,"min":73,"max":182,"target":"present","response":"present","rt":675,"correct":true,"confidence":5},{"trial_n":41,"min":73,"max":182,"target":"absent","response":"absent","rt":1237,"correct":true,"confidence":3},{"trial_n":42,"min":74,"max":181,"target":"absent","response":"present","rt":2347,"correct":false,"confidence":3},{"trial_n":43,"min":73,"max":182,"target":"present","response":"present","rt":607,"correct":true,"confidence":5},{"trial_n":44,"min":73,"max":182,"target":"present","response":"present","rt":555,"correct":true,"confidence":5},{"trial_n":45,"min":74,"max":181,"target":"present","response":"present","rt":660,"correct":true,"confidence":5},{"trial_n":46,"min":74,"max":181,"target":"absent","response":"present","rt":3445,"correct":false,"confidence":2},{"trial_n":47,"min":73,"max":182,"target":"present","response":"present","rt":509.99999999997,"correct":true,"confidence":5},{"trial_n":48,"min":73,"max":182,"target":"present","response":"present","rt":518,"correct":true,"confidence":5},{"trial_n":49,"min":74,"max":181,"target":"present","response":"present","rt":583,"correct":true,"confidence":5},{"trial_n":50,"min":74,"max":181,"target":"present","response":"present","rt":892,"correct":true,"confidence":5},{"trial_n":51,"min":75,"max":180,"target":"absent","response":"absent","rt":1111,"correct":true,"confidence":3},{"trial_n":52,"min":75,"max":180,"target":"present","response":"present","rt":649,"correct":true,"confidence":5},{"trial_n":53,"min":76,"max":179,"target":"present","response":"present","rt":680,"correct":true,"confidence":5},{"trial_n":54,"min":76,"max":179,"target":"absent","response":"present","rt":1662,"correct":false,"confidence":2},{"trial_n":55,"min":75,"max":180,"target":"absent","response":"absent","rt":1068,"correct":true,"confidence":4},{"trial_n":56,"min":75,"max":180,"target":"present","response":"present","rt":1157,"correct":true,"confidence":5},{"trial_n":57,"min":76,"max":179,"target":"present","response":"present","rt":458,"correct":true,"confidence":4},{"trial_n":58,"min":76,"max":179,"target":"absent","response":"absent","rt":944.00000000003,"correct":true,"confidence":4},{"trial_n":59,"min":77,"max":178,"target":"absent","response":"absent","rt":578,"correct":true,"confidence":5},{"trial_n":60,"min":77,"max":178,"target":"present","response":"present","rt":1214,"correct":true,"confidence":4},{"trial_n":61,"min":78,"max":177,"target":"absent","response":"absent","rt":883,"correct":true,"confidence":4},{"trial_n":62,"min":78,"max":177,"target":"absent","response":"absent","rt":546,"correct":true,"confidence":5},{"trial_n":63,"min":79,"max":176,"target":"absent","response":"absent","rt":732,"correct":true,"confidence":4},{"trial_n":64,"min":79,"max":176,"target":"present","response":"present","rt":1052,"correct":true,"confidence":3},{"trial_n":65,"min":80,"max":175,"target":"present","response":"present","rt":2084,"correct":true,"confidence":3},{"trial_n":66,"min":80,"max":175,"target":"present","response":"present","rt":883,"correct":true,"confidence":3},{"trial_n":67,"min":81,"max":174,"target":"present","response":"present","rt":595,"correct":true,"confidence":3},{"trial_n":68,"min":81,"max":174,"target":"absent","response":"absent","rt":773,"correct":true,"confidence":4},{"trial_n":69,"min":82,"max":173,"target":"absent","response":"absent","rt":634,"correct":true,"confidence":5},{"trial_n":70,"min":82,"max":173,"target":"present","response":"present","rt":790.99999999997,"correct":true,"confidence":3},{"trial_n":71,"min":41,"max":214,"target":"present","response":"present","rt":1607,"correct":true,"confidence":-1},{"trial_n":72,"min":41,"max":214,"target":"present","response":"present","rt":671,"correct":true,"confidence":-1},{"trial_n":73,"min":57,"max":198,"target":"absent","response":"absent","rt":739,"correct":true,"confidence":-1},{"trial_n":74,"min":57,"max":198,"target":"absent","response":"absent","rt":614,"correct":true,"confidence":-1},{"trial_n":75,"min":73,"max":182,"target":"present","response":"present","rt":368.00000000006,"correct":true,"confidence":-1},{"trial_n":76,"min":73,"max":182,"target":"present","response":"absent","rt":429,"correct":false,"confidence":-1},{"trial_n":77,"min":57,"max":198,"target":"absent","response":"absent","rt":252.00000000006,"correct":true,"confidence":-1},{"trial_n":78,"min":57,"max":198,"target":"absent","response":"present","rt":476,"correct":false,"confidence":-1},{"trial_n":79,"min":41,"max":214,"target":"present","response":"present","rt":307.00000000006,"correct":true,"confidence":-1},{"trial_n":80,"min":41,"max":214,"target":"absent","response":"absent","rt":182,"correct":true,"confidence":-1},{"trial_n":81,"min":49,"max":206,"target":"present","response":"present","rt":251.00000000006,"correct":true,"confidence":-1},{"trial_n":82,"min":49,"max":206,"target":"present","response":"present","rt":258,"correct":true,"confidence":-1},{"trial_n":83,"min":57,"max":198,"target":"absent","response":"absent","rt":146.99999999994,"correct":true,"confidence":-1},{"trial_n":84,"min":57,"max":198,"target":"present","response":"present","rt":302,"correct":true,"confidence":-1},{"trial_n":85,"min":65,"max":190,"target":"present","response":"present","rt":396,"correct":true,"confidence":-1},{"trial_n":86,"min":65,"max":190,"target":"present","response":"absent","rt":242,"correct":false,"confidence":-1},{"trial_n":87,"min":57,"max":198,"target":"absent","response":"present","rt":293.99999999994,"correct":false,"confidence":-1},{"trial_n":88,"min":49,"max":206,"target":"absent","response":"absent","rt":268.99999999994,"correct":true,"confidence":-1},{"trial_n":89,"min":49,"max":206,"target":"present","response":"present","rt":210.00000000006,"correct":true,"confidence":-1},{"trial_n":90,"min":57,"max":198,"target":"absent","response":"absent","rt":145,"correct":true,"confidence":-1},{"trial_n":91,"min":57,"max":198,"target":"absent","response":"absent","rt":257.00000000006,"correct":true,"confidence":3},{"trial_n":92,"min":61,"max":194,"target":"present","response":"present","rt":110.99999999994,"correct":true,"confidence":4},{"trial_n":93,"min":61,"max":194,"target":"absent","response":"present","rt":266.00000000006,"correct":false,"confidence":1},{"trial_n":94,"min":57,"max":198,"target":"absent","response":"present","rt":292,"correct":false,"confidence":1},{"trial_n":95,"min":53,"max":202,"target":"present","response":"present","rt":385,"correct":true,"confidence":4},{"trial_n":96,"min":53,"max":202,"target":"absent","response":"absent","rt":535,"correct":true,"confidence":4},{"trial_n":97,"min":57,"max":198,"target":"absent","response":"absent","rt":493,"correct":true,"confidence":4},{"trial_n":98,"min":57,"max":198,"target":"present","response":"present","rt":222,"correct":true,"confidence":5},{"trial_n":99,"min":61,"max":194,"target":"present","response":"present","rt":355,"correct":true,"confidence":5},{"trial_n":100,"min":61,"max":194,"target":"absent","response":"absent","rt":300.99999999994,"correct":true,"confidence":4},{"trial_n":101,"min":63,"max":192,"target":"absent","response":"absent","rt":253,"correct":true,"confidence":4},{"trial_n":102,"min":63,"max":192,"target":"absent","response":"absent","rt":855,"correct":true,"confidence":4},{"trial_n":103,"min":65,"max":190,"target":"present","response":"present","rt":286,"correct":true,"confidence":4},{"trial_n":104,"min":65,"max":190,"target":"present","response":"present","rt":300,"correct":true,"confidence":4},{"trial_n":105,"min":67,"max":188,"target":"absent","response":"absent","rt":273,"correct":true,"confidence":4},{"trial_n":106,"min":67,"max":188,"target":"present","response":"present","rt":195,"correct":true,"confidence":4},{"trial_n":107,"min":69,"max":186,"target":"absent","response":"absent","rt":255,"correct":true,"confidence":4},{"trial_n":108,"min":69,"max":186,"target":"absent","response":"absent","rt":274,"correct":true,"confidence":4},{"trial_n":109,"min":71,"max":184,"target":"present","response":"present","rt":191,"correct":true,"confidence":4},{"trial_n":110,"min":71,"max":184,"target":"absent","response":"absent","rt":258,"correct":true,"confidence":4},{"trial_n":111,"min":72,"max":183,"target":"absent","response":"absent","rt":525.99999999994,"correct":true,"confidence":4},{"trial_n":112,"min":72,"max":183,"target":"absent","response":"absent","rt":295,"correct":true,"confidence":4},{"trial_n":113,"min":73,"max":182,"target":"absent","response":"absent","rt":279,"correct":true,"confidence":5},{"trial_n":114,"min":73,"max":182,"target":"present","response":"present","rt":248,"correct":true,"confidence":4},{"trial_n":115,"min":74,"max":181,"target":"present","response":"present","rt":281,"correct":true,"confidence":4},{"trial_n":116,"min":74,"max":181,"target":"absent","response":"absent","rt":247,"correct":true,"confidence":5},{"trial_n":117,"min":75,"max":180,"target":"present","response":"present","rt":287,"correct":true,"confidence":4},{"trial_n":118,"min":75,"max":180,"target":"present","response":"present","rt":240,"correct":true,"confidence":5},{"trial_n":119,"min":76,"max":179,"target":"absent","response":"absent","rt":232,"correct":true,"confidence":5},{"trial_n":120,"min":76,"max":179,"target":"absent","response":"absent","rt":404,"correct":true,"confidence":5},{"trial_n":121,"min":77,"max":178,"target":"present","response":"present","rt":223,"correct":true,"confidence":5},{"trial_n":122,"min":77,"max":178,"target":"absent","response":"absent","rt":308.99999999994,"correct":true,"confidence":5},{"trial_n":123,"min":78,"max":177,"target":"present","response":"present","rt":173,"correct":true,"confidence":5},{"trial_n":124,"min":78,"max":177,"target":"present","response":"present","rt":140.00000000006,"correct":true,"confidence":5},{"trial_n":125,"min":79,"max":176,"target":"present","response":"present","rt":165,"correct":true,"confidence":5},{"trial_n":126,"min":79,"max":176,"target":"absent","response":"absent","rt":267,"correct":true,"confidence":5},{"trial_n":127,"min":80,"max":175,"target":"present","response":"present","rt":248,"correct":true,"confidence":5},{"trial_n":128,"min":80,"max":175,"target":"present","response":"present","rt":209.99999999994,"correct":true,"confidence":5},{"trial_n":129,"min":81,"max":174,"target":"present","response":"present","rt":290,"correct":true,"confidence":5},{"trial_n":130,"min":81,"max":174,"target":"present","response":"present","rt":93,"correct":true,"confidence":5},{"trial_n":131,"min":82,"max":173,"target":"absent","response":"absent","rt":382,"correct":true,"confidence":4},{"trial_n":132,"min":82,"max":173,"target":"present","response":"present","rt":90,"correct":true,"confidence":5},{"trial_n":133,"min":83,"max":172,"target":"present","response":"present","rt":124,"correct":true,"confidence":5},{"trial_n":134,"min":83,"max":172,"target":"absent","response":"absent","rt":1448.0000000001,"correct":true,"confidence":1},{"trial_n":135,"min":84,"max":171,"target":"absent","response":"absent","rt":490,"correct":true,"confidence":3},{"trial_n":136,"min":84,"max":171,"target":"present","response":"present","rt":152,"correct":true,"confidence":4},{"trial_n":137,"min":85,"max":170,"target":"absent","response":"absent","rt":343,"correct":true,"confidence":2},{"trial_n":138,"min":85,"max":170,"target":"present","response":"present","rt":236,"correct":true,"confidence":2},{"trial_n":139,"min":86,"max":169,"target":"absent","response":"absent","rt":1061.9999999999,"correct":true,"confidence":3},{"trial_n":140,"min":86,"max":169,"target":"present","response":"present","rt":106.00000000006,"correct":true,"confidence":4}]