[{"trial_n":1,"span":8,"encoder":"02500600","distractor":"02500500","target":"present","response":"present","rt":"10302.700000048","correct":true,"confidence":-1},{"trial_n":2,"span":8,"encoder":"05411803","distractor":"05413803","target":"present","response":"present","rt":"3614.5","correct":true,"confidence":-1},{"trial_n":3,"span":10,"encoder":"1976751771","distractor":"1976721771","target":"absent","response":"absent","rt":"3896.2000000477","correct":true,"confidence":-1},{"trial_n":4,"span":10,"encoder":"1404659015","distractor":"1405659015","target":"absent","response":"present","rt":"1690.7000000477","correct":false,"confidence":-1},{"trial_n":5,"span":8,"encoder":"67431568","distractor":"67432568","target":"present","response":"present","rt":"1332.4000000954","correct":true,"confidence":-1},{"trial_n":6,"span":8,"encoder":"99530707","distractor":"90530707","target":"absent","response":"present","rt":"2305.7000000477","correct":false,"confidence":-1},{"trial_n":7,"span":6,"encoder":"991240","distractor":"951240","target":"absent","response":"absent","rt":"1315.5","correct":true,"confidence":-1},{"trial_n":8,"span":6,"encoder":"151782","distractor":"154782","target":"absent","response":"absent","rt":"1847.5999999046","correct":true,"confidence":-1},{"trial_n":9,"span":8,"encoder":"97378292","distractor":"97778292","target":"present","response":"present","rt":"2208.5","correct":true,"confidence":-1},{"trial_n":10,"span":8,"encoder":"82020593","distractor":"82050593","target":"absent","response":"present","rt":"1280","correct":false,"confidence":-1},{"trial_n":11,"span":6,"encoder":"467549","distractor":"467149","target":"absent","response":"present","rt":"1568.6000001431","correct":false,"confidence":-1},{"trial_n":12,"span":5,"encoder":"41136","distractor":"41146","target":"absent","response":"present","rt":"818.90000009537","correct":false,"confidence":-1},{"trial_n":13,"span":4,"encoder":"9228","distractor":"9229","target":"present","response":"present","rt":"1182.9000000954","correct":true,"confidence":-1},{"trial_n":14,"span":4,"encoder":"1022","distractor":"1082","target":"present","response":"absent","rt":"582.79999995232","correct":false,"confidence":-1},{"trial_n":15,"span":3,"encoder":"447","distractor":"441","target":"present","response":"present","rt":"1043.7000000477","correct":true,"confidence":-1},{"trial_n":16,"span":3,"encoder":"024","distractor":"074","target":"present","response":"present","rt":"873.59999990463","correct":true,"confidence":-1},{"trial_n":17,"span":4,"encoder":"5865","distractor":"5805","target":"absent","response":"absent","rt":"1675.2999999523","correct":true,"confidence":-1},{"trial_n":18,"span":4,"encoder":"5173","distractor":"5673","target":"present","response":"present","rt":"821.20000004768","correct":true,"confidence":-1},{"trial_n":19,"span":5,"encoder":"45573","distractor":"43573","target":"present","response":"present","rt":"884.60000014305","correct":true,"confidence":-1},{"trial_n":20,"span":5,"encoder":"44091","distractor":"44391","target":"absent","response":"absent","rt":"911.20000004768","correct":true,"confidence":-1},{"trial_n":21,"span":6,"encoder":"784108","distractor":"784188","target":"present","response":"present","rt":"2390.5","correct":true,"confidence":2},{"trial_n":22,"span":6,"encoder":"036302","distractor":"036502","target":"present","response":"present","rt":"2883.7000000477","correct":true,"confidence":4},{"trial_n":23,"span":7,"encoder":"6630119","distractor":"6632119","target":"present","response":"present","rt":"2739.7000000477","correct":true,"confidence":4},{"trial_n":24,"span":7,"encoder":"5568660","distractor":"5668660","target":"present","response":"present","rt":"3102.7999999523","correct":true,"confidence":5},{"trial_n":25,"span":8,"encoder":"01841114","distractor":"01861114","target":"present","response":"absent","rt":"4685.2000000477","correct":false,"confidence":3},{"trial_n":26,"span":7,"encoder":"8616930","distractor":"8676930","target":"absent","response":"absent","rt":"1965","correct":true,"confidence":4},{"trial_n":27,"span":7,"encoder":"3485594","distractor":"3485574","target":"present","response":"present","rt":"2722.4000000954","correct":true,"confidence":3},{"trial_n":28,"span":8,"encoder":"94153075","distractor":"94153005","target":"absent","response":"absent","rt":"2411.6999998093","correct":true,"confidence":4},{"trial_n":29,"span":8,"encoder":"41239410","distractor":"41239419","target":"absent","response":"absent","rt":"2888.5","correct":true,"confidence":3},{"trial_n":30,"span":9,"encoder":"618823997","distractor":"718823997","target":"present","response":"present","rt":"4759.9000000954","correct":true,"confidence":2},{"trial_n":31,"span":9,"encoder":"111182480","distractor":"111185480","target":"absent","response":"absent","rt":"3963.0999999046","correct":true,"confidence":4},{"trial_n":32,"span":10,"encoder":"5905203970","distractor":"5905209970","target":"present","response":"present","rt":"4442.2999999523","correct":true,"confidence":3},{"trial_n":33,"span":10,"encoder":"1284946160","distractor":"1284946170","target":"absent","response":"absent","rt":"3329","correct":true,"confidence":5},{"trial_n":34,"span":11,"encoder":"42385091476","distractor":"42385591476","target":"present","response":"present","rt":"3271.6000001431","correct":true,"confidence":3},{"trial_n":35,"span":11,"encoder":"63578514253","distractor":"63578544253","target":"absent","response":"present","rt":"3457.5999999046","correct":false,"confidence":2},{"trial_n":36,"span":10,"encoder":"7730233138","distractor":"7730133138","target":"present","response":"present","rt":"3104.5999999046","correct":true,"confidence":3},{"trial_n":37,"span":10,"encoder":"0682436148","distractor":"0082436148","target":"absent","response":"absent","rt":"4319.3999998569","correct":true,"confidence":2},{"trial_n":38,"span":11,"encoder":"53722652189","distractor":"53722552189","target":"absent","response":"absent","rt":"5242","correct":true,"confidence":3},{"trial_n":39,"span":11,"encoder":"77439826932","distractor":"77438826932","target":"absent","response":"absent","rt":"1201.7999999523","correct":true,"confidence":2},{"trial_n":40,"span":12,"encoder":"645771462142","distractor":"645771762142","target":"absent","response":"present","rt":"5493.8000001907","correct":false,"confidence":3},{"trial_n":41,"span":11,"encoder":"04690181992","distractor":"04390181992","target":"present","response":"present","rt":"2969","correct":true,"confidence":2},{"trial_n":42,"span":11,"encoder":"02913226996","distractor":"02913726996","target":"absent","response":"absent","rt":"5789.1000001431","correct":true,"confidence":3},{"trial_n":43,"span":12,"encoder":"096795816992","distractor":"096795816993","target":"present","response":"present","rt":"3009.2999999523","correct":true,"confidence":3},{"trial_n":44,"span":12,"encoder":"434468194159","distractor":"434468190159","target":"present","response":"absent","rt":"5917.5999999046","correct":false,"confidence":3},{"trial_n":45,"span":11,"encoder":"04027706466","distractor":"74027706466","target":"present","response":"present","rt":"2918.2999999523","correct":true,"confidence":4},{"trial_n":46,"span":11,"encoder":"30953754128","distractor":"30993754128","target":"present","response":"present","rt":"4396.6000001431","correct":true,"confidence":3},{"trial_n":47,"span":12,"encoder":"181925932665","distractor":"181935932665","target":"present","response":"absent","rt":"5167.8999998569","correct":false,"confidence":2},{"trial_n":48,"span":11,"encoder":"68877545090","distractor":"62877545090","target":"present","response":"present","rt":"3881.7999999523","correct":true,"confidence":4},{"trial_n":49,"span":11,"encoder":"03614422432","distractor":"03614422462","target":"absent","response":"absent","rt":"6015.6999998093","correct":true,"confidence":2},{"trial_n":50,"span":12,"encoder":"829634391097","distractor":"829634391067","target":"absent","response":"absent","rt":"3245.9000000954","correct":true,"confidence":3},{"trial_n":51,"span":12,"encoder":"357305702481","distractor":"357605702481","target":"present","response":"absent","rt":"2669.5","correct":false,"confidence":1},{"trial_n":52,"span":11,"encoder":"72781340069","distractor":"72781940069","target":"present","response":"present","rt":"2829.7000000477","correct":true,"confidence":3},{"trial_n":53,"span":11,"encoder":"06335177342","distractor":"06335177362","target":"present","response":"present","rt":"4139.7000000477","correct":true,"confidence":3},{"trial_n":54,"span":12,"encoder":"402521006070","distractor":"404521006070","target":"absent","response":"present","rt":"4094.2000000477","correct":false,"confidence":4},{"trial_n":55,"span":11,"encoder":"87242732917","distractor":"87244732917","target":"present","response":"absent","rt":"25285.400000095","correct":false,"confidence":2},{"trial_n":56,"span":10,"encoder":"5174338188","distractor":"5174338118","target":"present","response":"present","rt":"6803.6000001431","correct":true,"confidence":5},{"trial_n":57,"span":10,"encoder":"2301002998","distractor":"2301006998","target":"absent","response":"absent","rt":"7810.8999998569","correct":true,"confidence":4},{"trial_n":58,"span":11,"encoder":"93423431996","distractor":"95423431996","target":"present","response":"present","rt":"9183.3999998569","correct":true,"confidence":3},{"trial_n":59,"span":11,"encoder":"71676364825","distractor":"71676363825","target":"absent","response":"absent","rt":"8248","correct":true,"confidence":4},{"trial_n":60,"span":12,"encoder":"984695614037","distractor":"984695114037","target":"absent","response":"absent","rt":"3467.3000001907","correct":true,"confidence":3},{"trial_n":61,"span":12,"encoder":"868951129343","distractor":"868951129323","target":"absent","response":"present","rt":"8696","correct":false,"confidence":2},{"trial_n":62,"span":11,"encoder":"78126910226","distractor":"78126410226","target":"absent","response":"absent","rt":"7779.8000001907","correct":true,"confidence":3},{"trial_n":63,"span":11,"encoder":"63223798868","distractor":"63623798868","target":"absent","response":"absent","rt":"5742.2000000477","correct":true,"confidence":4},{"trial_n":64,"span":12,"encoder":"757487218512","distractor":"757487228512","target":"absent","response":"present","rt":"8593.9000000954","correct":false,"confidence":3},{"trial_n":65,"span":11,"encoder":"15947628734","distractor":"15948628734","target":"absent","response":"absent","rt":"4385.2999999523","correct":true,"confidence":3},{"trial_n":66,"span":11,"encoder":"38175490956","distractor":"38174490956","target":"present","response":"present","rt":"8636.5999999046","correct":true,"confidence":4},{"trial_n":67,"span":12,"encoder":"622978615105","distractor":"622975615105","target":"present","response":"present","rt":"8336.5999999046","correct":true,"confidence":4},{"trial_n":68,"span":12,"encoder":"583734229917","distractor":"583732229917","target":"absent","response":"absent","rt":"3713.6000001431","correct":true,"confidence":2},{"trial_n":69,"span":13,"encoder":"6146686680569","distractor":"6246686680569","target":"present","response":"present","rt":"4485","correct":true,"confidence":3},{"trial_n":70,"span":13,"encoder":"8756836157787","distractor":"8757836157787","target":"absent","response":"absent","rt":"3850.2000000477","correct":true,"confidence":2},{"trial_n":71,"span":8,"encoder":"75255887","distractor":"75251887","target":"present","response":"absent","rt":"8983.0999999046","correct":false,"confidence":-1},{"trial_n":72,"span":7,"encoder":"9512142","distractor":"9512140","target":"present","response":"present","rt":"9535.6000001431","correct":true,"confidence":-1},{"trial_n":73,"span":7,"encoder":"2283155","distractor":"2283157","target":"absent","response":"absent","rt":"4144.8999998569","correct":true,"confidence":-1},{"trial_n":74,"span":8,"encoder":"33458997","distractor":"23458997","target":"absent","response":"present","rt":"5471.9000000954","correct":false,"confidence":-1},{"trial_n":75,"span":7,"encoder":"3134657","distractor":"3734657","target":"present","response":"present","rt":"2516.5999999046","correct":true,"confidence":-1},{"trial_n":76,"span":7,"encoder":"7968874","distractor":"7968894","target":"present","response":"absent","rt":"3575.2000000477","correct":false,"confidence":-1},{"trial_n":77,"span":6,"encoder":"641834","distractor":"641874","target":"absent","response":"absent","rt":"3205.7000000477","correct":true,"confidence":-1},{"trial_n":78,"span":6,"encoder":"223051","distractor":"223551","target":"present","response":"present","rt":"2167.2999999523","correct":true,"confidence":-1},{"trial_n":79,"span":7,"encoder":"3597595","distractor":"3597598","target":"present","response":"present","rt":"2716.2000000477","correct":true,"confidence":-1},{"trial_n":80,"span":7,"encoder":"6909523","distractor":"6109523","target":"present","response":"present","rt":"3624.4000000954","correct":true,"confidence":-1},{"trial_n":81,"span":8,"encoder":"73346829","distractor":"73746829","target":"present","response":"present","rt":"1922.5999999046","correct":true,"confidence":-1},{"trial_n":82,"span":8,"encoder":"51124833","distractor":"51824833","target":"absent","response":"absent","rt":"2670.3000001907","correct":true,"confidence":-1},{"trial_n":83,"span":9,"encoder":"258576246","distractor":"258576241","target":"absent","response":"absent","rt":"3661.2000000477","correct":true,"confidence":-1},{"trial_n":84,"span":9,"encoder":"098957036","distractor":"094957036","target":"absent","response":"absent","rt":"5802.4000000954","correct":true,"confidence":-1},{"trial_n":85,"span":10,"encoder":"7381318595","distractor":"7381318545","target":"present","response":"present","rt":"2319.2000000477","correct":true,"confidence":-1},{"trial_n":86,"span":10,"encoder":"0042747717","distractor":"0042747787","target":"present","response":"present","rt":"1886.4000000954","correct":true,"confidence":-1},{"trial_n":87,"span":11,"encoder":"10447023329","distractor":"10547023329","target":"present","response":"present","rt":"5084.7000000477","correct":true,"confidence":-1},{"trial_n":88,"span":11,"encoder":"15669027563","distractor":"15669027568","target":"absent","response":"absent","rt":"2586.9000000954","correct":true,"confidence":-1},{"trial_n":89,"span":12,"encoder":"408806813923","distractor":"408801813923","target":"present","response":"absent","rt":"6340.7000000477","correct":false,"confidence":-1},{"trial_n":90,"span":11,"encoder":"00980390984","distractor":"00780390984","target":"absent","response":"present","rt":"2254.2000000477","correct":false,"confidence":-1},{"trial_n":91,"span":10,"encoder":"8567059234","distractor":"8567069234","target":"present","response":"present","rt":"4814.3999998569","correct":true,"confidence":2},{"trial_n":92,"span":10,"encoder":"2592960203","distractor":"2592860203","target":"absent","response":"absent","rt":"11161.799999952","correct":true,"confidence":3},{"trial_n":93,"span":11,"encoder":"76313291548","distractor":"76313891548","target":"present","response":"absent","rt":"1769.2000000477","correct":false,"confidence":1},{"trial_n":94,"span":10,"encoder":"2909313022","distractor":"2905313022","target":"present","response":"present","rt":"5688.4000000954","correct":true,"confidence":4},{"trial_n":95,"span":10,"encoder":"7704962981","distractor":"7714962981","target":"present","response":"present","rt":"9096.7000000477","correct":true,"confidence":3},{"trial_n":96,"span":11,"encoder":"59920668210","distractor":"59920688210","target":"absent","response":"absent","rt":"9918.0999999046","correct":true,"confidence":4},{"trial_n":97,"span":11,"encoder":"52572020860","distractor":"52572020867","target":"absent","response":"absent","rt":"2653.2999999523","correct":true,"confidence":5},{"trial_n":98,"span":12,"encoder":"734891306190","distractor":"734891406190","target":"absent","response":"absent","rt":"24593.599999905","correct":true,"confidence":2},{"trial_n":99,"span":12,"encoder":"089442492442","distractor":"089442492452","target":"present","response":"present","rt":"2658.0999999046","correct":true,"confidence":3},{"trial_n":100,"span":13,"encoder":"1870678600912","distractor":"1870678600914","target":"present","response":"present","rt":"2134","correct":true,"confidence":4},{"trial_n":101,"span":13,"encoder":"3205084244983","distractor":"3295084244983","target":"absent","response":"present","rt":"937.90000009537","correct":false,"confidence":3},{"trial_n":102,"span":12,"encoder":"608275317928","distractor":"608275317128","target":"absent","response":"present","rt":"4951.7999999523","correct":false,"confidence":3},{"trial_n":103,"span":11,"encoder":"76834999688","distractor":"76834999388","target":"present","response":"absent","rt":"4963","correct":false,"confidence":2},{"trial_n":104,"span":10,"encoder":"6445806859","distractor":"6445006859","target":"absent","response":"absent","rt":"4523.7000000477","correct":true,"confidence":4},{"trial_n":105,"span":10,"encoder":"4931038855","distractor":"4961038855","target":"present","response":"present","rt":"5927.2999999523","correct":true,"confidence":3},{"trial_n":106,"span":11,"encoder":"85761057633","distractor":"55761057633","target":"absent","response":"absent","rt":"8461.5","correct":true,"confidence":4},{"trial_n":107,"span":11,"encoder":"84714731132","distractor":"84714731332","target":"absent","response":"absent","rt":"10674.199999809","correct":true,"confidence":4},{"trial_n":108,"span":12,"encoder":"263935706386","distractor":"263935706382","target":"present","response":"present","rt":"5105.0999999046","correct":true,"confidence":4},{"trial_n":109,"span":12,"encoder":"550021259655","distractor":"551021259655","target":"absent","response":"present","rt":"4216.6000001431","correct":false,"confidence":3},{"trial_n":110,"span":11,"encoder":"26214814301","distractor":"26214814201","target":"present","response":"absent","rt":"7121.0999999046","correct":false,"confidence":2},{"trial_n":111,"span":10,"encoder":"7989746959","distractor":"1989746959","target":"absent","response":"absent","rt":"17439.799999952","correct":true,"confidence":4},{"trial_n":112,"span":10,"encoder":"1443304288","distractor":"1643304288","target":"absent","response":"absent","rt":"2392.2000000477","correct":true,"confidence":4},{"trial_n":113,"span":11,"encoder":"61499332981","distractor":"61499332581","target":"absent","response":"present","rt":"8387.4000000954","correct":false,"confidence":2},{"trial_n":114,"span":10,"encoder":"2245167769","distractor":"2245567769","target":"absent","response":"present","rt":"3692.6000001431","correct":false,"confidence":3},{"trial_n":115,"span":9,"encoder":"849070743","distractor":"849000743","target":"absent","response":"present","rt":"5906.7000000477","correct":false,"confidence":2},{"trial_n":116,"span":8,"encoder":"47438701","distractor":"37438701","target":"present","response":"present","rt":"2776.7999999523","correct":true,"confidence":3},{"trial_n":117,"span":8,"encoder":"66143142","distractor":"62143142","target":"absent","response":"absent","rt":"1767.1999998093","correct":true,"confidence":4},{"trial_n":118,"span":9,"encoder":"255851286","distractor":"225851286","target":"absent","response":"absent","rt":"3322.5","correct":true,"confidence":5},{"trial_n":119,"span":9,"encoder":"284597943","distractor":"224597943","target":"present","response":"present","rt":"4255.3999998569","correct":true,"confidence":3},{"trial_n":120,"span":10,"encoder":"5023245927","distractor":"5023245937","target":"present","response":"present","rt":"4170.2000000477","correct":true,"confidence":3},{"trial_n":121,"span":10,"encoder":"1145538440","distractor":"1145538443","target":"present","response":"present","rt":"5519.3000001907","correct":true,"confidence":4},{"trial_n":122,"span":11,"encoder":"31537404153","distractor":"31537404953","target":"present","response":"absent","rt":"7658.0999999046","correct":false,"confidence":2},{"trial_n":123,"span":10,"encoder":"1147490458","distractor":"1147490758","target":"absent","response":"absent","rt":"2939.0999999046","correct":true,"confidence":3},{"trial_n":124,"span":10,"encoder":"3526036058","distractor":"3529036058","target":"absent","response":"absent","rt":"5784.7000000477","correct":true,"confidence":4},{"trial_n":125,"span":11,"encoder":"93038849523","distractor":"93038149523","target":"present","response":"absent","rt":"3036.2000000477","correct":false,"confidence":3},{"trial_n":126,"span":10,"encoder":"4614145701","distractor":"4614145301","target":"present","response":"present","rt":"4361.6999998093","correct":true,"confidence":2},{"trial_n":127,"span":10,"encoder":"9332032559","distractor":"9332032529","target":"absent","response":"present","rt":"4338.9000000954","correct":false,"confidence":2},{"trial_n":128,"span":9,"encoder":"004741639","distractor":"004741629","target":"absent","response":"absent","rt":"9394.8000001907","correct":true,"confidence":2},{"trial_n":129,"span":9,"encoder":"086407836","distractor":"086707836","target":"absent","response":"present","rt":"8548.7000000477","correct":false,"confidence":3},{"trial_n":130,"span":8,"encoder":"16426608","distractor":"36426608","target":"present","response":"present","rt":"17682.700000048","correct":true,"confidence":1},{"trial_n":131,"span":8,"encoder":"16236290","distractor":"66236290","target":"present","response":"absent","rt":"3679.7000000477","correct":false,"confidence":1},{"trial_n":132,"span":7,"encoder":"3069633","distractor":"3009633","target":"present","response":"present","rt":"4943.1000001431","correct":true,"confidence":3},{"trial_n":133,"span":7,"encoder":"2856353","distractor":"2856356","target":"absent","response":"absent","rt":"5341.4000000954","correct":true,"confidence":4},{"trial_n":134,"span":8,"encoder":"16125009","distractor":"16195009","target":"absent","response":"present","rt":"16189.299999952","correct":false,"confidence":3},{"trial_n":135,"span":7,"encoder":"8885166","distractor":"8887166","target":"present","response":"absent","rt":"10306.700000048","correct":false,"confidence":1},{"trial_n":136,"span":6,"encoder":"082364","distractor":"092364","target":"present","response":"present","rt":"6000.7000000477","correct":true,"confidence":3},{"trial_n":137,"span":6,"encoder":"588306","distractor":"588006","target":"present","response":"present","rt":"2294.2000000477","correct":true,"confidence":5},{"trial_n":138,"span":7,"encoder":"1461917","distractor":"8461917","target":"present","response":"present","rt":"3424.6000001431","correct":true,"confidence":4},{"trial_n":139,"span":7,"encoder":"6551897","distractor":"6521897","target":"absent","response":"absent","rt":"13324.5","correct":true,"confidence":1},{"trial_n":140,"span":8,"encoder":"67654523","distractor":"67654524","target":"absent","response":"present","rt":"11013.799999952","correct":false,"confidence":1}]