[{"trial_n":1,"min":25,"max":230,"target":"present","response":"present","rt":5418,"correct":true,"confidence":-1},{"trial_n":2,"min":25,"max":230,"target":"present","response":"present","rt":1709,"correct":true,"confidence":-1},{"trial_n":3,"min":41,"max":214,"target":"absent","response":"absent","rt":1115,"correct":true,"confidence":-1},{"trial_n":4,"min":41,"max":214,"target":"absent","response":"absent","rt":1283,"correct":true,"confidence":-1},{"trial_n":5,"min":57,"max":198,"target":"present","response":"present","rt":1127,"correct":true,"confidence":-1},{"trial_n":6,"min":57,"max":198,"target":"absent","response":"absent","rt":799,"correct":true,"confidence":-1},{"trial_n":7,"min":73,"max":182,"target":"absent","response":"present","rt":783,"correct":false,"confidence":-1},{"trial_n":8,"min":57,"max":198,"target":"absent","response":"absent","rt":949,"correct":true,"confidence":-1},{"trial_n":9,"min":57,"max":198,"target":"present","response":"absent","rt":610,"correct":false,"confidence":-1},{"trial_n":10,"min":41,"max":214,"target":"present","response":"present","rt":827,"correct":true,"confidence":-1},{"trial_n":11,"min":41,"max":214,"target":"present","response":"absent","rt":677,"correct":false,"confidence":-1},{"trial_n":12,"min":33,"max":222,"target":"absent","response":"present","rt":816,"correct":false,"confidence":-1},{"trial_n":13,"min":25,"max":230,"target":"absent","response":"present","rt":349,"correct":false,"confidence":-1},{"trial_n":14,"min":17,"max":238,"target":"present","response":"absent","rt":760,"correct":false,"confidence":-1},{"trial_n":15,"min":9,"max":246,"target":"present","response":"present","rt":594,"correct":true,"confidence":-1},{"trial_n":16,"min":9,"max":246,"target":"present","response":"absent","rt":263,"correct":false,"confidence":-1},{"trial_n":17,"min":1,"max":254,"target":"absent","response":"present","rt":450,"correct":false,"confidence":-1},{"trial_n":18,"min":0,"max":255,"target":"present","response":"absent","rt":562,"correct":false,"confidence":-1},{"trial_n":19,"min":0,"max":255,"target":"present","response":"present","rt":593.99999999999,"correct":true,"confidence":-1},{"trial_n":20,"min":0,"max":255,"target":"absent","response":"present","rt":566,"correct":false,"confidence":-1},{"trial_n":21,"min":0,"max":255,"target":"absent","response":"absent","rt":750,"correct":true,"confidence":3},{"trial_n":22,"min":0,"max":255,"target":"present","response":"present","rt":796,"correct":true,"confidence":3},{"trial_n":23,"min":4,"max":251,"target":"present","response":"present","rt":430,"correct":true,"confidence":3},{"trial_n":24,"min":4,"max":251,"target":"absent","response":"absent","rt":335.00000000001,"correct":true,"confidence":3},{"trial_n":25,"min":8,"max":247,"target":"absent","response":"present","rt":733.99999999999,"correct":false,"confidence":3},{"trial_n":26,"min":4,"max":251,"target":"present","response":"absent","rt":894,"correct":false,"confidence":3},{"trial_n":27,"min":0,"max":255,"target":"absent","response":"present","rt":569,"correct":false,"confidence":3},{"trial_n":28,"min":0,"max":255,"target":"present","response":"absent","rt":828.00000000001,"correct":false,"confidence":4},{"trial_n":29,"min":0,"max":255,"target":"absent","response":"present","rt":902,"correct":false,"confidence":2},{"trial_n":30,"min":0,"max":255,"target":"absent","response":"absent","rt":1369,"correct":true,"confidence":5},{"trial_n":31,"min":0,"max":255,"target":"present","response":"absent","rt":674,"correct":false,"confidence":2},{"trial_n":32,"min":0,"max":255,"target":"absent","response":"present","rt":801.99999999999,"correct":false,"confidence":4},{"trial_n":33,"min":0,"max":255,"target":"present","response":"present","rt":581,"correct":true,"confidence":2},{"trial_n":34,"min":0,"max":255,"target":"absent","response":"absent","rt":853,"correct":true,"confidence":3},{"trial_n":35,"min":2,"max":253,"target":"present","response":"absent","rt":278.99999999999,"correct":false,"confidence":3},{"trial_n":36,"min":0,"max":255,"target":"absent","response":"present","rt":986,"correct":false,"confidence":1},{"trial_n":37,"min":0,"max":255,"target":"absent","response":"absent","rt":1369,"correct":true,"confidence":5},{"trial_n":38,"min":0,"max":255,"target":"present","response":"absent","rt":914.00000000001,"correct":false,"confidence":1},{"trial_n":39,"min":0,"max":255,"target":"present","response":"present","rt":1980,"correct":true,"confidence":1},{"trial_n":40,"min":0,"max":255,"target":"present","response":"absent","rt":681,"correct":false,"confidence":4},{"trial_n":41,"min":0,"max":255,"target":"absent","response":"present","rt":786,"correct":false,"confidence":3},{"trial_n":42,"min":0,"max":255,"target":"absent","response":"absent","rt":887,"correct":true,"confidence":4},{"trial_n":43,"min":0,"max":255,"target":"present","response":"absent","rt":1980,"correct":false,"confidence":2},{"trial_n":44,"min":0,"max":255,"target":"absent","response":"absent","rt":836.99999999997,"correct":true,"confidence":5},{"trial_n":45,"min":0,"max":255,"target":"absent","response":"present","rt":770,"correct":false,"confidence":2},{"trial_n":46,"min":0,"max":255,"target":"present","response":"present","rt":899,"correct":true,"confidence":4},{"trial_n":47,"min":0,"max":255,"target":"absent","response":"absent","rt":470,"correct":true,"confidence":2},{"trial_n":48,"min":1,"max":254,"target":"absent","response":"present","rt":871,"correct":false,"confidence":2},{"trial_n":49,"min":0,"max":255,"target":"present","response":"absent","rt":897,"correct":false,"confidence":2},{"trial_n":50,"min":0,"max":255,"target":"absent","response":"present","rt":919,"correct":false,"confidence":4},{"trial_n":51,"min":0,"max":255,"target":"absent","response":"present","rt":1168,"correct":false,"confidence":2},{"trial_n":52,"min":0,"max":255,"target":"present","response":"absent","rt":796,"correct":false,"confidence":4},{"trial_n":53,"min":0,"max":255,"target":"absent","response":"absent","rt":899,"correct":true,"confidence":3},{"trial_n":54,"min":0,"max":255,"target":"present","response":"absent","rt":895,"correct":false,"confidence":5},{"trial_n":55,"min":0,"max":255,"target":"present","response":"present","rt":1362,"correct":true,"confidence":2},{"trial_n":56,"min":0,"max":255,"target":"present","response":"absent","rt":443,"correct":false,"confidence":4},{"trial_n":57,"min":0,"max":255,"target":"present","response":"absent","rt":644,"correct":false,"confidence":2},{"trial_n":58,"min":0,"max":255,"target":"present","response":"absent","rt":642,"correct":false,"confidence":4},{"trial_n":59,"min":0,"max":255,"target":"absent","response":"absent","rt":1532,"correct":true,"confidence":2},{"trial_n":60,"min":0,"max":255,"target":"present","response":"absent","rt":775,"correct":false,"confidence":4},{"trial_n":61,"min":0,"max":255,"target":"present","response":"present","rt":775,"correct":true,"confidence":2},{"trial_n":62,"min":0,"max":255,"target":"absent","response":"absent","rt":2131,"correct":true,"confidence":4},{"trial_n":63,"min":1,"max":254,"target":"present","response":"present","rt":843.99999999997,"correct":true,"confidence":3},{"trial_n":64,"min":1,"max":254,"target":"absent","response":"absent","rt":1365,"correct":true,"confidence":5},{"trial_n":65,"min":2,"max":253,"target":"present","response":"present","rt":875,"correct":true,"confidence":2},{"trial_n":66,"min":2,"max":253,"target":"absent","response":"present","rt":848,"correct":false,"confidence":3},{"trial_n":67,"min":1,"max":254,"target":"absent","response":"present","rt":998,"correct":false,"confidence":1},{"trial_n":68,"min":0,"max":255,"target":"present","response":"absent","rt":927,"correct":false,"confidence":4},{"trial_n":69,"min":0,"max":255,"target":"present","response":"present","rt":1343,"correct":true,"confidence":2},{"trial_n":70,"min":0,"max":255,"target":"absent","response":"absent","rt":931,"correct":true,"confidence":3},{"trial_n":71,"min":41,"max":214,"target":"present","response":"absent","rt":850,"correct":false,"confidence":-1},{"trial_n":72,"min":41,"max":214,"target":"present","response":"present","rt":739.99999999997,"correct":true,"confidence":-1},{"trial_n":73,"min":41,"max":214,"target":"absent","response":"absent","rt":722,"correct":true,"confidence":-1},{"trial_n":74,"min":57,"max":198,"target":"absent","response":"present","rt":625,"correct":false,"confidence":-1},{"trial_n":75,"min":41,"max":214,"target":"present","response":"absent","rt":641,"correct":false,"confidence":-1},{"trial_n":76,"min":25,"max":230,"target":"present","response":"present","rt":691,"correct":true,"confidence":-1},{"trial_n":77,"min":25,"max":230,"target":"absent","response":"absent","rt":690,"correct":true,"confidence":-1},{"trial_n":78,"min":41,"max":214,"target":"absent","response":"present","rt":639.99999999997,"correct":false,"confidence":-1},{"trial_n":79,"min":25,"max":230,"target":"present","response":"absent","rt":1275,"correct":false,"confidence":-1},{"trial_n":80,"min":9,"max":246,"target":"absent","response":"present","rt":690,"correct":false,"confidence":-1},{"trial_n":81,"min":1,"max":254,"target":"present","response":"absent","rt":723.00000000003,"correct":false,"confidence":-1},{"trial_n":82,"min":0,"max":255,"target":"present","response":"absent","rt":756.00000000003,"correct":false,"confidence":-1},{"trial_n":83,"min":0,"max":255,"target":"present","response":"absent","rt":1239.9999999999,"correct":false,"confidence":-1},{"trial_n":84,"min":0,"max":255,"target":"present","response":"absent","rt":790,"correct":false,"confidence":-1},{"trial_n":85,"min":0,"max":255,"target":"present","response":"absent","rt":756,"correct":false,"confidence":-1},{"trial_n":86,"min":0,"max":255,"target":"absent","response":"present","rt":1072,"correct":false,"confidence":-1},{"trial_n":87,"min":0,"max":255,"target":"absent","response":"present","rt":824,"correct":false,"confidence":-1},{"trial_n":88,"min":0,"max":255,"target":"absent","response":"present","rt":790,"correct":false,"confidence":-1},{"trial_n":89,"min":0,"max":255,"target":"present","response":"absent","rt":1422,"correct":false,"confidence":-1},{"trial_n":90,"min":0,"max":255,"target":"present","response":"absent","rt":739,"correct":false,"confidence":-1},{"trial_n":91,"min":0,"max":255,"target":"absent","response":"absent","rt":789,"correct":true,"confidence":1},{"trial_n":92,"min":0,"max":255,"target":"present","response":"present","rt":625,"correct":true,"confidence":1},{"trial_n":93,"min":4,"max":251,"target":"absent","response":"absent","rt":477,"correct":true,"confidence":1},{"trial_n":94,"min":4,"max":251,"target":"present","response":"present","rt":777,"correct":true,"confidence":1},{"trial_n":95,"min":8,"max":247,"target":"absent","response":"present","rt":826,"correct":false,"confidence":1},{"trial_n":96,"min":4,"max":251,"target":"present","response":"absent","rt":679,"correct":false,"confidence":1},{"trial_n":97,"min":0,"max":255,"target":"absent","response":"absent","rt":863,"correct":true,"confidence":1},{"trial_n":98,"min":0,"max":255,"target":"present","response":"absent","rt":624,"correct":false,"confidence":1},{"trial_n":99,"min":0,"max":255,"target":"present","response":"absent","rt":676,"correct":false,"confidence":1},{"trial_n":100,"min":0,"max":255,"target":"absent","response":"present","rt":1292,"correct":false,"confidence":1},{"trial_n":101,"min":0,"max":255,"target":"present","response":"present","rt":841,"correct":true,"confidence":1},{"trial_n":102,"min":0,"max":255,"target":"absent","response":"present","rt":624.00000000006,"correct":false,"confidence":1},{"trial_n":103,"min":0,"max":255,"target":"present","response":"absent","rt":708,"correct":false,"confidence":1},{"trial_n":104,"min":0,"max":255,"target":"absent","response":"absent","rt":1274,"correct":true,"confidence":1},{"trial_n":105,"min":0,"max":255,"target":"present","response":"present","rt":726,"correct":true,"confidence":1},{"trial_n":106,"min":2,"max":253,"target":"absent","response":"absent","rt":958,"correct":true,"confidence":1},{"trial_n":107,"min":2,"max":253,"target":"absent","response":"absent","rt":809,"correct":true,"confidence":1},{"trial_n":108,"min":4,"max":251,"target":"present","response":"absent","rt":1293,"correct":false,"confidence":1},{"trial_n":109,"min":2,"max":253,"target":"absent","response":"present","rt":609,"correct":false,"confidence":1},{"trial_n":110,"min":0,"max":255,"target":"absent","response":"absent","rt":758,"correct":true,"confidence":1},{"trial_n":111,"min":0,"max":255,"target":"absent","response":"present","rt":609,"correct":false,"confidence":1},{"trial_n":112,"min":0,"max":255,"target":"absent","response":"absent","rt":676,"correct":true,"confidence":1},{"trial_n":113,"min":0,"max":255,"target":"absent","response":"present","rt":594,"correct":false,"confidence":1},{"trial_n":114,"min":0,"max":255,"target":"absent","response":"absent","rt":575,"correct":true,"confidence":1},{"trial_n":115,"min":0,"max":255,"target":"present","response":"present","rt":693,"correct":true,"confidence":1},{"trial_n":116,"min":1,"max":254,"target":"present","response":"present","rt":825,"correct":true,"confidence":1},{"trial_n":117,"min":1,"max":254,"target":"present","response":"absent","rt":841,"correct":false,"confidence":1},{"trial_n":118,"min":0,"max":255,"target":"present","response":"absent","rt":710,"correct":false,"confidence":1},{"trial_n":119,"min":0,"max":255,"target":"present","response":"absent","rt":644.00000000006,"correct":false,"confidence":1},{"trial_n":120,"min":0,"max":255,"target":"absent","response":"present","rt":509,"correct":false,"confidence":1},{"trial_n":121,"min":0,"max":255,"target":"present","response":"absent","rt":734.99999999994,"correct":false,"confidence":1},{"trial_n":122,"min":0,"max":255,"target":"absent","response":"absent","rt":1043,"correct":true,"confidence":1},{"trial_n":123,"min":0,"max":255,"target":"absent","response":"absent","rt":1161,"correct":true,"confidence":1},{"trial_n":124,"min":1,"max":254,"target":"absent","response":"absent","rt":878,"correct":true,"confidence":1},{"trial_n":125,"min":1,"max":254,"target":"absent","response":"present","rt":1392.0000000001,"correct":false,"confidence":1},{"trial_n":126,"min":0,"max":255,"target":"present","response":"absent","rt":727.00000000006,"correct":false,"confidence":1},{"trial_n":127,"min":0,"max":255,"target":"absent","response":"absent","rt":793.00000000006,"correct":true,"confidence":1},{"trial_n":128,"min":0,"max":255,"target":"absent","response":"absent","rt":776,"correct":true,"confidence":1},{"trial_n":129,"min":1,"max":254,"target":"present","response":"absent","rt":859,"correct":false,"confidence":1},{"trial_n":130,"min":0,"max":255,"target":"present","response":"present","rt":1026,"correct":true,"confidence":1},{"trial_n":131,"min":0,"max":255,"target":"absent","response":"present","rt":1049,"correct":false,"confidence":1},{"trial_n":132,"min":0,"max":255,"target":"absent","response":"present","rt":762,"correct":false,"confidence":1},{"trial_n":133,"min":0,"max":255,"target":"present","response":"absent","rt":627,"correct":false,"confidence":1},{"trial_n":134,"min":0,"max":255,"target":"present","response":"absent","rt":776.99999999994,"correct":false,"confidence":1},{"trial_n":135,"min":0,"max":255,"target":"present","response":"present","rt":893,"correct":true,"confidence":1},{"trial_n":136,"min":0,"max":255,"target":"absent","response":"present","rt":977.00000000006,"correct":false,"confidence":1},{"trial_n":137,"min":0,"max":255,"target":"present","response":"absent","rt":661,"correct":false,"confidence":1},{"trial_n":138,"min":0,"max":255,"target":"absent","response":"present","rt":675.99999999994,"correct":false,"confidence":1},{"trial_n":139,"min":0,"max":255,"target":"present","response":"present","rt":710,"correct":true,"confidence":1},{"trial_n":140,"min":0,"max":255,"target":"present","response":"present","rt":527,"correct":true,"confidence":1}]