[{"trial_n":1,"span":8,"encoder":"32007192","distractor":"32003192","target":"present","response":"present","rt":"4031","correct":true,"confidence":-1},{"trial_n":2,"span":8,"encoder":"97525303","distractor":"97525383","target":"present","response":"present","rt":"1509","correct":true,"confidence":-1},{"trial_n":3,"span":10,"encoder":"1965090494","distractor":"1965090464","target":"absent","response":"absent","rt":"3015","correct":true,"confidence":-1},{"trial_n":4,"span":10,"encoder":"8077201594","distractor":"8071201594","target":"absent","response":"present","rt":"4716","correct":false,"confidence":-1},{"trial_n":5,"span":8,"encoder":"38294208","distractor":"38294708","target":"present","response":"present","rt":"1339","correct":true,"confidence":-1},{"trial_n":6,"span":8,"encoder":"27203396","distractor":"27203398","target":"absent","response":"absent","rt":"1037","correct":true,"confidence":-1},{"trial_n":7,"span":10,"encoder":"4434999508","distractor":"4438999508","target":"absent","response":"present","rt":"1231","correct":false,"confidence":-1},{"trial_n":8,"span":8,"encoder":"25221545","distractor":"25521545","target":"absent","response":"absent","rt":"1508","correct":true,"confidence":-1},{"trial_n":9,"span":8,"encoder":"50825936","distractor":"50825933","target":"absent","response":"present","rt":"1456","correct":false,"confidence":-1},{"trial_n":10,"span":6,"encoder":"724687","distractor":"784687","target":"present","response":"absent","rt":"2315","correct":false,"confidence":-1},{"trial_n":11,"span":4,"encoder":"2037","distractor":"2097","target":"absent","response":"present","rt":"3473","correct":false,"confidence":-1},{"trial_n":12,"span":3,"encoder":"492","distractor":"392","target":"present","response":"absent","rt":"2469","correct":false,"confidence":-1},{"trial_n":13,"span":2,"encoder":"14","distractor":"84","target":"present","response":"present","rt":"1379","correct":true,"confidence":-1},{"trial_n":14,"span":2,"encoder":"37","distractor":"35","target":"absent","response":"absent","rt":"1381","correct":true,"confidence":-1},{"trial_n":15,"span":3,"encoder":"746","distractor":"946","target":"absent","response":"absent","rt":"1400","correct":true,"confidence":-1},{"trial_n":16,"span":3,"encoder":"813","distractor":"213","target":"absent","response":"absent","rt":"1019","correct":true,"confidence":-1},{"trial_n":17,"span":4,"encoder":"9956","distractor":"0956","target":"absent","response":"present","rt":"2824","correct":false,"confidence":-1},{"trial_n":18,"span":3,"encoder":"306","distractor":"006","target":"present","response":"present","rt":"13167","correct":true,"confidence":-1},{"trial_n":19,"span":3,"encoder":"649","distractor":"609","target":"present","response":"present","rt":"902","correct":true,"confidence":-1},{"trial_n":20,"span":4,"encoder":"3300","distractor":"0300","target":"absent","response":"present","rt":"1307","correct":false,"confidence":-1},{"trial_n":21,"span":3,"encoder":"938","distractor":"238","target":"absent","response":"present","rt":"1722","correct":false,"confidence":1},{"trial_n":22,"span":2,"encoder":"46","distractor":"26","target":"present","response":"absent","rt":"947.99999999999","correct":false,"confidence":1},{"trial_n":23,"span":2,"encoder":"13","distractor":"93","target":"present","response":"present","rt":"1232","correct":true,"confidence":1},{"trial_n":24,"span":2,"encoder":"81","distractor":"31","target":"absent","response":"present","rt":"1366","correct":false,"confidence":1},{"trial_n":25,"span":2,"encoder":"96","distractor":"90","target":"present","response":"present","rt":"2099","correct":true,"confidence":1},{"trial_n":26,"span":2,"encoder":"98","distractor":"96","target":"present","response":"present","rt":"1134","correct":true,"confidence":1},{"trial_n":27,"span":3,"encoder":"110","distractor":"510","target":"present","response":"present","rt":"1171","correct":true,"confidence":1},{"trial_n":28,"span":3,"encoder":"668","distractor":"678","target":"absent","response":"absent","rt":"1754","correct":true,"confidence":1},{"trial_n":29,"span":4,"encoder":"5032","distractor":"5082","target":"present","response":"present","rt":"1092","correct":true,"confidence":1},{"trial_n":30,"span":4,"encoder":"2478","distractor":"2438","target":"absent","response":"absent","rt":"1393","correct":true,"confidence":1},{"trial_n":31,"span":5,"encoder":"70755","distractor":"70756","target":"absent","response":"absent","rt":"2136","correct":true,"confidence":1},{"trial_n":32,"span":5,"encoder":"61894","distractor":"61854","target":"absent","response":"absent","rt":"1547","correct":true,"confidence":1},{"trial_n":33,"span":6,"encoder":"998062","distractor":"998462","target":"absent","response":"present","rt":"1301","correct":false,"confidence":1},{"trial_n":34,"span":5,"encoder":"02338","distractor":"02333","target":"present","response":"absent","rt":"1263","correct":false,"confidence":1},{"trial_n":35,"span":4,"encoder":"2236","distractor":"2237","target":"present","response":"present","rt":"1125","correct":true,"confidence":1},{"trial_n":36,"span":4,"encoder":"6765","distractor":"0765","target":"absent","response":"absent","rt":"1076","correct":true,"confidence":1},{"trial_n":37,"span":5,"encoder":"14068","distractor":"14063","target":"present","response":"present","rt":"1015","correct":true,"confidence":1},{"trial_n":38,"span":5,"encoder":"76518","distractor":"76618","target":"absent","response":"present","rt":"13831","correct":false,"confidence":1},{"trial_n":39,"span":4,"encoder":"0831","distractor":"0631","target":"present","response":"absent","rt":"1209","correct":false,"confidence":1},{"trial_n":40,"span":3,"encoder":"932","distractor":"952","target":"absent","response":"present","rt":"1072","correct":false,"confidence":1},{"trial_n":41,"span":2,"encoder":"45","distractor":"49","target":"absent","response":"absent","rt":"1418","correct":true,"confidence":1},{"trial_n":42,"span":2,"encoder":"44","distractor":"94","target":"absent","response":"absent","rt":"17452","correct":true,"confidence":1},{"trial_n":43,"span":3,"encoder":"353","distractor":"356","target":"present","response":"present","rt":"1573","correct":true,"confidence":1},{"trial_n":44,"span":3,"encoder":"198","distractor":"398","target":"present","response":"present","rt":"1289","correct":true,"confidence":1},{"trial_n":45,"span":4,"encoder":"8170","distractor":"8770","target":"present","response":"present","rt":"1510","correct":true,"confidence":1},{"trial_n":46,"span":4,"encoder":"5421","distractor":"5921","target":"absent","response":"present","rt":"1744","correct":false,"confidence":1},{"trial_n":47,"span":3,"encoder":"880","distractor":"280","target":"present","response":"present","rt":"1457.9999999999","correct":true,"confidence":1},{"trial_n":48,"span":3,"encoder":"176","distractor":"106","target":"absent","response":"present","rt":"3355.0000000001","correct":false,"confidence":1},{"trial_n":49,"span":2,"encoder":"13","distractor":"33","target":"absent","response":"present","rt":"1751","correct":false,"confidence":1},{"trial_n":50,"span":2,"encoder":"69","distractor":"29","target":"absent","response":"absent","rt":"1219","correct":true,"confidence":1},{"trial_n":51,"span":2,"encoder":"09","distractor":"04","target":"absent","response":"present","rt":"1152","correct":false,"confidence":1},{"trial_n":52,"span":2,"encoder":"22","distractor":"62","target":"present","response":"absent","rt":"1120","correct":false,"confidence":1},{"trial_n":53,"span":2,"encoder":"24","distractor":"21","target":"present","response":"present","rt":"1152","correct":true,"confidence":1},{"trial_n":54,"span":2,"encoder":"44","distractor":"49","target":"present","response":"present","rt":"1170","correct":true,"confidence":1},{"trial_n":55,"span":3,"encoder":"358","distractor":"368","target":"absent","response":"absent","rt":"1558","correct":true,"confidence":1},{"trial_n":56,"span":3,"encoder":"860","distractor":"864","target":"absent","response":"absent","rt":"1458","correct":true,"confidence":1},{"trial_n":57,"span":4,"encoder":"4749","distractor":"4746","target":"absent","response":"absent","rt":"1644","correct":true,"confidence":1},{"trial_n":58,"span":4,"encoder":"9741","distractor":"9141","target":"absent","response":"present","rt":"1293","correct":false,"confidence":1},{"trial_n":59,"span":3,"encoder":"788","distractor":"188","target":"present","response":"present","rt":"1758.0000000001","correct":true,"confidence":1},{"trial_n":60,"span":3,"encoder":"540","distractor":"541","target":"present","response":"present","rt":"1473.9999999999","correct":true,"confidence":1},{"trial_n":61,"span":4,"encoder":"3860","distractor":"3866","target":"present","response":"present","rt":"1329.9999999999","correct":true,"confidence":1},{"trial_n":62,"span":4,"encoder":"6327","distractor":"7327","target":"present","response":"absent","rt":"1112","correct":false,"confidence":1},{"trial_n":63,"span":3,"encoder":"610","distractor":"616","target":"present","response":"present","rt":"1074","correct":true,"confidence":1},{"trial_n":64,"span":3,"encoder":"832","distractor":"812","target":"present","response":"present","rt":"1258","correct":true,"confidence":1},{"trial_n":65,"span":4,"encoder":"4438","distractor":"4431","target":"present","response":"absent","rt":"1312","correct":false,"confidence":1},{"trial_n":66,"span":3,"encoder":"892","distractor":"897","target":"present","response":"present","rt":"1390","correct":true,"confidence":1},{"trial_n":67,"span":3,"encoder":"557","distractor":"257","target":"present","response":"absent","rt":"1392","correct":false,"confidence":1},{"trial_n":68,"span":2,"encoder":"27","distractor":"28","target":"absent","response":"present","rt":"1137","correct":false,"confidence":1},{"trial_n":69,"span":2,"encoder":"52","distractor":"92","target":"present","response":"absent","rt":"5904","correct":false,"confidence":1},{"trial_n":70,"span":2,"encoder":"00","distractor":"09","target":"present","response":"present","rt":"2204","correct":true,"confidence":1},{"trial_n":71,"span":8,"encoder":"62779189","distractor":"63779189","target":"present","response":"present","rt":"1213","correct":true,"confidence":-1},{"trial_n":72,"span":8,"encoder":"20626440","distractor":"20636440","target":"present","response":"absent","rt":"882","correct":false,"confidence":-1},{"trial_n":73,"span":7,"encoder":"3884115","distractor":"3804115","target":"absent","response":"present","rt":"1574","correct":false,"confidence":-1},{"trial_n":74,"span":6,"encoder":"886534","distractor":"886531","target":"absent","response":"present","rt":"972","correct":false,"confidence":-1},{"trial_n":75,"span":5,"encoder":"56885","distractor":"59885","target":"present","response":"present","rt":"1700.9999999999","correct":true,"confidence":-1},{"trial_n":76,"span":5,"encoder":"76065","distractor":"46065","target":"absent","response":"absent","rt":"1997","correct":true,"confidence":-1},{"trial_n":77,"span":6,"encoder":"130021","distractor":"630021","target":"present","response":"present","rt":"6021","correct":true,"confidence":-1},{"trial_n":78,"span":6,"encoder":"387198","distractor":"387118","target":"absent","response":"absent","rt":"839","correct":true,"confidence":-1},{"trial_n":79,"span":7,"encoder":"9779052","distractor":"9779852","target":"absent","response":"present","rt":"1874.0000000001","correct":false,"confidence":-1},{"trial_n":80,"span":6,"encoder":"099180","distractor":"099980","target":"present","response":"absent","rt":"1751","correct":false,"confidence":-1},{"trial_n":81,"span":5,"encoder":"05660","distractor":"03660","target":"present","response":"present","rt":"1432","correct":true,"confidence":-1},{"trial_n":82,"span":5,"encoder":"99932","distractor":"99972","target":"absent","response":"absent","rt":"1368","correct":true,"confidence":-1},{"trial_n":83,"span":6,"encoder":"983425","distractor":"985425","target":"absent","response":"absent","rt":"1253","correct":true,"confidence":-1},{"trial_n":84,"span":6,"encoder":"236742","distractor":"236752","target":"present","response":"present","rt":"1136","correct":true,"confidence":-1},{"trial_n":85,"span":7,"encoder":"3971789","distractor":"3971779","target":"present","response":"present","rt":"2706","correct":true,"confidence":-1},{"trial_n":86,"span":7,"encoder":"5702007","distractor":"5702017","target":"present","response":"absent","rt":"2689","correct":false,"confidence":-1},{"trial_n":87,"span":6,"encoder":"030437","distractor":"030487","target":"present","response":"present","rt":"2805","correct":true,"confidence":-1},{"trial_n":88,"span":6,"encoder":"016936","distractor":"096936","target":"present","response":"present","rt":"6136","correct":true,"confidence":-1},{"trial_n":89,"span":7,"encoder":"0414518","distractor":"0444518","target":"present","response":"absent","rt":"1376.0000000001","correct":false,"confidence":-1},{"trial_n":90,"span":6,"encoder":"575060","distractor":"515060","target":"present","response":"present","rt":"1805","correct":true,"confidence":-1},{"trial_n":91,"span":6,"encoder":"737206","distractor":"733206","target":"absent","response":"absent","rt":"858","correct":true,"confidence":1},{"trial_n":92,"span":7,"encoder":"7526359","distractor":"7726359","target":"absent","response":"present","rt":"996","correct":false,"confidence":1},{"trial_n":93,"span":6,"encoder":"081626","distractor":"086626","target":"absent","response":"present","rt":"44059","correct":false,"confidence":1},{"trial_n":94,"span":5,"encoder":"09573","distractor":"05573","target":"present","response":"present","rt":"1104","correct":true,"confidence":1},{"trial_n":95,"span":5,"encoder":"67395","distractor":"67399","target":"present","response":"absent","rt":"1639","correct":false,"confidence":1},{"trial_n":96,"span":4,"encoder":"6985","distractor":"6983","target":"present","response":"present","rt":"1265.9999999999","correct":true,"confidence":1},{"trial_n":97,"span":4,"encoder":"7999","distractor":"7939","target":"present","response":"absent","rt":"1416","correct":false,"confidence":1},{"trial_n":98,"span":3,"encoder":"829","distractor":"529","target":"present","response":"present","rt":"4061","correct":true,"confidence":1},{"trial_n":99,"span":3,"encoder":"626","distractor":"624","target":"absent","response":"absent","rt":"1096","correct":true,"confidence":1},{"trial_n":100,"span":4,"encoder":"5274","distractor":"2274","target":"absent","response":"present","rt":"1351","correct":false,"confidence":1},{"trial_n":101,"span":3,"encoder":"376","distractor":"876","target":"present","response":"present","rt":"1243.9999999999","correct":true,"confidence":1},{"trial_n":102,"span":3,"encoder":"071","distractor":"171","target":"present","response":"absent","rt":"1660.9999999999","correct":false,"confidence":1},{"trial_n":103,"span":2,"encoder":"05","distractor":"55","target":"present","response":"present","rt":"9009.0000000001","correct":true,"confidence":1},{"trial_n":104,"span":2,"encoder":"58","distractor":"48","target":"present","response":"absent","rt":"1425","correct":false,"confidence":1},{"trial_n":105,"span":2,"encoder":"73","distractor":"43","target":"present","response":"present","rt":"1326","correct":true,"confidence":1},{"trial_n":106,"span":2,"encoder":"63","distractor":"61","target":"absent","response":"absent","rt":"1475","correct":true,"confidence":1},{"trial_n":107,"span":3,"encoder":"298","distractor":"297","target":"absent","response":"present","rt":"1097","correct":false,"confidence":1},{"trial_n":108,"span":2,"encoder":"44","distractor":"46","target":"present","response":"absent","rt":"1209.0000000001","correct":false,"confidence":1},{"trial_n":109,"span":2,"encoder":"08","distractor":"48","target":"absent","response":"present","rt":"8442","correct":false,"confidence":1},{"trial_n":110,"span":2,"encoder":"06","distractor":"16","target":"absent","response":"absent","rt":"1008","correct":true,"confidence":1},{"trial_n":111,"span":2,"encoder":"97","distractor":"27","target":"present","response":"present","rt":"875.99999999988","correct":true,"confidence":1},{"trial_n":112,"span":3,"encoder":"514","distractor":"518","target":"present","response":"present","rt":"1064","correct":true,"confidence":1},{"trial_n":113,"span":3,"encoder":"397","distractor":"367","target":"absent","response":"absent","rt":"1396","correct":true,"confidence":1},{"trial_n":114,"span":4,"encoder":"5126","distractor":"5120","target":"present","response":"present","rt":"1234.0000000001","correct":true,"confidence":1},{"trial_n":115,"span":4,"encoder":"2020","distractor":"2026","target":"absent","response":"absent","rt":"1384","correct":true,"confidence":1},{"trial_n":116,"span":5,"encoder":"11127","distractor":"11129","target":"absent","response":"present","rt":"1405","correct":false,"confidence":1},{"trial_n":117,"span":4,"encoder":"4960","distractor":"4970","target":"absent","response":"absent","rt":"5669.0000000001","correct":true,"confidence":1},{"trial_n":118,"span":4,"encoder":"1285","distractor":"0285","target":"absent","response":"present","rt":"1400","correct":false,"confidence":1},{"trial_n":119,"span":3,"encoder":"829","distractor":"819","target":"present","response":"absent","rt":"1247","correct":false,"confidence":1},{"trial_n":120,"span":2,"encoder":"76","distractor":"46","target":"absent","response":"present","rt":"1625.9999999999","correct":false,"confidence":1},{"trial_n":121,"span":2,"encoder":"07","distractor":"17","target":"present","response":"present","rt":"5709","correct":true,"confidence":1},{"trial_n":122,"span":2,"encoder":"67","distractor":"77","target":"absent","response":"absent","rt":"1010","correct":true,"confidence":1},{"trial_n":123,"span":3,"encoder":"816","distractor":"416","target":"absent","response":"present","rt":"1013","correct":false,"confidence":1},{"trial_n":124,"span":2,"encoder":"57","distractor":"56","target":"absent","response":"absent","rt":"4209.9999999999","correct":true,"confidence":1},{"trial_n":125,"span":2,"encoder":"90","distractor":"97","target":"absent","response":"present","rt":"1694","correct":false,"confidence":1},{"trial_n":126,"span":2,"encoder":"45","distractor":"15","target":"present","response":"present","rt":"994","correct":true,"confidence":1},{"trial_n":127,"span":2,"encoder":"15","distractor":"45","target":"absent","response":"absent","rt":"4993","correct":true,"confidence":1},{"trial_n":128,"span":3,"encoder":"998","distractor":"698","target":"absent","response":"present","rt":"914","correct":false,"confidence":1},{"trial_n":129,"span":2,"encoder":"16","distractor":"36","target":"absent","response":"absent","rt":"2660","correct":true,"confidence":1},{"trial_n":130,"span":2,"encoder":"96","distractor":"06","target":"present","response":"present","rt":"3092.9999999999","correct":true,"confidence":1},{"trial_n":131,"span":3,"encoder":"113","distractor":"183","target":"absent","response":"absent","rt":"1149","correct":true,"confidence":1},{"trial_n":132,"span":3,"encoder":"267","distractor":"264","target":"absent","response":"absent","rt":"1213.9999999999","correct":true,"confidence":1},{"trial_n":133,"span":4,"encoder":"2900","distractor":"2500","target":"present","response":"present","rt":"1736","correct":true,"confidence":1},{"trial_n":134,"span":4,"encoder":"9263","distractor":"9262","target":"present","response":"present","rt":"1168.9999999999","correct":true,"confidence":1},{"trial_n":135,"span":5,"encoder":"00733","distractor":"04733","target":"absent","response":"present","rt":"1790","correct":false,"confidence":1},{"trial_n":136,"span":4,"encoder":"1268","distractor":"1868","target":"present","response":"absent","rt":"1003","correct":false,"confidence":1},{"trial_n":137,"span":3,"encoder":"338","distractor":"838","target":"absent","response":"present","rt":"55034","correct":false,"confidence":1},{"trial_n":138,"span":2,"encoder":"91","distractor":"93","target":"present","response":"present","rt":"2512","correct":true,"confidence":1},{"trial_n":139,"span":2,"encoder":"03","distractor":"83","target":"absent","response":"absent","rt":"1645.0000000001","correct":true,"confidence":1},{"trial_n":140,"span":3,"encoder":"251","distractor":"259","target":"present","response":"present","rt":"1015","correct":true,"confidence":1}]