[{"trial_n":1,"n_dots":4.25,"target":"right","response":"left","rt":4120,"correct":false,"confidence":-1},{"trial_n":2,"n_dots":4.25,"target":"right","response":"right","rt":755,"correct":true,"confidence":-1},{"trial_n":3,"n_dots":4.25,"target":"left","response":"left","rt":877,"correct":true,"confidence":-1},{"trial_n":4,"n_dots":3.85,"target":"right","response":"right","rt":1382,"correct":true,"confidence":-1},{"trial_n":5,"n_dots":3.85,"target":"right","response":"right","rt":850,"correct":true,"confidence":-1},{"trial_n":6,"n_dots":3.45,"target":"left","response":"right","rt":483,"correct":false,"confidence":-1},{"trial_n":7,"n_dots":3.85,"target":"left","response":"left","rt":265,"correct":true,"confidence":-1},{"trial_n":8,"n_dots":3.85,"target":"right","response":"right","rt":759,"correct":true,"confidence":-1},{"trial_n":9,"n_dots":3.65,"target":"right","response":"left","rt":375,"correct":false,"confidence":-1},{"trial_n":10,"n_dots":3.85,"target":"right","response":"right","rt":93,"correct":true,"confidence":-1},{"trial_n":11,"n_dots":3.85,"target":"right","response":"left","rt":57.000000000007,"correct":false,"confidence":-1},{"trial_n":12,"n_dots":4.05,"target":"right","response":"right","rt":130,"correct":true,"confidence":-1},{"trial_n":13,"n_dots":4.05,"target":"right","response":"left","rt":158,"correct":false,"confidence":-1},{"trial_n":14,"n_dots":4.15,"target":"right","response":"right","rt":142.00000000001,"correct":true,"confidence":-1},{"trial_n":15,"n_dots":4.15,"target":"left","response":"left","rt":276,"correct":true,"confidence":-1},{"trial_n":16,"n_dots":4.05,"target":"left","response":"right","rt":76,"correct":false,"confidence":-1},{"trial_n":17,"n_dots":4.15,"target":"left","response":"right","rt":56,"correct":false,"confidence":-1},{"trial_n":18,"n_dots":4.25,"target":"right","response":"right","rt":149,"correct":true,"confidence":-1},{"trial_n":19,"n_dots":4.25,"target":"right","response":"right","rt":173,"correct":true,"confidence":-1},{"trial_n":20,"n_dots":4.15,"target":"right","response":"right","rt":953,"correct":true,"confidence":-1},{"trial_n":21,"n_dots":4.15,"target":"left","response":"right","rt":168,"correct":false,"confidence":3},{"trial_n":22,"n_dots":4.25,"target":"left","response":"left","rt":66,"correct":true,"confidence":1},{"trial_n":23,"n_dots":4.25,"target":"left","response":"right","rt":1054,"correct":false,"confidence":1},{"trial_n":24,"n_dots":4.35,"target":"left","response":"left","rt":801,"correct":true,"confidence":1},{"trial_n":25,"n_dots":4.35,"target":"right","response":"right","rt":786.00000000001,"correct":true,"confidence":1},{"trial_n":26,"n_dots":4.25,"target":"right","response":"right","rt":102,"correct":true,"confidence":1},{"trial_n":27,"n_dots":4.25,"target":"left","response":"left","rt":451,"correct":true,"confidence":1},{"trial_n":28,"n_dots":4.15,"target":"right","response":"right","rt":103,"correct":true,"confidence":1},{"trial_n":29,"n_dots":4.15,"target":"right","response":"right","rt":170,"correct":true,"confidence":1},{"trial_n":30,"n_dots":4.05,"target":"left","response":"left","rt":13086,"correct":true,"confidence":1},{"trial_n":31,"n_dots":4.05,"target":"right","response":"right","rt":635.99999999999,"correct":true,"confidence":1},{"trial_n":32,"n_dots":3.95,"target":"right","response":"left","rt":1137,"correct":false,"confidence":1},{"trial_n":33,"n_dots":4.05,"target":"left","response":"left","rt":570,"correct":true,"confidence":1},{"trial_n":34,"n_dots":4.05,"target":"right","response":"right","rt":168.00000000001,"correct":true,"confidence":1},{"trial_n":35,"n_dots":3.95,"target":"right","response":"left","rt":786,"correct":false,"confidence":1},{"trial_n":36,"n_dots":4.05,"target":"left","response":"left","rt":753,"correct":true,"confidence":1},{"trial_n":37,"n_dots":4.05,"target":"right","response":"left","rt":836.99999999999,"correct":false,"confidence":1},{"trial_n":38,"n_dots":4.15,"target":"left","response":"right","rt":769,"correct":false,"confidence":1},{"trial_n":39,"n_dots":4.25,"target":"right","response":"right","rt":855,"correct":true,"confidence":1},{"trial_n":40,"n_dots":4.25,"target":"left","response":"right","rt":737,"correct":false,"confidence":1},{"trial_n":41,"n_dots":4.35,"target":"left","response":"left","rt":2439,"correct":true,"confidence":1},{"trial_n":42,"n_dots":4.35,"target":"left","response":"right","rt":953.99999999997,"correct":false,"confidence":1},{"trial_n":43,"n_dots":4.45,"target":"right","response":"left","rt":719,"correct":false,"confidence":1},{"trial_n":44,"n_dots":4.55,"target":"left","response":"right","rt":1186,"correct":false,"confidence":1},{"trial_n":45,"n_dots":4.65,"target":"right","response":"right","rt":220,"correct":true,"confidence":1},{"trial_n":46,"n_dots":4.65,"target":"right","response":"right","rt":73,"correct":true,"confidence":1},{"trial_n":47,"n_dots":4.55,"target":"left","response":"left","rt":402.99999999997,"correct":true,"confidence":1},{"trial_n":48,"n_dots":4.55,"target":"right","response":"right","rt":871,"correct":true,"confidence":1},{"trial_n":49,"n_dots":4.45,"target":"left","response":"left","rt":454,"correct":true,"confidence":1},{"trial_n":50,"n_dots":4.45,"target":"left","response":"left","rt":188.99999999997,"correct":true,"confidence":1},{"trial_n":51,"n_dots":4.35,"target":"right","response":"right","rt":154.00000000003,"correct":true,"confidence":1},{"trial_n":52,"n_dots":4.35,"target":"right","response":"right","rt":155,"correct":true,"confidence":1},{"trial_n":53,"n_dots":4.25,"target":"right","response":"right","rt":74,"correct":true,"confidence":1},{"trial_n":54,"n_dots":4.25,"target":"left","response":"right","rt":1455,"correct":false,"confidence":1},{"trial_n":55,"n_dots":4.35,"target":"left","response":"left","rt":155,"correct":true,"confidence":1},{"trial_n":56,"n_dots":4.35,"target":"left","response":"right","rt":870,"correct":false,"confidence":1},{"trial_n":57,"n_dots":4.45,"target":"right","response":"left","rt":1271,"correct":false,"confidence":1},{"trial_n":58,"n_dots":4.55,"target":"left","response":"left","rt":387.99999999997,"correct":true,"confidence":1},{"trial_n":59,"n_dots":4.55,"target":"right","response":"right","rt":537,"correct":true,"confidence":1},{"trial_n":60,"n_dots":4.45,"target":"left","response":"left","rt":736.99999999997,"correct":true,"confidence":1},{"trial_n":61,"n_dots":4.45,"target":"right","response":"left","rt":744,"correct":false,"confidence":1},{"trial_n":62,"n_dots":4.55,"target":"right","response":"right","rt":772,"correct":true,"confidence":1},{"trial_n":63,"n_dots":4.55,"target":"right","response":"right","rt":138.99999999997,"correct":true,"confidence":1},{"trial_n":64,"n_dots":4.45,"target":"right","response":"right","rt":455,"correct":true,"confidence":1},{"trial_n":65,"n_dots":4.45,"target":"right","response":"right","rt":389,"correct":true,"confidence":1},{"trial_n":66,"n_dots":4.35,"target":"right","response":"right","rt":1439,"correct":true,"confidence":1},{"trial_n":67,"n_dots":4.35,"target":"right","response":"left","rt":72,"correct":false,"confidence":1},{"trial_n":68,"n_dots":4.45,"target":"left","response":"right","rt":289,"correct":false,"confidence":1},{"trial_n":69,"n_dots":4.55,"target":"left","response":"left","rt":206,"correct":true,"confidence":1},{"trial_n":70,"n_dots":4.55,"target":"right","response":"right","rt":454.00000000003,"correct":true,"confidence":1},{"trial_n":71,"n_dots":4.45,"target":"left","response":"left","rt":504,"correct":true,"confidence":1},{"trial_n":72,"n_dots":4.45,"target":"right","response":"right","rt":1922,"correct":true,"confidence":1},{"trial_n":73,"n_dots":4.35,"target":"left","response":"right","rt":2255,"correct":false,"confidence":1},{"trial_n":74,"n_dots":4.45,"target":"right","response":"right","rt":790.00000000003,"correct":true,"confidence":1},{"trial_n":75,"n_dots":4.45,"target":"right","response":"right","rt":505,"correct":true,"confidence":1},{"trial_n":76,"n_dots":4.35,"target":"right","response":"right","rt":139.99999999994,"correct":true,"confidence":1},{"trial_n":77,"n_dots":4.35,"target":"left","response":"left","rt":189,"correct":true,"confidence":1},{"trial_n":78,"n_dots":4.25,"target":"left","response":"left","rt":404,"correct":true,"confidence":1},{"trial_n":79,"n_dots":4.25,"target":"left","response":"left","rt":172.99999999994,"correct":true,"confidence":1},{"trial_n":80,"n_dots":4.15,"target":"left","response":"left","rt":521,"correct":true,"confidence":1},{"trial_n":81,"n_dots":4.15,"target":"right","response":"right","rt":314,"correct":true,"confidence":1},{"trial_n":82,"n_dots":4.05,"target":"left","response":"left","rt":856,"correct":true,"confidence":1},{"trial_n":83,"n_dots":4.05,"target":"left","response":"left","rt":623,"correct":true,"confidence":1},{"trial_n":84,"n_dots":3.95,"target":"right","response":"right","rt":707.00000000006,"correct":true,"confidence":1},{"trial_n":85,"n_dots":3.95,"target":"left","response":"left","rt":156,"correct":true,"confidence":1},{"trial_n":86,"n_dots":3.85,"target":"left","response":"right","rt":140,"correct":false,"confidence":1},{"trial_n":87,"n_dots":3.95,"target":"left","response":"left","rt":191,"correct":true,"confidence":1},{"trial_n":88,"n_dots":3.95,"target":"right","response":"right","rt":57,"correct":true,"confidence":1},{"trial_n":89,"n_dots":3.85,"target":"left","response":"left","rt":674,"correct":true,"confidence":1},{"trial_n":90,"n_dots":3.85,"target":"right","response":"right","rt":306,"correct":true,"confidence":1},{"trial_n":91,"n_dots":3.75,"target":"right","response":"right","rt":274,"correct":true,"confidence":1},{"trial_n":92,"n_dots":3.75,"target":"left","response":"left","rt":358,"correct":true,"confidence":1},{"trial_n":93,"n_dots":3.65,"target":"right","response":"right","rt":241,"correct":true,"confidence":1},{"trial_n":94,"n_dots":3.65,"target":"left","response":"left","rt":1822,"correct":true,"confidence":1},{"trial_n":95,"n_dots":3.55,"target":"left","response":"right","rt":6923,"correct":false,"confidence":1},{"trial_n":96,"n_dots":3.65,"target":"left","response":"left","rt":673.00000000006,"correct":true,"confidence":1},{"trial_n":97,"n_dots":3.65,"target":"left","response":"right","rt":739.99999999994,"correct":false,"confidence":1},{"trial_n":98,"n_dots":3.75,"target":"left","response":"left","rt":356,"correct":true,"confidence":1},{"trial_n":99,"n_dots":3.75,"target":"left","response":"right","rt":4723,"correct":false,"confidence":1},{"trial_n":100,"n_dots":3.85,"target":"left","response":"left","rt":1106,"correct":true,"confidence":1},{"trial_n":101,"n_dots":3.85,"target":"right","response":"right","rt":1501,"correct":true,"confidence":1},{"trial_n":102,"n_dots":3.75,"target":"right","response":"left","rt":108,"correct":false,"confidence":1},{"trial_n":103,"n_dots":3.85,"target":"right","response":"right","rt":192,"correct":true,"confidence":1},{"trial_n":104,"n_dots":3.85,"target":"left","response":"left","rt":507,"correct":true,"confidence":1},{"trial_n":105,"n_dots":3.75,"target":"left","response":"right","rt":808,"correct":false,"confidence":1},{"trial_n":106,"n_dots":3.85,"target":"left","response":"left","rt":790,"correct":true,"confidence":1},{"trial_n":107,"n_dots":3.85,"target":"right","response":"right","rt":808,"correct":true,"confidence":1},{"trial_n":108,"n_dots":3.75,"target":"left","response":"left","rt":441,"correct":true,"confidence":1},{"trial_n":109,"n_dots":3.75,"target":"right","response":"right","rt":308,"correct":true,"confidence":1},{"trial_n":110,"n_dots":3.65,"target":"left","response":"right","rt":75,"correct":false,"confidence":1},{"trial_n":111,"n_dots":3.75,"target":"right","response":"left","rt":141,"correct":false,"confidence":1},{"trial_n":112,"n_dots":3.85,"target":"right","response":"right","rt":309,"correct":true,"confidence":1},{"trial_n":113,"n_dots":3.85,"target":"left","response":"left","rt":192,"correct":true,"confidence":1},{"trial_n":114,"n_dots":3.75,"target":"left","response":"right","rt":209.99999999994,"correct":false,"confidence":1},{"trial_n":115,"n_dots":3.85,"target":"right","response":"left","rt":191.99999999994,"correct":false,"confidence":1},{"trial_n":116,"n_dots":3.95,"target":"left","response":"left","rt":923,"correct":true,"confidence":1},{"trial_n":117,"n_dots":3.95,"target":"right","response":"right","rt":674,"correct":true,"confidence":1},{"trial_n":118,"n_dots":3.85,"target":"left","response":"left","rt":142.00000000006,"correct":true,"confidence":1},{"trial_n":119,"n_dots":3.85,"target":"left","response":"right","rt":292,"correct":false,"confidence":1},{"trial_n":120,"n_dots":3.95,"target":"left","response":"left","rt":340.99999999994,"correct":true,"confidence":1}]