[{"trial_n":1,"span":8,"encoder":"00765385","distractor":"00765685","target":"present","response":"present","rt":"3955.1000000238","correct":true,"confidence":-1},{"trial_n":2,"span":8,"encoder":"53273666","distractor":"23273666","target":"present","response":"present","rt":"2111.6000000238","correct":true,"confidence":-1},{"trial_n":3,"span":10,"encoder":"0860174297","distractor":"0860177297","target":"absent","response":"absent","rt":"3996.1999999881","correct":true,"confidence":-1},{"trial_n":4,"span":10,"encoder":"3735345814","distractor":"3735341814","target":"absent","response":"present","rt":"4834.6999999881","correct":false,"confidence":-1},{"trial_n":5,"span":8,"encoder":"97365089","distractor":"97360089","target":"present","response":"present","rt":"1826.9000000358","correct":true,"confidence":-1},{"trial_n":6,"span":8,"encoder":"95271191","distractor":"95241191","target":"present","response":"present","rt":"1645","correct":true,"confidence":-1},{"trial_n":7,"span":10,"encoder":"2943910961","distractor":"2943910967","target":"present","response":"absent","rt":"2529.9000000358","correct":false,"confidence":-1},{"trial_n":8,"span":8,"encoder":"35814140","distractor":"35818140","target":"present","response":"present","rt":"1447.4000000358","correct":true,"confidence":-1},{"trial_n":9,"span":8,"encoder":"76364480","distractor":"76364580","target":"absent","response":"absent","rt":"1675.1999999881","correct":true,"confidence":-1},{"trial_n":10,"span":10,"encoder":"3474215878","distractor":"3478215878","target":"present","response":"present","rt":"2166","correct":true,"confidence":-1},{"trial_n":11,"span":10,"encoder":"6233870502","distractor":"6273870502","target":"absent","response":"absent","rt":"2588.3000000119","correct":true,"confidence":-1},{"trial_n":12,"span":11,"encoder":"79970761638","distractor":"79970961638","target":"absent","response":"absent","rt":"4059.6000000238","correct":true,"confidence":-1},{"trial_n":13,"span":11,"encoder":"14296118303","distractor":"14296110303","target":"absent","response":"present","rt":"1419.5","correct":false,"confidence":-1},{"trial_n":14,"span":10,"encoder":"5711135210","distractor":"5711145210","target":"present","response":"present","rt":"1172.3000000119","correct":true,"confidence":-1},{"trial_n":15,"span":10,"encoder":"5574153585","distractor":"5584153585","target":"present","response":"present","rt":"1589.5","correct":true,"confidence":-1},{"trial_n":16,"span":11,"encoder":"25938577091","distractor":"25338577091","target":"absent","response":"present","rt":"1290","correct":false,"confidence":-1},{"trial_n":17,"span":10,"encoder":"6395660266","distractor":"6395664266","target":"present","response":"present","rt":"2399.1999999881","correct":true,"confidence":-1},{"trial_n":18,"span":10,"encoder":"7754841098","distractor":"5754841098","target":"present","response":"present","rt":"1381.3000000119","correct":true,"confidence":-1},{"trial_n":19,"span":11,"encoder":"36295814020","distractor":"36265814020","target":"present","response":"absent","rt":"2149.2000000477","correct":false,"confidence":-1},{"trial_n":20,"span":10,"encoder":"9734011769","distractor":"9714011769","target":"present","response":"present","rt":"1149.6000000238","correct":true,"confidence":-1},{"trial_n":21,"span":10,"encoder":"9927120842","distractor":"9927130842","target":"present","response":"present","rt":"1024.5999999642","correct":true,"confidence":5},{"trial_n":22,"span":11,"encoder":"08568643729","distractor":"09568643729","target":"absent","response":"present","rt":"2365","correct":false,"confidence":5},{"trial_n":23,"span":10,"encoder":"2051677772","distractor":"2851677772","target":"absent","response":"present","rt":"1487.1999999881","correct":false,"confidence":5},{"trial_n":24,"span":9,"encoder":"526499894","distractor":"526493894","target":"absent","response":"present","rt":"2442.8999999762","correct":false,"confidence":5},{"trial_n":25,"span":8,"encoder":"92388894","distractor":"92388794","target":"present","response":"present","rt":"3477","correct":true,"confidence":5},{"trial_n":26,"span":8,"encoder":"48916911","distractor":"48916961","target":"absent","response":"absent","rt":"1406.1000000238","correct":true,"confidence":5},{"trial_n":27,"span":9,"encoder":"353463608","distractor":"353463602","target":"absent","response":"absent","rt":"6091.2999999523","correct":true,"confidence":3},{"trial_n":28,"span":9,"encoder":"700599405","distractor":"709599405","target":"absent","response":"present","rt":"2843.6000000238","correct":false,"confidence":5},{"trial_n":29,"span":8,"encoder":"58585851","distractor":"58585856","target":"present","response":"present","rt":"453.30000001192","correct":true,"confidence":2},{"trial_n":30,"span":8,"encoder":"17877345","distractor":"18877345","target":"absent","response":"present","rt":"1575.9000000358","correct":false,"confidence":2},{"trial_n":31,"span":7,"encoder":"0392985","distractor":"0492985","target":"present","response":"present","rt":"1448.0999999642","correct":true,"confidence":5},{"trial_n":32,"span":7,"encoder":"7951827","distractor":"7931827","target":"present","response":"absent","rt":"1545.3000000119","correct":false,"confidence":2},{"trial_n":33,"span":6,"encoder":"065939","distractor":"065639","target":"present","response":"present","rt":"3790.3999999762","correct":true,"confidence":3},{"trial_n":34,"span":6,"encoder":"194730","distractor":"194739","target":"present","response":"present","rt":"1876.5","correct":true,"confidence":5},{"trial_n":35,"span":7,"encoder":"4563211","distractor":"4563231","target":"absent","response":"absent","rt":"1323.0999999642","correct":true,"confidence":5},{"trial_n":36,"span":7,"encoder":"1514114","distractor":"1514115","target":"absent","response":"present","rt":"1553.4000000358","correct":false,"confidence":5},{"trial_n":37,"span":6,"encoder":"296604","distractor":"596604","target":"absent","response":"absent","rt":"3063.8000000119","correct":true,"confidence":4},{"trial_n":38,"span":6,"encoder":"040940","distractor":"040949","target":"absent","response":"present","rt":"1374.9000000358","correct":false,"confidence":5},{"trial_n":39,"span":5,"encoder":"26303","distractor":"26302","target":"present","response":"present","rt":"1186.9000000358","correct":true,"confidence":5},{"trial_n":40,"span":5,"encoder":"44221","distractor":"49221","target":"absent","response":"absent","rt":"2024.7000000477","correct":true,"confidence":5},{"trial_n":41,"span":6,"encoder":"394747","distractor":"894747","target":"absent","response":"absent","rt":"2132.6000000238","correct":true,"confidence":5},{"trial_n":42,"span":6,"encoder":"268492","distractor":"168492","target":"absent","response":"absent","rt":"2663.1999999881","correct":true,"confidence":5},{"trial_n":43,"span":7,"encoder":"9944842","distractor":"5944842","target":"absent","response":"absent","rt":"2448.5999999642","correct":true,"confidence":5},{"trial_n":44,"span":7,"encoder":"0298617","distractor":"2298617","target":"absent","response":"absent","rt":"1292","correct":true,"confidence":5},{"trial_n":45,"span":8,"encoder":"82854568","distractor":"82884568","target":"present","response":"present","rt":"1650.8000000119","correct":true,"confidence":5},{"trial_n":46,"span":8,"encoder":"28887748","distractor":"68887748","target":"absent","response":"present","rt":"2740.1999999881","correct":false,"confidence":5},{"trial_n":47,"span":7,"encoder":"5325115","distractor":"0325115","target":"absent","response":"absent","rt":"1828","correct":true,"confidence":5},{"trial_n":48,"span":7,"encoder":"2993193","distractor":"2913193","target":"absent","response":"absent","rt":"1705.1999999881","correct":true,"confidence":5},{"trial_n":49,"span":8,"encoder":"84715518","distractor":"84815518","target":"present","response":"absent","rt":"1579","correct":false,"confidence":5},{"trial_n":50,"span":7,"encoder":"3851229","distractor":"3891229","target":"present","response":"present","rt":"1423","correct":true,"confidence":4},{"trial_n":51,"span":7,"encoder":"0947881","distractor":"0937881","target":"present","response":"present","rt":"1886.1000000238","correct":true,"confidence":5},{"trial_n":52,"span":8,"encoder":"87665785","distractor":"07665785","target":"absent","response":"absent","rt":"1733.3000000119","correct":true,"confidence":5},{"trial_n":53,"span":8,"encoder":"19188745","distractor":"59188745","target":"present","response":"present","rt":"1985.8999999762","correct":true,"confidence":3},{"trial_n":54,"span":9,"encoder":"803512623","distractor":"893512623","target":"present","response":"absent","rt":"3551.8000000119","correct":false,"confidence":4},{"trial_n":55,"span":8,"encoder":"62840699","distractor":"62848699","target":"present","response":"present","rt":"1669.3000000119","correct":true,"confidence":4},{"trial_n":56,"span":8,"encoder":"21092350","distractor":"21099350","target":"absent","response":"absent","rt":"3987.5999999642","correct":true,"confidence":5},{"trial_n":57,"span":9,"encoder":"702322399","distractor":"702322199","target":"present","response":"present","rt":"3285.1999999881","correct":true,"confidence":1},{"trial_n":58,"span":9,"encoder":"746675201","distractor":"746675200","target":"present","response":"present","rt":"2974.8000000119","correct":true,"confidence":4},{"trial_n":59,"span":10,"encoder":"4195205553","distractor":"4195205559","target":"absent","response":"present","rt":"12191.300000012","correct":false,"confidence":5},{"trial_n":60,"span":9,"encoder":"073801215","distractor":"079801215","target":"present","response":"absent","rt":"19826.099999964","correct":false,"confidence":1},{"trial_n":61,"span":8,"encoder":"13137050","distractor":"13137040","target":"present","response":"present","rt":"2427.1000000238","correct":true,"confidence":5},{"trial_n":62,"span":8,"encoder":"75751573","distractor":"75551573","target":"absent","response":"absent","rt":"1568.8000000119","correct":true,"confidence":5},{"trial_n":63,"span":9,"encoder":"919529375","distractor":"919529575","target":"present","response":"present","rt":"5129.5","correct":true,"confidence":3},{"trial_n":64,"span":9,"encoder":"033162976","distractor":"003162976","target":"present","response":"present","rt":"4859","correct":true,"confidence":3},{"trial_n":65,"span":10,"encoder":"7008840008","distractor":"7008840007","target":"absent","response":"present","rt":"2792.6999999881","correct":false,"confidence":5},{"trial_n":66,"span":9,"encoder":"475728376","distractor":"475723376","target":"present","response":"absent","rt":"1267.2000000477","correct":false,"confidence":2},{"trial_n":67,"span":8,"encoder":"17705529","distractor":"17765529","target":"present","response":"present","rt":"2495","correct":true,"confidence":5},{"trial_n":68,"span":8,"encoder":"66123003","distractor":"66123013","target":"absent","response":"absent","rt":"2306.3999999762","correct":true,"confidence":5},{"trial_n":69,"span":9,"encoder":"510935376","distractor":"570935376","target":"absent","response":"present","rt":"1488.5999999642","correct":false,"confidence":5},{"trial_n":70,"span":8,"encoder":"39053441","distractor":"39013441","target":"absent","response":"present","rt":"1911","correct":false,"confidence":5},{"trial_n":71,"span":8,"encoder":"97287965","distractor":"97287963","target":"present","response":"present","rt":"3727.3000000119","correct":true,"confidence":-1},{"trial_n":72,"span":8,"encoder":"85188856","distractor":"83188856","target":"present","response":"present","rt":"3654.3000000119","correct":true,"confidence":-1},{"trial_n":73,"span":9,"encoder":"717080615","distractor":"717080616","target":"absent","response":"absent","rt":"4078.3999999762","correct":true,"confidence":-1},{"trial_n":74,"span":9,"encoder":"386916973","distractor":"386910973","target":"absent","response":"absent","rt":"3785.8000000119","correct":true,"confidence":-1},{"trial_n":75,"span":10,"encoder":"8377606833","distractor":"8377606133","target":"present","response":"present","rt":"6450.8000000119","correct":true,"confidence":-1},{"trial_n":76,"span":10,"encoder":"8838109030","distractor":"8838109830","target":"absent","response":"present","rt":"2880.3999999762","correct":false,"confidence":-1},{"trial_n":77,"span":9,"encoder":"017405804","distractor":"517405804","target":"absent","response":"absent","rt":"2492.7999999523","correct":true,"confidence":-1},{"trial_n":78,"span":9,"encoder":"931837092","distractor":"931827092","target":"present","response":"present","rt":"5024.8000000119","correct":true,"confidence":-1},{"trial_n":79,"span":10,"encoder":"0502891434","distractor":"0502891334","target":"absent","response":"absent","rt":"6878.6000000238","correct":true,"confidence":-1},{"trial_n":80,"span":10,"encoder":"6824861582","distractor":"6824861982","target":"present","response":"absent","rt":"4607.9000000358","correct":false,"confidence":-1},{"trial_n":81,"span":9,"encoder":"779600001","distractor":"779900001","target":"absent","response":"absent","rt":"3663.0999999642","correct":true,"confidence":-1},{"trial_n":82,"span":9,"encoder":"895270479","distractor":"895230479","target":"absent","response":"absent","rt":"2453.5","correct":true,"confidence":-1},{"trial_n":83,"span":10,"encoder":"3479794159","distractor":"3479794153","target":"present","response":"present","rt":"2514.6000000238","correct":true,"confidence":-1},{"trial_n":84,"span":10,"encoder":"5256952391","distractor":"5256972391","target":"absent","response":"present","rt":"6730.3000000119","correct":false,"confidence":-1},{"trial_n":85,"span":9,"encoder":"506077430","distractor":"516077430","target":"present","response":"absent","rt":"3308.3000000119","correct":false,"confidence":-1},{"trial_n":86,"span":8,"encoder":"40296475","distractor":"40296075","target":"present","response":"absent","rt":"3731.6000000238","correct":false,"confidence":-1},{"trial_n":87,"span":7,"encoder":"7779457","distractor":"7729457","target":"present","response":"absent","rt":"909.40000003576","correct":false,"confidence":-1},{"trial_n":88,"span":6,"encoder":"176876","distractor":"174876","target":"present","response":"absent","rt":"622.10000002384","correct":false,"confidence":-1},{"trial_n":89,"span":5,"encoder":"90990","distractor":"90994","target":"absent","response":"absent","rt":"454.5","correct":true,"confidence":-1},{"trial_n":90,"span":5,"encoder":"21897","distractor":"21857","target":"present","response":"present","rt":"2985.4000000358","correct":true,"confidence":-1},{"trial_n":91,"span":6,"encoder":"870371","distractor":"870331","target":"absent","response":"absent","rt":"1557.1000000238","correct":true,"confidence":5},{"trial_n":92,"span":6,"encoder":"015547","distractor":"015447","target":"present","response":"present","rt":"4449.7999999523","correct":true,"confidence":5},{"trial_n":93,"span":7,"encoder":"4430057","distractor":"4430857","target":"present","response":"present","rt":"1696.6999999881","correct":true,"confidence":5},{"trial_n":94,"span":7,"encoder":"2544911","distractor":"2544951","target":"present","response":"present","rt":"1826.8999999762","correct":true,"confidence":5},{"trial_n":95,"span":8,"encoder":"80083926","distractor":"80083976","target":"present","response":"absent","rt":"1548.9000000358","correct":false,"confidence":5},{"trial_n":96,"span":7,"encoder":"1496828","distractor":"1496825","target":"absent","response":"absent","rt":"2287.2999999523","correct":true,"confidence":5},{"trial_n":97,"span":7,"encoder":"7765261","distractor":"7760261","target":"present","response":"absent","rt":"2912.3000000119","correct":false,"confidence":5},{"trial_n":98,"span":6,"encoder":"753921","distractor":"703921","target":"absent","response":"present","rt":"5599.6999999881","correct":false,"confidence":1},{"trial_n":99,"span":5,"encoder":"87956","distractor":"87916","target":"absent","response":"absent","rt":"2655.9000000358","correct":true,"confidence":2},{"trial_n":100,"span":5,"encoder":"32341","distractor":"22341","target":"absent","response":"absent","rt":"1658.5","correct":true,"confidence":1},{"trial_n":101,"span":6,"encoder":"647606","distractor":"641606","target":"present","response":"absent","rt":"2583","correct":false,"confidence":2},{"trial_n":102,"span":5,"encoder":"57905","distractor":"56905","target":"present","response":"present","rt":"3420","correct":true,"confidence":5},{"trial_n":103,"span":5,"encoder":"10026","distractor":"10024","target":"absent","response":"absent","rt":"1618.6000000238","correct":true,"confidence":5},{"trial_n":104,"span":6,"encoder":"178866","distractor":"175866","target":"present","response":"present","rt":"3049.6999999881","correct":true,"confidence":5},{"trial_n":105,"span":6,"encoder":"757617","distractor":"757917","target":"present","response":"absent","rt":"1889","correct":false,"confidence":2},{"trial_n":106,"span":5,"encoder":"27789","distractor":"27780","target":"present","response":"present","rt":"1594.1000000238","correct":true,"confidence":5},{"trial_n":107,"span":5,"encoder":"42061","distractor":"42011","target":"present","response":"present","rt":"1782.8999999762","correct":true,"confidence":5},{"trial_n":108,"span":6,"encoder":"351463","distractor":"351469","target":"present","response":"present","rt":"2094.3999999762","correct":true,"confidence":5},{"trial_n":109,"span":6,"encoder":"506073","distractor":"506573","target":"absent","response":"absent","rt":"4465.1000000238","correct":true,"confidence":5},{"trial_n":110,"span":7,"encoder":"8653886","distractor":"8623886","target":"absent","response":"absent","rt":"5533.6000000238","correct":true,"confidence":5},{"trial_n":111,"span":7,"encoder":"1493566","distractor":"1493546","target":"present","response":"present","rt":"1622.3000000119","correct":true,"confidence":5},{"trial_n":112,"span":8,"encoder":"71476479","distractor":"71474479","target":"absent","response":"absent","rt":"4565.1000000238","correct":true,"confidence":5},{"trial_n":113,"span":8,"encoder":"24134635","distractor":"34134635","target":"absent","response":"absent","rt":"2253.2999999523","correct":true,"confidence":5},{"trial_n":114,"span":9,"encoder":"225774216","distractor":"225274216","target":"absent","response":"present","rt":"2371.8000000119","correct":false,"confidence":2},{"trial_n":115,"span":8,"encoder":"33755110","distractor":"38755110","target":"absent","response":"absent","rt":"5613.9000000358","correct":true,"confidence":3},{"trial_n":116,"span":8,"encoder":"41226711","distractor":"41826711","target":"present","response":"present","rt":"2165.5","correct":true,"confidence":1},{"trial_n":117,"span":9,"encoder":"042483331","distractor":"044483331","target":"present","response":"present","rt":"2754.5999999642","correct":true,"confidence":2},{"trial_n":118,"span":9,"encoder":"068286122","distractor":"069286122","target":"absent","response":"absent","rt":"3852.6999999881","correct":true,"confidence":4},{"trial_n":119,"span":10,"encoder":"0902612700","distractor":"0902612750","target":"present","response":"present","rt":"1719.3999999762","correct":true,"confidence":5},{"trial_n":120,"span":10,"encoder":"8168400524","distractor":"8169400524","target":"present","response":"absent","rt":"3819.0999999642","correct":false,"confidence":4},{"trial_n":121,"span":9,"encoder":"176478342","distractor":"176478442","target":"present","response":"present","rt":"2810.4000000358","correct":true,"confidence":5},{"trial_n":122,"span":9,"encoder":"484560500","distractor":"184560500","target":"absent","response":"absent","rt":"2425.3000000119","correct":true,"confidence":5},{"trial_n":123,"span":10,"encoder":"6810173481","distractor":"6810173484","target":"absent","response":"absent","rt":"3986","correct":true,"confidence":1},{"trial_n":124,"span":10,"encoder":"3794462069","distractor":"8794462069","target":"present","response":"present","rt":"2444.2000000477","correct":true,"confidence":5},{"trial_n":125,"span":11,"encoder":"60896057733","distractor":"60896057233","target":"absent","response":"absent","rt":"1902.8000000119","correct":true,"confidence":1},{"trial_n":126,"span":11,"encoder":"52429136373","distractor":"52429336373","target":"present","response":"present","rt":"3230.3000000119","correct":true,"confidence":1},{"trial_n":127,"span":12,"encoder":"102032816095","distractor":"102032818095","target":"absent","response":"absent","rt":"4009.8000000119","correct":true,"confidence":5},{"trial_n":128,"span":12,"encoder":"913077468971","distractor":"913077468976","target":"absent","response":"absent","rt":"1514.1000000238","correct":true,"confidence":5},{"trial_n":129,"span":13,"encoder":"1562643237304","distractor":"4562643237304","target":"present","response":"present","rt":"2670.5999999642","correct":true,"confidence":2},{"trial_n":130,"span":13,"encoder":"9113512166699","distractor":"9613512166699","target":"present","response":"absent","rt":"2387.7000000477","correct":false,"confidence":3},{"trial_n":131,"span":12,"encoder":"470724948238","distractor":"470724949238","target":"absent","response":"absent","rt":"4649.1000000238","correct":true,"confidence":1},{"trial_n":132,"span":12,"encoder":"094203170152","distractor":"094203176152","target":"absent","response":"absent","rt":"6221.2000000477","correct":true,"confidence":1},{"trial_n":133,"span":13,"encoder":"9906781066549","distractor":"9906781066541","target":"absent","response":"absent","rt":"2610.1000000238","correct":true,"confidence":5},{"trial_n":134,"span":13,"encoder":"9169203015322","distractor":"9129203015322","target":"absent","response":"present","rt":"2835.0999999642","correct":false,"confidence":3},{"trial_n":135,"span":12,"encoder":"360664253577","distractor":"360964253577","target":"absent","response":"present","rt":"3482.5","correct":false,"confidence":1},{"trial_n":136,"span":11,"encoder":"61360785514","distractor":"61350785514","target":"absent","response":"present","rt":"3770","correct":false,"confidence":1},{"trial_n":137,"span":10,"encoder":"4647543848","distractor":"4647943848","target":"present","response":"absent","rt":"3281.4000000358","correct":false,"confidence":3},{"trial_n":138,"span":9,"encoder":"404288222","distractor":"404288232","target":"absent","response":"absent","rt":"1482.3000000119","correct":true,"confidence":5},{"trial_n":139,"span":9,"encoder":"151445145","distractor":"181445145","target":"present","response":"present","rt":"1921.5","correct":true,"confidence":3},{"trial_n":140,"span":10,"encoder":"8485592740","distractor":"8485592720","target":"present","response":"present","rt":"1773.1999999881","correct":true,"confidence":5}]