[{"trial_n":1,"n_dots":4.25,"target":"right","response":"left","rt":4141.8000000119,"correct":false,"confidence":-1},{"trial_n":2,"n_dots":4.25,"target":"right","response":"right","rt":442.39999997616,"correct":true,"confidence":-1},{"trial_n":3,"n_dots":4.25,"target":"left","response":"left","rt":331,"correct":true,"confidence":-1},{"trial_n":4,"n_dots":3.85,"target":"left","response":"left","rt":307.80000001192,"correct":true,"confidence":-1},{"trial_n":5,"n_dots":3.85,"target":"left","response":"right","rt":102.5,"correct":false,"confidence":-1},{"trial_n":6,"n_dots":4.25,"target":"left","response":"left","rt":191.5,"correct":true,"confidence":-1},{"trial_n":7,"n_dots":4.25,"target":"left","response":"left","rt":5.6999999880791,"correct":true,"confidence":-1},{"trial_n":8,"n_dots":4.05,"target":"left","response":"left","rt":60.199999988079,"correct":true,"confidence":-1},{"trial_n":9,"n_dots":4.05,"target":"left","response":"left","rt":395.80000001192,"correct":true,"confidence":-1},{"trial_n":10,"n_dots":3.85,"target":"right","response":"right","rt":282,"correct":true,"confidence":-1},{"trial_n":11,"n_dots":3.85,"target":"left","response":"left","rt":1370.3000000119,"correct":true,"confidence":-1},{"trial_n":12,"n_dots":3.65,"target":"right","response":"right","rt":532.89999997616,"correct":true,"confidence":-1},{"trial_n":13,"n_dots":3.65,"target":"left","response":"left","rt":327.30000001192,"correct":true,"confidence":-1},{"trial_n":14,"n_dots":3.55,"target":"left","response":"left","rt":326.20000004768,"correct":true,"confidence":-1},{"trial_n":15,"n_dots":3.55,"target":"right","response":"right","rt":275.09999996424,"correct":true,"confidence":-1},{"trial_n":16,"n_dots":3.45,"target":"right","response":"right","rt":330.09999996424,"correct":true,"confidence":-1},{"trial_n":17,"n_dots":3.45,"target":"right","response":"right","rt":257.70000004768,"correct":true,"confidence":-1},{"trial_n":18,"n_dots":3.35,"target":"right","response":"left","rt":399.90000003576,"correct":false,"confidence":-1},{"trial_n":19,"n_dots":3.45,"target":"right","response":"right","rt":242.19999998808,"correct":true,"confidence":-1},{"trial_n":20,"n_dots":3.45,"target":"right","response":"right","rt":672.19999998808,"correct":true,"confidence":-1},{"trial_n":21,"n_dots":3.35,"target":"right","response":"right","rt":279.40000003576,"correct":true,"confidence":4},{"trial_n":22,"n_dots":3.35,"target":"left","response":"left","rt":244.10000002384,"correct":true,"confidence":3},{"trial_n":23,"n_dots":3.25,"target":"right","response":"right","rt":381.89999997616,"correct":true,"confidence":3},{"trial_n":24,"n_dots":3.25,"target":"left","response":"left","rt":273.80000001192,"correct":true,"confidence":3},{"trial_n":25,"n_dots":3.15,"target":"right","response":"right","rt":604.40000003576,"correct":true,"confidence":4},{"trial_n":26,"n_dots":3.15,"target":"right","response":"right","rt":63.300000011921,"correct":true,"confidence":4},{"trial_n":27,"n_dots":3.05,"target":"right","response":"right","rt":301,"correct":true,"confidence":5},{"trial_n":28,"n_dots":3.05,"target":"right","response":"right","rt":196.5,"correct":true,"confidence":5},{"trial_n":29,"n_dots":2.95,"target":"right","response":"left","rt":274.90000003576,"correct":false,"confidence":2},{"trial_n":30,"n_dots":3.05,"target":"right","response":"right","rt":234,"correct":true,"confidence":3},{"trial_n":31,"n_dots":3.05,"target":"right","response":"right","rt":355.69999998808,"correct":true,"confidence":3},{"trial_n":32,"n_dots":2.95,"target":"left","response":"left","rt":1009.3000000119,"correct":true,"confidence":1},{"trial_n":33,"n_dots":2.95,"target":"left","response":"left","rt":315.69999998808,"correct":true,"confidence":3},{"trial_n":34,"n_dots":2.85,"target":"right","response":"right","rt":76.100000023842,"correct":true,"confidence":3},{"trial_n":35,"n_dots":2.85,"target":"right","response":"right","rt":207.5,"correct":true,"confidence":3},{"trial_n":36,"n_dots":2.75,"target":"left","response":"right","rt":260.60000002384,"correct":false,"confidence":3},{"trial_n":37,"n_dots":2.85,"target":"right","response":"right","rt":299.10000002384,"correct":true,"confidence":3},{"trial_n":38,"n_dots":2.85,"target":"right","response":"left","rt":656.5,"correct":false,"confidence":1},{"trial_n":39,"n_dots":2.95,"target":"left","response":"left","rt":427.30000001192,"correct":true,"confidence":1},{"trial_n":40,"n_dots":2.95,"target":"left","response":"left","rt":399.89999997616,"correct":true,"confidence":2},{"trial_n":41,"n_dots":2.85,"target":"right","response":"right","rt":190.29999995232,"correct":true,"confidence":3},{"trial_n":42,"n_dots":2.85,"target":"right","response":"left","rt":428.39999997616,"correct":false,"confidence":1},{"trial_n":43,"n_dots":2.95,"target":"right","response":"left","rt":340.30000001192,"correct":false,"confidence":2},{"trial_n":44,"n_dots":3.05,"target":"left","response":"left","rt":266.69999998808,"correct":true,"confidence":2},{"trial_n":45,"n_dots":3.05,"target":"right","response":"right","rt":171.19999998808,"correct":true,"confidence":3},{"trial_n":46,"n_dots":2.95,"target":"left","response":"right","rt":265,"correct":false,"confidence":2},{"trial_n":47,"n_dots":3.05,"target":"left","response":"left","rt":264.80000001192,"correct":true,"confidence":2},{"trial_n":48,"n_dots":3.05,"target":"right","response":"left","rt":359.89999997616,"correct":false,"confidence":3},{"trial_n":49,"n_dots":3.15,"target":"left","response":"left","rt":263.5,"correct":true,"confidence":3},{"trial_n":50,"n_dots":3.15,"target":"right","response":"right","rt":418,"correct":true,"confidence":1},{"trial_n":51,"n_dots":3.05,"target":"right","response":"right","rt":294.59999996424,"correct":true,"confidence":2},{"trial_n":52,"n_dots":3.05,"target":"right","response":"right","rt":301.5,"correct":true,"confidence":1},{"trial_n":53,"n_dots":2.95,"target":"left","response":"right","rt":395.39999997616,"correct":false,"confidence":1},{"trial_n":54,"n_dots":3.05,"target":"left","response":"right","rt":452.69999998808,"correct":false,"confidence":1},{"trial_n":55,"n_dots":3.15,"target":"left","response":"left","rt":340.79999995232,"correct":true,"confidence":2},{"trial_n":56,"n_dots":3.15,"target":"right","response":"left","rt":190.19999998808,"correct":false,"confidence":1},{"trial_n":57,"n_dots":3.25,"target":"left","response":"left","rt":519.5,"correct":true,"confidence":3},{"trial_n":58,"n_dots":3.25,"target":"left","response":"left","rt":359.80000001192,"correct":true,"confidence":1},{"trial_n":59,"n_dots":3.15,"target":"left","response":"left","rt":317.40000003576,"correct":true,"confidence":2},{"trial_n":60,"n_dots":3.15,"target":"left","response":"right","rt":524.69999998808,"correct":false,"confidence":1},{"trial_n":61,"n_dots":3.25,"target":"right","response":"right","rt":271.39999997616,"correct":true,"confidence":3},{"trial_n":62,"n_dots":3.25,"target":"left","response":"left","rt":294,"correct":true,"confidence":4},{"trial_n":63,"n_dots":3.15,"target":"left","response":"left","rt":395.90000003576,"correct":true,"confidence":2},{"trial_n":64,"n_dots":3.15,"target":"left","response":"left","rt":320.69999998808,"correct":true,"confidence":1},{"trial_n":65,"n_dots":3.05,"target":"left","response":"left","rt":353.5,"correct":true,"confidence":1},{"trial_n":66,"n_dots":3.05,"target":"left","response":"left","rt":319.39999997616,"correct":true,"confidence":1},{"trial_n":67,"n_dots":2.95,"target":"right","response":"right","rt":350.20000004768,"correct":true,"confidence":3},{"trial_n":68,"n_dots":2.95,"target":"left","response":"right","rt":302.59999996424,"correct":false,"confidence":2},{"trial_n":69,"n_dots":3.05,"target":"left","response":"left","rt":464.19999998808,"correct":true,"confidence":1},{"trial_n":70,"n_dots":3.05,"target":"left","response":"right","rt":524.89999997616,"correct":false,"confidence":1},{"trial_n":71,"n_dots":3.15,"target":"left","response":"right","rt":431.80000001192,"correct":false,"confidence":1},{"trial_n":72,"n_dots":3.25,"target":"left","response":"left","rt":280.5,"correct":true,"confidence":1},{"trial_n":73,"n_dots":3.25,"target":"right","response":"left","rt":320.90000003576,"correct":false,"confidence":1},{"trial_n":74,"n_dots":3.35,"target":"right","response":"left","rt":304.09999996424,"correct":false,"confidence":1},{"trial_n":75,"n_dots":3.45,"target":"left","response":"left","rt":291.10000002384,"correct":true,"confidence":2},{"trial_n":76,"n_dots":3.45,"target":"right","response":"right","rt":319.80000001192,"correct":true,"confidence":3},{"trial_n":77,"n_dots":3.35,"target":"right","response":"right","rt":473.30000001192,"correct":true,"confidence":1},{"trial_n":78,"n_dots":3.35,"target":"right","response":"right","rt":299.80000001192,"correct":true,"confidence":1},{"trial_n":79,"n_dots":3.25,"target":"left","response":"left","rt":16.099999964237,"correct":true,"confidence":1},{"trial_n":80,"n_dots":3.25,"target":"right","response":"right","rt":487.69999998808,"correct":true,"confidence":1},{"trial_n":81,"n_dots":3.15,"target":"right","response":"right","rt":313.19999998808,"correct":true,"confidence":1},{"trial_n":82,"n_dots":3.15,"target":"right","response":"right","rt":281.80000001192,"correct":true,"confidence":3},{"trial_n":83,"n_dots":3.05,"target":"right","response":"right","rt":320.59999996424,"correct":true,"confidence":2},{"trial_n":84,"n_dots":3.05,"target":"right","response":"right","rt":347,"correct":true,"confidence":4},{"trial_n":85,"n_dots":2.95,"target":"left","response":"right","rt":284.90000003576,"correct":false,"confidence":3},{"trial_n":86,"n_dots":3.05,"target":"left","response":"right","rt":286,"correct":false,"confidence":3},{"trial_n":87,"n_dots":3.15,"target":"left","response":"right","rt":761,"correct":false,"confidence":1},{"trial_n":88,"n_dots":3.25,"target":"right","response":"left","rt":751.40000003576,"correct":false,"confidence":1},{"trial_n":89,"n_dots":3.35,"target":"left","response":"left","rt":288.60000002384,"correct":true,"confidence":2},{"trial_n":90,"n_dots":3.35,"target":"left","response":"right","rt":425.29999995232,"correct":false,"confidence":3},{"trial_n":91,"n_dots":3.45,"target":"right","response":"right","rt":270.39999997616,"correct":true,"confidence":3},{"trial_n":92,"n_dots":3.45,"target":"left","response":"left","rt":316.29999995232,"correct":true,"confidence":3},{"trial_n":93,"n_dots":3.35,"target":"left","response":"left","rt":327.5,"correct":true,"confidence":3},{"trial_n":94,"n_dots":3.35,"target":"right","response":"right","rt":300.60000002384,"correct":true,"confidence":2},{"trial_n":95,"n_dots":3.25,"target":"right","response":"right","rt":167.30000001192,"correct":true,"confidence":3},{"trial_n":96,"n_dots":3.25,"target":"left","response":"left","rt":197,"correct":true,"confidence":2},{"trial_n":97,"n_dots":3.15,"target":"left","response":"left","rt":323.80000001192,"correct":true,"confidence":3},{"trial_n":98,"n_dots":3.15,"target":"right","response":"right","rt":241.5,"correct":true,"confidence":4},{"trial_n":99,"n_dots":3.05,"target":"right","response":"right","rt":338.5,"correct":true,"confidence":3},{"trial_n":100,"n_dots":3.05,"target":"left","response":"left","rt":331.19999998808,"correct":true,"confidence":2},{"trial_n":101,"n_dots":2.95,"target":"right","response":"right","rt":359.69999998808,"correct":true,"confidence":2},{"trial_n":102,"n_dots":2.95,"target":"right","response":"right","rt":250.70000004768,"correct":true,"confidence":2},{"trial_n":103,"n_dots":2.85,"target":"left","response":"left","rt":58.5,"correct":true,"confidence":2},{"trial_n":104,"n_dots":2.85,"target":"left","response":"left","rt":352.80000001192,"correct":true,"confidence":1},{"trial_n":105,"n_dots":2.75,"target":"right","response":"right","rt":293.60000002384,"correct":true,"confidence":3},{"trial_n":106,"n_dots":2.75,"target":"right","response":"right","rt":280.89999997616,"correct":true,"confidence":3},{"trial_n":107,"n_dots":2.65,"target":"right","response":"left","rt":330.5,"correct":false,"confidence":3},{"trial_n":108,"n_dots":2.75,"target":"left","response":"right","rt":373.39999997616,"correct":false,"confidence":2},{"trial_n":109,"n_dots":2.85,"target":"left","response":"left","rt":504.20000004768,"correct":true,"confidence":1},{"trial_n":110,"n_dots":2.85,"target":"right","response":"right","rt":354.5,"correct":true,"confidence":1},{"trial_n":111,"n_dots":2.75,"target":"right","response":"right","rt":337.60000002384,"correct":true,"confidence":1},{"trial_n":112,"n_dots":2.75,"target":"left","response":"right","rt":433.89999997616,"correct":false,"confidence":1},{"trial_n":113,"n_dots":2.85,"target":"left","response":"left","rt":420.10000002384,"correct":true,"confidence":1},{"trial_n":114,"n_dots":2.85,"target":"right","response":"right","rt":277.89999997616,"correct":true,"confidence":1},{"trial_n":115,"n_dots":2.75,"target":"left","response":"left","rt":428,"correct":true,"confidence":1},{"trial_n":116,"n_dots":2.75,"target":"left","response":"left","rt":394.10000002384,"correct":true,"confidence":1},{"trial_n":117,"n_dots":2.65,"target":"left","response":"right","rt":290.30000001192,"correct":false,"confidence":2},{"trial_n":118,"n_dots":2.75,"target":"left","response":"left","rt":277.5,"correct":true,"confidence":2},{"trial_n":119,"n_dots":2.75,"target":"right","response":"right","rt":254.5,"correct":true,"confidence":3},{"trial_n":120,"n_dots":2.65,"target":"right","response":"right","rt":262.70000004768,"correct":true,"confidence":4}]