[{"trial_n":1,"n_dots":4.25,"target":"left","response":"right","rt":3373,"correct":false,"confidence":-1},{"trial_n":2,"n_dots":4.25,"target":"right","response":"left","rt":1864.5999999046,"correct":false,"confidence":-1},{"trial_n":3,"n_dots":4.65,"target":"left","response":"left","rt":702.80000019073,"correct":true,"confidence":-1},{"trial_n":4,"n_dots":4.65,"target":"right","response":"right","rt":634.30000019073,"correct":true,"confidence":-1},{"trial_n":5,"n_dots":4.25,"target":"right","response":"right","rt":450,"correct":true,"confidence":-1},{"trial_n":6,"n_dots":4.25,"target":"right","response":"right","rt":392.7000002861,"correct":true,"confidence":-1},{"trial_n":7,"n_dots":3.85,"target":"right","response":"left","rt":534.2999997139,"correct":false,"confidence":-1},{"trial_n":8,"n_dots":4.05,"target":"right","response":"right","rt":363.5,"correct":true,"confidence":-1},{"trial_n":9,"n_dots":4.05,"target":"left","response":"left","rt":616.2000002861,"correct":true,"confidence":-1},{"trial_n":10,"n_dots":3.85,"target":"right","response":"right","rt":488.5,"correct":true,"confidence":-1},{"trial_n":11,"n_dots":3.85,"target":"left","response":"right","rt":1412.8000001907,"correct":false,"confidence":-1},{"trial_n":12,"n_dots":4.05,"target":"right","response":"left","rt":636.19999980927,"correct":false,"confidence":-1},{"trial_n":13,"n_dots":4.15,"target":"right","response":"right","rt":341.30000019073,"correct":true,"confidence":-1},{"trial_n":14,"n_dots":4.15,"target":"right","response":"right","rt":324.7000002861,"correct":true,"confidence":-1},{"trial_n":15,"n_dots":4.05,"target":"left","response":"left","rt":133.09999990463,"correct":true,"confidence":-1},{"trial_n":16,"n_dots":4.05,"target":"left","response":"left","rt":251.7000002861,"correct":true,"confidence":-1},{"trial_n":17,"n_dots":3.95,"target":"left","response":"left","rt":266.09999990463,"correct":true,"confidence":-1},{"trial_n":18,"n_dots":3.95,"target":"right","response":"right","rt":416.90000009537,"correct":true,"confidence":-1},{"trial_n":19,"n_dots":3.85,"target":"left","response":"left","rt":562.5,"correct":true,"confidence":-1},{"trial_n":20,"n_dots":3.85,"target":"left","response":"left","rt":390.09999990463,"correct":true,"confidence":-1},{"trial_n":21,"n_dots":3.75,"target":"left","response":"left","rt":238.59999990463,"correct":true,"confidence":2},{"trial_n":22,"n_dots":3.75,"target":"left","response":"left","rt":472.09999990463,"correct":true,"confidence":4},{"trial_n":23,"n_dots":3.65,"target":"left","response":"left","rt":452.59999990463,"correct":true,"confidence":4},{"trial_n":24,"n_dots":3.65,"target":"right","response":"left","rt":1624.2000002861,"correct":false,"confidence":3},{"trial_n":25,"n_dots":3.75,"target":"left","response":"left","rt":728.90000009537,"correct":true,"confidence":2},{"trial_n":26,"n_dots":3.75,"target":"left","response":"left","rt":1051.4000000954,"correct":true,"confidence":2},{"trial_n":27,"n_dots":3.65,"target":"left","response":"left","rt":842.2000002861,"correct":true,"confidence":2},{"trial_n":28,"n_dots":3.65,"target":"left","response":"left","rt":932.09999990463,"correct":true,"confidence":2},{"trial_n":29,"n_dots":3.55,"target":"left","response":"left","rt":495.59999990463,"correct":true,"confidence":2},{"trial_n":30,"n_dots":3.55,"target":"right","response":"right","rt":1090.3000001907,"correct":true,"confidence":2},{"trial_n":31,"n_dots":3.45,"target":"left","response":"left","rt":756,"correct":true,"confidence":2},{"trial_n":32,"n_dots":3.45,"target":"right","response":"right","rt":1194.6999998093,"correct":true,"confidence":2},{"trial_n":33,"n_dots":3.35,"target":"left","response":"left","rt":564.09999990463,"correct":true,"confidence":2},{"trial_n":34,"n_dots":3.35,"target":"right","response":"right","rt":1178.5,"correct":true,"confidence":3},{"trial_n":35,"n_dots":3.25,"target":"right","response":"right","rt":1285.6999998093,"correct":true,"confidence":3},{"trial_n":36,"n_dots":3.25,"target":"left","response":"left","rt":2681.4000000954,"correct":true,"confidence":2},{"trial_n":37,"n_dots":3.15,"target":"left","response":"left","rt":2273.9000000954,"correct":true,"confidence":2},{"trial_n":38,"n_dots":3.15,"target":"left","response":"right","rt":1537.9000000954,"correct":false,"confidence":1},{"trial_n":39,"n_dots":3.25,"target":"left","response":"left","rt":1068.3000001907,"correct":true,"confidence":2},{"trial_n":40,"n_dots":3.25,"target":"right","response":"right","rt":1130.3999996185,"correct":true,"confidence":2},{"trial_n":41,"n_dots":3.15,"target":"right","response":"right","rt":870.30000019073,"correct":true,"confidence":3},{"trial_n":42,"n_dots":3.15,"target":"left","response":"right","rt":1129.4000000954,"correct":false,"confidence":3},{"trial_n":43,"n_dots":3.25,"target":"right","response":"left","rt":2964,"correct":false,"confidence":2},{"trial_n":44,"n_dots":3.35,"target":"right","response":"right","rt":1386.5999999046,"correct":true,"confidence":2},{"trial_n":45,"n_dots":3.35,"target":"right","response":"left","rt":1749.1000003815,"correct":false,"confidence":1},{"trial_n":46,"n_dots":3.45,"target":"left","response":"left","rt":1562.5,"correct":true,"confidence":1},{"trial_n":47,"n_dots":3.45,"target":"right","response":"right","rt":679.5,"correct":true,"confidence":3},{"trial_n":48,"n_dots":3.35,"target":"left","response":"left","rt":1173.2999997139,"correct":true,"confidence":2},{"trial_n":49,"n_dots":3.35,"target":"left","response":"left","rt":2086.2000002861,"correct":true,"confidence":2},{"trial_n":50,"n_dots":3.25,"target":"left","response":"right","rt":3213.4000000954,"correct":false,"confidence":1},{"trial_n":51,"n_dots":3.35,"target":"right","response":"left","rt":1821.3000001907,"correct":false,"confidence":2},{"trial_n":52,"n_dots":3.45,"target":"right","response":"right","rt":837.80000019073,"correct":true,"confidence":1},{"trial_n":53,"n_dots":3.45,"target":"right","response":"right","rt":799.80000019073,"correct":true,"confidence":3},{"trial_n":54,"n_dots":3.35,"target":"left","response":"left","rt":2434.5999999046,"correct":true,"confidence":4},{"trial_n":55,"n_dots":3.35,"target":"left","response":"left","rt":1357.2000002861,"correct":true,"confidence":3},{"trial_n":56,"n_dots":3.25,"target":"right","response":"left","rt":1643.3000001907,"correct":false,"confidence":2},{"trial_n":57,"n_dots":3.35,"target":"right","response":"right","rt":1018.5,"correct":true,"confidence":3},{"trial_n":58,"n_dots":3.35,"target":"right","response":"left","rt":1488.1999998093,"correct":false,"confidence":1},{"trial_n":59,"n_dots":3.45,"target":"left","response":"left","rt":1042.9000000954,"correct":true,"confidence":2},{"trial_n":60,"n_dots":3.45,"target":"left","response":"left","rt":1244.5,"correct":true,"confidence":3},{"trial_n":61,"n_dots":3.35,"target":"right","response":"right","rt":1035.4000000954,"correct":true,"confidence":4},{"trial_n":62,"n_dots":3.35,"target":"left","response":"left","rt":1163.0999999046,"correct":true,"confidence":4},{"trial_n":63,"n_dots":3.25,"target":"right","response":"right","rt":1210.3000001907,"correct":true,"confidence":3},{"trial_n":64,"n_dots":3.25,"target":"left","response":"left","rt":1164.9000000954,"correct":true,"confidence":2},{"trial_n":65,"n_dots":3.15,"target":"right","response":"right","rt":1099.8000001907,"correct":true,"confidence":2},{"trial_n":66,"n_dots":3.15,"target":"left","response":"left","rt":1485.5,"correct":true,"confidence":2},{"trial_n":67,"n_dots":3.05,"target":"right","response":"right","rt":1173.0999999046,"correct":true,"confidence":2},{"trial_n":68,"n_dots":3.05,"target":"left","response":"left","rt":2125.8000001907,"correct":true,"confidence":2},{"trial_n":69,"n_dots":2.95,"target":"left","response":"left","rt":2549.4000000954,"correct":true,"confidence":2},{"trial_n":70,"n_dots":2.95,"target":"left","response":"left","rt":1088.7999997139,"correct":true,"confidence":3},{"trial_n":71,"n_dots":2.85,"target":"left","response":"left","rt":1073.5999999046,"correct":true,"confidence":4},{"trial_n":72,"n_dots":2.85,"target":"left","response":"left","rt":1910.0999999046,"correct":true,"confidence":3},{"trial_n":73,"n_dots":2.75,"target":"left","response":"right","rt":1042.5999999046,"correct":false,"confidence":1},{"trial_n":74,"n_dots":2.85,"target":"left","response":"left","rt":1017.5999999046,"correct":true,"confidence":1},{"trial_n":75,"n_dots":2.85,"target":"right","response":"right","rt":873.90000009537,"correct":true,"confidence":2},{"trial_n":76,"n_dots":2.75,"target":"right","response":"right","rt":2273.7000002861,"correct":true,"confidence":1},{"trial_n":77,"n_dots":2.75,"target":"right","response":"left","rt":2616.5999999046,"correct":false,"confidence":1},{"trial_n":78,"n_dots":2.85,"target":"right","response":"right","rt":906.80000019073,"correct":true,"confidence":2},{"trial_n":79,"n_dots":2.85,"target":"right","response":"right","rt":529.5,"correct":true,"confidence":1},{"trial_n":80,"n_dots":2.75,"target":"left","response":"left","rt":2022.3000001907,"correct":true,"confidence":1},{"trial_n":81,"n_dots":2.75,"target":"right","response":"right","rt":936.5,"correct":true,"confidence":3},{"trial_n":82,"n_dots":2.65,"target":"left","response":"right","rt":1322.3000001907,"correct":false,"confidence":1},{"trial_n":83,"n_dots":2.75,"target":"left","response":"left","rt":613.59999990463,"correct":true,"confidence":2},{"trial_n":84,"n_dots":2.75,"target":"left","response":"left","rt":335.59999990463,"correct":true,"confidence":1},{"trial_n":85,"n_dots":2.65,"target":"right","response":"left","rt":2261.8000001907,"correct":false,"confidence":2},{"trial_n":86,"n_dots":2.75,"target":"right","response":"left","rt":513.5,"correct":false,"confidence":3},{"trial_n":87,"n_dots":2.85,"target":"right","response":"left","rt":340.5,"correct":false,"confidence":2},{"trial_n":88,"n_dots":2.95,"target":"right","response":"right","rt":640.7000002861,"correct":true,"confidence":2},{"trial_n":89,"n_dots":2.95,"target":"left","response":"left","rt":410.59999990463,"correct":true,"confidence":2},{"trial_n":90,"n_dots":2.85,"target":"left","response":"left","rt":54,"correct":true,"confidence":3},{"trial_n":91,"n_dots":2.85,"target":"left","response":"left","rt":1131.4000000954,"correct":true,"confidence":2},{"trial_n":92,"n_dots":2.75,"target":"left","response":"left","rt":1297.2000002861,"correct":true,"confidence":2},{"trial_n":93,"n_dots":2.75,"target":"right","response":"left","rt":685.90000009537,"correct":false,"confidence":1},{"trial_n":94,"n_dots":2.85,"target":"left","response":"left","rt":1412.5999999046,"correct":true,"confidence":2},{"trial_n":95,"n_dots":2.85,"target":"right","response":"right","rt":607.5,"correct":true,"confidence":2},{"trial_n":96,"n_dots":2.75,"target":"right","response":"left","rt":724,"correct":false,"confidence":1},{"trial_n":97,"n_dots":2.85,"target":"right","response":"right","rt":735.90000009537,"correct":true,"confidence":1},{"trial_n":98,"n_dots":2.85,"target":"left","response":"right","rt":1371.5999999046,"correct":false,"confidence":2},{"trial_n":99,"n_dots":2.95,"target":"left","response":"left","rt":1037.3000001907,"correct":true,"confidence":3},{"trial_n":100,"n_dots":2.95,"target":"right","response":"left","rt":2579.0999999046,"correct":false,"confidence":2},{"trial_n":101,"n_dots":3.05,"target":"right","response":"left","rt":1093.3000001907,"correct":false,"confidence":3},{"trial_n":102,"n_dots":3.15,"target":"left","response":"left","rt":1763.8000001907,"correct":true,"confidence":2},{"trial_n":103,"n_dots":3.15,"target":"right","response":"left","rt":1935.8000001907,"correct":false,"confidence":3},{"trial_n":104,"n_dots":3.25,"target":"right","response":"left","rt":1024.5999999046,"correct":false,"confidence":3},{"trial_n":105,"n_dots":3.35,"target":"right","response":"left","rt":635,"correct":false,"confidence":3},{"trial_n":106,"n_dots":3.45,"target":"left","response":"left","rt":575.80000019073,"correct":true,"confidence":2},{"trial_n":107,"n_dots":3.45,"target":"right","response":"right","rt":535.5,"correct":true,"confidence":3},{"trial_n":108,"n_dots":3.35,"target":"right","response":"right","rt":278.09999990463,"correct":true,"confidence":4},{"trial_n":109,"n_dots":3.35,"target":"left","response":"left","rt":938.30000019073,"correct":true,"confidence":2},{"trial_n":110,"n_dots":3.25,"target":"right","response":"left","rt":1117.5999999046,"correct":false,"confidence":2},{"trial_n":111,"n_dots":3.35,"target":"right","response":"right","rt":277.40000009537,"correct":true,"confidence":2},{"trial_n":112,"n_dots":3.35,"target":"left","response":"left","rt":870.2999997139,"correct":true,"confidence":4},{"trial_n":113,"n_dots":3.25,"target":"right","response":"right","rt":568.90000009537,"correct":true,"confidence":2},{"trial_n":114,"n_dots":3.25,"target":"right","response":"right","rt":1854.5,"correct":true,"confidence":3},{"trial_n":115,"n_dots":3.15,"target":"right","response":"right","rt":361.7000002861,"correct":true,"confidence":4},{"trial_n":116,"n_dots":3.15,"target":"left","response":"left","rt":735.19999980927,"correct":true,"confidence":4},{"trial_n":117,"n_dots":3.05,"target":"left","response":"right","rt":883.80000019073,"correct":false,"confidence":1},{"trial_n":118,"n_dots":3.15,"target":"right","response":"left","rt":1402.3000001907,"correct":false,"confidence":1},{"trial_n":119,"n_dots":3.25,"target":"right","response":"right","rt":560.30000019073,"correct":true,"confidence":3},{"trial_n":120,"n_dots":3.25,"target":"left","response":"left","rt":1025,"correct":true,"confidence":2}]