[{"trial_n":1,"min":25,"max":230,"target":"present","response":"present","rt":6819,"correct":true,"confidence":-1},{"trial_n":2,"min":25,"max":230,"target":"present","response":"present","rt":3392.3000000119,"correct":true,"confidence":-1},{"trial_n":3,"min":41,"max":214,"target":"absent","response":"absent","rt":1268.8000000119,"correct":true,"confidence":-1},{"trial_n":4,"min":41,"max":214,"target":"absent","response":"absent","rt":503.19999998808,"correct":true,"confidence":-1},{"trial_n":5,"min":57,"max":198,"target":"present","response":"present","rt":753.79999995232,"correct":true,"confidence":-1},{"trial_n":6,"min":57,"max":198,"target":"present","response":"present","rt":448.90000003576,"correct":true,"confidence":-1},{"trial_n":7,"min":73,"max":182,"target":"present","response":"present","rt":694.20000004768,"correct":true,"confidence":-1},{"trial_n":8,"min":73,"max":182,"target":"absent","response":"absent","rt":677.90000003576,"correct":true,"confidence":-1},{"trial_n":9,"min":89,"max":166,"target":"present","response":"absent","rt":542,"correct":false,"confidence":-1},{"trial_n":10,"min":73,"max":182,"target":"absent","response":"absent","rt":535.40000003576,"correct":true,"confidence":-1},{"trial_n":11,"min":73,"max":182,"target":"absent","response":"absent","rt":399.10000002384,"correct":true,"confidence":-1},{"trial_n":12,"min":81,"max":174,"target":"absent","response":"absent","rt":345.89999997616,"correct":true,"confidence":-1},{"trial_n":13,"min":81,"max":174,"target":"present","response":"present","rt":1180.5,"correct":true,"confidence":-1},{"trial_n":14,"min":89,"max":166,"target":"absent","response":"absent","rt":637.20000004768,"correct":true,"confidence":-1},{"trial_n":15,"min":89,"max":166,"target":"absent","response":"absent","rt":984.39999997616,"correct":true,"confidence":-1},{"trial_n":16,"min":97,"max":158,"target":"present","response":"absent","rt":332.30000001192,"correct":false,"confidence":-1},{"trial_n":17,"min":89,"max":166,"target":"present","response":"absent","rt":827,"correct":false,"confidence":-1},{"trial_n":18,"min":81,"max":174,"target":"absent","response":"absent","rt":654.5,"correct":true,"confidence":-1},{"trial_n":19,"min":81,"max":174,"target":"present","response":"present","rt":594.30000001192,"correct":true,"confidence":-1},{"trial_n":20,"min":89,"max":166,"target":"present","response":"absent","rt":319.29999995232,"correct":false,"confidence":-1},{"trial_n":21,"min":85,"max":170,"target":"present","response":"absent","rt":644.70000004768,"correct":false,"confidence":5},{"trial_n":22,"min":81,"max":174,"target":"present","response":"absent","rt":1655.8000000119,"correct":false,"confidence":4},{"trial_n":23,"min":77,"max":178,"target":"present","response":"present","rt":861,"correct":true,"confidence":5},{"trial_n":24,"min":77,"max":178,"target":"present","response":"present","rt":717.80000001192,"correct":true,"confidence":5},{"trial_n":25,"min":81,"max":174,"target":"absent","response":"absent","rt":783.19999998808,"correct":true,"confidence":5},{"trial_n":26,"min":81,"max":174,"target":"present","response":"absent","rt":745,"correct":false,"confidence":5},{"trial_n":27,"min":77,"max":178,"target":"present","response":"present","rt":1042.7000000477,"correct":true,"confidence":1},{"trial_n":28,"min":77,"max":178,"target":"absent","response":"absent","rt":1207.6000000238,"correct":true,"confidence":3},{"trial_n":29,"min":81,"max":174,"target":"present","response":"present","rt":1074.7000000477,"correct":true,"confidence":5},{"trial_n":30,"min":81,"max":174,"target":"present","response":"present","rt":1581.3000000119,"correct":true,"confidence":5},{"trial_n":31,"min":83,"max":172,"target":"present","response":"present","rt":867.69999998808,"correct":true,"confidence":5},{"trial_n":32,"min":83,"max":172,"target":"present","response":"present","rt":656.39999997616,"correct":true,"confidence":5},{"trial_n":33,"min":85,"max":170,"target":"present","response":"present","rt":651,"correct":true,"confidence":5},{"trial_n":34,"min":85,"max":170,"target":"absent","response":"absent","rt":616.69999998808,"correct":true,"confidence":4},{"trial_n":35,"min":87,"max":168,"target":"present","response":"present","rt":777.10000002384,"correct":true,"confidence":5},{"trial_n":36,"min":87,"max":168,"target":"absent","response":"present","rt":715.69999998808,"correct":false,"confidence":5},{"trial_n":37,"min":85,"max":170,"target":"absent","response":"present","rt":885.69999998808,"correct":false,"confidence":4},{"trial_n":38,"min":83,"max":172,"target":"present","response":"present","rt":591,"correct":true,"confidence":5},{"trial_n":39,"min":83,"max":172,"target":"absent","response":"absent","rt":745.39999997616,"correct":true,"confidence":5},{"trial_n":40,"min":85,"max":170,"target":"absent","response":"absent","rt":784.40000003576,"correct":true,"confidence":5},{"trial_n":41,"min":85,"max":170,"target":"present","response":"absent","rt":2283.0999999642,"correct":false,"confidence":5},{"trial_n":42,"min":84,"max":171,"target":"absent","response":"absent","rt":1435.6000000238,"correct":true,"confidence":4},{"trial_n":43,"min":84,"max":171,"target":"absent","response":"absent","rt":1286.5,"correct":true,"confidence":4},{"trial_n":44,"min":85,"max":170,"target":"present","response":"present","rt":1083.0999999642,"correct":true,"confidence":5},{"trial_n":45,"min":85,"max":170,"target":"present","response":"present","rt":1469.6999999881,"correct":true,"confidence":5},{"trial_n":46,"min":86,"max":169,"target":"absent","response":"absent","rt":698.40000003576,"correct":true,"confidence":5},{"trial_n":47,"min":86,"max":169,"target":"absent","response":"absent","rt":719.39999997616,"correct":true,"confidence":4},{"trial_n":48,"min":87,"max":168,"target":"present","response":"absent","rt":862.5,"correct":false,"confidence":3},{"trial_n":49,"min":86,"max":169,"target":"absent","response":"absent","rt":554,"correct":true,"confidence":5},{"trial_n":50,"min":86,"max":169,"target":"absent","response":"absent","rt":1067.6999999881,"correct":true,"confidence":5},{"trial_n":51,"min":87,"max":168,"target":"absent","response":"absent","rt":909.60000002384,"correct":true,"confidence":5},{"trial_n":52,"min":87,"max":168,"target":"absent","response":"absent","rt":671.39999997616,"correct":true,"confidence":5},{"trial_n":53,"min":88,"max":167,"target":"absent","response":"absent","rt":1015.5,"correct":true,"confidence":5},{"trial_n":54,"min":88,"max":167,"target":"present","response":"present","rt":730.70000004768,"correct":true,"confidence":5},{"trial_n":55,"min":89,"max":166,"target":"absent","response":"absent","rt":758.30000001192,"correct":true,"confidence":5},{"trial_n":56,"min":89,"max":166,"target":"present","response":"present","rt":676.89999997616,"correct":true,"confidence":3},{"trial_n":57,"min":90,"max":165,"target":"absent","response":"present","rt":968.09999996424,"correct":false,"confidence":4},{"trial_n":58,"min":89,"max":166,"target":"absent","response":"present","rt":1460.1000000238,"correct":false,"confidence":4},{"trial_n":59,"min":88,"max":167,"target":"present","response":"absent","rt":992.69999998808,"correct":false,"confidence":3},{"trial_n":60,"min":87,"max":168,"target":"absent","response":"present","rt":1544.5999999642,"correct":false,"confidence":5},{"trial_n":61,"min":86,"max":169,"target":"present","response":"absent","rt":890.19999998808,"correct":false,"confidence":4},{"trial_n":62,"min":85,"max":170,"target":"present","response":"present","rt":757.90000003576,"correct":true,"confidence":4},{"trial_n":63,"min":85,"max":170,"target":"present","response":"present","rt":575,"correct":true,"confidence":5},{"trial_n":64,"min":86,"max":169,"target":"present","response":"present","rt":939.89999997616,"correct":true,"confidence":5},{"trial_n":65,"min":86,"max":169,"target":"present","response":"present","rt":1172.4000000358,"correct":true,"confidence":5},{"trial_n":66,"min":87,"max":168,"target":"absent","response":"absent","rt":714.69999998808,"correct":true,"confidence":5},{"trial_n":67,"min":87,"max":168,"target":"absent","response":"absent","rt":759.20000004768,"correct":true,"confidence":5},{"trial_n":68,"min":88,"max":167,"target":"absent","response":"absent","rt":1424.6999999881,"correct":true,"confidence":5},{"trial_n":69,"min":88,"max":167,"target":"absent","response":"absent","rt":1055.8000000119,"correct":true,"confidence":5},{"trial_n":70,"min":89,"max":166,"target":"absent","response":"absent","rt":895.39999997616,"correct":true,"confidence":5},{"trial_n":71,"min":41,"max":214,"target":"present","response":"present","rt":3188.1999999881,"correct":true,"confidence":-1},{"trial_n":72,"min":41,"max":214,"target":"present","response":"present","rt":867.19999998808,"correct":true,"confidence":-1},{"trial_n":73,"min":57,"max":198,"target":"absent","response":"absent","rt":843.39999997616,"correct":true,"confidence":-1},{"trial_n":74,"min":57,"max":198,"target":"absent","response":"absent","rt":740.69999998808,"correct":true,"confidence":-1},{"trial_n":75,"min":73,"max":182,"target":"present","response":"present","rt":588.29999995232,"correct":true,"confidence":-1},{"trial_n":76,"min":73,"max":182,"target":"absent","response":"absent","rt":487.10000002384,"correct":true,"confidence":-1},{"trial_n":77,"min":89,"max":166,"target":"present","response":"present","rt":778.10000002384,"correct":true,"confidence":-1},{"trial_n":78,"min":89,"max":166,"target":"absent","response":"absent","rt":1537.1999999881,"correct":true,"confidence":-1},{"trial_n":79,"min":105,"max":150,"target":"present","response":"present","rt":960.69999998808,"correct":true,"confidence":-1},{"trial_n":80,"min":105,"max":150,"target":"present","response":"absent","rt":714.89999997616,"correct":false,"confidence":-1},{"trial_n":81,"min":97,"max":158,"target":"present","response":"present","rt":480.19999998808,"correct":true,"confidence":-1},{"trial_n":82,"min":97,"max":158,"target":"present","response":"present","rt":395.10000002384,"correct":true,"confidence":-1},{"trial_n":83,"min":105,"max":150,"target":"absent","response":"absent","rt":271.20000004768,"correct":true,"confidence":-1},{"trial_n":84,"min":105,"max":150,"target":"absent","response":"present","rt":77.199999988079,"correct":false,"confidence":-1},{"trial_n":85,"min":97,"max":158,"target":"absent","response":"absent","rt":102.90000003576,"correct":true,"confidence":-1},{"trial_n":86,"min":97,"max":158,"target":"present","response":"absent","rt":3409.6000000238,"correct":false,"confidence":-1},{"trial_n":87,"min":89,"max":166,"target":"absent","response":"present","rt":857,"correct":false,"confidence":-1},{"trial_n":88,"min":81,"max":174,"target":"present","response":"present","rt":855.70000004768,"correct":true,"confidence":-1},{"trial_n":89,"min":81,"max":174,"target":"present","response":"present","rt":692.5,"correct":true,"confidence":-1},{"trial_n":90,"min":89,"max":166,"target":"present","response":"present","rt":639.59999996424,"correct":true,"confidence":-1},{"trial_n":91,"min":89,"max":166,"target":"absent","response":"absent","rt":970.39999997616,"correct":true,"confidence":5},{"trial_n":92,"min":93,"max":162,"target":"present","response":"present","rt":848.80000001192,"correct":true,"confidence":4},{"trial_n":93,"min":93,"max":162,"target":"present","response":"present","rt":578.60000002384,"correct":true,"confidence":5},{"trial_n":94,"min":97,"max":158,"target":"absent","response":"absent","rt":836,"correct":true,"confidence":5},{"trial_n":95,"min":97,"max":158,"target":"absent","response":"absent","rt":802.09999996424,"correct":true,"confidence":3},{"trial_n":96,"min":101,"max":154,"target":"present","response":"absent","rt":783.60000002384,"correct":false,"confidence":2},{"trial_n":97,"min":97,"max":158,"target":"absent","response":"present","rt":507.69999998808,"correct":false,"confidence":4},{"trial_n":98,"min":93,"max":162,"target":"present","response":"present","rt":833.5,"correct":true,"confidence":5},{"trial_n":99,"min":93,"max":162,"target":"absent","response":"present","rt":904.19999998808,"correct":false,"confidence":5},{"trial_n":100,"min":89,"max":166,"target":"present","response":"absent","rt":1853.9000000358,"correct":false,"confidence":5},{"trial_n":101,"min":87,"max":168,"target":"present","response":"present","rt":616.40000003576,"correct":true,"confidence":5},{"trial_n":102,"min":87,"max":168,"target":"absent","response":"absent","rt":1162.4000000358,"correct":true,"confidence":5},{"trial_n":103,"min":89,"max":166,"target":"absent","response":"absent","rt":917.19999998808,"correct":true,"confidence":5},{"trial_n":104,"min":89,"max":166,"target":"present","response":"present","rt":483.59999996424,"correct":true,"confidence":5},{"trial_n":105,"min":91,"max":164,"target":"absent","response":"absent","rt":858,"correct":true,"confidence":4},{"trial_n":106,"min":91,"max":164,"target":"absent","response":"absent","rt":923.90000003576,"correct":true,"confidence":1},{"trial_n":107,"min":93,"max":162,"target":"present","response":"absent","rt":772.89999997616,"correct":false,"confidence":1},{"trial_n":108,"min":91,"max":164,"target":"present","response":"present","rt":913.89999997616,"correct":true,"confidence":1},{"trial_n":109,"min":91,"max":164,"target":"present","response":"present","rt":711.90000003576,"correct":true,"confidence":5},{"trial_n":110,"min":93,"max":162,"target":"absent","response":"present","rt":665.5,"correct":false,"confidence":4},{"trial_n":111,"min":92,"max":163,"target":"absent","response":"absent","rt":756.80000001192,"correct":true,"confidence":1},{"trial_n":112,"min":92,"max":163,"target":"absent","response":"absent","rt":4577.1000000238,"correct":true,"confidence":1},{"trial_n":113,"min":93,"max":162,"target":"absent","response":"present","rt":843.5,"correct":false,"confidence":1},{"trial_n":114,"min":92,"max":163,"target":"present","response":"present","rt":682.69999998808,"correct":true,"confidence":1},{"trial_n":115,"min":92,"max":163,"target":"absent","response":"absent","rt":747,"correct":true,"confidence":1},{"trial_n":116,"min":93,"max":162,"target":"absent","response":"present","rt":729.60000002384,"correct":false,"confidence":2},{"trial_n":117,"min":92,"max":163,"target":"absent","response":"absent","rt":943.5,"correct":true,"confidence":5},{"trial_n":118,"min":92,"max":163,"target":"absent","response":"present","rt":1291,"correct":false,"confidence":2},{"trial_n":119,"min":91,"max":164,"target":"absent","response":"present","rt":635.69999998808,"correct":false,"confidence":3},{"trial_n":120,"min":90,"max":165,"target":"present","response":"absent","rt":987.30000001192,"correct":false,"confidence":5},{"trial_n":121,"min":89,"max":166,"target":"present","response":"present","rt":1143.1000000238,"correct":true,"confidence":1},{"trial_n":122,"min":89,"max":166,"target":"present","response":"present","rt":753,"correct":true,"confidence":4},{"trial_n":123,"min":90,"max":165,"target":"absent","response":"absent","rt":613.19999998808,"correct":true,"confidence":2},{"trial_n":124,"min":90,"max":165,"target":"present","response":"present","rt":764.5,"correct":true,"confidence":5},{"trial_n":125,"min":91,"max":164,"target":"absent","response":"absent","rt":730.80000001192,"correct":true,"confidence":5},{"trial_n":126,"min":91,"max":164,"target":"present","response":"present","rt":675.19999998808,"correct":true,"confidence":3},{"trial_n":127,"min":92,"max":163,"target":"present","response":"present","rt":371.5,"correct":true,"confidence":5},{"trial_n":128,"min":92,"max":163,"target":"present","response":"present","rt":597.20000004768,"correct":true,"confidence":5},{"trial_n":129,"min":93,"max":162,"target":"absent","response":"absent","rt":554.60000002384,"correct":true,"confidence":5},{"trial_n":130,"min":93,"max":162,"target":"present","response":"present","rt":745.89999997616,"correct":true,"confidence":5},{"trial_n":131,"min":94,"max":161,"target":"absent","response":"present","rt":677.20000004768,"correct":false,"confidence":2},{"trial_n":132,"min":93,"max":162,"target":"present","response":"absent","rt":186.60000002384,"correct":false,"confidence":2},{"trial_n":133,"min":92,"max":163,"target":"present","response":"present","rt":314.5,"correct":true,"confidence":4},{"trial_n":134,"min":92,"max":163,"target":"absent","response":"absent","rt":801.39999997616,"correct":true,"confidence":1},{"trial_n":135,"min":93,"max":162,"target":"present","response":"absent","rt":953.19999998808,"correct":false,"confidence":1},{"trial_n":136,"min":92,"max":163,"target":"absent","response":"present","rt":960.5,"correct":false,"confidence":1},{"trial_n":137,"min":91,"max":164,"target":"absent","response":"absent","rt":398,"correct":true,"confidence":1},{"trial_n":138,"min":91,"max":164,"target":"present","response":"present","rt":415.69999998808,"correct":true,"confidence":1},{"trial_n":139,"min":92,"max":163,"target":"present","response":"absent","rt":418,"correct":false,"confidence":1},{"trial_n":140,"min":91,"max":164,"target":"absent","response":"present","rt":320.5,"correct":false,"confidence":1}]