[{"trial_n":1,"min":25,"max":230,"target":"present","response":"absent","rt":6960.6999998093,"correct":false,"confidence":-1},{"trial_n":2,"min":25,"max":230,"target":"present","response":"present","rt":1142.2999997139,"correct":true,"confidence":-1},{"trial_n":3,"min":25,"max":230,"target":"absent","response":"absent","rt":1213.6999998093,"correct":true,"confidence":-1},{"trial_n":4,"min":41,"max":214,"target":"absent","response":"absent","rt":1209.1000003815,"correct":true,"confidence":-1},{"trial_n":5,"min":41,"max":214,"target":"present","response":"present","rt":1028.5999999046,"correct":true,"confidence":-1},{"trial_n":6,"min":57,"max":198,"target":"absent","response":"absent","rt":1063.0999999046,"correct":true,"confidence":-1},{"trial_n":7,"min":57,"max":198,"target":"present","response":"present","rt":1800.6999998093,"correct":true,"confidence":-1},{"trial_n":8,"min":73,"max":182,"target":"present","response":"present","rt":2495.5,"correct":true,"confidence":-1},{"trial_n":9,"min":73,"max":182,"target":"present","response":"present","rt":1263.1999998093,"correct":true,"confidence":-1},{"trial_n":10,"min":89,"max":166,"target":"absent","response":"absent","rt":1324.4000000954,"correct":true,"confidence":-1},{"trial_n":11,"min":89,"max":166,"target":"absent","response":"absent","rt":1329.5999999046,"correct":true,"confidence":-1},{"trial_n":12,"min":97,"max":158,"target":"present","response":"absent","rt":7401.5999999046,"correct":false,"confidence":-1},{"trial_n":13,"min":89,"max":166,"target":"absent","response":"absent","rt":748.80000019073,"correct":true,"confidence":-1},{"trial_n":14,"min":89,"max":166,"target":"present","response":"absent","rt":748.7999997139,"correct":false,"confidence":-1},{"trial_n":15,"min":81,"max":174,"target":"absent","response":"absent","rt":1130.0999999046,"correct":true,"confidence":-1},{"trial_n":16,"min":81,"max":174,"target":"present","response":"present","rt":787.5,"correct":true,"confidence":-1},{"trial_n":17,"min":89,"max":166,"target":"absent","response":"absent","rt":1633.4000000954,"correct":true,"confidence":-1},{"trial_n":18,"min":89,"max":166,"target":"present","response":"absent","rt":269.19999980927,"correct":false,"confidence":-1},{"trial_n":19,"min":81,"max":174,"target":"absent","response":"absent","rt":615.2999997139,"correct":true,"confidence":-1},{"trial_n":20,"min":81,"max":174,"target":"absent","response":"absent","rt":359.89999961853,"correct":true,"confidence":-1},{"trial_n":21,"min":85,"max":170,"target":"absent","response":"absent","rt":1956.8000001907,"correct":true,"confidence":3},{"trial_n":22,"min":85,"max":170,"target":"present","response":"present","rt":2997.2000002861,"correct":true,"confidence":2},{"trial_n":23,"min":89,"max":166,"target":"present","response":"absent","rt":1679.4000000954,"correct":false,"confidence":2},{"trial_n":24,"min":85,"max":170,"target":"absent","response":"absent","rt":2218.8999996185,"correct":true,"confidence":3},{"trial_n":25,"min":85,"max":170,"target":"present","response":"absent","rt":1034.0999999046,"correct":false,"confidence":4},{"trial_n":26,"min":81,"max":174,"target":"present","response":"absent","rt":1343.7000002861,"correct":false,"confidence":4},{"trial_n":27,"min":77,"max":178,"target":"absent","response":"absent","rt":1221,"correct":true,"confidence":4},{"trial_n":28,"min":77,"max":178,"target":"absent","response":"absent","rt":961.59999990463,"correct":true,"confidence":4},{"trial_n":29,"min":81,"max":174,"target":"present","response":"present","rt":1144.3999996185,"correct":true,"confidence":3},{"trial_n":30,"min":81,"max":174,"target":"present","response":"absent","rt":842.09999990463,"correct":false,"confidence":3},{"trial_n":31,"min":79,"max":176,"target":"present","response":"present","rt":1722.2999997139,"correct":true,"confidence":2},{"trial_n":32,"min":79,"max":176,"target":"absent","response":"absent","rt":743.40000009537,"correct":true,"confidence":3},{"trial_n":33,"min":81,"max":174,"target":"present","response":"present","rt":1003.0999999046,"correct":true,"confidence":3},{"trial_n":34,"min":81,"max":174,"target":"present","response":"present","rt":2280.1000003815,"correct":true,"confidence":3},{"trial_n":35,"min":83,"max":172,"target":"absent","response":"absent","rt":972.19999980927,"correct":true,"confidence":2},{"trial_n":36,"min":83,"max":172,"target":"present","response":"present","rt":1342.8999996185,"correct":true,"confidence":3},{"trial_n":37,"min":85,"max":170,"target":"present","response":"absent","rt":1044.5,"correct":false,"confidence":3},{"trial_n":38,"min":83,"max":172,"target":"absent","response":"absent","rt":995.40000009537,"correct":true,"confidence":4},{"trial_n":39,"min":83,"max":172,"target":"absent","response":"absent","rt":1034.1000003815,"correct":true,"confidence":5},{"trial_n":40,"min":85,"max":170,"target":"absent","response":"absent","rt":971.40000009537,"correct":true,"confidence":5},{"trial_n":41,"min":85,"max":170,"target":"present","response":"present","rt":1169.8999996185,"correct":true,"confidence":3},{"trial_n":42,"min":86,"max":169,"target":"present","response":"absent","rt":927.40000009537,"correct":false,"confidence":3},{"trial_n":43,"min":85,"max":170,"target":"absent","response":"absent","rt":2847.4000000954,"correct":true,"confidence":2},{"trial_n":44,"min":85,"max":170,"target":"absent","response":"present","rt":1009.9000000954,"correct":false,"confidence":3},{"trial_n":45,"min":84,"max":171,"target":"present","response":"absent","rt":1981.5,"correct":false,"confidence":2},{"trial_n":46,"min":83,"max":172,"target":"present","response":"present","rt":1533,"correct":true,"confidence":2},{"trial_n":47,"min":83,"max":172,"target":"present","response":"present","rt":1236.8999996185,"correct":true,"confidence":4},{"trial_n":48,"min":84,"max":171,"target":"absent","response":"absent","rt":885,"correct":true,"confidence":4},{"trial_n":49,"min":84,"max":171,"target":"present","response":"present","rt":1030.5,"correct":true,"confidence":4},{"trial_n":50,"min":85,"max":170,"target":"present","response":"absent","rt":3747.3999996185,"correct":false,"confidence":1},{"trial_n":51,"min":84,"max":171,"target":"absent","response":"absent","rt":849.10000038147,"correct":true,"confidence":2},{"trial_n":52,"min":84,"max":171,"target":"present","response":"present","rt":1419,"correct":true,"confidence":3},{"trial_n":53,"min":85,"max":170,"target":"absent","response":"absent","rt":952.10000038147,"correct":true,"confidence":3},{"trial_n":54,"min":85,"max":170,"target":"absent","response":"absent","rt":937.09999990463,"correct":true,"confidence":4},{"trial_n":55,"min":86,"max":169,"target":"present","response":"absent","rt":758.40000009537,"correct":false,"confidence":5},{"trial_n":56,"min":85,"max":170,"target":"absent","response":"absent","rt":960.40000009537,"correct":true,"confidence":4},{"trial_n":57,"min":85,"max":170,"target":"absent","response":"absent","rt":853.09999990463,"correct":true,"confidence":4},{"trial_n":58,"min":86,"max":169,"target":"absent","response":"absent","rt":1091.5,"correct":true,"confidence":4},{"trial_n":59,"min":86,"max":169,"target":"present","response":"absent","rt":941.7000002861,"correct":false,"confidence":3},{"trial_n":60,"min":85,"max":170,"target":"absent","response":"absent","rt":1114.5,"correct":true,"confidence":4},{"trial_n":61,"min":85,"max":170,"target":"present","response":"absent","rt":896.30000019073,"correct":false,"confidence":3},{"trial_n":62,"min":84,"max":171,"target":"absent","response":"absent","rt":1004.6999998093,"correct":true,"confidence":5},{"trial_n":63,"min":84,"max":171,"target":"absent","response":"absent","rt":905.19999980927,"correct":true,"confidence":5},{"trial_n":64,"min":85,"max":170,"target":"absent","response":"absent","rt":839.59999990463,"correct":true,"confidence":5},{"trial_n":65,"min":85,"max":170,"target":"absent","response":"absent","rt":749.80000019073,"correct":true,"confidence":5},{"trial_n":66,"min":86,"max":169,"target":"present","response":"absent","rt":677.7999997139,"correct":false,"confidence":5},{"trial_n":67,"min":85,"max":170,"target":"present","response":"present","rt":2183.2999997139,"correct":true,"confidence":2},{"trial_n":68,"min":85,"max":170,"target":"present","response":"absent","rt":838.80000019073,"correct":false,"confidence":5},{"trial_n":69,"min":84,"max":171,"target":"present","response":"present","rt":2267.8000001907,"correct":true,"confidence":2},{"trial_n":70,"min":84,"max":171,"target":"absent","response":"present","rt":1322.7000002861,"correct":false,"confidence":2},{"trial_n":71,"min":41,"max":214,"target":"present","response":"present","rt":2208.1000003815,"correct":true,"confidence":-1},{"trial_n":72,"min":41,"max":214,"target":"present","response":"present","rt":851.59999990463,"correct":true,"confidence":-1},{"trial_n":73,"min":57,"max":198,"target":"absent","response":"present","rt":555.2999997139,"correct":false,"confidence":-1},{"trial_n":74,"min":41,"max":214,"target":"absent","response":"absent","rt":855.40000009537,"correct":true,"confidence":-1},{"trial_n":75,"min":41,"max":214,"target":"present","response":"present","rt":375.09999990463,"correct":true,"confidence":-1},{"trial_n":76,"min":57,"max":198,"target":"present","response":"present","rt":370.69999980927,"correct":true,"confidence":-1},{"trial_n":77,"min":57,"max":198,"target":"absent","response":"absent","rt":398.7000002861,"correct":true,"confidence":-1},{"trial_n":78,"min":73,"max":182,"target":"present","response":"present","rt":944.59999990463,"correct":true,"confidence":-1},{"trial_n":79,"min":73,"max":182,"target":"present","response":"present","rt":429.5,"correct":true,"confidence":-1},{"trial_n":80,"min":89,"max":166,"target":"present","response":"absent","rt":1463.6999998093,"correct":false,"confidence":-1},{"trial_n":81,"min":81,"max":174,"target":"absent","response":"present","rt":788.90000009537,"correct":false,"confidence":-1},{"trial_n":82,"min":73,"max":182,"target":"absent","response":"absent","rt":934,"correct":true,"confidence":-1},{"trial_n":83,"min":73,"max":182,"target":"absent","response":"present","rt":489.40000009537,"correct":false,"confidence":-1},{"trial_n":84,"min":65,"max":190,"target":"absent","response":"absent","rt":458.90000009537,"correct":true,"confidence":-1},{"trial_n":85,"min":65,"max":190,"target":"absent","response":"absent","rt":368.19999980927,"correct":true,"confidence":-1},{"trial_n":86,"min":73,"max":182,"target":"absent","response":"absent","rt":588.09999990463,"correct":true,"confidence":-1},{"trial_n":87,"min":73,"max":182,"target":"present","response":"present","rt":347.09999990463,"correct":true,"confidence":-1},{"trial_n":88,"min":81,"max":174,"target":"absent","response":"absent","rt":686.59999990463,"correct":true,"confidence":-1},{"trial_n":89,"min":81,"max":174,"target":"present","response":"absent","rt":541,"correct":false,"confidence":-1},{"trial_n":90,"min":73,"max":182,"target":"present","response":"present","rt":312.89999961853,"correct":true,"confidence":-1},{"trial_n":91,"min":73,"max":182,"target":"present","response":"present","rt":1114.1000003815,"correct":true,"confidence":4},{"trial_n":92,"min":77,"max":178,"target":"absent","response":"absent","rt":559.2000002861,"correct":true,"confidence":2},{"trial_n":93,"min":77,"max":178,"target":"present","response":"present","rt":547.59999990463,"correct":true,"confidence":4},{"trial_n":94,"min":81,"max":174,"target":"present","response":"present","rt":688.2999997139,"correct":true,"confidence":4},{"trial_n":95,"min":81,"max":174,"target":"present","response":"present","rt":733,"correct":true,"confidence":4},{"trial_n":96,"min":85,"max":170,"target":"absent","response":"absent","rt":990,"correct":true,"confidence":5},{"trial_n":97,"min":85,"max":170,"target":"present","response":"present","rt":634.09999990463,"correct":true,"confidence":5},{"trial_n":98,"min":89,"max":166,"target":"present","response":"absent","rt":1091.0999999046,"correct":false,"confidence":2},{"trial_n":99,"min":85,"max":170,"target":"absent","response":"present","rt":1306.7999997139,"correct":false,"confidence":2},{"trial_n":100,"min":81,"max":174,"target":"present","response":"present","rt":749.69999980927,"correct":true,"confidence":4},{"trial_n":101,"min":81,"max":174,"target":"present","response":"present","rt":1433.2999997139,"correct":true,"confidence":3},{"trial_n":102,"min":83,"max":172,"target":"absent","response":"absent","rt":720.19999980927,"correct":true,"confidence":3},{"trial_n":103,"min":83,"max":172,"target":"present","response":"present","rt":427.09999990463,"correct":true,"confidence":4},{"trial_n":104,"min":85,"max":170,"target":"present","response":"present","rt":952.2999997139,"correct":true,"confidence":5},{"trial_n":105,"min":85,"max":170,"target":"absent","response":"absent","rt":1211,"correct":true,"confidence":2},{"trial_n":106,"min":87,"max":168,"target":"present","response":"present","rt":430.19999980927,"correct":true,"confidence":3},{"trial_n":107,"min":87,"max":168,"target":"absent","response":"present","rt":2063,"correct":false,"confidence":1},{"trial_n":108,"min":85,"max":170,"target":"present","response":"present","rt":599.2000002861,"correct":true,"confidence":2},{"trial_n":109,"min":85,"max":170,"target":"absent","response":"absent","rt":2889.3000001907,"correct":true,"confidence":1},{"trial_n":110,"min":87,"max":168,"target":"present","response":"present","rt":588.09999990463,"correct":true,"confidence":2},{"trial_n":111,"min":87,"max":168,"target":"absent","response":"absent","rt":927.40000009537,"correct":true,"confidence":2},{"trial_n":112,"min":88,"max":167,"target":"absent","response":"absent","rt":617.5,"correct":true,"confidence":2},{"trial_n":113,"min":88,"max":167,"target":"present","response":"present","rt":1300.6999998093,"correct":true,"confidence":1},{"trial_n":114,"min":89,"max":166,"target":"present","response":"present","rt":840.7999997139,"correct":true,"confidence":3},{"trial_n":115,"min":89,"max":166,"target":"present","response":"present","rt":1130.0999999046,"correct":true,"confidence":2},{"trial_n":116,"min":90,"max":165,"target":"present","response":"present","rt":505,"correct":true,"confidence":4},{"trial_n":117,"min":90,"max":165,"target":"present","response":"present","rt":936.69999980927,"correct":true,"confidence":1},{"trial_n":118,"min":91,"max":164,"target":"present","response":"absent","rt":1725.7999997139,"correct":false,"confidence":1},{"trial_n":119,"min":90,"max":165,"target":"present","response":"absent","rt":1120.3000001907,"correct":false,"confidence":1},{"trial_n":120,"min":89,"max":166,"target":"absent","response":"absent","rt":922.39999961853,"correct":true,"confidence":1},{"trial_n":121,"min":89,"max":166,"target":"absent","response":"present","rt":941.5,"correct":false,"confidence":1},{"trial_n":122,"min":88,"max":167,"target":"present","response":"present","rt":1314.3999996185,"correct":true,"confidence":1},{"trial_n":123,"min":88,"max":167,"target":"absent","response":"present","rt":818.59999990463,"correct":false,"confidence":1},{"trial_n":124,"min":87,"max":168,"target":"absent","response":"present","rt":1070.5999999046,"correct":false,"confidence":1},{"trial_n":125,"min":86,"max":169,"target":"absent","response":"absent","rt":767.10000038147,"correct":true,"confidence":1},{"trial_n":126,"min":86,"max":169,"target":"absent","response":"absent","rt":1079.1000003815,"correct":true,"confidence":1},{"trial_n":127,"min":87,"max":168,"target":"absent","response":"present","rt":852.2000002861,"correct":false,"confidence":1},{"trial_n":128,"min":86,"max":169,"target":"present","response":"present","rt":993.60000038147,"correct":true,"confidence":1},{"trial_n":129,"min":86,"max":169,"target":"absent","response":"absent","rt":858.5,"correct":true,"confidence":1},{"trial_n":130,"min":87,"max":168,"target":"present","response":"absent","rt":2010.2999997139,"correct":false,"confidence":1},{"trial_n":131,"min":86,"max":169,"target":"absent","response":"present","rt":1083.5,"correct":false,"confidence":2},{"trial_n":132,"min":85,"max":170,"target":"present","response":"present","rt":905.09999990463,"correct":true,"confidence":3},{"trial_n":133,"min":85,"max":170,"target":"absent","response":"present","rt":841.19999980927,"correct":false,"confidence":2},{"trial_n":134,"min":84,"max":171,"target":"absent","response":"absent","rt":1089.4000000954,"correct":true,"confidence":1},{"trial_n":135,"min":84,"max":171,"target":"present","response":"present","rt":429,"correct":true,"confidence":2},{"trial_n":136,"min":85,"max":170,"target":"absent","response":"present","rt":1041.8000001907,"correct":false,"confidence":1},{"trial_n":137,"min":84,"max":171,"target":"absent","response":"present","rt":1486.4000000954,"correct":false,"confidence":1},{"trial_n":138,"min":83,"max":172,"target":"present","response":"present","rt":318.80000019073,"correct":true,"confidence":2},{"trial_n":139,"min":83,"max":172,"target":"absent","response":"present","rt":1106.0999999046,"correct":false,"confidence":1},{"trial_n":140,"min":82,"max":173,"target":"absent","response":"present","rt":1334.6000003815,"correct":false,"confidence":1}]