[{"trial_n":1,"n_dots":4.25,"target":"right","response":"left","rt":4338,"correct":false,"confidence":-1},{"trial_n":2,"n_dots":4.25,"target":"right","response":"right","rt":647,"correct":true,"confidence":-1},{"trial_n":3,"n_dots":4.25,"target":"left","response":"right","rt":436,"correct":false,"confidence":-1},{"trial_n":4,"n_dots":4.65,"target":"right","response":"right","rt":842.00000000001,"correct":true,"confidence":-1},{"trial_n":5,"n_dots":4.65,"target":"left","response":"left","rt":519,"correct":true,"confidence":-1},{"trial_n":6,"n_dots":4.25,"target":"right","response":"right","rt":250.99999999999,"correct":true,"confidence":-1},{"trial_n":7,"n_dots":4.25,"target":"right","response":"right","rt":86.000000000007,"correct":true,"confidence":-1},{"trial_n":8,"n_dots":4.05,"target":"left","response":"left","rt":37,"correct":true,"confidence":-1},{"trial_n":9,"n_dots":4.05,"target":"right","response":"right","rt":517,"correct":true,"confidence":-1},{"trial_n":10,"n_dots":3.85,"target":"right","response":"right","rt":-116.99999999999,"correct":true,"confidence":-1},{"trial_n":11,"n_dots":3.85,"target":"left","response":"left","rt":381,"correct":true,"confidence":-1},{"trial_n":12,"n_dots":3.65,"target":"left","response":"right","rt":-83,"correct":false,"confidence":-1},{"trial_n":13,"n_dots":3.75,"target":"right","response":"right","rt":517,"correct":true,"confidence":-1},{"trial_n":14,"n_dots":3.75,"target":"right","response":"right","rt":102,"correct":true,"confidence":-1},{"trial_n":15,"n_dots":3.65,"target":"left","response":"right","rt":399,"correct":false,"confidence":-1},{"trial_n":16,"n_dots":3.75,"target":"left","response":"right","rt":-85.000000000007,"correct":false,"confidence":-1},{"trial_n":17,"n_dots":3.85,"target":"right","response":"right","rt":427,"correct":true,"confidence":-1},{"trial_n":18,"n_dots":3.85,"target":"left","response":"left","rt":-44,"correct":true,"confidence":-1},{"trial_n":19,"n_dots":3.75,"target":"right","response":"right","rt":-68,"correct":true,"confidence":-1},{"trial_n":20,"n_dots":3.75,"target":"left","response":"right","rt":491.99999999999,"correct":false,"confidence":-1},{"trial_n":21,"n_dots":3.85,"target":"left","response":"left","rt":416.00000000001,"correct":true,"confidence":4},{"trial_n":22,"n_dots":3.85,"target":"left","response":"right","rt":520,"correct":false,"confidence":3},{"trial_n":23,"n_dots":3.95,"target":"left","response":"left","rt":-66,"correct":true,"confidence":3},{"trial_n":24,"n_dots":3.95,"target":"left","response":"right","rt":194,"correct":false,"confidence":5},{"trial_n":25,"n_dots":4.05,"target":"left","response":"right","rt":430,"correct":false,"confidence":4},{"trial_n":26,"n_dots":4.15,"target":"right","response":"right","rt":326,"correct":true,"confidence":5},{"trial_n":27,"n_dots":4.15,"target":"left","response":"right","rt":380.00000000001,"correct":false,"confidence":3},{"trial_n":28,"n_dots":4.25,"target":"right","response":"right","rt":535,"correct":true,"confidence":3},{"trial_n":29,"n_dots":4.25,"target":"left","response":"left","rt":532,"correct":true,"confidence":3},{"trial_n":30,"n_dots":4.15,"target":"right","response":"right","rt":646,"correct":true,"confidence":3},{"trial_n":31,"n_dots":4.15,"target":"right","response":"right","rt":246,"correct":true,"confidence":4},{"trial_n":32,"n_dots":4.05,"target":"left","response":"left","rt":-50,"correct":true,"confidence":4},{"trial_n":33,"n_dots":4.05,"target":"right","response":"right","rt":-124,"correct":true,"confidence":5},{"trial_n":34,"n_dots":3.95,"target":"left","response":"left","rt":0,"correct":true,"confidence":5},{"trial_n":35,"n_dots":3.95,"target":"left","response":"left","rt":-1,"correct":true,"confidence":5},{"trial_n":36,"n_dots":3.85,"target":"right","response":"right","rt":186,"correct":true,"confidence":4},{"trial_n":37,"n_dots":3.85,"target":"right","response":"right","rt":180.99999999997,"correct":true,"confidence":5},{"trial_n":38,"n_dots":3.75,"target":"left","response":"left","rt":-53,"correct":true,"confidence":4},{"trial_n":39,"n_dots":3.75,"target":"left","response":"left","rt":276,"correct":true,"confidence":4},{"trial_n":40,"n_dots":3.65,"target":"left","response":"left","rt":-72,"correct":true,"confidence":2},{"trial_n":41,"n_dots":3.65,"target":"right","response":"right","rt":381,"correct":true,"confidence":2},{"trial_n":42,"n_dots":3.55,"target":"left","response":"right","rt":-104,"correct":false,"confidence":1},{"trial_n":43,"n_dots":3.65,"target":"right","response":"right","rt":-39,"correct":true,"confidence":3},{"trial_n":44,"n_dots":3.65,"target":"right","response":"right","rt":-74.999999999971,"correct":true,"confidence":4},{"trial_n":45,"n_dots":3.55,"target":"left","response":"right","rt":-88,"correct":false,"confidence":4},{"trial_n":46,"n_dots":3.65,"target":"left","response":"left","rt":302,"correct":true,"confidence":4},{"trial_n":47,"n_dots":3.65,"target":"left","response":"right","rt":-40.999999999971,"correct":false,"confidence":1},{"trial_n":48,"n_dots":3.75,"target":"left","response":"left","rt":71,"correct":true,"confidence":4},{"trial_n":49,"n_dots":3.75,"target":"left","response":"left","rt":73.000000000029,"correct":true,"confidence":4},{"trial_n":50,"n_dots":3.65,"target":"right","response":"right","rt":397,"correct":true,"confidence":3},{"trial_n":51,"n_dots":3.65,"target":"left","response":"left","rt":266.99999999997,"correct":true,"confidence":3},{"trial_n":52,"n_dots":3.55,"target":"left","response":"left","rt":620,"correct":true,"confidence":2},{"trial_n":53,"n_dots":3.55,"target":"right","response":"right","rt":-24,"correct":true,"confidence":4},{"trial_n":54,"n_dots":3.45,"target":"left","response":"left","rt":-5,"correct":true,"confidence":4},{"trial_n":55,"n_dots":3.45,"target":"right","response":"right","rt":10,"correct":true,"confidence":5},{"trial_n":56,"n_dots":3.35,"target":"right","response":"right","rt":-31,"correct":true,"confidence":5},{"trial_n":57,"n_dots":3.35,"target":"right","response":"right","rt":198,"correct":true,"confidence":4},{"trial_n":58,"n_dots":3.25,"target":"left","response":"left","rt":4076,"correct":true,"confidence":1},{"trial_n":59,"n_dots":3.25,"target":"left","response":"left","rt":362.00000000003,"correct":true,"confidence":3},{"trial_n":60,"n_dots":3.15,"target":"left","response":"right","rt":1327,"correct":false,"confidence":1},{"trial_n":61,"n_dots":3.25,"target":"left","response":"left","rt":115,"correct":true,"confidence":4},{"trial_n":62,"n_dots":3.25,"target":"right","response":"right","rt":-80.000000000029,"correct":true,"confidence":2},{"trial_n":63,"n_dots":3.15,"target":"left","response":"right","rt":502.00000000003,"correct":false,"confidence":3},{"trial_n":64,"n_dots":3.25,"target":"left","response":"left","rt":318,"correct":true,"confidence":3},{"trial_n":65,"n_dots":3.25,"target":"right","response":"right","rt":30,"correct":true,"confidence":3},{"trial_n":66,"n_dots":3.15,"target":"right","response":"right","rt":383,"correct":true,"confidence":4},{"trial_n":67,"n_dots":3.15,"target":"left","response":"left","rt":417,"correct":true,"confidence":1},{"trial_n":68,"n_dots":3.05,"target":"right","response":"right","rt":-129,"correct":true,"confidence":4},{"trial_n":69,"n_dots":3.05,"target":"right","response":"right","rt":100,"correct":true,"confidence":4},{"trial_n":70,"n_dots":2.95,"target":"right","response":"left","rt":693,"correct":false,"confidence":3},{"trial_n":71,"n_dots":3.05,"target":"left","response":"right","rt":5,"correct":false,"confidence":4},{"trial_n":72,"n_dots":3.15,"target":"left","response":"right","rt":76.000000000058,"correct":false,"confidence":2},{"trial_n":73,"n_dots":3.25,"target":"left","response":"right","rt":-17,"correct":false,"confidence":3},{"trial_n":74,"n_dots":3.35,"target":"right","response":"right","rt":-40,"correct":true,"confidence":5},{"trial_n":75,"n_dots":3.35,"target":"right","response":"right","rt":387,"correct":true,"confidence":4},{"trial_n":76,"n_dots":3.25,"target":"left","response":"left","rt":81,"correct":true,"confidence":2},{"trial_n":77,"n_dots":3.25,"target":"right","response":"right","rt":-113,"correct":true,"confidence":3},{"trial_n":78,"n_dots":3.15,"target":"left","response":"left","rt":1956,"correct":true,"confidence":2},{"trial_n":79,"n_dots":3.15,"target":"right","response":"right","rt":-104,"correct":true,"confidence":4},{"trial_n":80,"n_dots":3.05,"target":"left","response":"right","rt":-107,"correct":false,"confidence":4},{"trial_n":81,"n_dots":3.15,"target":"right","response":"left","rt":491,"correct":false,"confidence":1},{"trial_n":82,"n_dots":3.25,"target":"right","response":"right","rt":276,"correct":true,"confidence":4},{"trial_n":83,"n_dots":3.25,"target":"left","response":"right","rt":54,"correct":false,"confidence":3},{"trial_n":84,"n_dots":3.35,"target":"right","response":"right","rt":-49,"correct":true,"confidence":4},{"trial_n":85,"n_dots":3.35,"target":"right","response":"right","rt":-48,"correct":true,"confidence":4},{"trial_n":86,"n_dots":3.25,"target":"right","response":"right","rt":-22,"correct":true,"confidence":2},{"trial_n":87,"n_dots":3.25,"target":"right","response":"right","rt":-51,"correct":true,"confidence":3},{"trial_n":88,"n_dots":3.15,"target":"right","response":"left","rt":465,"correct":false,"confidence":1},{"trial_n":89,"n_dots":3.25,"target":"left","response":"left","rt":399,"correct":true,"confidence":4},{"trial_n":90,"n_dots":3.25,"target":"right","response":"left","rt":2183.9999999999,"correct":false,"confidence":1},{"trial_n":91,"n_dots":3.35,"target":"right","response":"left","rt":770,"correct":false,"confidence":3},{"trial_n":92,"n_dots":3.45,"target":"left","response":"left","rt":696,"correct":true,"confidence":3},{"trial_n":93,"n_dots":3.45,"target":"left","response":"left","rt":357,"correct":true,"confidence":3},{"trial_n":94,"n_dots":3.35,"target":"right","response":"right","rt":413.00000000006,"correct":true,"confidence":4},{"trial_n":95,"n_dots":3.35,"target":"right","response":"right","rt":0,"correct":true,"confidence":4},{"trial_n":96,"n_dots":3.25,"target":"left","response":"left","rt":460,"correct":true,"confidence":1},{"trial_n":97,"n_dots":3.25,"target":"right","response":"left","rt":961.00000000006,"correct":false,"confidence":1},{"trial_n":98,"n_dots":3.35,"target":"left","response":"right","rt":463.00000000006,"correct":false,"confidence":1},{"trial_n":99,"n_dots":3.45,"target":"right","response":"right","rt":510.99999999994,"correct":true,"confidence":1},{"trial_n":100,"n_dots":3.45,"target":"right","response":"right","rt":394,"correct":true,"confidence":1},{"trial_n":101,"n_dots":3.35,"target":"right","response":"right","rt":390,"correct":true,"confidence":4},{"trial_n":102,"n_dots":3.35,"target":"right","response":"right","rt":359,"correct":true,"confidence":3},{"trial_n":103,"n_dots":3.25,"target":"right","response":"right","rt":0,"correct":true,"confidence":1},{"trial_n":104,"n_dots":3.25,"target":"left","response":"left","rt":292,"correct":true,"confidence":3},{"trial_n":105,"n_dots":3.15,"target":"right","response":"right","rt":-63,"correct":true,"confidence":1},{"trial_n":106,"n_dots":3.15,"target":"right","response":"left","rt":76,"correct":false,"confidence":4},{"trial_n":107,"n_dots":3.25,"target":"left","response":"left","rt":81,"correct":true,"confidence":3},{"trial_n":108,"n_dots":3.25,"target":"left","response":"left","rt":772,"correct":true,"confidence":1},{"trial_n":109,"n_dots":3.15,"target":"left","response":"left","rt":488.99999999994,"correct":true,"confidence":1},{"trial_n":110,"n_dots":3.15,"target":"left","response":"right","rt":724,"correct":false,"confidence":1},{"trial_n":111,"n_dots":3.25,"target":"left","response":"left","rt":513,"correct":true,"confidence":3},{"trial_n":112,"n_dots":3.25,"target":"left","response":"left","rt":320,"correct":true,"confidence":3},{"trial_n":113,"n_dots":3.15,"target":"left","response":"right","rt":-11,"correct":false,"confidence":1},{"trial_n":114,"n_dots":3.25,"target":"right","response":"right","rt":545,"correct":true,"confidence":4},{"trial_n":115,"n_dots":3.25,"target":"right","response":"right","rt":528.00000000006,"correct":true,"confidence":1},{"trial_n":116,"n_dots":3.15,"target":"right","response":"left","rt":568.99999999994,"correct":false,"confidence":1},{"trial_n":117,"n_dots":3.25,"target":"right","response":"right","rt":86.000000000058,"correct":true,"confidence":1},{"trial_n":118,"n_dots":3.25,"target":"right","response":"right","rt":339,"correct":true,"confidence":4},{"trial_n":119,"n_dots":3.15,"target":"left","response":"left","rt":263.99999999994,"correct":true,"confidence":1},{"trial_n":120,"n_dots":3.15,"target":"left","response":"left","rt":419,"correct":true,"confidence":3}]