[{"trial_n":1,"n_dots":4.25,"target":"left","response":"right","rt":5651.1000000089,"correct":false,"confidence":-1},{"trial_n":2,"n_dots":4.25,"target":"right","response":"left","rt":815.89999999106,"correct":false,"confidence":-1},{"trial_n":3,"n_dots":4.65,"target":"right","response":"right","rt":156.29999999702,"correct":true,"confidence":-1},{"trial_n":4,"n_dots":4.65,"target":"left","response":"left","rt":310.79999999702,"correct":true,"confidence":-1},{"trial_n":5,"n_dots":4.25,"target":"right","response":"right","rt":124.79999999702,"correct":true,"confidence":-1},{"trial_n":6,"n_dots":4.25,"target":"left","response":"left","rt":311.20000000298,"correct":true,"confidence":-1},{"trial_n":7,"n_dots":3.85,"target":"left","response":"left","rt":808.70000000298,"correct":true,"confidence":-1},{"trial_n":8,"n_dots":3.85,"target":"right","response":"right","rt":324.70000000298,"correct":true,"confidence":-1},{"trial_n":9,"n_dots":3.65,"target":"left","response":"left","rt":281.10000000894,"correct":true,"confidence":-1},{"trial_n":10,"n_dots":3.65,"target":"left","response":"left","rt":167.29999999702,"correct":true,"confidence":-1},{"trial_n":11,"n_dots":3.45,"target":"left","response":"left","rt":897.79999999702,"correct":true,"confidence":-1},{"trial_n":12,"n_dots":3.45,"target":"right","response":"left","rt":167.5,"correct":false,"confidence":-1},{"trial_n":13,"n_dots":3.55,"target":"left","response":"left","rt":145.09999999404,"correct":true,"confidence":-1},{"trial_n":14,"n_dots":3.55,"target":"left","response":"left","rt":384.39999999106,"correct":true,"confidence":-1},{"trial_n":15,"n_dots":3.45,"target":"right","response":"right","rt":287.40000000596,"correct":true,"confidence":-1},{"trial_n":16,"n_dots":3.45,"target":"left","response":"left","rt":867.90000000596,"correct":true,"confidence":-1},{"trial_n":17,"n_dots":3.35,"target":"right","response":"right","rt":221.09999999404,"correct":true,"confidence":-1},{"trial_n":18,"n_dots":3.35,"target":"left","response":"left","rt":400.69999998808,"correct":true,"confidence":-1},{"trial_n":19,"n_dots":3.25,"target":"right","response":"left","rt":186.09999999404,"correct":false,"confidence":-1},{"trial_n":20,"n_dots":3.35,"target":"right","response":"left","rt":375.5,"correct":false,"confidence":-1},{"trial_n":21,"n_dots":3.45,"target":"left","response":"left","rt":904.39999999106,"correct":true,"confidence":4},{"trial_n":22,"n_dots":3.45,"target":"left","response":"left","rt":508.69999998808,"correct":true,"confidence":3},{"trial_n":23,"n_dots":3.35,"target":"left","response":"left","rt":114.69999998808,"correct":true,"confidence":4},{"trial_n":24,"n_dots":3.35,"target":"left","response":"left","rt":499.29999999702,"correct":true,"confidence":2},{"trial_n":25,"n_dots":3.25,"target":"right","response":"right","rt":55.79999999702,"correct":true,"confidence":3},{"trial_n":26,"n_dots":3.25,"target":"left","response":"left","rt":196.5,"correct":true,"confidence":4},{"trial_n":27,"n_dots":3.15,"target":"right","response":"right","rt":28,"correct":true,"confidence":3},{"trial_n":28,"n_dots":3.15,"target":"right","response":"right","rt":43.09999999404,"correct":true,"confidence":4},{"trial_n":29,"n_dots":3.05,"target":"right","response":"right","rt":157.40000000596,"correct":true,"confidence":3},{"trial_n":30,"n_dots":3.05,"target":"left","response":"right","rt":332.79999999702,"correct":false,"confidence":3},{"trial_n":31,"n_dots":3.15,"target":"left","response":"right","rt":1195.900000006,"correct":false,"confidence":1},{"trial_n":32,"n_dots":3.25,"target":"right","response":"right","rt":224.90000000596,"correct":true,"confidence":1},{"trial_n":33,"n_dots":3.25,"target":"right","response":"right","rt":273.60000000894,"correct":true,"confidence":3},{"trial_n":34,"n_dots":3.15,"target":"right","response":"right","rt":85.59999999404,"correct":true,"confidence":3},{"trial_n":35,"n_dots":3.15,"target":"right","response":"right","rt":106.39999999106,"correct":true,"confidence":2},{"trial_n":36,"n_dots":3.05,"target":"left","response":"left","rt":166.10000000894,"correct":true,"confidence":2},{"trial_n":37,"n_dots":3.05,"target":"left","response":"right","rt":118.39999999106,"correct":false,"confidence":2},{"trial_n":38,"n_dots":3.15,"target":"left","response":"left","rt":326.70000000298,"correct":true,"confidence":3},{"trial_n":39,"n_dots":3.15,"target":"left","response":"right","rt":2363.299999997,"correct":false,"confidence":2},{"trial_n":40,"n_dots":3.25,"target":"left","response":"left","rt":634.09999999404,"correct":true,"confidence":2},{"trial_n":41,"n_dots":3.25,"target":"right","response":"right","rt":653.20000000298,"correct":true,"confidence":2},{"trial_n":42,"n_dots":3.15,"target":"left","response":"left","rt":223.20000000298,"correct":true,"confidence":4},{"trial_n":43,"n_dots":3.15,"target":"right","response":"right","rt":147.89999999106,"correct":true,"confidence":4},{"trial_n":44,"n_dots":3.05,"target":"left","response":"left","rt":115.79999999702,"correct":true,"confidence":3},{"trial_n":45,"n_dots":3.05,"target":"right","response":"right","rt":124.70000000298,"correct":true,"confidence":3},{"trial_n":46,"n_dots":2.95,"target":"left","response":"left","rt":258,"correct":true,"confidence":4},{"trial_n":47,"n_dots":2.95,"target":"right","response":"right","rt":68.5,"correct":true,"confidence":4},{"trial_n":48,"n_dots":2.85,"target":"left","response":"left","rt":28.100000008941,"correct":true,"confidence":4},{"trial_n":49,"n_dots":2.85,"target":"right","response":"left","rt":481.79999999702,"correct":false,"confidence":3},{"trial_n":50,"n_dots":2.95,"target":"left","response":"right","rt":135.29999999702,"correct":false,"confidence":3},{"trial_n":51,"n_dots":3.05,"target":"right","response":"left","rt":113.5,"correct":false,"confidence":3},{"trial_n":52,"n_dots":3.15,"target":"left","response":"left","rt":115.5,"correct":true,"confidence":4},{"trial_n":53,"n_dots":3.15,"target":"left","response":"left","rt":69,"correct":true,"confidence":3},{"trial_n":54,"n_dots":3.05,"target":"right","response":"right","rt":740.40000000596,"correct":true,"confidence":3},{"trial_n":55,"n_dots":3.05,"target":"left","response":"left","rt":2.7000000029802,"correct":true,"confidence":3},{"trial_n":56,"n_dots":2.95,"target":"left","response":"left","rt":85.29999999702,"correct":true,"confidence":3},{"trial_n":57,"n_dots":2.95,"target":"right","response":"left","rt":300.69999998808,"correct":false,"confidence":2},{"trial_n":58,"n_dots":3.05,"target":"right","response":"right","rt":350.40000000596,"correct":true,"confidence":2},{"trial_n":59,"n_dots":3.05,"target":"left","response":"left","rt":82.70000000298,"correct":true,"confidence":4},{"trial_n":60,"n_dots":2.95,"target":"right","response":"right","rt":338.39999999106,"correct":true,"confidence":5},{"trial_n":61,"n_dots":2.95,"target":"right","response":"left","rt":388.79999999702,"correct":false,"confidence":3},{"trial_n":62,"n_dots":3.05,"target":"right","response":"left","rt":87.79999999702,"correct":false,"confidence":3},{"trial_n":63,"n_dots":3.15,"target":"left","response":"left","rt":896.79999999702,"correct":true,"confidence":2},{"trial_n":64,"n_dots":3.15,"target":"right","response":"left","rt":245.29999999702,"correct":false,"confidence":3},{"trial_n":65,"n_dots":3.25,"target":"right","response":"right","rt":296.20000000298,"correct":true,"confidence":2},{"trial_n":66,"n_dots":3.25,"target":"right","response":"left","rt":388.19999998808,"correct":false,"confidence":3},{"trial_n":67,"n_dots":3.35,"target":"right","response":"left","rt":260.90000000596,"correct":false,"confidence":2},{"trial_n":68,"n_dots":3.45,"target":"left","response":"left","rt":374.40000000596,"correct":true,"confidence":4},{"trial_n":69,"n_dots":3.45,"target":"right","response":"right","rt":211.70000000298,"correct":true,"confidence":4},{"trial_n":70,"n_dots":3.35,"target":"right","response":"right","rt":399,"correct":true,"confidence":3},{"trial_n":71,"n_dots":3.35,"target":"left","response":"left","rt":217,"correct":true,"confidence":4},{"trial_n":72,"n_dots":3.25,"target":"left","response":"left","rt":362.59999999404,"correct":true,"confidence":4},{"trial_n":73,"n_dots":3.25,"target":"right","response":"right","rt":146.19999998808,"correct":true,"confidence":4},{"trial_n":74,"n_dots":3.15,"target":"right","response":"left","rt":542.09999999404,"correct":false,"confidence":3},{"trial_n":75,"n_dots":3.25,"target":"right","response":"left","rt":402.40000000596,"correct":false,"confidence":3},{"trial_n":76,"n_dots":3.35,"target":"left","response":"left","rt":214.60000000894,"correct":true,"confidence":3},{"trial_n":77,"n_dots":3.35,"target":"left","response":"left","rt":237,"correct":true,"confidence":3},{"trial_n":78,"n_dots":3.25,"target":"left","response":"left","rt":306.29999999702,"correct":true,"confidence":4},{"trial_n":79,"n_dots":3.25,"target":"right","response":"right","rt":511.5,"correct":true,"confidence":4},{"trial_n":80,"n_dots":3.15,"target":"right","response":"left","rt":583.5,"correct":false,"confidence":3},{"trial_n":81,"n_dots":3.25,"target":"right","response":"left","rt":575.10000000894,"correct":false,"confidence":4},{"trial_n":82,"n_dots":3.35,"target":"right","response":"left","rt":608.79999999702,"correct":false,"confidence":3},{"trial_n":83,"n_dots":3.45,"target":"left","response":"left","rt":757.10000000894,"correct":true,"confidence":3},{"trial_n":84,"n_dots":3.45,"target":"right","response":"left","rt":94.29999999702,"correct":false,"confidence":3},{"trial_n":85,"n_dots":3.55,"target":"right","response":"left","rt":172.40000000596,"correct":false,"confidence":2},{"trial_n":86,"n_dots":3.65,"target":"right","response":"left","rt":306.10000000894,"correct":false,"confidence":2},{"trial_n":87,"n_dots":3.75,"target":"right","response":"left","rt":380.5,"correct":false,"confidence":3},{"trial_n":88,"n_dots":3.85,"target":"right","response":"right","rt":1253.3999999911,"correct":true,"confidence":4},{"trial_n":89,"n_dots":3.85,"target":"left","response":"left","rt":93.59999999404,"correct":true,"confidence":4},{"trial_n":90,"n_dots":3.75,"target":"left","response":"left","rt":56.899999991059,"correct":true,"confidence":4},{"trial_n":91,"n_dots":3.75,"target":"left","response":"left","rt":138.20000000298,"correct":true,"confidence":4},{"trial_n":92,"n_dots":3.65,"target":"left","response":"left","rt":9.7999999970198,"correct":true,"confidence":4},{"trial_n":93,"n_dots":3.65,"target":"right","response":"right","rt":235.79999999702,"correct":true,"confidence":3},{"trial_n":94,"n_dots":3.55,"target":"left","response":"left","rt":41.699999988079,"correct":true,"confidence":4},{"trial_n":95,"n_dots":3.55,"target":"left","response":"left","rt":55.300000011921,"correct":true,"confidence":4},{"trial_n":96,"n_dots":3.45,"target":"right","response":"right","rt":183.29999999702,"correct":true,"confidence":3},{"trial_n":97,"n_dots":3.45,"target":"right","response":"right","rt":165.59999999404,"correct":true,"confidence":3},{"trial_n":98,"n_dots":3.35,"target":"right","response":"left","rt":573.70000000298,"correct":false,"confidence":3},{"trial_n":99,"n_dots":3.45,"target":"left","response":"left","rt":27.79999999702,"correct":true,"confidence":4},{"trial_n":100,"n_dots":3.45,"target":"left","response":"left","rt":86.29999999702,"correct":true,"confidence":4},{"trial_n":101,"n_dots":3.35,"target":"left","response":"left","rt":241.20000000298,"correct":true,"confidence":4},{"trial_n":102,"n_dots":3.35,"target":"left","response":"left","rt":146.89999999106,"correct":true,"confidence":4},{"trial_n":103,"n_dots":3.25,"target":"right","response":"right","rt":92.699999988079,"correct":true,"confidence":3},{"trial_n":104,"n_dots":3.25,"target":"right","response":"left","rt":261.40000000596,"correct":false,"confidence":2},{"trial_n":105,"n_dots":3.35,"target":"left","response":"left","rt":205.39999999106,"correct":true,"confidence":2},{"trial_n":106,"n_dots":3.35,"target":"left","response":"left","rt":233.60000000894,"correct":true,"confidence":3},{"trial_n":107,"n_dots":3.25,"target":"right","response":"left","rt":191.19999998808,"correct":false,"confidence":3},{"trial_n":108,"n_dots":3.35,"target":"left","response":"left","rt":909,"correct":true,"confidence":3},{"trial_n":109,"n_dots":3.35,"target":"left","response":"left","rt":64.09999999404,"correct":true,"confidence":3},{"trial_n":110,"n_dots":3.25,"target":"right","response":"right","rt":366.20000000298,"correct":true,"confidence":4},{"trial_n":111,"n_dots":3.25,"target":"right","response":"left","rt":257.10000000894,"correct":false,"confidence":3},{"trial_n":112,"n_dots":3.35,"target":"left","response":"left","rt":207.40000000596,"correct":true,"confidence":4},{"trial_n":113,"n_dots":3.35,"target":"right","response":"right","rt":319.39999999106,"correct":true,"confidence":4},{"trial_n":114,"n_dots":3.25,"target":"left","response":"left","rt":225.79999999702,"correct":true,"confidence":3},{"trial_n":115,"n_dots":3.25,"target":"right","response":"left","rt":83.59999999404,"correct":false,"confidence":3},{"trial_n":116,"n_dots":3.35,"target":"right","response":"right","rt":149.10000000894,"correct":true,"confidence":4},{"trial_n":117,"n_dots":3.35,"target":"left","response":"left","rt":125.5,"correct":true,"confidence":4},{"trial_n":118,"n_dots":3.25,"target":"left","response":"left","rt":257.20000000298,"correct":true,"confidence":2},{"trial_n":119,"n_dots":3.25,"target":"right","response":"right","rt":885.20000000298,"correct":true,"confidence":3},{"trial_n":120,"n_dots":3.15,"target":"left","response":"left","rt":38,"correct":true,"confidence":3}]