[{"trial_n":1,"n_dots":4.25,"target":"left","response":"left","rt":3573.8999999762,"correct":true,"confidence":-1},{"trial_n":2,"n_dots":4.25,"target":"right","response":"right","rt":1155.8999999762,"correct":true,"confidence":-1},{"trial_n":3,"n_dots":3.85,"target":"right","response":"left","rt":1134.7999999523,"correct":false,"confidence":-1},{"trial_n":4,"n_dots":4.25,"target":"right","response":"right","rt":1069.8999999762,"correct":true,"confidence":-1},{"trial_n":5,"n_dots":4.25,"target":"left","response":"left","rt":621.69999998808,"correct":true,"confidence":-1},{"trial_n":6,"n_dots":3.85,"target":"left","response":"left","rt":156.40000003576,"correct":true,"confidence":-1},{"trial_n":7,"n_dots":3.85,"target":"left","response":"left","rt":212.69999998808,"correct":true,"confidence":-1},{"trial_n":8,"n_dots":3.65,"target":"left","response":"left","rt":1.5,"correct":true,"confidence":-1},{"trial_n":9,"n_dots":3.65,"target":"right","response":"left","rt":28.699999988079,"correct":false,"confidence":-1},{"trial_n":10,"n_dots":3.85,"target":"left","response":"left","rt":234,"correct":true,"confidence":-1},{"trial_n":11,"n_dots":3.85,"target":"left","response":"right","rt":523.09999996424,"correct":false,"confidence":-1},{"trial_n":12,"n_dots":4.05,"target":"left","response":"left","rt":749.39999997616,"correct":true,"confidence":-1},{"trial_n":13,"n_dots":4.05,"target":"left","response":"left","rt":707.39999997616,"correct":true,"confidence":-1},{"trial_n":14,"n_dots":3.95,"target":"left","response":"left","rt":410.09999996424,"correct":true,"confidence":-1},{"trial_n":15,"n_dots":3.95,"target":"right","response":"right","rt":669.29999995232,"correct":true,"confidence":-1},{"trial_n":16,"n_dots":3.85,"target":"left","response":"left","rt":137.69999998808,"correct":true,"confidence":-1},{"trial_n":17,"n_dots":3.85,"target":"left","response":"left","rt":568.79999995232,"correct":true,"confidence":-1},{"trial_n":18,"n_dots":3.75,"target":"right","response":"right","rt":780.29999995232,"correct":true,"confidence":-1},{"trial_n":19,"n_dots":3.75,"target":"left","response":"left","rt":171.5,"correct":true,"confidence":-1},{"trial_n":20,"n_dots":3.65,"target":"right","response":"left","rt":132,"correct":false,"confidence":-1},{"trial_n":21,"n_dots":3.75,"target":"right","response":"left","rt":1455.3999999762,"correct":false,"confidence":5},{"trial_n":22,"n_dots":3.85,"target":"right","response":"right","rt":941.09999996424,"correct":true,"confidence":3},{"trial_n":23,"n_dots":3.85,"target":"left","response":"left","rt":751.60000002384,"correct":true,"confidence":4},{"trial_n":24,"n_dots":3.75,"target":"left","response":"left","rt":466.80000001192,"correct":true,"confidence":5},{"trial_n":25,"n_dots":3.75,"target":"left","response":"left","rt":340.30000001192,"correct":true,"confidence":5},{"trial_n":26,"n_dots":3.65,"target":"right","response":"right","rt":973.89999997616,"correct":true,"confidence":3},{"trial_n":27,"n_dots":3.65,"target":"left","response":"left","rt":415.70000004768,"correct":true,"confidence":2},{"trial_n":28,"n_dots":3.55,"target":"right","response":"right","rt":675.79999995232,"correct":true,"confidence":3},{"trial_n":29,"n_dots":3.55,"target":"left","response":"left","rt":463.59999996424,"correct":true,"confidence":5},{"trial_n":30,"n_dots":3.45,"target":"right","response":"left","rt":760.5,"correct":false,"confidence":3},{"trial_n":31,"n_dots":3.55,"target":"right","response":"left","rt":385.60000002384,"correct":false,"confidence":4},{"trial_n":32,"n_dots":3.65,"target":"left","response":"left","rt":654,"correct":true,"confidence":5},{"trial_n":33,"n_dots":3.65,"target":"left","response":"left","rt":258.5,"correct":true,"confidence":5},{"trial_n":34,"n_dots":3.55,"target":"right","response":"right","rt":693.29999995232,"correct":true,"confidence":5},{"trial_n":35,"n_dots":3.55,"target":"left","response":"right","rt":914.89999997616,"correct":false,"confidence":5},{"trial_n":36,"n_dots":3.65,"target":"right","response":"right","rt":740,"correct":true,"confidence":5},{"trial_n":37,"n_dots":3.65,"target":"left","response":"left","rt":891,"correct":true,"confidence":2},{"trial_n":38,"n_dots":3.55,"target":"right","response":"right","rt":727,"correct":true,"confidence":1},{"trial_n":39,"n_dots":3.55,"target":"right","response":"left","rt":2613.7000000477,"correct":false,"confidence":4},{"trial_n":40,"n_dots":3.65,"target":"left","response":"left","rt":711.40000003576,"correct":true,"confidence":5},{"trial_n":41,"n_dots":3.65,"target":"left","response":"left","rt":919.40000003576,"correct":true,"confidence":4},{"trial_n":42,"n_dots":3.55,"target":"right","response":"right","rt":544.59999996424,"correct":true,"confidence":4},{"trial_n":43,"n_dots":3.55,"target":"right","response":"left","rt":1007,"correct":false,"confidence":2},{"trial_n":44,"n_dots":3.65,"target":"left","response":"left","rt":589.69999998808,"correct":true,"confidence":4},{"trial_n":45,"n_dots":3.65,"target":"left","response":"right","rt":3870.3000000119,"correct":false,"confidence":1},{"trial_n":46,"n_dots":3.75,"target":"left","response":"right","rt":1208.3999999762,"correct":false,"confidence":5},{"trial_n":47,"n_dots":3.85,"target":"left","response":"left","rt":487.60000002384,"correct":true,"confidence":5},{"trial_n":48,"n_dots":3.85,"target":"left","response":"right","rt":1124.4000000358,"correct":false,"confidence":5},{"trial_n":49,"n_dots":3.95,"target":"right","response":"right","rt":813.89999997616,"correct":true,"confidence":5},{"trial_n":50,"n_dots":3.95,"target":"left","response":"left","rt":424.5,"correct":true,"confidence":5},{"trial_n":51,"n_dots":3.85,"target":"right","response":"right","rt":1672.5,"correct":true,"confidence":5},{"trial_n":52,"n_dots":3.85,"target":"right","response":"right","rt":702.5,"correct":true,"confidence":5},{"trial_n":53,"n_dots":3.75,"target":"right","response":"left","rt":862.5,"correct":false,"confidence":1},{"trial_n":54,"n_dots":3.85,"target":"right","response":"right","rt":227.69999998808,"correct":true,"confidence":1},{"trial_n":55,"n_dots":3.85,"target":"right","response":"right","rt":634.90000003576,"correct":true,"confidence":2},{"trial_n":56,"n_dots":3.75,"target":"left","response":"left","rt":254.39999997616,"correct":true,"confidence":5},{"trial_n":57,"n_dots":3.75,"target":"right","response":"right","rt":944.29999995232,"correct":true,"confidence":2},{"trial_n":58,"n_dots":3.65,"target":"right","response":"right","rt":1142.8000000119,"correct":true,"confidence":4},{"trial_n":59,"n_dots":3.65,"target":"left","response":"left","rt":376.10000002384,"correct":true,"confidence":5},{"trial_n":60,"n_dots":3.55,"target":"right","response":"right","rt":861.10000002384,"correct":true,"confidence":5},{"trial_n":61,"n_dots":3.55,"target":"right","response":"right","rt":974.69999998808,"correct":true,"confidence":5},{"trial_n":62,"n_dots":3.45,"target":"left","response":"left","rt":376.30000001192,"correct":true,"confidence":5},{"trial_n":63,"n_dots":3.45,"target":"right","response":"right","rt":499,"correct":true,"confidence":4},{"trial_n":64,"n_dots":3.35,"target":"left","response":"left","rt":313.10000002384,"correct":true,"confidence":5},{"trial_n":65,"n_dots":3.35,"target":"left","response":"right","rt":341.40000003576,"correct":false,"confidence":3},{"trial_n":66,"n_dots":3.45,"target":"left","response":"left","rt":246.20000004768,"correct":true,"confidence":5},{"trial_n":67,"n_dots":3.45,"target":"left","response":"right","rt":591,"correct":false,"confidence":3},{"trial_n":68,"n_dots":3.55,"target":"right","response":"left","rt":312.5,"correct":false,"confidence":3},{"trial_n":69,"n_dots":3.65,"target":"right","response":"right","rt":913,"correct":true,"confidence":5},{"trial_n":70,"n_dots":3.65,"target":"left","response":"left","rt":1192.2999999523,"correct":true,"confidence":5},{"trial_n":71,"n_dots":3.55,"target":"right","response":"right","rt":879.90000003576,"correct":true,"confidence":5},{"trial_n":72,"n_dots":3.55,"target":"left","response":"left","rt":524.39999997616,"correct":true,"confidence":5},{"trial_n":73,"n_dots":3.45,"target":"left","response":"left","rt":481.20000004768,"correct":true,"confidence":2},{"trial_n":74,"n_dots":3.45,"target":"right","response":"right","rt":152,"correct":true,"confidence":3},{"trial_n":75,"n_dots":3.35,"target":"right","response":"left","rt":1531.1999999881,"correct":false,"confidence":4},{"trial_n":76,"n_dots":3.45,"target":"right","response":"right","rt":769.90000003576,"correct":true,"confidence":5},{"trial_n":77,"n_dots":3.45,"target":"left","response":"left","rt":349.39999997616,"correct":true,"confidence":4},{"trial_n":78,"n_dots":3.35,"target":"right","response":"right","rt":372.09999996424,"correct":true,"confidence":5},{"trial_n":79,"n_dots":3.35,"target":"right","response":"right","rt":870.10000002384,"correct":true,"confidence":5},{"trial_n":80,"n_dots":3.25,"target":"left","response":"left","rt":455.70000004768,"correct":true,"confidence":5},{"trial_n":81,"n_dots":3.25,"target":"left","response":"left","rt":1099,"correct":true,"confidence":2},{"trial_n":82,"n_dots":3.15,"target":"left","response":"right","rt":592.20000004768,"correct":false,"confidence":4},{"trial_n":83,"n_dots":3.25,"target":"left","response":"left","rt":401.20000004768,"correct":true,"confidence":5},{"trial_n":84,"n_dots":3.25,"target":"left","response":"left","rt":49.300000011921,"correct":true,"confidence":5},{"trial_n":85,"n_dots":3.15,"target":"right","response":"right","rt":143.80000001192,"correct":true,"confidence":4},{"trial_n":86,"n_dots":3.15,"target":"left","response":"right","rt":586.29999995232,"correct":false,"confidence":3},{"trial_n":87,"n_dots":3.25,"target":"left","response":"left","rt":230.30000001192,"correct":true,"confidence":5},{"trial_n":88,"n_dots":3.25,"target":"right","response":"left","rt":164.89999997616,"correct":false,"confidence":5},{"trial_n":89,"n_dots":3.35,"target":"left","response":"left","rt":43.599999964237,"correct":true,"confidence":5},{"trial_n":90,"n_dots":3.35,"target":"right","response":"right","rt":988.29999995232,"correct":true,"confidence":4},{"trial_n":91,"n_dots":3.25,"target":"right","response":"right","rt":610.5,"correct":true,"confidence":5},{"trial_n":92,"n_dots":3.25,"target":"right","response":"right","rt":411.69999998808,"correct":true,"confidence":5},{"trial_n":93,"n_dots":3.15,"target":"right","response":"right","rt":433.60000002384,"correct":true,"confidence":3},{"trial_n":94,"n_dots":3.15,"target":"left","response":"left","rt":507.5,"correct":true,"confidence":5},{"trial_n":95,"n_dots":3.05,"target":"right","response":"right","rt":245.80000001192,"correct":true,"confidence":2},{"trial_n":96,"n_dots":3.05,"target":"left","response":"left","rt":354.5,"correct":true,"confidence":3},{"trial_n":97,"n_dots":2.95,"target":"right","response":"left","rt":144,"correct":false,"confidence":5},{"trial_n":98,"n_dots":3.05,"target":"right","response":"right","rt":244.10000002384,"correct":true,"confidence":4},{"trial_n":99,"n_dots":3.05,"target":"right","response":"right","rt":620.39999997616,"correct":true,"confidence":4},{"trial_n":100,"n_dots":2.95,"target":"right","response":"left","rt":1454.1999999881,"correct":false,"confidence":4},{"trial_n":101,"n_dots":3.05,"target":"left","response":"right","rt":1684.8000000119,"correct":false,"confidence":3},{"trial_n":102,"n_dots":3.15,"target":"left","response":"right","rt":591.39999997616,"correct":false,"confidence":4},{"trial_n":103,"n_dots":3.25,"target":"right","response":"right","rt":844.09999996424,"correct":true,"confidence":4},{"trial_n":104,"n_dots":3.25,"target":"left","response":"left","rt":297.40000003576,"correct":true,"confidence":2},{"trial_n":105,"n_dots":3.15,"target":"right","response":"right","rt":915.70000004768,"correct":true,"confidence":5},{"trial_n":106,"n_dots":3.15,"target":"left","response":"left","rt":1431.3000000119,"correct":true,"confidence":5},{"trial_n":107,"n_dots":3.05,"target":"right","response":"right","rt":630.10000002384,"correct":true,"confidence":4},{"trial_n":108,"n_dots":3.05,"target":"left","response":"left","rt":543.30000001192,"correct":true,"confidence":5},{"trial_n":109,"n_dots":2.95,"target":"left","response":"right","rt":588.70000004768,"correct":false,"confidence":3},{"trial_n":110,"n_dots":3.05,"target":"right","response":"right","rt":528.89999997616,"correct":true,"confidence":5},{"trial_n":111,"n_dots":3.05,"target":"left","response":"left","rt":972.19999998808,"correct":true,"confidence":5},{"trial_n":112,"n_dots":2.95,"target":"right","response":"right","rt":521.39999997616,"correct":true,"confidence":5},{"trial_n":113,"n_dots":2.95,"target":"right","response":"right","rt":622.39999997616,"correct":true,"confidence":5},{"trial_n":114,"n_dots":2.85,"target":"right","response":"left","rt":1080.5999999642,"correct":false,"confidence":4},{"trial_n":115,"n_dots":2.95,"target":"right","response":"left","rt":564.59999996424,"correct":false,"confidence":5},{"trial_n":116,"n_dots":3.05,"target":"left","response":"right","rt":530.80000001192,"correct":false,"confidence":4},{"trial_n":117,"n_dots":3.15,"target":"right","response":"right","rt":328.69999998808,"correct":true,"confidence":5},{"trial_n":118,"n_dots":3.15,"target":"right","response":"left","rt":1253.5999999642,"correct":false,"confidence":5},{"trial_n":119,"n_dots":3.25,"target":"left","response":"left","rt":874.39999997616,"correct":true,"confidence":4},{"trial_n":120,"n_dots":3.25,"target":"right","response":"right","rt":776.69999998808,"correct":true,"confidence":4}]