[{"trial_n":1,"span":8,"encoder":"13870032","distractor":"13570032","target":"present","response":"absent","rt":"8519.3000000119","correct":false,"confidence":-1},{"trial_n":2,"span":6,"encoder":"192514","distractor":"182514","target":"present","response":"present","rt":"2260.4000000358","correct":true,"confidence":-1},{"trial_n":3,"span":6,"encoder":"525114","distractor":"525164","target":"absent","response":"absent","rt":"1554.6999999881","correct":true,"confidence":-1},{"trial_n":4,"span":8,"encoder":"29148615","distractor":"39148615","target":"absent","response":"absent","rt":"1543","correct":true,"confidence":-1},{"trial_n":5,"span":8,"encoder":"24792001","distractor":"44792001","target":"present","response":"present","rt":"2128.6000000238","correct":true,"confidence":-1},{"trial_n":6,"span":10,"encoder":"7791528639","distractor":"7799528639","target":"absent","response":"absent","rt":"2688.3000000119","correct":true,"confidence":-1},{"trial_n":7,"span":10,"encoder":"8254988412","distractor":"8254928412","target":"present","response":"absent","rt":"1797.0999999642","correct":false,"confidence":-1},{"trial_n":8,"span":8,"encoder":"25260901","distractor":"25260101","target":"present","response":"absent","rt":"2547.1999999881","correct":false,"confidence":-1},{"trial_n":9,"span":6,"encoder":"966481","distractor":"966489","target":"absent","response":"absent","rt":"3294.6999999881","correct":true,"confidence":-1},{"trial_n":10,"span":6,"encoder":"038162","distractor":"038102","target":"present","response":"present","rt":"2292.6999999881","correct":true,"confidence":-1},{"trial_n":11,"span":8,"encoder":"89341865","distractor":"89341765","target":"present","response":"present","rt":"1653.5","correct":true,"confidence":-1},{"trial_n":12,"span":8,"encoder":"59543686","distractor":"59543656","target":"present","response":"present","rt":"1956.5999999642","correct":true,"confidence":-1},{"trial_n":13,"span":9,"encoder":"827851762","distractor":"827851162","target":"absent","response":"present","rt":"2081.1000000238","correct":false,"confidence":-1},{"trial_n":14,"span":8,"encoder":"07145393","distractor":"07145293","target":"present","response":"present","rt":"1465.7000000477","correct":true,"confidence":-1},{"trial_n":15,"span":8,"encoder":"93911099","distractor":"93411099","target":"absent","response":"absent","rt":"3060.3000000119","correct":true,"confidence":-1},{"trial_n":16,"span":9,"encoder":"037667515","distractor":"037667535","target":"present","response":"present","rt":"1400.0999999642","correct":true,"confidence":-1},{"trial_n":17,"span":9,"encoder":"889486636","distractor":"589486636","target":"present","response":"present","rt":"1384.6999999881","correct":true,"confidence":-1},{"trial_n":18,"span":10,"encoder":"5066944085","distractor":"5066964085","target":"present","response":"present","rt":"1402.5","correct":true,"confidence":-1},{"trial_n":19,"span":10,"encoder":"0734659269","distractor":"0733659269","target":"absent","response":"absent","rt":"2323.1999999881","correct":true,"confidence":-1},{"trial_n":20,"span":11,"encoder":"36526096783","distractor":"36526097783","target":"present","response":"absent","rt":"1805.8999999762","correct":false,"confidence":-1},{"trial_n":21,"span":10,"encoder":"0363753789","distractor":"0363753784","target":"present","response":"present","rt":"1575.6000000238","correct":true,"confidence":3},{"trial_n":22,"span":10,"encoder":"9845146971","distractor":"9845146951","target":"present","response":"present","rt":"1523","correct":true,"confidence":3},{"trial_n":23,"span":11,"encoder":"82427628787","distractor":"82427628780","target":"absent","response":"absent","rt":"3520.3000000119","correct":true,"confidence":4},{"trial_n":24,"span":11,"encoder":"95774124067","distractor":"95754124067","target":"present","response":"absent","rt":"2675.6000000238","correct":false,"confidence":2},{"trial_n":25,"span":10,"encoder":"8241033572","distractor":"8201033572","target":"present","response":"present","rt":"2487.1999999881","correct":true,"confidence":4},{"trial_n":26,"span":10,"encoder":"4049022269","distractor":"4029022269","target":"absent","response":"absent","rt":"3925.6000000238","correct":true,"confidence":1},{"trial_n":27,"span":11,"encoder":"50917371550","distractor":"52917371550","target":"present","response":"present","rt":"2318.6000000238","correct":true,"confidence":4},{"trial_n":28,"span":11,"encoder":"39614950288","distractor":"99614950288","target":"absent","response":"absent","rt":"2706.8000000119","correct":true,"confidence":5},{"trial_n":29,"span":12,"encoder":"699063366601","distractor":"699063369601","target":"absent","response":"absent","rt":"3606.6999999881","correct":true,"confidence":5},{"trial_n":30,"span":12,"encoder":"414282357676","distractor":"414281357676","target":"absent","response":"present","rt":"2781.5999999642","correct":false,"confidence":3},{"trial_n":31,"span":11,"encoder":"51209000851","distractor":"61209000851","target":"absent","response":"absent","rt":"2645.5","correct":true,"confidence":5},{"trial_n":32,"span":11,"encoder":"56462497243","distractor":"56462497293","target":"absent","response":"present","rt":"3565.7999999523","correct":false,"confidence":2},{"trial_n":33,"span":10,"encoder":"3895290520","distractor":"3898290520","target":"absent","response":"absent","rt":"3304.1999999881","correct":true,"confidence":5},{"trial_n":34,"span":10,"encoder":"4721279202","distractor":"4721269202","target":"present","response":"present","rt":"2655.3000000119","correct":true,"confidence":3},{"trial_n":35,"span":11,"encoder":"06163963347","distractor":"06166963347","target":"present","response":"present","rt":"2944.0999999642","correct":true,"confidence":3},{"trial_n":36,"span":11,"encoder":"13096221178","distractor":"13696221178","target":"absent","response":"absent","rt":"4858.1000000238","correct":true,"confidence":2},{"trial_n":37,"span":12,"encoder":"053723046008","distractor":"053323046008","target":"absent","response":"absent","rt":"3974.1999999881","correct":true,"confidence":1},{"trial_n":38,"span":12,"encoder":"178395714561","distractor":"178795714561","target":"present","response":"absent","rt":"2138.5","correct":false,"confidence":5},{"trial_n":39,"span":11,"encoder":"62515517366","distractor":"62518517366","target":"present","response":"present","rt":"4101.1000000238","correct":true,"confidence":3},{"trial_n":40,"span":11,"encoder":"77555700001","distractor":"17555700001","target":"present","response":"present","rt":"3193.8000000119","correct":true,"confidence":1},{"trial_n":41,"span":12,"encoder":"246884611807","distractor":"246884611887","target":"absent","response":"absent","rt":"4611.8000000119","correct":true,"confidence":1},{"trial_n":42,"span":12,"encoder":"770491500483","distractor":"770491400483","target":"absent","response":"present","rt":"3691.3000000119","correct":false,"confidence":3},{"trial_n":43,"span":11,"encoder":"59111718740","distractor":"39111718740","target":"present","response":"present","rt":"2833.2000000477","correct":true,"confidence":3},{"trial_n":44,"span":11,"encoder":"51832749272","distractor":"51842749272","target":"present","response":"present","rt":"4213.8999999762","correct":true,"confidence":2},{"trial_n":45,"span":12,"encoder":"747596979752","distractor":"747596579752","target":"absent","response":"present","rt":"3010.8999999762","correct":false,"confidence":2},{"trial_n":46,"span":11,"encoder":"43684921023","distractor":"43684961023","target":"absent","response":"absent","rt":"2569.4000000358","correct":true,"confidence":2},{"trial_n":47,"span":11,"encoder":"77548476055","distractor":"76548476055","target":"present","response":"present","rt":"2718","correct":true,"confidence":3},{"trial_n":48,"span":12,"encoder":"585562284221","distractor":"585562284211","target":"present","response":"absent","rt":"4115.6000000238","correct":false,"confidence":2},{"trial_n":49,"span":11,"encoder":"08169300558","distractor":"08169300551","target":"absent","response":"present","rt":"2582.1999999881","correct":false,"confidence":4},{"trial_n":50,"span":10,"encoder":"5414427046","distractor":"5314427046","target":"present","response":"present","rt":"3169.5","correct":true,"confidence":2},{"trial_n":51,"span":10,"encoder":"4644668260","distractor":"4444668260","target":"absent","response":"absent","rt":"2037.9000000358","correct":true,"confidence":5},{"trial_n":52,"span":11,"encoder":"78774059451","distractor":"58774059451","target":"absent","response":"present","rt":"3172.1999999881","correct":false,"confidence":3},{"trial_n":53,"span":10,"encoder":"7009491493","distractor":"7809491493","target":"present","response":"present","rt":"2375.6000000238","correct":true,"confidence":3},{"trial_n":54,"span":10,"encoder":"2537844349","distractor":"2537854349","target":"present","response":"present","rt":"3202.1999999881","correct":true,"confidence":1},{"trial_n":55,"span":11,"encoder":"60497218301","distractor":"20497218301","target":"present","response":"present","rt":"3628","correct":true,"confidence":2},{"trial_n":56,"span":11,"encoder":"30348531135","distractor":"38348531135","target":"absent","response":"present","rt":"3409.5","correct":false,"confidence":1},{"trial_n":57,"span":10,"encoder":"1280033952","distractor":"1580033952","target":"absent","response":"absent","rt":"2558.8999999762","correct":true,"confidence":4},{"trial_n":58,"span":10,"encoder":"4499166794","distractor":"4499160794","target":"absent","response":"present","rt":"2198.3000000119","correct":false,"confidence":4},{"trial_n":59,"span":9,"encoder":"653782747","distractor":"653782727","target":"present","response":"present","rt":"2259.3000000119","correct":true,"confidence":3},{"trial_n":60,"span":9,"encoder":"609962911","distractor":"609762911","target":"present","response":"present","rt":"2416","correct":true,"confidence":4},{"trial_n":61,"span":10,"encoder":"0191295464","distractor":"0691295464","target":"present","response":"present","rt":"2381.5","correct":true,"confidence":3},{"trial_n":62,"span":10,"encoder":"8674688612","distractor":"8674688912","target":"absent","response":"present","rt":"2147.5999999642","correct":false,"confidence":3},{"trial_n":63,"span":9,"encoder":"420374556","distractor":"820374556","target":"absent","response":"present","rt":"2785.5999999642","correct":false,"confidence":4},{"trial_n":64,"span":8,"encoder":"28053513","distractor":"28053013","target":"absent","response":"present","rt":"1859.6000000238","correct":false,"confidence":4},{"trial_n":65,"span":7,"encoder":"9342230","distractor":"9342250","target":"present","response":"present","rt":"1776.4000000358","correct":true,"confidence":4},{"trial_n":66,"span":7,"encoder":"8189073","distractor":"8189072","target":"absent","response":"absent","rt":"4005.1999999881","correct":true,"confidence":2},{"trial_n":67,"span":8,"encoder":"74526679","distractor":"74526649","target":"present","response":"present","rt":"2286.1999999881","correct":true,"confidence":4},{"trial_n":68,"span":8,"encoder":"48876768","distractor":"49876768","target":"absent","response":"absent","rt":"3223.5","correct":true,"confidence":5},{"trial_n":69,"span":9,"encoder":"319679125","distractor":"319673125","target":"absent","response":"present","rt":"2047.3000000119","correct":false,"confidence":4},{"trial_n":70,"span":8,"encoder":"90146551","distractor":"98146551","target":"absent","response":"absent","rt":"2672.8999999762","correct":true,"confidence":5},{"trial_n":71,"span":8,"encoder":"59447828","distractor":"59347828","target":"present","response":"present","rt":"2519.2000000477","correct":true,"confidence":-1},{"trial_n":72,"span":8,"encoder":"82686740","distractor":"52686740","target":"present","response":"absent","rt":"7197.5999999642","correct":false,"confidence":-1},{"trial_n":73,"span":7,"encoder":"9278151","distractor":"9275151","target":"absent","response":"absent","rt":"1588","correct":true,"confidence":-1},{"trial_n":74,"span":7,"encoder":"7148057","distractor":"7148050","target":"absent","response":"absent","rt":"3976.1000000238","correct":true,"confidence":-1},{"trial_n":75,"span":8,"encoder":"04362847","distractor":"04365847","target":"present","response":"present","rt":"2676","correct":true,"confidence":-1},{"trial_n":76,"span":8,"encoder":"94324109","distractor":"94324139","target":"absent","response":"absent","rt":"3881","correct":true,"confidence":-1},{"trial_n":77,"span":9,"encoder":"284460028","distractor":"204460028","target":"present","response":"present","rt":"2088","correct":true,"confidence":-1},{"trial_n":78,"span":9,"encoder":"427464694","distractor":"417464694","target":"absent","response":"present","rt":"7844.8000000119","correct":false,"confidence":-1},{"trial_n":79,"span":8,"encoder":"30374049","distractor":"30375049","target":"present","response":"absent","rt":"1326.5999999642","correct":false,"confidence":-1},{"trial_n":80,"span":7,"encoder":"3541751","distractor":"3540751","target":"present","response":"present","rt":"877.59999996424","correct":true,"confidence":-1},{"trial_n":81,"span":7,"encoder":"5240954","distractor":"5240957","target":"present","response":"present","rt":"2462.5","correct":true,"confidence":-1},{"trial_n":82,"span":8,"encoder":"13319776","distractor":"13319774","target":"present","response":"absent","rt":"839.79999995232","correct":false,"confidence":-1},{"trial_n":83,"span":7,"encoder":"1300259","distractor":"1100259","target":"absent","response":"absent","rt":"2802.8000000119","correct":true,"confidence":-1},{"trial_n":84,"span":7,"encoder":"2334655","distractor":"2734655","target":"present","response":"absent","rt":"3372.5","correct":false,"confidence":-1},{"trial_n":85,"span":6,"encoder":"164802","distractor":"124802","target":"present","response":"present","rt":"2066.6000000238","correct":true,"confidence":-1},{"trial_n":86,"span":6,"encoder":"872104","distractor":"872103","target":"present","response":"absent","rt":"2528.3000000119","correct":false,"confidence":-1},{"trial_n":87,"span":5,"encoder":"60311","distractor":"60310","target":"absent","response":"absent","rt":"1075.1000000238","correct":true,"confidence":-1},{"trial_n":88,"span":5,"encoder":"66660","distractor":"66662","target":"present","response":"present","rt":"1344.9000000358","correct":true,"confidence":-1},{"trial_n":89,"span":6,"encoder":"711296","distractor":"781296","target":"present","response":"present","rt":"1454.3000000119","correct":true,"confidence":-1},{"trial_n":90,"span":6,"encoder":"201113","distractor":"200113","target":"absent","response":"absent","rt":"2056.6999999881","correct":true,"confidence":-1},{"trial_n":91,"span":7,"encoder":"0201762","distractor":"0601762","target":"present","response":"present","rt":"1455.8000000119","correct":true,"confidence":5},{"trial_n":92,"span":7,"encoder":"7460551","distractor":"7464551","target":"absent","response":"absent","rt":"1586","correct":true,"confidence":1},{"trial_n":93,"span":8,"encoder":"16706864","distractor":"96706864","target":"present","response":"present","rt":"1394.8999999762","correct":true,"confidence":4},{"trial_n":94,"span":8,"encoder":"86549897","distractor":"86549894","target":"absent","response":"present","rt":"2835.5999999642","correct":false,"confidence":1},{"trial_n":95,"span":7,"encoder":"2406344","distractor":"2406944","target":"present","response":"present","rt":"2322.8000000119","correct":true,"confidence":5},{"trial_n":96,"span":7,"encoder":"2656204","distractor":"2656284","target":"absent","response":"present","rt":"2711","correct":false,"confidence":1},{"trial_n":97,"span":6,"encoder":"328650","distractor":"388650","target":"present","response":"present","rt":"2033.2000000477","correct":true,"confidence":4},{"trial_n":98,"span":6,"encoder":"426459","distractor":"426456","target":"absent","response":"present","rt":"4112.8000000119","correct":false,"confidence":1},{"trial_n":99,"span":5,"encoder":"18279","distractor":"12279","target":"present","response":"present","rt":"1273.5","correct":true,"confidence":5},{"trial_n":100,"span":5,"encoder":"30221","distractor":"30821","target":"absent","response":"absent","rt":"1553.1000000238","correct":true,"confidence":5},{"trial_n":101,"span":6,"encoder":"712325","distractor":"712355","target":"present","response":"present","rt":"2043.8000000119","correct":true,"confidence":1},{"trial_n":102,"span":6,"encoder":"084107","distractor":"084167","target":"absent","response":"present","rt":"1780.8999999762","correct":false,"confidence":2},{"trial_n":103,"span":5,"encoder":"97673","distractor":"97623","target":"absent","response":"absent","rt":"2658.6000000238","correct":true,"confidence":1},{"trial_n":104,"span":5,"encoder":"85597","distractor":"85527","target":"present","response":"present","rt":"1591.6999999881","correct":true,"confidence":5},{"trial_n":105,"span":6,"encoder":"822036","distractor":"822136","target":"present","response":"present","rt":"2996.5999999642","correct":true,"confidence":4},{"trial_n":106,"span":6,"encoder":"103963","distractor":"102963","target":"absent","response":"absent","rt":"1918.6999999881","correct":true,"confidence":4},{"trial_n":107,"span":7,"encoder":"3861014","distractor":"6861014","target":"present","response":"present","rt":"2469.3000000119","correct":true,"confidence":2},{"trial_n":108,"span":7,"encoder":"3667908","distractor":"3167908","target":"absent","response":"absent","rt":"1382","correct":true,"confidence":4},{"trial_n":109,"span":8,"encoder":"11590528","distractor":"01590528","target":"present","response":"present","rt":"1259.2000000477","correct":true,"confidence":5},{"trial_n":110,"span":8,"encoder":"11313684","distractor":"11313384","target":"absent","response":"absent","rt":"2111.6999999881","correct":true,"confidence":1},{"trial_n":111,"span":9,"encoder":"687519547","distractor":"687529547","target":"absent","response":"present","rt":"2698.3000000119","correct":false,"confidence":1},{"trial_n":112,"span":8,"encoder":"51433105","distractor":"41433105","target":"absent","response":"absent","rt":"1080.0999999642","correct":true,"confidence":4},{"trial_n":113,"span":8,"encoder":"01662043","distractor":"01662053","target":"absent","response":"present","rt":"2354.6999999881","correct":false,"confidence":1},{"trial_n":114,"span":7,"encoder":"5166018","distractor":"5116018","target":"present","response":"present","rt":"3585.5","correct":true,"confidence":1},{"trial_n":115,"span":7,"encoder":"3393196","distractor":"3393106","target":"present","response":"absent","rt":"4113.7000000477","correct":false,"confidence":1},{"trial_n":116,"span":6,"encoder":"226939","distractor":"226938","target":"present","response":"absent","rt":"3389","correct":false,"confidence":1},{"trial_n":117,"span":5,"encoder":"48739","distractor":"48539","target":"absent","response":"absent","rt":"2903","correct":true,"confidence":4},{"trial_n":118,"span":5,"encoder":"87534","distractor":"87334","target":"present","response":"present","rt":"1812.8000000119","correct":true,"confidence":1},{"trial_n":119,"span":6,"encoder":"609223","distractor":"679223","target":"absent","response":"present","rt":"2408.5","correct":false,"confidence":1},{"trial_n":120,"span":5,"encoder":"77707","distractor":"77807","target":"absent","response":"absent","rt":"2317.5999999642","correct":true,"confidence":1},{"trial_n":121,"span":5,"encoder":"32942","distractor":"92942","target":"present","response":"present","rt":"2019.6000000238","correct":true,"confidence":4},{"trial_n":122,"span":6,"encoder":"507291","distractor":"507591","target":"present","response":"present","rt":"1691.1000000238","correct":true,"confidence":1},{"trial_n":123,"span":6,"encoder":"502878","distractor":"502848","target":"absent","response":"absent","rt":"3169.3000000119","correct":true,"confidence":4},{"trial_n":124,"span":7,"encoder":"0268371","distractor":"0268375","target":"absent","response":"present","rt":"2443.1999999881","correct":false,"confidence":1},{"trial_n":125,"span":6,"encoder":"919916","distractor":"912916","target":"absent","response":"absent","rt":"2673","correct":true,"confidence":5},{"trial_n":126,"span":6,"encoder":"156572","distractor":"156522","target":"absent","response":"absent","rt":"2347.5","correct":true,"confidence":3},{"trial_n":127,"span":7,"encoder":"3770174","distractor":"3770179","target":"present","response":"absent","rt":"2170.1999999881","correct":false,"confidence":1},{"trial_n":128,"span":6,"encoder":"998501","distractor":"998701","target":"present","response":"present","rt":"3227.5","correct":true,"confidence":4},{"trial_n":129,"span":6,"encoder":"061954","distractor":"066954","target":"present","response":"present","rt":"2527","correct":true,"confidence":5},{"trial_n":130,"span":7,"encoder":"5647956","distractor":"5647946","target":"absent","response":"absent","rt":"2534.5999999642","correct":true,"confidence":5},{"trial_n":131,"span":7,"encoder":"9800448","distractor":"9804448","target":"absent","response":"absent","rt":"1973.3999999762","correct":true,"confidence":3},{"trial_n":132,"span":8,"encoder":"16416682","distractor":"16416684","target":"present","response":"absent","rt":"3222","correct":false,"confidence":1},{"trial_n":133,"span":7,"encoder":"8737288","distractor":"8737282","target":"present","response":"present","rt":"2263.1999999881","correct":true,"confidence":1},{"trial_n":134,"span":7,"encoder":"9182718","distractor":"9187718","target":"present","response":"present","rt":"2267","correct":true,"confidence":3},{"trial_n":135,"span":8,"encoder":"45984754","distractor":"95984754","target":"absent","response":"absent","rt":"2929.1999999881","correct":true,"confidence":1},{"trial_n":136,"span":8,"encoder":"51007978","distractor":"51006978","target":"absent","response":"absent","rt":"2795.3000000119","correct":true,"confidence":5},{"trial_n":137,"span":9,"encoder":"128626290","distractor":"128606290","target":"absent","response":"absent","rt":"3028.4000000358","correct":true,"confidence":4},{"trial_n":138,"span":9,"encoder":"533709951","distractor":"533700951","target":"absent","response":"present","rt":"2773.8999999762","correct":false,"confidence":1},{"trial_n":139,"span":8,"encoder":"62284730","distractor":"62284739","target":"absent","response":"present","rt":"3477.5","correct":false,"confidence":1},{"trial_n":140,"span":7,"encoder":"1255971","distractor":"1255371","target":"present","response":"present","rt":"4028.3999999762","correct":true,"confidence":5}]