[{"trial_n":1,"min":25,"max":230,"target":"present","response":"absent","rt":11611.699999988,"correct":false,"confidence":-1},{"trial_n":2,"min":25,"max":230,"target":"present","response":"present","rt":2244.2999999523,"correct":true,"confidence":-1},{"trial_n":3,"min":25,"max":230,"target":"absent","response":"absent","rt":770.10000002384,"correct":true,"confidence":-1},{"trial_n":4,"min":41,"max":214,"target":"absent","response":"absent","rt":510.89999997616,"correct":true,"confidence":-1},{"trial_n":5,"min":41,"max":214,"target":"present","response":"present","rt":442.39999997616,"correct":true,"confidence":-1},{"trial_n":6,"min":57,"max":198,"target":"present","response":"present","rt":557.60000002384,"correct":true,"confidence":-1},{"trial_n":7,"min":57,"max":198,"target":"absent","response":"absent","rt":495.89999997616,"correct":true,"confidence":-1},{"trial_n":8,"min":73,"max":182,"target":"absent","response":"absent","rt":413.19999998808,"correct":true,"confidence":-1},{"trial_n":9,"min":73,"max":182,"target":"absent","response":"absent","rt":337.89999997616,"correct":true,"confidence":-1},{"trial_n":10,"min":89,"max":166,"target":"absent","response":"absent","rt":418.40000003576,"correct":true,"confidence":-1},{"trial_n":11,"min":89,"max":166,"target":"present","response":"absent","rt":301.5,"correct":false,"confidence":-1},{"trial_n":12,"min":81,"max":174,"target":"absent","response":"absent","rt":557.59999996424,"correct":true,"confidence":-1},{"trial_n":13,"min":81,"max":174,"target":"absent","response":"absent","rt":472.60000002384,"correct":true,"confidence":-1},{"trial_n":14,"min":89,"max":166,"target":"present","response":"absent","rt":428,"correct":false,"confidence":-1},{"trial_n":15,"min":81,"max":174,"target":"present","response":"absent","rt":460.69999998808,"correct":false,"confidence":-1},{"trial_n":16,"min":73,"max":182,"target":"absent","response":"absent","rt":420.39999997616,"correct":true,"confidence":-1},{"trial_n":17,"min":73,"max":182,"target":"present","response":"present","rt":751.19999998808,"correct":true,"confidence":-1},{"trial_n":18,"min":81,"max":174,"target":"absent","response":"absent","rt":391.10000002384,"correct":true,"confidence":-1},{"trial_n":19,"min":81,"max":174,"target":"absent","response":"absent","rt":459.19999998808,"correct":true,"confidence":-1},{"trial_n":20,"min":89,"max":166,"target":"present","response":"absent","rt":427.69999998808,"correct":false,"confidence":-1},{"trial_n":21,"min":85,"max":170,"target":"absent","response":"absent","rt":498.19999998808,"correct":true,"confidence":3},{"trial_n":22,"min":85,"max":170,"target":"present","response":"present","rt":7312.7000000477,"correct":true,"confidence":3},{"trial_n":23,"min":89,"max":166,"target":"present","response":"present","rt":1303.6999999881,"correct":true,"confidence":3},{"trial_n":24,"min":89,"max":166,"target":"present","response":"absent","rt":1700.8000000119,"correct":false,"confidence":3},{"trial_n":25,"min":85,"max":170,"target":"absent","response":"absent","rt":1066.7999999523,"correct":true,"confidence":3},{"trial_n":26,"min":85,"max":170,"target":"present","response":"present","rt":1537.5999999642,"correct":true,"confidence":3},{"trial_n":27,"min":89,"max":166,"target":"absent","response":"absent","rt":2910.6000000238,"correct":true,"confidence":2},{"trial_n":28,"min":89,"max":166,"target":"absent","response":"absent","rt":1397.1000000238,"correct":true,"confidence":3},{"trial_n":29,"min":93,"max":162,"target":"absent","response":"absent","rt":783.80000001192,"correct":true,"confidence":3},{"trial_n":30,"min":93,"max":162,"target":"absent","response":"absent","rt":860,"correct":true,"confidence":3},{"trial_n":31,"min":95,"max":160,"target":"absent","response":"present","rt":2857.3000000119,"correct":false,"confidence":2},{"trial_n":32,"min":93,"max":162,"target":"present","response":"absent","rt":1097,"correct":false,"confidence":3},{"trial_n":33,"min":91,"max":164,"target":"present","response":"absent","rt":896.60000002384,"correct":false,"confidence":3},{"trial_n":34,"min":89,"max":166,"target":"absent","response":"absent","rt":803.60000002384,"correct":true,"confidence":3},{"trial_n":35,"min":89,"max":166,"target":"absent","response":"absent","rt":728.39999997616,"correct":true,"confidence":3},{"trial_n":36,"min":91,"max":164,"target":"absent","response":"absent","rt":1334.1000000238,"correct":true,"confidence":4},{"trial_n":37,"min":91,"max":164,"target":"absent","response":"absent","rt":980.5,"correct":true,"confidence":3},{"trial_n":38,"min":93,"max":162,"target":"present","response":"absent","rt":1283.6000000238,"correct":false,"confidence":4},{"trial_n":39,"min":91,"max":164,"target":"absent","response":"absent","rt":788,"correct":true,"confidence":3},{"trial_n":40,"min":91,"max":164,"target":"present","response":"absent","rt":712.19999998808,"correct":false,"confidence":4},{"trial_n":41,"min":90,"max":165,"target":"present","response":"absent","rt":1168.5,"correct":false,"confidence":3},{"trial_n":42,"min":89,"max":166,"target":"absent","response":"absent","rt":776.5,"correct":true,"confidence":3},{"trial_n":43,"min":89,"max":166,"target":"absent","response":"absent","rt":1390.5,"correct":true,"confidence":4},{"trial_n":44,"min":90,"max":165,"target":"present","response":"absent","rt":773.80000001192,"correct":false,"confidence":3},{"trial_n":45,"min":89,"max":166,"target":"absent","response":"absent","rt":899,"correct":true,"confidence":3},{"trial_n":46,"min":89,"max":166,"target":"present","response":"absent","rt":745.5,"correct":false,"confidence":3},{"trial_n":47,"min":88,"max":167,"target":"absent","response":"absent","rt":821.80000001192,"correct":true,"confidence":4},{"trial_n":48,"min":88,"max":167,"target":"present","response":"absent","rt":927.59999996424,"correct":false,"confidence":3},{"trial_n":49,"min":87,"max":168,"target":"present","response":"absent","rt":714,"correct":false,"confidence":4},{"trial_n":50,"min":86,"max":169,"target":"present","response":"absent","rt":1276.5,"correct":false,"confidence":2},{"trial_n":51,"min":85,"max":170,"target":"absent","response":"absent","rt":1339.1999999881,"correct":true,"confidence":3},{"trial_n":52,"min":85,"max":170,"target":"present","response":"present","rt":1006.3000000119,"correct":true,"confidence":3},{"trial_n":53,"min":86,"max":169,"target":"absent","response":"absent","rt":722.29999995232,"correct":true,"confidence":3},{"trial_n":54,"min":86,"max":169,"target":"present","response":"absent","rt":914.60000002384,"correct":false,"confidence":3},{"trial_n":55,"min":85,"max":170,"target":"present","response":"present","rt":1566.8000000119,"correct":true,"confidence":3},{"trial_n":56,"min":85,"max":170,"target":"present","response":"present","rt":1217.5999999642,"correct":true,"confidence":4},{"trial_n":57,"min":86,"max":169,"target":"absent","response":"absent","rt":1353.1999999881,"correct":true,"confidence":3},{"trial_n":58,"min":86,"max":169,"target":"present","response":"absent","rt":752.80000001192,"correct":false,"confidence":4},{"trial_n":59,"min":85,"max":170,"target":"present","response":"absent","rt":1771,"correct":false,"confidence":3},{"trial_n":60,"min":84,"max":171,"target":"absent","response":"absent","rt":1716,"correct":true,"confidence":3},{"trial_n":61,"min":84,"max":171,"target":"present","response":"present","rt":1968.6999999881,"correct":true,"confidence":2},{"trial_n":62,"min":85,"max":170,"target":"absent","response":"absent","rt":1132.5,"correct":true,"confidence":3},{"trial_n":63,"min":85,"max":170,"target":"absent","response":"absent","rt":1344.4000000358,"correct":true,"confidence":3},{"trial_n":64,"min":86,"max":169,"target":"present","response":"absent","rt":924.89999997616,"correct":false,"confidence":1},{"trial_n":65,"min":85,"max":170,"target":"present","response":"present","rt":1124.9000000358,"correct":true,"confidence":5},{"trial_n":66,"min":85,"max":170,"target":"present","response":"present","rt":1253.3000000119,"correct":true,"confidence":5},{"trial_n":67,"min":86,"max":169,"target":"present","response":"present","rt":725.59999996424,"correct":true,"confidence":5},{"trial_n":68,"min":86,"max":169,"target":"present","response":"absent","rt":884.60000002384,"correct":false,"confidence":2},{"trial_n":69,"min":85,"max":170,"target":"absent","response":"absent","rt":1180.8000000119,"correct":true,"confidence":3},{"trial_n":70,"min":85,"max":170,"target":"present","response":"present","rt":981.59999996424,"correct":true,"confidence":2},{"trial_n":71,"min":41,"max":214,"target":"present","response":"absent","rt":7927.9000000358,"correct":false,"confidence":-1},{"trial_n":72,"min":41,"max":214,"target":"present","response":"present","rt":1682.9000000358,"correct":true,"confidence":-1},{"trial_n":73,"min":41,"max":214,"target":"absent","response":"absent","rt":1586.3000000119,"correct":true,"confidence":-1},{"trial_n":74,"min":57,"max":198,"target":"absent","response":"absent","rt":1196.1999999881,"correct":true,"confidence":-1},{"trial_n":75,"min":57,"max":198,"target":"present","response":"present","rt":235.79999995232,"correct":true,"confidence":-1},{"trial_n":76,"min":73,"max":182,"target":"present","response":"present","rt":199.10000002384,"correct":true,"confidence":-1},{"trial_n":77,"min":73,"max":182,"target":"absent","response":"absent","rt":399.70000004768,"correct":true,"confidence":-1},{"trial_n":78,"min":89,"max":166,"target":"absent","response":"absent","rt":442.19999998808,"correct":true,"confidence":-1},{"trial_n":79,"min":89,"max":166,"target":"absent","response":"absent","rt":616.30000001192,"correct":true,"confidence":-1},{"trial_n":80,"min":105,"max":150,"target":"present","response":"present","rt":594.69999998808,"correct":true,"confidence":-1},{"trial_n":81,"min":105,"max":150,"target":"absent","response":"absent","rt":633.30000001192,"correct":true,"confidence":-1},{"trial_n":82,"min":113,"max":142,"target":"absent","response":"present","rt":413,"correct":false,"confidence":-1},{"trial_n":83,"min":105,"max":150,"target":"absent","response":"present","rt":564.30000001192,"correct":false,"confidence":-1},{"trial_n":84,"min":97,"max":158,"target":"present","response":"absent","rt":563,"correct":false,"confidence":-1},{"trial_n":85,"min":89,"max":166,"target":"present","response":"present","rt":667.39999997616,"correct":true,"confidence":-1},{"trial_n":86,"min":89,"max":166,"target":"absent","response":"absent","rt":605.90000003576,"correct":true,"confidence":-1},{"trial_n":87,"min":97,"max":158,"target":"present","response":"absent","rt":353.30000001192,"correct":false,"confidence":-1},{"trial_n":88,"min":89,"max":166,"target":"present","response":"present","rt":398.60000002384,"correct":true,"confidence":-1},{"trial_n":89,"min":89,"max":166,"target":"absent","response":"present","rt":293.40000003576,"correct":false,"confidence":-1},{"trial_n":90,"min":81,"max":174,"target":"absent","response":"absent","rt":459.69999998808,"correct":true,"confidence":-1},{"trial_n":91,"min":81,"max":174,"target":"absent","response":"absent","rt":402.89999997616,"correct":true,"confidence":4},{"trial_n":92,"min":85,"max":170,"target":"absent","response":"present","rt":525.19999998808,"correct":false,"confidence":4},{"trial_n":93,"min":81,"max":174,"target":"absent","response":"present","rt":388.89999997616,"correct":false,"confidence":3},{"trial_n":94,"min":77,"max":178,"target":"absent","response":"absent","rt":438.90000003576,"correct":true,"confidence":5},{"trial_n":95,"min":77,"max":178,"target":"absent","response":"absent","rt":768.10000002384,"correct":true,"confidence":3},{"trial_n":96,"min":81,"max":174,"target":"present","response":"present","rt":525.69999998808,"correct":true,"confidence":2},{"trial_n":97,"min":81,"max":174,"target":"absent","response":"absent","rt":437.90000003576,"correct":true,"confidence":4},{"trial_n":98,"min":85,"max":170,"target":"absent","response":"present","rt":495.30000001192,"correct":false,"confidence":3},{"trial_n":99,"min":81,"max":174,"target":"present","response":"present","rt":317.10000002384,"correct":true,"confidence":5},{"trial_n":100,"min":81,"max":174,"target":"present","response":"present","rt":422.19999998808,"correct":true,"confidence":2},{"trial_n":101,"min":83,"max":172,"target":"absent","response":"absent","rt":1729,"correct":true,"confidence":1},{"trial_n":102,"min":83,"max":172,"target":"absent","response":"absent","rt":2169.6999999881,"correct":true,"confidence":1},{"trial_n":103,"min":85,"max":170,"target":"absent","response":"absent","rt":2195.4000000358,"correct":true,"confidence":2},{"trial_n":104,"min":85,"max":170,"target":"absent","response":"absent","rt":1284.1000000238,"correct":true,"confidence":2},{"trial_n":105,"min":87,"max":168,"target":"present","response":"present","rt":1581.1999999881,"correct":true,"confidence":3},{"trial_n":106,"min":87,"max":168,"target":"present","response":"present","rt":2491.5999999642,"correct":true,"confidence":1},{"trial_n":107,"min":89,"max":166,"target":"present","response":"present","rt":1482.6999999881,"correct":true,"confidence":1},{"trial_n":108,"min":89,"max":166,"target":"absent","response":"absent","rt":1714.1999999881,"correct":true,"confidence":2},{"trial_n":109,"min":91,"max":164,"target":"absent","response":"absent","rt":1605.0999999642,"correct":true,"confidence":2},{"trial_n":110,"min":91,"max":164,"target":"present","response":"present","rt":1687.5999999642,"correct":true,"confidence":1},{"trial_n":111,"min":92,"max":163,"target":"absent","response":"absent","rt":1411.3999999762,"correct":true,"confidence":1},{"trial_n":112,"min":92,"max":163,"target":"present","response":"present","rt":2284.1000000238,"correct":true,"confidence":2},{"trial_n":113,"min":93,"max":162,"target":"present","response":"present","rt":1159.1000000238,"correct":true,"confidence":2},{"trial_n":114,"min":93,"max":162,"target":"present","response":"absent","rt":918.09999996424,"correct":false,"confidence":2},{"trial_n":115,"min":92,"max":163,"target":"present","response":"present","rt":1026.8000000119,"correct":true,"confidence":2},{"trial_n":116,"min":92,"max":163,"target":"absent","response":"absent","rt":1118.1999999881,"correct":true,"confidence":1},{"trial_n":117,"min":93,"max":162,"target":"absent","response":"absent","rt":1094.6000000238,"correct":true,"confidence":1},{"trial_n":118,"min":93,"max":162,"target":"absent","response":"absent","rt":887.09999996424,"correct":true,"confidence":1},{"trial_n":119,"min":94,"max":161,"target":"present","response":"absent","rt":1188.3999999762,"correct":false,"confidence":1},{"trial_n":120,"min":93,"max":162,"target":"absent","response":"present","rt":933.89999997616,"correct":false,"confidence":2},{"trial_n":121,"min":92,"max":163,"target":"absent","response":"absent","rt":958,"correct":true,"confidence":2},{"trial_n":122,"min":92,"max":163,"target":"present","response":"present","rt":1066.8000000119,"correct":true,"confidence":2},{"trial_n":123,"min":93,"max":162,"target":"absent","response":"absent","rt":1209.6999999881,"correct":true,"confidence":2},{"trial_n":124,"min":93,"max":162,"target":"absent","response":"absent","rt":912.89999997616,"correct":true,"confidence":2},{"trial_n":125,"min":94,"max":161,"target":"present","response":"absent","rt":1011.3000000119,"correct":false,"confidence":3},{"trial_n":126,"min":93,"max":162,"target":"present","response":"present","rt":1076.6000000238,"correct":true,"confidence":2},{"trial_n":127,"min":93,"max":162,"target":"present","response":"present","rt":1301.4000000358,"correct":true,"confidence":3},{"trial_n":128,"min":94,"max":161,"target":"present","response":"present","rt":1180.1999999881,"correct":true,"confidence":3},{"trial_n":129,"min":94,"max":161,"target":"present","response":"present","rt":1241.5,"correct":true,"confidence":3},{"trial_n":130,"min":95,"max":160,"target":"absent","response":"absent","rt":1100.5,"correct":true,"confidence":2},{"trial_n":131,"min":95,"max":160,"target":"present","response":"absent","rt":1055.6999999881,"correct":false,"confidence":2},{"trial_n":132,"min":94,"max":161,"target":"present","response":"present","rt":849.69999998808,"correct":true,"confidence":4},{"trial_n":133,"min":94,"max":161,"target":"present","response":"absent","rt":1001,"correct":false,"confidence":2},{"trial_n":134,"min":93,"max":162,"target":"present","response":"present","rt":870.19999998808,"correct":true,"confidence":2},{"trial_n":135,"min":93,"max":162,"target":"present","response":"present","rt":1008.8000000119,"correct":true,"confidence":2},{"trial_n":136,"min":94,"max":161,"target":"present","response":"present","rt":1551.0999999642,"correct":true,"confidence":2},{"trial_n":137,"min":94,"max":161,"target":"present","response":"absent","rt":853.10000002384,"correct":false,"confidence":3},{"trial_n":138,"min":93,"max":162,"target":"absent","response":"absent","rt":1232,"correct":true,"confidence":3},{"trial_n":139,"min":93,"max":162,"target":"present","response":"present","rt":1514.9000000358,"correct":true,"confidence":2},{"trial_n":140,"min":94,"max":161,"target":"present","response":"present","rt":976.39999997616,"correct":true,"confidence":1}]