[{"trial_n":1,"min":25,"max":230,"target":"present","response":"present","rt":4172.799999997,"correct":true,"confidence":-1},{"trial_n":2,"min":25,"max":230,"target":"present","response":"present","rt":1532.200000003,"correct":true,"confidence":-1},{"trial_n":3,"min":41,"max":214,"target":"absent","response":"absent","rt":1213.099999994,"correct":true,"confidence":-1},{"trial_n":4,"min":41,"max":214,"target":"absent","response":"absent","rt":787.90000000596,"correct":true,"confidence":-1},{"trial_n":5,"min":57,"max":198,"target":"present","response":"present","rt":946.90000000596,"correct":true,"confidence":-1},{"trial_n":6,"min":57,"max":198,"target":"present","response":"present","rt":806.89999999106,"correct":true,"confidence":-1},{"trial_n":7,"min":73,"max":182,"target":"absent","response":"absent","rt":1007.700000003,"correct":true,"confidence":-1},{"trial_n":8,"min":73,"max":182,"target":"absent","response":"absent","rt":1582.8999999911,"correct":true,"confidence":-1},{"trial_n":9,"min":89,"max":166,"target":"present","response":"absent","rt":1088.400000006,"correct":false,"confidence":-1},{"trial_n":10,"min":73,"max":182,"target":"present","response":"present","rt":834.09999999404,"correct":true,"confidence":-1},{"trial_n":11,"min":73,"max":182,"target":"absent","response":"absent","rt":814.70000000298,"correct":true,"confidence":-1},{"trial_n":12,"min":81,"max":174,"target":"present","response":"present","rt":890.20000000298,"correct":true,"confidence":-1},{"trial_n":13,"min":81,"max":174,"target":"present","response":"absent","rt":1133.799999997,"correct":false,"confidence":-1},{"trial_n":14,"min":73,"max":182,"target":"present","response":"absent","rt":1790.700000003,"correct":false,"confidence":-1},{"trial_n":15,"min":65,"max":190,"target":"present","response":"present","rt":722.20000000298,"correct":true,"confidence":-1},{"trial_n":16,"min":65,"max":190,"target":"absent","response":"absent","rt":854.19999998808,"correct":true,"confidence":-1},{"trial_n":17,"min":73,"max":182,"target":"absent","response":"absent","rt":838.29999999702,"correct":true,"confidence":-1},{"trial_n":18,"min":73,"max":182,"target":"absent","response":"absent","rt":799.09999999404,"correct":true,"confidence":-1},{"trial_n":19,"min":81,"max":174,"target":"present","response":"present","rt":593.40000000596,"correct":true,"confidence":-1},{"trial_n":20,"min":81,"max":174,"target":"absent","response":"absent","rt":833.5,"correct":true,"confidence":-1},{"trial_n":21,"min":85,"max":170,"target":"absent","response":"absent","rt":1324.1999999881,"correct":true,"confidence":4},{"trial_n":22,"min":85,"max":170,"target":"absent","response":"absent","rt":1291.6999999881,"correct":true,"confidence":4},{"trial_n":23,"min":89,"max":166,"target":"absent","response":"present","rt":885.5,"correct":false,"confidence":4},{"trial_n":24,"min":85,"max":170,"target":"absent","response":"absent","rt":1229.700000003,"correct":true,"confidence":4},{"trial_n":25,"min":85,"max":170,"target":"present","response":"present","rt":722.59999999404,"correct":true,"confidence":4},{"trial_n":26,"min":89,"max":166,"target":"present","response":"present","rt":955.90000000596,"correct":true,"confidence":4},{"trial_n":27,"min":89,"max":166,"target":"absent","response":"absent","rt":1099.8999999911,"correct":true,"confidence":3},{"trial_n":28,"min":93,"max":162,"target":"present","response":"present","rt":829.5,"correct":true,"confidence":4},{"trial_n":29,"min":93,"max":162,"target":"absent","response":"present","rt":953.59999999404,"correct":false,"confidence":5},{"trial_n":30,"min":89,"max":166,"target":"absent","response":"absent","rt":1203.6999999881,"correct":true,"confidence":3},{"trial_n":31,"min":89,"max":166,"target":"present","response":"absent","rt":1025.6999999881,"correct":false,"confidence":4},{"trial_n":32,"min":87,"max":168,"target":"present","response":"present","rt":918,"correct":true,"confidence":5},{"trial_n":33,"min":87,"max":168,"target":"present","response":"present","rt":811.09999999404,"correct":true,"confidence":4},{"trial_n":34,"min":89,"max":166,"target":"present","response":"present","rt":812,"correct":true,"confidence":5},{"trial_n":35,"min":89,"max":166,"target":"present","response":"present","rt":655.90000000596,"correct":true,"confidence":5},{"trial_n":36,"min":91,"max":164,"target":"present","response":"present","rt":914.59999999404,"correct":true,"confidence":4},{"trial_n":37,"min":91,"max":164,"target":"present","response":"present","rt":691.39999999106,"correct":true,"confidence":4},{"trial_n":38,"min":93,"max":162,"target":"present","response":"present","rt":796.5,"correct":true,"confidence":4},{"trial_n":39,"min":93,"max":162,"target":"absent","response":"absent","rt":906.09999999404,"correct":true,"confidence":4},{"trial_n":40,"min":95,"max":160,"target":"absent","response":"absent","rt":1133.599999994,"correct":true,"confidence":5},{"trial_n":41,"min":95,"max":160,"target":"absent","response":"absent","rt":1211.1999999881,"correct":true,"confidence":4},{"trial_n":42,"min":96,"max":159,"target":"present","response":"present","rt":928.19999998808,"correct":true,"confidence":3},{"trial_n":43,"min":96,"max":159,"target":"present","response":"present","rt":834.40000000596,"correct":true,"confidence":3},{"trial_n":44,"min":97,"max":158,"target":"present","response":"present","rt":699.39999999106,"correct":true,"confidence":2},{"trial_n":45,"min":97,"max":158,"target":"absent","response":"absent","rt":1396,"correct":true,"confidence":4},{"trial_n":46,"min":98,"max":157,"target":"absent","response":"present","rt":873.39999999106,"correct":false,"confidence":3},{"trial_n":47,"min":97,"max":158,"target":"absent","response":"absent","rt":1020.6999999881,"correct":true,"confidence":4},{"trial_n":48,"min":97,"max":158,"target":"absent","response":"absent","rt":907.29999999702,"correct":true,"confidence":4},{"trial_n":49,"min":98,"max":157,"target":"present","response":"present","rt":781.19999998808,"correct":true,"confidence":3},{"trial_n":50,"min":98,"max":157,"target":"present","response":"present","rt":857.19999998808,"correct":true,"confidence":4},{"trial_n":51,"min":99,"max":156,"target":"present","response":"absent","rt":1411.400000006,"correct":false,"confidence":4},{"trial_n":52,"min":98,"max":157,"target":"absent","response":"present","rt":1181.400000006,"correct":false,"confidence":3},{"trial_n":53,"min":97,"max":158,"target":"present","response":"present","rt":1119.799999997,"correct":true,"confidence":5},{"trial_n":54,"min":97,"max":158,"target":"present","response":"present","rt":747.70000000298,"correct":true,"confidence":5},{"trial_n":55,"min":98,"max":157,"target":"present","response":"present","rt":804.69999998808,"correct":true,"confidence":5},{"trial_n":56,"min":98,"max":157,"target":"absent","response":"absent","rt":1368.5,"correct":true,"confidence":3},{"trial_n":57,"min":99,"max":156,"target":"absent","response":"absent","rt":1626.3999999911,"correct":true,"confidence":3},{"trial_n":58,"min":99,"max":156,"target":"absent","response":"absent","rt":905,"correct":true,"confidence":3},{"trial_n":59,"min":100,"max":155,"target":"absent","response":"present","rt":849.20000000298,"correct":false,"confidence":3},{"trial_n":60,"min":99,"max":156,"target":"absent","response":"absent","rt":934.59999999404,"correct":true,"confidence":4},{"trial_n":61,"min":99,"max":156,"target":"present","response":"present","rt":1015.8999999911,"correct":true,"confidence":4},{"trial_n":62,"min":100,"max":155,"target":"absent","response":"absent","rt":1033.400000006,"correct":true,"confidence":4},{"trial_n":63,"min":100,"max":155,"target":"present","response":"present","rt":860.09999999404,"correct":true,"confidence":4},{"trial_n":64,"min":101,"max":154,"target":"absent","response":"present","rt":915.90000000596,"correct":false,"confidence":5},{"trial_n":65,"min":100,"max":155,"target":"absent","response":"present","rt":689.69999998808,"correct":false,"confidence":5},{"trial_n":66,"min":99,"max":156,"target":"present","response":"present","rt":874.59999999404,"correct":true,"confidence":5},{"trial_n":67,"min":99,"max":156,"target":"present","response":"present","rt":865.59999999404,"correct":true,"confidence":3},{"trial_n":68,"min":100,"max":155,"target":"absent","response":"absent","rt":769.39999999106,"correct":true,"confidence":4},{"trial_n":69,"min":100,"max":155,"target":"absent","response":"absent","rt":848.90000000596,"correct":true,"confidence":3},{"trial_n":70,"min":101,"max":154,"target":"present","response":"absent","rt":1544.299999997,"correct":false,"confidence":4},{"trial_n":71,"min":41,"max":214,"target":"present","response":"present","rt":3921.5,"correct":true,"confidence":-1},{"trial_n":72,"min":41,"max":214,"target":"present","response":"present","rt":1119.3999999911,"correct":true,"confidence":-1},{"trial_n":73,"min":57,"max":198,"target":"absent","response":"absent","rt":1137,"correct":true,"confidence":-1},{"trial_n":74,"min":57,"max":198,"target":"absent","response":"absent","rt":710.29999999702,"correct":true,"confidence":-1},{"trial_n":75,"min":73,"max":182,"target":"present","response":"present","rt":906.90000000596,"correct":true,"confidence":-1},{"trial_n":76,"min":73,"max":182,"target":"present","response":"present","rt":498.69999998808,"correct":true,"confidence":-1},{"trial_n":77,"min":89,"max":166,"target":"present","response":"present","rt":2319.599999994,"correct":true,"confidence":-1},{"trial_n":78,"min":89,"max":166,"target":"absent","response":"present","rt":1026.700000003,"correct":false,"confidence":-1},{"trial_n":79,"min":73,"max":182,"target":"absent","response":"absent","rt":884.89999999106,"correct":true,"confidence":-1},{"trial_n":80,"min":73,"max":182,"target":"present","response":"present","rt":887.20000000298,"correct":true,"confidence":-1},{"trial_n":81,"min":81,"max":174,"target":"present","response":"present","rt":750.59999999404,"correct":true,"confidence":-1},{"trial_n":82,"min":81,"max":174,"target":"present","response":"present","rt":639.89999999106,"correct":true,"confidence":-1},{"trial_n":83,"min":89,"max":166,"target":"present","response":"present","rt":919.79999999702,"correct":true,"confidence":-1},{"trial_n":84,"min":89,"max":166,"target":"absent","response":"absent","rt":720,"correct":true,"confidence":-1},{"trial_n":85,"min":97,"max":158,"target":"present","response":"absent","rt":1720.799999997,"correct":false,"confidence":-1},{"trial_n":86,"min":89,"max":166,"target":"present","response":"present","rt":1057.200000003,"correct":true,"confidence":-1},{"trial_n":87,"min":89,"max":166,"target":"present","response":"present","rt":703.29999999702,"correct":true,"confidence":-1},{"trial_n":88,"min":97,"max":158,"target":"present","response":"present","rt":1335.700000003,"correct":true,"confidence":-1},{"trial_n":89,"min":97,"max":158,"target":"absent","response":"absent","rt":1177.099999994,"correct":true,"confidence":-1},{"trial_n":90,"min":105,"max":150,"target":"present","response":"absent","rt":953.09999999404,"correct":false,"confidence":-1},{"trial_n":91,"min":101,"max":154,"target":"absent","response":"present","rt":1357,"correct":false,"confidence":2},{"trial_n":92,"min":97,"max":158,"target":"absent","response":"present","rt":1154.3999999911,"correct":false,"confidence":4},{"trial_n":93,"min":93,"max":162,"target":"present","response":"present","rt":868.90000000596,"correct":true,"confidence":4},{"trial_n":94,"min":93,"max":162,"target":"absent","response":"present","rt":768.69999998808,"correct":false,"confidence":4},{"trial_n":95,"min":89,"max":166,"target":"absent","response":"absent","rt":924.29999999702,"correct":true,"confidence":4},{"trial_n":96,"min":89,"max":166,"target":"absent","response":"present","rt":836.29999999702,"correct":false,"confidence":4},{"trial_n":97,"min":85,"max":170,"target":"present","response":"present","rt":701.39999999106,"correct":true,"confidence":4},{"trial_n":98,"min":85,"max":170,"target":"present","response":"present","rt":558.70000000298,"correct":true,"confidence":4},{"trial_n":99,"min":89,"max":166,"target":"absent","response":"present","rt":934.39999999106,"correct":false,"confidence":4},{"trial_n":100,"min":85,"max":170,"target":"present","response":"present","rt":918.89999999106,"correct":true,"confidence":5},{"trial_n":101,"min":85,"max":170,"target":"absent","response":"present","rt":937.5,"correct":false,"confidence":3},{"trial_n":102,"min":83,"max":172,"target":"absent","response":"present","rt":875.5,"correct":false,"confidence":4},{"trial_n":103,"min":81,"max":174,"target":"absent","response":"absent","rt":1243.299999997,"correct":true,"confidence":4},{"trial_n":104,"min":81,"max":174,"target":"present","response":"present","rt":759.29999999702,"correct":true,"confidence":4},{"trial_n":105,"min":83,"max":172,"target":"present","response":"present","rt":705.09999999404,"correct":true,"confidence":3},{"trial_n":106,"min":83,"max":172,"target":"absent","response":"present","rt":1102.400000006,"correct":false,"confidence":4},{"trial_n":107,"min":81,"max":174,"target":"present","response":"present","rt":677,"correct":true,"confidence":4},{"trial_n":108,"min":81,"max":174,"target":"present","response":"present","rt":1147.400000006,"correct":true,"confidence":5},{"trial_n":109,"min":83,"max":172,"target":"present","response":"present","rt":773.09999999404,"correct":true,"confidence":5},{"trial_n":110,"min":83,"max":172,"target":"absent","response":"absent","rt":1065.900000006,"correct":true,"confidence":3},{"trial_n":111,"min":84,"max":171,"target":"absent","response":"absent","rt":1188.700000003,"correct":true,"confidence":3},{"trial_n":112,"min":84,"max":171,"target":"absent","response":"present","rt":781.70000000298,"correct":false,"confidence":3},{"trial_n":113,"min":83,"max":172,"target":"present","response":"present","rt":709,"correct":true,"confidence":4},{"trial_n":114,"min":83,"max":172,"target":"present","response":"present","rt":1365.700000003,"correct":true,"confidence":5},{"trial_n":115,"min":84,"max":171,"target":"present","response":"present","rt":807.5,"correct":true,"confidence":5},{"trial_n":116,"min":84,"max":171,"target":"present","response":"present","rt":1637.299999997,"correct":true,"confidence":3},{"trial_n":117,"min":85,"max":170,"target":"absent","response":"absent","rt":913,"correct":true,"confidence":4},{"trial_n":118,"min":85,"max":170,"target":"absent","response":"absent","rt":871.09999999404,"correct":true,"confidence":4},{"trial_n":119,"min":86,"max":169,"target":"present","response":"present","rt":641.29999999702,"correct":true,"confidence":5},{"trial_n":120,"min":86,"max":169,"target":"present","response":"present","rt":662.59999999404,"correct":true,"confidence":5},{"trial_n":121,"min":87,"max":168,"target":"absent","response":"present","rt":1416.099999994,"correct":false,"confidence":4},{"trial_n":122,"min":86,"max":169,"target":"absent","response":"present","rt":1030.5,"correct":false,"confidence":4},{"trial_n":123,"min":85,"max":170,"target":"absent","response":"absent","rt":916,"correct":true,"confidence":4},{"trial_n":124,"min":85,"max":170,"target":"absent","response":"absent","rt":1307,"correct":true,"confidence":5},{"trial_n":125,"min":86,"max":169,"target":"absent","response":"absent","rt":1390.6999999881,"correct":true,"confidence":4},{"trial_n":126,"min":86,"max":169,"target":"present","response":"present","rt":1029.1999999881,"correct":true,"confidence":5},{"trial_n":127,"min":87,"max":168,"target":"absent","response":"present","rt":1174.3999999911,"correct":false,"confidence":5},{"trial_n":128,"min":86,"max":169,"target":"absent","response":"present","rt":957.29999999702,"correct":false,"confidence":4},{"trial_n":129,"min":85,"max":170,"target":"absent","response":"present","rt":1038,"correct":false,"confidence":4},{"trial_n":130,"min":84,"max":171,"target":"present","response":"absent","rt":962,"correct":false,"confidence":5},{"trial_n":131,"min":83,"max":172,"target":"absent","response":"absent","rt":1020.700000003,"correct":true,"confidence":4},{"trial_n":132,"min":83,"max":172,"target":"absent","response":"absent","rt":1322.8999999911,"correct":true,"confidence":4},{"trial_n":133,"min":84,"max":171,"target":"present","response":"present","rt":935.29999999702,"correct":true,"confidence":4},{"trial_n":134,"min":84,"max":171,"target":"present","response":"present","rt":755.19999998808,"correct":true,"confidence":4},{"trial_n":135,"min":85,"max":170,"target":"absent","response":"present","rt":1119.299999997,"correct":false,"confidence":5},{"trial_n":136,"min":84,"max":171,"target":"present","response":"present","rt":1141.099999994,"correct":true,"confidence":3},{"trial_n":137,"min":84,"max":171,"target":"present","response":"present","rt":1437.3999999911,"correct":true,"confidence":4},{"trial_n":138,"min":85,"max":170,"target":"present","response":"present","rt":828.19999998808,"correct":true,"confidence":4},{"trial_n":139,"min":85,"max":170,"target":"absent","response":"absent","rt":729.19999998808,"correct":true,"confidence":4},{"trial_n":140,"min":86,"max":169,"target":"absent","response":"absent","rt":916.79999999702,"correct":true,"confidence":5}]