[{"trial_n":1,"min":25,"max":230,"target":"present","response":"present","rt":16320.5,"correct":true,"confidence":-1},{"trial_n":2,"min":25,"max":230,"target":"present","response":"absent","rt":695.80000000075,"correct":false,"confidence":-1},{"trial_n":3,"min":9,"max":246,"target":"absent","response":"absent","rt":663.69999999925,"correct":true,"confidence":-1},{"trial_n":4,"min":9,"max":246,"target":"absent","response":"present","rt":575.80000000075,"correct":false,"confidence":-1},{"trial_n":5,"min":0,"max":255,"target":"present","response":"present","rt":483.80000000075,"correct":true,"confidence":-1},{"trial_n":6,"min":0,"max":255,"target":"present","response":"present","rt":355.80000000075,"correct":true,"confidence":-1},{"trial_n":7,"min":16,"max":239,"target":"absent","response":"absent","rt":436.79999999702,"correct":true,"confidence":-1},{"trial_n":8,"min":16,"max":239,"target":"present","response":"present","rt":260.5,"correct":true,"confidence":-1},{"trial_n":9,"min":32,"max":223,"target":"present","response":"present","rt":286.59999999776,"correct":true,"confidence":-1},{"trial_n":10,"min":32,"max":223,"target":"absent","response":"absent","rt":410.10000000149,"correct":true,"confidence":-1},{"trial_n":11,"min":40,"max":215,"target":"absent","response":"absent","rt":328.60000000149,"correct":true,"confidence":-1},{"trial_n":12,"min":40,"max":215,"target":"absent","response":"absent","rt":355.39999999851,"correct":true,"confidence":-1},{"trial_n":13,"min":48,"max":207,"target":"present","response":"present","rt":316.90000000224,"correct":true,"confidence":-1},{"trial_n":14,"min":48,"max":207,"target":"present","response":"present","rt":1149.6000000015,"correct":true,"confidence":-1},{"trial_n":15,"min":56,"max":199,"target":"present","response":"present","rt":362,"correct":true,"confidence":-1},{"trial_n":16,"min":56,"max":199,"target":"present","response":"present","rt":344.19999999925,"correct":true,"confidence":-1},{"trial_n":17,"min":64,"max":191,"target":"absent","response":"absent","rt":480.89999999851,"correct":true,"confidence":-1},{"trial_n":18,"min":64,"max":191,"target":"present","response":"present","rt":383.30000000075,"correct":true,"confidence":-1},{"trial_n":19,"min":72,"max":183,"target":"present","response":"present","rt":732.80000000075,"correct":true,"confidence":-1},{"trial_n":20,"min":72,"max":183,"target":"absent","response":"present","rt":660.30000000075,"correct":false,"confidence":-1},{"trial_n":21,"min":68,"max":187,"target":"present","response":"absent","rt":1734.3000000007,"correct":false,"confidence":2},{"trial_n":22,"min":64,"max":191,"target":"absent","response":"absent","rt":1287.3000000007,"correct":true,"confidence":3},{"trial_n":23,"min":64,"max":191,"target":"absent","response":"absent","rt":651.79999999702,"correct":true,"confidence":4},{"trial_n":24,"min":68,"max":187,"target":"absent","response":"absent","rt":666.90000000224,"correct":true,"confidence":4},{"trial_n":25,"min":68,"max":187,"target":"absent","response":"present","rt":1051.5999999978,"correct":false,"confidence":2},{"trial_n":26,"min":64,"max":191,"target":"absent","response":"present","rt":1890.3999999985,"correct":false,"confidence":2},{"trial_n":27,"min":60,"max":195,"target":"present","response":"present","rt":788.69999999925,"correct":true,"confidence":3},{"trial_n":28,"min":60,"max":195,"target":"present","response":"present","rt":797.5,"correct":true,"confidence":4},{"trial_n":29,"min":64,"max":191,"target":"present","response":"absent","rt":1319.200000003,"correct":false,"confidence":3},{"trial_n":30,"min":60,"max":195,"target":"present","response":"present","rt":947.19999999925,"correct":true,"confidence":3},{"trial_n":31,"min":60,"max":195,"target":"present","response":"present","rt":1194.9000000022,"correct":true,"confidence":4},{"trial_n":32,"min":62,"max":193,"target":"present","response":"present","rt":625,"correct":true,"confidence":4},{"trial_n":33,"min":62,"max":193,"target":"absent","response":"absent","rt":1611.5,"correct":true,"confidence":2},{"trial_n":34,"min":64,"max":191,"target":"present","response":"present","rt":1295,"correct":true,"confidence":4},{"trial_n":35,"min":64,"max":191,"target":"absent","response":"absent","rt":818.20000000298,"correct":true,"confidence":4},{"trial_n":36,"min":66,"max":189,"target":"absent","response":"absent","rt":597.89999999851,"correct":true,"confidence":4},{"trial_n":37,"min":66,"max":189,"target":"absent","response":"present","rt":1654.5999999978,"correct":false,"confidence":2},{"trial_n":38,"min":64,"max":191,"target":"present","response":"present","rt":927.30000000075,"correct":true,"confidence":3},{"trial_n":39,"min":64,"max":191,"target":"present","response":"present","rt":707.89999999851,"correct":true,"confidence":4},{"trial_n":40,"min":66,"max":189,"target":"present","response":"present","rt":956.89999999851,"correct":true,"confidence":4},{"trial_n":41,"min":66,"max":189,"target":"present","response":"present","rt":982.19999999925,"correct":true,"confidence":4},{"trial_n":42,"min":67,"max":188,"target":"present","response":"present","rt":606.39999999851,"correct":true,"confidence":4},{"trial_n":43,"min":67,"max":188,"target":"present","response":"present","rt":647.19999999925,"correct":true,"confidence":4},{"trial_n":44,"min":68,"max":187,"target":"present","response":"present","rt":706.10000000149,"correct":true,"confidence":4},{"trial_n":45,"min":68,"max":187,"target":"absent","response":"present","rt":768.60000000149,"correct":false,"confidence":4},{"trial_n":46,"min":67,"max":188,"target":"absent","response":"present","rt":1782.3999999985,"correct":false,"confidence":3},{"trial_n":47,"min":66,"max":189,"target":"present","response":"present","rt":783.30000000075,"correct":true,"confidence":4},{"trial_n":48,"min":66,"max":189,"target":"present","response":"present","rt":625.69999999925,"correct":true,"confidence":4},{"trial_n":49,"min":67,"max":188,"target":"present","response":"present","rt":602.19999999925,"correct":true,"confidence":4},{"trial_n":50,"min":67,"max":188,"target":"absent","response":"present","rt":1346.8000000007,"correct":false,"confidence":2},{"trial_n":51,"min":66,"max":189,"target":"present","response":"present","rt":841.09999999776,"correct":true,"confidence":4},{"trial_n":52,"min":66,"max":189,"target":"present","response":"present","rt":644.5,"correct":true,"confidence":4},{"trial_n":53,"min":67,"max":188,"target":"absent","response":"absent","rt":868.60000000149,"correct":true,"confidence":3},{"trial_n":54,"min":67,"max":188,"target":"absent","response":"absent","rt":652.59999999776,"correct":true,"confidence":3},{"trial_n":55,"min":68,"max":187,"target":"absent","response":"absent","rt":594.69999999925,"correct":true,"confidence":4},{"trial_n":56,"min":68,"max":187,"target":"absent","response":"absent","rt":645.39999999851,"correct":true,"confidence":4},{"trial_n":57,"min":69,"max":186,"target":"present","response":"present","rt":1052.3000000007,"correct":true,"confidence":3},{"trial_n":58,"min":69,"max":186,"target":"absent","response":"absent","rt":697,"correct":true,"confidence":4},{"trial_n":59,"min":70,"max":185,"target":"absent","response":"absent","rt":552,"correct":true,"confidence":4},{"trial_n":60,"min":70,"max":185,"target":"present","response":"present","rt":686.60000000149,"correct":true,"confidence":3},{"trial_n":61,"min":71,"max":184,"target":"present","response":"present","rt":989.60000000149,"correct":true,"confidence":4},{"trial_n":62,"min":71,"max":184,"target":"present","response":"present","rt":656.09999999776,"correct":true,"confidence":4},{"trial_n":63,"min":72,"max":183,"target":"absent","response":"absent","rt":695.30000000075,"correct":true,"confidence":3},{"trial_n":64,"min":72,"max":183,"target":"absent","response":"absent","rt":685.19999999925,"correct":true,"confidence":4},{"trial_n":65,"min":73,"max":182,"target":"absent","response":"absent","rt":831.60000000149,"correct":true,"confidence":3},{"trial_n":66,"min":73,"max":182,"target":"absent","response":"absent","rt":578.5,"correct":true,"confidence":4},{"trial_n":67,"min":74,"max":181,"target":"absent","response":"absent","rt":588.30000000075,"correct":true,"confidence":4},{"trial_n":68,"min":74,"max":181,"target":"absent","response":"absent","rt":578.40000000224,"correct":true,"confidence":4},{"trial_n":69,"min":75,"max":180,"target":"absent","response":"absent","rt":2188.200000003,"correct":true,"confidence":3},{"trial_n":70,"min":75,"max":180,"target":"absent","response":"absent","rt":732.89999999851,"correct":true,"confidence":3},{"trial_n":71,"min":41,"max":214,"target":"present","response":"present","rt":1084.5999999978,"correct":true,"confidence":-1},{"trial_n":72,"min":41,"max":214,"target":"present","response":"present","rt":649.19999999925,"correct":true,"confidence":-1},{"trial_n":73,"min":57,"max":198,"target":"absent","response":"absent","rt":522.39999999851,"correct":true,"confidence":-1},{"trial_n":74,"min":57,"max":198,"target":"absent","response":"present","rt":413.19999999925,"correct":false,"confidence":-1},{"trial_n":75,"min":41,"max":214,"target":"present","response":"present","rt":552.09999999776,"correct":true,"confidence":-1},{"trial_n":76,"min":41,"max":214,"target":"present","response":"present","rt":338.19999999925,"correct":true,"confidence":-1},{"trial_n":77,"min":57,"max":198,"target":"present","response":"present","rt":370.39999999851,"correct":true,"confidence":-1},{"trial_n":78,"min":57,"max":198,"target":"absent","response":"absent","rt":338.90000000224,"correct":true,"confidence":-1},{"trial_n":79,"min":73,"max":182,"target":"present","response":"present","rt":392,"correct":true,"confidence":-1},{"trial_n":80,"min":73,"max":182,"target":"present","response":"present","rt":1136.8999999985,"correct":true,"confidence":-1},{"trial_n":81,"min":81,"max":174,"target":"present","response":"present","rt":378.19999999925,"correct":true,"confidence":-1},{"trial_n":82,"min":81,"max":174,"target":"present","response":"present","rt":447.30000000075,"correct":true,"confidence":-1},{"trial_n":83,"min":89,"max":166,"target":"absent","response":"absent","rt":409.19999999925,"correct":true,"confidence":-1},{"trial_n":84,"min":89,"max":166,"target":"present","response":"present","rt":729,"correct":true,"confidence":-1},{"trial_n":85,"min":97,"max":158,"target":"absent","response":"absent","rt":1881.4000000022,"correct":true,"confidence":-1},{"trial_n":86,"min":97,"max":158,"target":"present","response":"present","rt":814.59999999776,"correct":true,"confidence":-1},{"trial_n":87,"min":105,"max":150,"target":"present","response":"absent","rt":489.39999999851,"correct":false,"confidence":-1},{"trial_n":88,"min":97,"max":158,"target":"present","response":"present","rt":350.10000000149,"correct":true,"confidence":-1},{"trial_n":89,"min":97,"max":158,"target":"present","response":"present","rt":593.89999999851,"correct":true,"confidence":-1},{"trial_n":90,"min":105,"max":150,"target":"absent","response":"absent","rt":1090.6000000015,"correct":true,"confidence":-1},{"trial_n":91,"min":105,"max":150,"target":"absent","response":"absent","rt":1078.3999999985,"correct":true,"confidence":2},{"trial_n":92,"min":109,"max":146,"target":"absent","response":"absent","rt":1617.799999997,"correct":true,"confidence":3},{"trial_n":93,"min":109,"max":146,"target":"absent","response":"absent","rt":1086.5999999978,"correct":true,"confidence":3},{"trial_n":94,"min":113,"max":142,"target":"absent","response":"absent","rt":860.39999999851,"correct":true,"confidence":2},{"trial_n":95,"min":113,"max":142,"target":"present","response":"absent","rt":867.30000000075,"correct":false,"confidence":3},{"trial_n":96,"min":109,"max":146,"target":"absent","response":"present","rt":412.60000000149,"correct":false,"confidence":2},{"trial_n":97,"min":105,"max":150,"target":"present","response":"present","rt":574.69999999925,"correct":true,"confidence":3},{"trial_n":98,"min":105,"max":150,"target":"absent","response":"absent","rt":989.89999999851,"correct":true,"confidence":1},{"trial_n":99,"min":109,"max":146,"target":"present","response":"present","rt":1347,"correct":true,"confidence":1},{"trial_n":100,"min":109,"max":146,"target":"absent","response":"present","rt":1620.4000000022,"correct":false,"confidence":3},{"trial_n":101,"min":107,"max":148,"target":"present","response":"absent","rt":1811.3000000007,"correct":false,"confidence":2},{"trial_n":102,"min":105,"max":150,"target":"absent","response":"absent","rt":1367.1000000015,"correct":true,"confidence":3},{"trial_n":103,"min":105,"max":150,"target":"present","response":"present","rt":1362,"correct":true,"confidence":3},{"trial_n":104,"min":107,"max":148,"target":"absent","response":"present","rt":767.80000000075,"correct":false,"confidence":3},{"trial_n":105,"min":105,"max":150,"target":"present","response":"absent","rt":854.20000000298,"correct":false,"confidence":2},{"trial_n":106,"min":103,"max":152,"target":"present","response":"present","rt":1808.5,"correct":true,"confidence":3},{"trial_n":107,"min":103,"max":152,"target":"present","response":"present","rt":632.5,"correct":true,"confidence":3},{"trial_n":108,"min":105,"max":150,"target":"present","response":"present","rt":1000.4000000022,"correct":true,"confidence":3},{"trial_n":109,"min":105,"max":150,"target":"absent","response":"present","rt":1890.9000000022,"correct":false,"confidence":2},{"trial_n":110,"min":103,"max":152,"target":"absent","response":"present","rt":1382.1000000015,"correct":false,"confidence":2},{"trial_n":111,"min":102,"max":153,"target":"absent","response":"absent","rt":1391.8000000007,"correct":true,"confidence":1},{"trial_n":112,"min":102,"max":153,"target":"present","response":"absent","rt":1152.3999999985,"correct":false,"confidence":2},{"trial_n":113,"min":101,"max":154,"target":"present","response":"present","rt":866.90000000224,"correct":true,"confidence":2},{"trial_n":114,"min":101,"max":154,"target":"absent","response":"absent","rt":617.19999999925,"correct":true,"confidence":2},{"trial_n":115,"min":102,"max":153,"target":"present","response":"present","rt":545.69999999925,"correct":true,"confidence":2},{"trial_n":116,"min":102,"max":153,"target":"present","response":"present","rt":637.5,"correct":true,"confidence":2},{"trial_n":117,"min":103,"max":152,"target":"absent","response":"absent","rt":1392.6000000015,"correct":true,"confidence":3},{"trial_n":118,"min":103,"max":152,"target":"present","response":"present","rt":1042.3000000007,"correct":true,"confidence":3},{"trial_n":119,"min":104,"max":151,"target":"absent","response":"absent","rt":1290.1000000015,"correct":true,"confidence":3},{"trial_n":120,"min":104,"max":151,"target":"absent","response":"absent","rt":579.60000000149,"correct":true,"confidence":3},{"trial_n":121,"min":105,"max":150,"target":"absent","response":"absent","rt":981.5,"correct":true,"confidence":2},{"trial_n":122,"min":105,"max":150,"target":"absent","response":"absent","rt":1363.5999999978,"correct":true,"confidence":3},{"trial_n":123,"min":106,"max":149,"target":"absent","response":"absent","rt":531.60000000149,"correct":true,"confidence":3},{"trial_n":124,"min":106,"max":149,"target":"present","response":"absent","rt":417.60000000149,"correct":false,"confidence":3},{"trial_n":125,"min":105,"max":150,"target":"absent","response":"absent","rt":264.70000000298,"correct":true,"confidence":3},{"trial_n":126,"min":105,"max":150,"target":"absent","response":"present","rt":641.5,"correct":false,"confidence":3},{"trial_n":127,"min":104,"max":151,"target":"present","response":"present","rt":1110.8999999985,"correct":true,"confidence":1},{"trial_n":128,"min":104,"max":151,"target":"present","response":"present","rt":591.89999999851,"correct":true,"confidence":3},{"trial_n":129,"min":105,"max":150,"target":"present","response":"present","rt":1269.6999999993,"correct":true,"confidence":3},{"trial_n":130,"min":105,"max":150,"target":"present","response":"absent","rt":871.5,"correct":false,"confidence":3},{"trial_n":131,"min":104,"max":151,"target":"absent","response":"absent","rt":935.5,"correct":true,"confidence":1},{"trial_n":132,"min":104,"max":151,"target":"absent","response":"absent","rt":1920.0999999978,"correct":true,"confidence":2},{"trial_n":133,"min":105,"max":150,"target":"absent","response":"present","rt":570.10000000149,"correct":false,"confidence":3},{"trial_n":134,"min":104,"max":151,"target":"absent","response":"absent","rt":1361.5,"correct":true,"confidence":1},{"trial_n":135,"min":104,"max":151,"target":"absent","response":"absent","rt":1314.6999999993,"correct":true,"confidence":3},{"trial_n":136,"min":105,"max":150,"target":"absent","response":"present","rt":817.5,"correct":false,"confidence":3},{"trial_n":137,"min":104,"max":151,"target":"absent","response":"present","rt":1767.0999999978,"correct":false,"confidence":2},{"trial_n":138,"min":103,"max":152,"target":"present","response":"present","rt":890.60000000149,"correct":true,"confidence":3},{"trial_n":139,"min":103,"max":152,"target":"present","response":"present","rt":1647,"correct":true,"confidence":1},{"trial_n":140,"min":104,"max":151,"target":"present","response":"absent","rt":1046.1999999993,"correct":false,"confidence":2}]