[{"trial_n":1,"span":8,"encoder":"54005824","distractor":"52005824","target":"present","response":"absent","rt":"5118.8000000007","correct":false,"confidence":-1},{"trial_n":2,"span":6,"encoder":"329084","distractor":"379084","target":"present","response":"absent","rt":"1886.3999999985","correct":false,"confidence":-1},{"trial_n":3,"span":4,"encoder":"8324","distractor":"8394","target":"absent","response":"present","rt":"1770.1000000015","correct":false,"confidence":-1},{"trial_n":4,"span":2,"encoder":"98","distractor":"08","target":"absent","response":"absent","rt":"1371","correct":true,"confidence":-1},{"trial_n":5,"span":2,"encoder":"28","distractor":"98","target":"present","response":"present","rt":"823.29999999702","correct":true,"confidence":-1},{"trial_n":6,"span":4,"encoder":"8609","distractor":"8669","target":"absent","response":"absent","rt":"1422.1999999993","correct":true,"confidence":-1},{"trial_n":7,"span":4,"encoder":"4989","distractor":"4939","target":"absent","response":"absent","rt":"1682.1000000015","correct":true,"confidence":-1},{"trial_n":8,"span":6,"encoder":"277396","distractor":"257396","target":"present","response":"present","rt":"1830.5","correct":true,"confidence":-1},{"trial_n":9,"span":6,"encoder":"606784","distractor":"106784","target":"absent","response":"absent","rt":"1057.0999999978","correct":true,"confidence":-1},{"trial_n":10,"span":8,"encoder":"85755811","distractor":"85755411","target":"absent","response":"present","rt":"1215.6000000015","correct":false,"confidence":-1},{"trial_n":11,"span":6,"encoder":"071444","distractor":"071744","target":"absent","response":"absent","rt":"943.40000000224","correct":true,"confidence":-1},{"trial_n":12,"span":6,"encoder":"589248","distractor":"587248","target":"present","response":"present","rt":"728.19999999925","correct":true,"confidence":-1},{"trial_n":13,"span":7,"encoder":"0087685","distractor":"0085685","target":"absent","response":"present","rt":"976.80000000075","correct":false,"confidence":-1},{"trial_n":14,"span":6,"encoder":"022014","distractor":"022018","target":"present","response":"present","rt":"1625.1999999993","correct":true,"confidence":-1},{"trial_n":15,"span":6,"encoder":"848387","distractor":"898387","target":"present","response":"present","rt":"1031.0999999978","correct":true,"confidence":-1},{"trial_n":16,"span":7,"encoder":"2020160","distractor":"2070160","target":"present","response":"present","rt":"845.80000000075","correct":true,"confidence":-1},{"trial_n":17,"span":7,"encoder":"9279657","distractor":"9279667","target":"present","response":"present","rt":"2655","correct":true,"confidence":-1},{"trial_n":18,"span":8,"encoder":"78632743","distractor":"78532743","target":"absent","response":"absent","rt":"1994","correct":true,"confidence":-1},{"trial_n":19,"span":8,"encoder":"87645173","distractor":"87643173","target":"absent","response":"absent","rt":"3283.5","correct":true,"confidence":-1},{"trial_n":20,"span":9,"encoder":"920292968","distractor":"920292961","target":"absent","response":"present","rt":"1984.8999999985","correct":false,"confidence":-1},{"trial_n":21,"span":8,"encoder":"20998933","distractor":"20908933","target":"present","response":"present","rt":"2227.6999999993","correct":true,"confidence":4},{"trial_n":22,"span":8,"encoder":"73006040","distractor":"78006040","target":"absent","response":"absent","rt":"1594.5","correct":true,"confidence":5},{"trial_n":23,"span":9,"encoder":"877757098","distractor":"877757078","target":"absent","response":"absent","rt":"2256.5999999978","correct":true,"confidence":4},{"trial_n":24,"span":9,"encoder":"111334422","distractor":"111734422","target":"present","response":"absent","rt":"3909","correct":false,"confidence":3},{"trial_n":25,"span":8,"encoder":"27157104","distractor":"27957104","target":"present","response":"absent","rt":"7274.5999999978","correct":false,"confidence":3},{"trial_n":26,"span":7,"encoder":"4178081","distractor":"4178011","target":"absent","response":"absent","rt":"4039.5","correct":true,"confidence":4},{"trial_n":27,"span":7,"encoder":"1878704","distractor":"6878704","target":"present","response":"present","rt":"2580.5","correct":true,"confidence":5},{"trial_n":28,"span":8,"encoder":"71180362","distractor":"71100362","target":"absent","response":"absent","rt":"5108.5","correct":true,"confidence":3},{"trial_n":29,"span":8,"encoder":"02263983","distractor":"02263913","target":"present","response":"present","rt":"2906.3999999985","correct":true,"confidence":4},{"trial_n":30,"span":9,"encoder":"311314249","distractor":"311310249","target":"absent","response":"absent","rt":"3173.200000003","correct":true,"confidence":4},{"trial_n":31,"span":9,"encoder":"165643621","distractor":"165643421","target":"present","response":"present","rt":"3590.0999999978","correct":true,"confidence":4},{"trial_n":32,"span":10,"encoder":"5030133552","distractor":"5030139552","target":"absent","response":"present","rt":"4307.5","correct":false,"confidence":3},{"trial_n":33,"span":9,"encoder":"135830537","distractor":"335830537","target":"absent","response":"absent","rt":"5327.8000000007","correct":true,"confidence":3},{"trial_n":34,"span":9,"encoder":"471430115","distractor":"271430115","target":"present","response":"present","rt":"3127.1999999993","correct":true,"confidence":5},{"trial_n":35,"span":10,"encoder":"3848362565","distractor":"3848362561","target":"present","response":"present","rt":"3646.299999997","correct":true,"confidence":4},{"trial_n":36,"span":10,"encoder":"5868902745","distractor":"5868902705","target":"absent","response":"absent","rt":"2920.8000000007","correct":true,"confidence":4},{"trial_n":37,"span":11,"encoder":"79744757417","distractor":"79744757407","target":"present","response":"absent","rt":"3542.6000000015","correct":false,"confidence":3},{"trial_n":38,"span":10,"encoder":"2769305414","distractor":"2769305914","target":"present","response":"present","rt":"2311.1000000015","correct":true,"confidence":4},{"trial_n":39,"span":10,"encoder":"2708111139","distractor":"2708111939","target":"absent","response":"present","rt":"3027.3000000007","correct":false,"confidence":3},{"trial_n":40,"span":9,"encoder":"265886686","distractor":"565886686","target":"absent","response":"present","rt":"4990","correct":false,"confidence":2},{"trial_n":41,"span":8,"encoder":"45176997","distractor":"45146997","target":"absent","response":"present","rt":"3419.200000003","correct":false,"confidence":4},{"trial_n":42,"span":7,"encoder":"3727794","distractor":"3727704","target":"present","response":"present","rt":"3678.0999999978","correct":true,"confidence":4},{"trial_n":43,"span":7,"encoder":"0543360","distractor":"0546360","target":"absent","response":"absent","rt":"3751.6999999993","correct":true,"confidence":5},{"trial_n":44,"span":8,"encoder":"98108580","distractor":"98105580","target":"present","response":"present","rt":"2874.3000000007","correct":true,"confidence":5},{"trial_n":45,"span":8,"encoder":"07642027","distractor":"07942027","target":"absent","response":"absent","rt":"2354.3000000007","correct":true,"confidence":5},{"trial_n":46,"span":9,"encoder":"203191823","distractor":"203591823","target":"absent","response":"absent","rt":"2397.799999997","correct":true,"confidence":5},{"trial_n":47,"span":9,"encoder":"449404266","distractor":"449404267","target":"present","response":"present","rt":"3227.1999999993","correct":true,"confidence":5},{"trial_n":48,"span":10,"encoder":"7724366458","distractor":"6724366458","target":"present","response":"present","rt":"3766.5","correct":true,"confidence":5},{"trial_n":49,"span":10,"encoder":"8872103560","distractor":"8072103560","target":"present","response":"present","rt":"3331.1000000015","correct":true,"confidence":4},{"trial_n":50,"span":11,"encoder":"70663093679","distractor":"20663093679","target":"present","response":"present","rt":"4132.0999999978","correct":true,"confidence":3},{"trial_n":51,"span":11,"encoder":"67295640247","distractor":"67295646247","target":"present","response":"absent","rt":"3223.6000000015","correct":false,"confidence":3},{"trial_n":52,"span":10,"encoder":"0560196732","distractor":"0560196736","target":"present","response":"present","rt":"3282.6000000015","correct":true,"confidence":4},{"trial_n":53,"span":10,"encoder":"7576342873","distractor":"7576342874","target":"absent","response":"absent","rt":"4590.1999999993","correct":true,"confidence":4},{"trial_n":54,"span":11,"encoder":"86092633388","distractor":"86092638388","target":"present","response":"present","rt":"3117.200000003","correct":true,"confidence":3},{"trial_n":55,"span":11,"encoder":"42517914214","distractor":"42507914214","target":"present","response":"present","rt":"1880.5","correct":true,"confidence":4},{"trial_n":56,"span":12,"encoder":"167491160280","distractor":"167490160280","target":"present","response":"present","rt":"6697.6999999993","correct":true,"confidence":3},{"trial_n":57,"span":12,"encoder":"284721917901","distractor":"284761917901","target":"absent","response":"absent","rt":"3909.6999999993","correct":true,"confidence":5},{"trial_n":58,"span":13,"encoder":"1262252940825","distractor":"8262252940825","target":"absent","response":"absent","rt":"4851.6999999993","correct":true,"confidence":4},{"trial_n":59,"span":13,"encoder":"1256904658287","distractor":"1286904658287","target":"absent","response":"absent","rt":"3134.3000000007","correct":true,"confidence":5},{"trial_n":60,"span":14,"encoder":"78105975137831","distractor":"78105975187831","target":"present","response":"present","rt":"8584.8999999985","correct":true,"confidence":3},{"trial_n":61,"span":14,"encoder":"44071358390699","distractor":"44071558390699","target":"present","response":"present","rt":"4494.4000000022","correct":true,"confidence":3},{"trial_n":62,"span":15,"encoder":"931846058938167","distractor":"931846758938167","target":"absent","response":"absent","rt":"3664.4000000022","correct":true,"confidence":4},{"trial_n":63,"span":15,"encoder":"028568335899184","distractor":"028568335899189","target":"absent","response":"absent","rt":"1919.299999997","correct":true,"confidence":5},{"trial_n":64,"span":16,"encoder":"5025290548939621","distractor":"5022290548939621","target":"present","response":"absent","rt":"7355.299999997","correct":false,"confidence":3},{"trial_n":65,"span":15,"encoder":"510445975456699","distractor":"510441975456699","target":"present","response":"present","rt":"5609.8000000007","correct":true,"confidence":4},{"trial_n":66,"span":15,"encoder":"926590068084143","distractor":"926597068084143","target":"absent","response":"absent","rt":"4499.0999999978","correct":true,"confidence":4},{"trial_n":67,"span":16,"encoder":"9638118211045315","distractor":"9638111211045315","target":"present","response":"present","rt":"6098.8000000007","correct":true,"confidence":3},{"trial_n":68,"span":16,"encoder":"1307530270338711","distractor":"1307540270338711","target":"absent","response":"absent","rt":"10579","correct":true,"confidence":3},{"trial_n":69,"span":17,"encoder":"89047773157844338","distractor":"89047773157844335","target":"present","response":"absent","rt":"3843.8000000007","correct":false,"confidence":4},{"trial_n":70,"span":16,"encoder":"7094909918579693","distractor":"7094909912579693","target":"absent","response":"present","rt":"3806.3999999985","correct":false,"confidence":3},{"trial_n":71,"span":8,"encoder":"69902452","distractor":"39902452","target":"present","response":"present","rt":"1576.8999999985","correct":true,"confidence":-1},{"trial_n":72,"span":8,"encoder":"25986985","distractor":"25486985","target":"present","response":"present","rt":"8363.9000000022","correct":true,"confidence":-1},{"trial_n":73,"span":9,"encoder":"603168486","distractor":"803168486","target":"absent","response":"present","rt":"1133.5999999978","correct":false,"confidence":-1},{"trial_n":74,"span":8,"encoder":"10900025","distractor":"10900035","target":"absent","response":"absent","rt":"3462.8999999985","correct":true,"confidence":-1},{"trial_n":75,"span":8,"encoder":"51935314","distractor":"51935354","target":"present","response":"present","rt":"3451","correct":true,"confidence":-1},{"trial_n":76,"span":9,"encoder":"100979280","distractor":"100979283","target":"present","response":"present","rt":"4108.9000000022","correct":true,"confidence":-1},{"trial_n":77,"span":9,"encoder":"745802479","distractor":"745902479","target":"absent","response":"absent","rt":"3952.8999999985","correct":true,"confidence":-1},{"trial_n":78,"span":10,"encoder":"6530399456","distractor":"6532399456","target":"absent","response":"present","rt":"3235.799999997","correct":false,"confidence":-1},{"trial_n":79,"span":9,"encoder":"702997485","distractor":"702297485","target":"absent","response":"absent","rt":"6042.1000000015","correct":true,"confidence":-1},{"trial_n":80,"span":9,"encoder":"453267302","distractor":"453267306","target":"absent","response":"absent","rt":"3530","correct":true,"confidence":-1},{"trial_n":81,"span":10,"encoder":"7045423714","distractor":"7045421714","target":"present","response":"present","rt":"7483.3000000007","correct":true,"confidence":-1},{"trial_n":82,"span":10,"encoder":"2512271167","distractor":"0512271167","target":"present","response":"absent","rt":"2776.3999999985","correct":false,"confidence":-1},{"trial_n":83,"span":9,"encoder":"100534122","distractor":"100534102","target":"absent","response":"absent","rt":"1395.700000003","correct":true,"confidence":-1},{"trial_n":84,"span":9,"encoder":"666270464","distractor":"666270460","target":"present","response":"present","rt":"4331.8000000007","correct":true,"confidence":-1},{"trial_n":85,"span":10,"encoder":"1381015248","distractor":"1381015048","target":"present","response":"present","rt":"5474.3000000007","correct":true,"confidence":-1},{"trial_n":86,"span":10,"encoder":"5915815575","distractor":"5915815475","target":"present","response":"absent","rt":"4788.4000000022","correct":false,"confidence":-1},{"trial_n":87,"span":9,"encoder":"406629055","distractor":"406669055","target":"absent","response":"absent","rt":"4333.1999999993","correct":true,"confidence":-1},{"trial_n":88,"span":9,"encoder":"396120422","distractor":"396190422","target":"present","response":"present","rt":"2642.8999999985","correct":true,"confidence":-1},{"trial_n":89,"span":10,"encoder":"7762965878","distractor":"7062965878","target":"present","response":"present","rt":"4010.1000000015","correct":true,"confidence":-1},{"trial_n":90,"span":10,"encoder":"8751333101","distractor":"8251333101","target":"present","response":"present","rt":"3952.1000000015","correct":true,"confidence":-1},{"trial_n":91,"span":11,"encoder":"44455833635","distractor":"44455863635","target":"absent","response":"present","rt":"8401.5","correct":false,"confidence":3},{"trial_n":92,"span":10,"encoder":"6411224956","distractor":"6411424956","target":"present","response":"absent","rt":"6810","correct":false,"confidence":3},{"trial_n":93,"span":9,"encoder":"619226793","distractor":"619226792","target":"present","response":"present","rt":"11196.399999999","correct":true,"confidence":2},{"trial_n":94,"span":9,"encoder":"134841784","distractor":"134841788","target":"present","response":"present","rt":"2924.3999999985","correct":true,"confidence":4},{"trial_n":95,"span":10,"encoder":"6953257661","distractor":"6993257661","target":"absent","response":"absent","rt":"10482.399999999","correct":true,"confidence":2},{"trial_n":96,"span":10,"encoder":"2937878445","distractor":"2937877445","target":"absent","response":"absent","rt":"7621.6999999993","correct":true,"confidence":3},{"trial_n":97,"span":11,"encoder":"45879993287","distractor":"65879993287","target":"absent","response":"present","rt":"6610","correct":false,"confidence":3},{"trial_n":98,"span":10,"encoder":"4520866229","distractor":"4520866239","target":"present","response":"present","rt":"9521.1999999993","correct":true,"confidence":4},{"trial_n":99,"span":10,"encoder":"7210149567","distractor":"7210449567","target":"absent","response":"absent","rt":"3668.700000003","correct":true,"confidence":4},{"trial_n":100,"span":11,"encoder":"32050249302","distractor":"32050449302","target":"present","response":"present","rt":"6491.8000000007","correct":true,"confidence":3},{"trial_n":101,"span":11,"encoder":"29511814232","distractor":"89511814232","target":"absent","response":"absent","rt":"4743.8000000007","correct":true,"confidence":3},{"trial_n":102,"span":12,"encoder":"221614085692","distractor":"221614185692","target":"present","response":"absent","rt":"6411","correct":false,"confidence":3},{"trial_n":103,"span":11,"encoder":"02850668534","distractor":"02850668531","target":"absent","response":"absent","rt":"8754.6000000015","correct":true,"confidence":4},{"trial_n":104,"span":11,"encoder":"87513145085","distractor":"87513045085","target":"absent","response":"absent","rt":"4078.8999999985","correct":true,"confidence":4},{"trial_n":105,"span":12,"encoder":"710959622313","distractor":"710159622313","target":"absent","response":"absent","rt":"3484.8999999985","correct":true,"confidence":4},{"trial_n":106,"span":12,"encoder":"381461490911","distractor":"351461490911","target":"present","response":"present","rt":"3378","correct":true,"confidence":5},{"trial_n":107,"span":13,"encoder":"6124916183494","distractor":"6194916183494","target":"absent","response":"absent","rt":"12081","correct":true,"confidence":4},{"trial_n":108,"span":13,"encoder":"2117813234304","distractor":"2117813234364","target":"present","response":"absent","rt":"15251.399999999","correct":false,"confidence":2},{"trial_n":109,"span":12,"encoder":"720654321004","distractor":"720694321004","target":"absent","response":"absent","rt":"7058.5","correct":true,"confidence":4},{"trial_n":110,"span":12,"encoder":"304445943557","distractor":"304485943557","target":"present","response":"present","rt":"7537.4000000022","correct":true,"confidence":3},{"trial_n":111,"span":13,"encoder":"0451071897484","distractor":"0458071897484","target":"absent","response":"present","rt":"6774.3999999985","correct":false,"confidence":3},{"trial_n":112,"span":12,"encoder":"491652653764","distractor":"498652653764","target":"absent","response":"present","rt":"8708","correct":false,"confidence":2},{"trial_n":113,"span":11,"encoder":"73866733100","distractor":"73866733400","target":"absent","response":"absent","rt":"3140.6999999993","correct":true,"confidence":5},{"trial_n":114,"span":11,"encoder":"40707471342","distractor":"40707471372","target":"absent","response":"present","rt":"23473.699999999","correct":false,"confidence":3},{"trial_n":115,"span":10,"encoder":"6578750705","distractor":"6078750705","target":"absent","response":"absent","rt":"3142.6000000015","correct":true,"confidence":5},{"trial_n":116,"span":10,"encoder":"9900127485","distractor":"9900123485","target":"present","response":"present","rt":"13349.600000001","correct":true,"confidence":4},{"trial_n":117,"span":11,"encoder":"97690076675","distractor":"94690076675","target":"absent","response":"present","rt":"8991.1999999993","correct":false,"confidence":3},{"trial_n":118,"span":10,"encoder":"6905906469","distractor":"6965906469","target":"absent","response":"present","rt":"7292.8999999985","correct":false,"confidence":4},{"trial_n":119,"span":9,"encoder":"565806666","distractor":"565806662","target":"absent","response":"absent","rt":"2824","correct":true,"confidence":5},{"trial_n":120,"span":9,"encoder":"705011765","distractor":"704011765","target":"absent","response":"absent","rt":"3440.1000000015","correct":true,"confidence":5},{"trial_n":121,"span":10,"encoder":"4519710214","distractor":"4517710214","target":"present","response":"present","rt":"5491.8999999985","correct":true,"confidence":4},{"trial_n":122,"span":10,"encoder":"5228896529","distractor":"5228896527","target":"absent","response":"absent","rt":"1900.9000000022","correct":true,"confidence":5},{"trial_n":123,"span":11,"encoder":"51363070777","distractor":"51363073777","target":"present","response":"present","rt":"3062.3000000007","correct":true,"confidence":5},{"trial_n":124,"span":11,"encoder":"92354332185","distractor":"92364332185","target":"absent","response":"absent","rt":"16199.800000001","correct":true,"confidence":3},{"trial_n":125,"span":12,"encoder":"139674939624","distractor":"139674939634","target":"present","response":"present","rt":"10792.199999999","correct":true,"confidence":2},{"trial_n":126,"span":12,"encoder":"699575956326","distractor":"699545956326","target":"present","response":"absent","rt":"6775.5","correct":false,"confidence":2},{"trial_n":127,"span":11,"encoder":"99987324717","distractor":"99187324717","target":"present","response":"present","rt":"5146.0999999978","correct":true,"confidence":5},{"trial_n":128,"span":11,"encoder":"72761820026","distractor":"72721820026","target":"present","response":"present","rt":"11947","correct":true,"confidence":4},{"trial_n":129,"span":12,"encoder":"999407236127","distractor":"999207236127","target":"present","response":"present","rt":"6186.5","correct":true,"confidence":3},{"trial_n":130,"span":12,"encoder":"638283936487","distractor":"438283936487","target":"present","response":"present","rt":"7256.9000000022","correct":true,"confidence":3},{"trial_n":131,"span":13,"encoder":"7020441116410","distractor":"4020441116410","target":"absent","response":"present","rt":"8099.700000003","correct":false,"confidence":4},{"trial_n":132,"span":12,"encoder":"049428779649","distractor":"049428079649","target":"absent","response":"absent","rt":"10349.400000002","correct":true,"confidence":3},{"trial_n":133,"span":12,"encoder":"412543225095","distractor":"212543225095","target":"absent","response":"present","rt":"5864","correct":false,"confidence":3},{"trial_n":134,"span":11,"encoder":"66094218882","distractor":"66094217882","target":"present","response":"absent","rt":"12416.199999999","correct":false,"confidence":2},{"trial_n":135,"span":10,"encoder":"1315671905","distractor":"1315071905","target":"present","response":"present","rt":"6295.1000000015","correct":true,"confidence":4},{"trial_n":136,"span":10,"encoder":"0804883867","distractor":"0804583867","target":"present","response":"present","rt":"6781.3999999985","correct":true,"confidence":4},{"trial_n":137,"span":11,"encoder":"82633114737","distractor":"82033114737","target":"present","response":"absent","rt":"9112.799999997","correct":false,"confidence":2},{"trial_n":138,"span":10,"encoder":"0195267280","distractor":"0195767280","target":"absent","response":"absent","rt":"4757.5999999978","correct":true,"confidence":5},{"trial_n":139,"span":10,"encoder":"6669937213","distractor":"6669937218","target":"present","response":"present","rt":"6741.6000000015","correct":true,"confidence":5},{"trial_n":140,"span":11,"encoder":"95844487569","distractor":"95884487569","target":"present","response":"present","rt":"4596.4000000022","correct":true,"confidence":5}]