[{"trial_n":1,"min":25,"max":230,"target":"present","response":"absent","rt":6078,"correct":false,"confidence":-1},{"trial_n":2,"min":25,"max":230,"target":"present","response":"absent","rt":2846,"correct":false,"confidence":-1},{"trial_n":3,"min":9,"max":246,"target":"absent","response":"absent","rt":477,"correct":true,"confidence":-1},{"trial_n":4,"min":9,"max":246,"target":"absent","response":"absent","rt":957,"correct":true,"confidence":-1},{"trial_n":5,"min":25,"max":230,"target":"present","response":"present","rt":1347,"correct":true,"confidence":-1},{"trial_n":6,"min":25,"max":230,"target":"absent","response":"absent","rt":920,"correct":true,"confidence":-1},{"trial_n":7,"min":41,"max":214,"target":"absent","response":"present","rt":606,"correct":false,"confidence":-1},{"trial_n":8,"min":25,"max":230,"target":"present","response":"present","rt":732,"correct":true,"confidence":-1},{"trial_n":9,"min":25,"max":230,"target":"present","response":"present","rt":566,"correct":true,"confidence":-1},{"trial_n":10,"min":41,"max":214,"target":"present","response":"present","rt":637,"correct":true,"confidence":-1},{"trial_n":11,"min":41,"max":214,"target":"present","response":"present","rt":298,"correct":true,"confidence":-1},{"trial_n":12,"min":49,"max":206,"target":"present","response":"present","rt":113,"correct":true,"confidence":-1},{"trial_n":13,"min":49,"max":206,"target":"present","response":"present","rt":638,"correct":true,"confidence":-1},{"trial_n":14,"min":57,"max":198,"target":"present","response":"present","rt":240,"correct":true,"confidence":-1},{"trial_n":15,"min":57,"max":198,"target":"present","response":"present","rt":189,"correct":true,"confidence":-1},{"trial_n":16,"min":65,"max":190,"target":"absent","response":"absent","rt":865,"correct":true,"confidence":-1},{"trial_n":17,"min":65,"max":190,"target":"absent","response":"absent","rt":866,"correct":true,"confidence":-1},{"trial_n":18,"min":73,"max":182,"target":"present","response":"present","rt":596,"correct":true,"confidence":-1},{"trial_n":19,"min":73,"max":182,"target":"present","response":"present","rt":312,"correct":true,"confidence":-1},{"trial_n":20,"min":81,"max":174,"target":"absent","response":"absent","rt":1177,"correct":true,"confidence":-1},{"trial_n":21,"min":81,"max":174,"target":"present","response":"present","rt":1799,"correct":true,"confidence":3},{"trial_n":22,"min":85,"max":170,"target":"present","response":"absent","rt":3901,"correct":false,"confidence":1},{"trial_n":23,"min":81,"max":174,"target":"absent","response":"absent","rt":685,"correct":true,"confidence":5},{"trial_n":24,"min":81,"max":174,"target":"absent","response":"present","rt":726.99999999999,"correct":false,"confidence":5},{"trial_n":25,"min":77,"max":178,"target":"absent","response":"absent","rt":598,"correct":true,"confidence":5},{"trial_n":26,"min":77,"max":178,"target":"present","response":"present","rt":700,"correct":true,"confidence":5},{"trial_n":27,"min":81,"max":174,"target":"present","response":"present","rt":544.99999999999,"correct":true,"confidence":5},{"trial_n":28,"min":81,"max":174,"target":"present","response":"absent","rt":654,"correct":false,"confidence":5},{"trial_n":29,"min":77,"max":178,"target":"absent","response":"absent","rt":823,"correct":true,"confidence":4},{"trial_n":30,"min":77,"max":178,"target":"absent","response":"absent","rt":891,"correct":true,"confidence":4},{"trial_n":31,"min":79,"max":176,"target":"absent","response":"absent","rt":970,"correct":true,"confidence":5},{"trial_n":32,"min":79,"max":176,"target":"present","response":"present","rt":852,"correct":true,"confidence":5},{"trial_n":33,"min":81,"max":174,"target":"absent","response":"absent","rt":563,"correct":true,"confidence":5},{"trial_n":34,"min":81,"max":174,"target":"absent","response":"absent","rt":929,"correct":true,"confidence":5},{"trial_n":35,"min":83,"max":172,"target":"present","response":"absent","rt":1103,"correct":false,"confidence":1},{"trial_n":36,"min":81,"max":174,"target":"present","response":"present","rt":584.99999999999,"correct":true,"confidence":5},{"trial_n":37,"min":81,"max":174,"target":"present","response":"present","rt":732,"correct":true,"confidence":5},{"trial_n":38,"min":83,"max":172,"target":"absent","response":"present","rt":572,"correct":false,"confidence":5},{"trial_n":39,"min":81,"max":174,"target":"present","response":"present","rt":576,"correct":true,"confidence":5},{"trial_n":40,"min":81,"max":174,"target":"absent","response":"absent","rt":651,"correct":true,"confidence":5},{"trial_n":41,"min":82,"max":173,"target":"absent","response":"absent","rt":588,"correct":true,"confidence":5},{"trial_n":42,"min":82,"max":173,"target":"absent","response":"absent","rt":563,"correct":true,"confidence":5},{"trial_n":43,"min":83,"max":172,"target":"absent","response":"absent","rt":695,"correct":true,"confidence":4},{"trial_n":44,"min":83,"max":172,"target":"present","response":"present","rt":490,"correct":true,"confidence":5},{"trial_n":45,"min":84,"max":171,"target":"present","response":"absent","rt":962.00000000003,"correct":false,"confidence":3},{"trial_n":46,"min":83,"max":172,"target":"absent","response":"absent","rt":597,"correct":true,"confidence":5},{"trial_n":47,"min":83,"max":172,"target":"absent","response":"present","rt":982,"correct":false,"confidence":4},{"trial_n":48,"min":82,"max":173,"target":"present","response":"present","rt":597,"correct":true,"confidence":5},{"trial_n":49,"min":82,"max":173,"target":"absent","response":"absent","rt":553,"correct":true,"confidence":4},{"trial_n":50,"min":83,"max":172,"target":"absent","response":"absent","rt":767,"correct":true,"confidence":3},{"trial_n":51,"min":83,"max":172,"target":"absent","response":"absent","rt":613,"correct":true,"confidence":3},{"trial_n":52,"min":84,"max":171,"target":"present","response":"present","rt":1132,"correct":true,"confidence":3},{"trial_n":53,"min":84,"max":171,"target":"present","response":"present","rt":610.99999999997,"correct":true,"confidence":5},{"trial_n":54,"min":85,"max":170,"target":"present","response":"absent","rt":1634,"correct":false,"confidence":1},{"trial_n":55,"min":84,"max":171,"target":"absent","response":"absent","rt":2964,"correct":true,"confidence":4},{"trial_n":56,"min":84,"max":171,"target":"absent","response":"absent","rt":556,"correct":true,"confidence":4},{"trial_n":57,"min":85,"max":170,"target":"absent","response":"absent","rt":523,"correct":true,"confidence":4},{"trial_n":58,"min":85,"max":170,"target":"absent","response":"absent","rt":599,"correct":true,"confidence":4},{"trial_n":59,"min":86,"max":169,"target":"present","response":"present","rt":684,"correct":true,"confidence":5},{"trial_n":60,"min":86,"max":169,"target":"present","response":"present","rt":611,"correct":true,"confidence":5},{"trial_n":61,"min":87,"max":168,"target":"absent","response":"absent","rt":1098,"correct":true,"confidence":4},{"trial_n":62,"min":87,"max":168,"target":"absent","response":"present","rt":1133,"correct":false,"confidence":1},{"trial_n":63,"min":86,"max":169,"target":"present","response":"present","rt":617,"correct":true,"confidence":5},{"trial_n":64,"min":86,"max":169,"target":"present","response":"absent","rt":701,"correct":false,"confidence":1},{"trial_n":65,"min":85,"max":170,"target":"absent","response":"absent","rt":711,"correct":true,"confidence":4},{"trial_n":66,"min":85,"max":170,"target":"present","response":"present","rt":593,"correct":true,"confidence":5},{"trial_n":67,"min":86,"max":169,"target":"absent","response":"absent","rt":697,"correct":true,"confidence":1},{"trial_n":68,"min":86,"max":169,"target":"present","response":"present","rt":652.99999999997,"correct":true,"confidence":5},{"trial_n":69,"min":87,"max":168,"target":"present","response":"present","rt":420,"correct":true,"confidence":5},{"trial_n":70,"min":87,"max":168,"target":"absent","response":"absent","rt":476,"correct":true,"confidence":4},{"trial_n":71,"min":41,"max":214,"target":"present","response":"present","rt":5459,"correct":true,"confidence":-1},{"trial_n":72,"min":41,"max":214,"target":"present","response":"present","rt":568.00000000003,"correct":true,"confidence":-1},{"trial_n":73,"min":57,"max":198,"target":"absent","response":"absent","rt":222.00000000003,"correct":true,"confidence":-1},{"trial_n":74,"min":57,"max":198,"target":"absent","response":"absent","rt":307,"correct":true,"confidence":-1},{"trial_n":75,"min":73,"max":182,"target":"present","response":"present","rt":66,"correct":true,"confidence":-1},{"trial_n":76,"min":73,"max":182,"target":"present","response":"present","rt":43,"correct":true,"confidence":-1},{"trial_n":77,"min":89,"max":166,"target":"present","response":"present","rt":577,"correct":true,"confidence":-1},{"trial_n":78,"min":89,"max":166,"target":"present","response":"present","rt":111,"correct":true,"confidence":-1},{"trial_n":79,"min":105,"max":150,"target":"absent","response":"present","rt":267,"correct":false,"confidence":-1},{"trial_n":80,"min":89,"max":166,"target":"absent","response":"absent","rt":286.99999999994,"correct":true,"confidence":-1},{"trial_n":81,"min":89,"max":166,"target":"present","response":"absent","rt":260,"correct":false,"confidence":-1},{"trial_n":82,"min":81,"max":174,"target":"absent","response":"present","rt":-4.9999999999418,"correct":false,"confidence":-1},{"trial_n":83,"min":73,"max":182,"target":"absent","response":"absent","rt":415,"correct":true,"confidence":-1},{"trial_n":84,"min":73,"max":182,"target":"absent","response":"absent","rt":73.999999999942,"correct":true,"confidence":-1},{"trial_n":85,"min":81,"max":174,"target":"absent","response":"absent","rt":179.99999999994,"correct":true,"confidence":-1},{"trial_n":86,"min":81,"max":174,"target":"absent","response":"absent","rt":464,"correct":true,"confidence":-1},{"trial_n":87,"min":89,"max":166,"target":"present","response":"present","rt":45,"correct":true,"confidence":-1},{"trial_n":88,"min":89,"max":166,"target":"absent","response":"present","rt":317,"correct":false,"confidence":-1},{"trial_n":89,"min":81,"max":174,"target":"present","response":"present","rt":91.000000000058,"correct":true,"confidence":-1},{"trial_n":90,"min":81,"max":174,"target":"absent","response":"present","rt":264,"correct":false,"confidence":-1},{"trial_n":91,"min":77,"max":178,"target":"absent","response":"absent","rt":864.00000000006,"correct":true,"confidence":3},{"trial_n":92,"min":77,"max":178,"target":"absent","response":"absent","rt":373,"correct":true,"confidence":4},{"trial_n":93,"min":81,"max":174,"target":"absent","response":"absent","rt":331,"correct":true,"confidence":5},{"trial_n":94,"min":81,"max":174,"target":"present","response":"absent","rt":2161,"correct":false,"confidence":1},{"trial_n":95,"min":77,"max":178,"target":"present","response":"present","rt":514,"correct":true,"confidence":5},{"trial_n":96,"min":77,"max":178,"target":"absent","response":"absent","rt":619,"correct":true,"confidence":4},{"trial_n":97,"min":81,"max":174,"target":"present","response":"present","rt":498,"correct":true,"confidence":5},{"trial_n":98,"min":81,"max":174,"target":"absent","response":"absent","rt":930,"correct":true,"confidence":1},{"trial_n":99,"min":85,"max":170,"target":"present","response":"present","rt":424,"correct":true,"confidence":5},{"trial_n":100,"min":85,"max":170,"target":"present","response":"present","rt":453,"correct":true,"confidence":4},{"trial_n":101,"min":87,"max":168,"target":"present","response":"present","rt":597.99999999994,"correct":true,"confidence":4},{"trial_n":102,"min":87,"max":168,"target":"absent","response":"absent","rt":562,"correct":true,"confidence":1},{"trial_n":103,"min":89,"max":166,"target":"present","response":"present","rt":349,"correct":true,"confidence":5},{"trial_n":104,"min":89,"max":166,"target":"present","response":"absent","rt":610.00000000006,"correct":false,"confidence":1},{"trial_n":105,"min":87,"max":168,"target":"present","response":"absent","rt":596,"correct":false,"confidence":1},{"trial_n":106,"min":85,"max":170,"target":"absent","response":"absent","rt":515,"correct":true,"confidence":1},{"trial_n":107,"min":85,"max":170,"target":"present","response":"present","rt":416.00000000006,"correct":true,"confidence":4},{"trial_n":108,"min":87,"max":168,"target":"present","response":"present","rt":745,"correct":true,"confidence":4},{"trial_n":109,"min":87,"max":168,"target":"absent","response":"present","rt":447,"correct":false,"confidence":4},{"trial_n":110,"min":85,"max":170,"target":"absent","response":"absent","rt":611,"correct":true,"confidence":1},{"trial_n":111,"min":85,"max":170,"target":"present","response":"present","rt":1180,"correct":true,"confidence":5},{"trial_n":112,"min":86,"max":169,"target":"absent","response":"present","rt":621,"correct":false,"confidence":1},{"trial_n":113,"min":85,"max":170,"target":"absent","response":"absent","rt":641,"correct":true,"confidence":5},{"trial_n":114,"min":85,"max":170,"target":"present","response":"present","rt":450,"correct":true,"confidence":5},{"trial_n":115,"min":86,"max":169,"target":"present","response":"present","rt":239,"correct":true,"confidence":5},{"trial_n":116,"min":86,"max":169,"target":"absent","response":"present","rt":617,"correct":false,"confidence":3},{"trial_n":117,"min":85,"max":170,"target":"present","response":"present","rt":457,"correct":true,"confidence":5},{"trial_n":118,"min":85,"max":170,"target":"absent","response":"present","rt":437,"correct":false,"confidence":4},{"trial_n":119,"min":84,"max":171,"target":"absent","response":"present","rt":668,"correct":false,"confidence":1},{"trial_n":120,"min":83,"max":172,"target":"present","response":"present","rt":418,"correct":true,"confidence":5},{"trial_n":121,"min":83,"max":172,"target":"present","response":"present","rt":354,"correct":true,"confidence":5},{"trial_n":122,"min":84,"max":171,"target":"absent","response":"absent","rt":681,"correct":true,"confidence":1},{"trial_n":123,"min":84,"max":171,"target":"present","response":"present","rt":387,"correct":true,"confidence":5},{"trial_n":124,"min":85,"max":170,"target":"absent","response":"present","rt":352,"correct":false,"confidence":4},{"trial_n":125,"min":84,"max":171,"target":"present","response":"present","rt":254,"correct":true,"confidence":5},{"trial_n":126,"min":84,"max":171,"target":"absent","response":"absent","rt":1256,"correct":true,"confidence":1},{"trial_n":127,"min":85,"max":170,"target":"absent","response":"absent","rt":905.00000000006,"correct":true,"confidence":3},{"trial_n":128,"min":85,"max":170,"target":"absent","response":"present","rt":617.00000000006,"correct":false,"confidence":3},{"trial_n":129,"min":84,"max":171,"target":"absent","response":"present","rt":507,"correct":false,"confidence":4},{"trial_n":130,"min":83,"max":172,"target":"present","response":"present","rt":363,"correct":true,"confidence":5},{"trial_n":131,"min":83,"max":172,"target":"present","response":"present","rt":290.00000000006,"correct":true,"confidence":5},{"trial_n":132,"min":84,"max":171,"target":"absent","response":"absent","rt":1433,"correct":true,"confidence":1},{"trial_n":133,"min":84,"max":171,"target":"present","response":"present","rt":575.00000000006,"correct":true,"confidence":5},{"trial_n":134,"min":85,"max":170,"target":"absent","response":"present","rt":794,"correct":false,"confidence":5},{"trial_n":135,"min":84,"max":171,"target":"present","response":"present","rt":295.99999999994,"correct":true,"confidence":5},{"trial_n":136,"min":84,"max":171,"target":"present","response":"present","rt":238,"correct":true,"confidence":5},{"trial_n":137,"min":85,"max":170,"target":"present","response":"present","rt":313,"correct":true,"confidence":5},{"trial_n":138,"min":85,"max":170,"target":"present","response":"present","rt":804,"correct":true,"confidence":5},{"trial_n":139,"min":86,"max":169,"target":"absent","response":"absent","rt":1358,"correct":true,"confidence":3},{"trial_n":140,"min":86,"max":169,"target":"present","response":"present","rt":684,"correct":true,"confidence":4}]