[{"trial_n":1,"span":8,"encoder":"18572386","distractor":"18574386","target":"present","response":"present","rt":"6840","correct":true,"confidence":-1},{"trial_n":2,"span":8,"encoder":"06136052","distractor":"06736052","target":"present","response":"present","rt":"3571","correct":true,"confidence":-1},{"trial_n":3,"span":10,"encoder":"0856946273","distractor":"0856946213","target":"absent","response":"absent","rt":"3498","correct":true,"confidence":-1},{"trial_n":4,"span":10,"encoder":"9928145247","distractor":"9928145248","target":"absent","response":"absent","rt":"4434","correct":true,"confidence":-1},{"trial_n":5,"span":12,"encoder":"561924812493","distractor":"961924812493","target":"present","response":"present","rt":"3035","correct":true,"confidence":-1},{"trial_n":6,"span":12,"encoder":"903538986586","distractor":"903538986596","target":"present","response":"present","rt":"1553","correct":true,"confidence":-1},{"trial_n":7,"span":14,"encoder":"99344623395551","distractor":"99344623395552","target":"absent","response":"absent","rt":"3013","correct":true,"confidence":-1},{"trial_n":8,"span":14,"encoder":"37877020635537","distractor":"37877020655537","target":"present","response":"present","rt":"1551","correct":true,"confidence":-1},{"trial_n":9,"span":16,"encoder":"1021336979565039","distractor":"1021336979165039","target":"present","response":"present","rt":"1384","correct":true,"confidence":-1},{"trial_n":10,"span":16,"encoder":"8164012342756971","distractor":"8164012342776971","target":"present","response":"present","rt":"997","correct":true,"confidence":-1},{"trial_n":11,"span":18,"encoder":"045271590614131850","distractor":"045270590614131850","target":"present","response":"present","rt":"4187","correct":true,"confidence":-1},{"trial_n":12,"span":18,"encoder":"684180102736236802","distractor":"684180902736236802","target":"present","response":"present","rt":"1326","correct":true,"confidence":-1},{"trial_n":13,"span":19,"encoder":"8057125865635682791","distractor":"8057125864635682791","target":"present","response":"present","rt":"1558","correct":true,"confidence":-1},{"trial_n":14,"span":19,"encoder":"8895718809589052162","distractor":"1895718809589052162","target":"absent","response":"present","rt":"1157","correct":false,"confidence":-1},{"trial_n":15,"span":18,"encoder":"560054860151671866","distractor":"560059860151671866","target":"absent","response":"absent","rt":"1707","correct":true,"confidence":-1},{"trial_n":16,"span":18,"encoder":"278053560492532446","distractor":"278053560492537446","target":"present","response":"absent","rt":"3357","correct":false,"confidence":-1},{"trial_n":17,"span":17,"encoder":"09190602386582866","distractor":"09190602386592866","target":"present","response":"absent","rt":"4681","correct":false,"confidence":-1},{"trial_n":18,"span":16,"encoder":"4666767574012521","distractor":"4666767574312521","target":"absent","response":"present","rt":"1813","correct":false,"confidence":-1},{"trial_n":19,"span":15,"encoder":"711189593272659","distractor":"711189593270659","target":"present","response":"present","rt":"2653","correct":true,"confidence":-1},{"trial_n":20,"span":15,"encoder":"179322033336457","distractor":"179322033336477","target":"present","response":"present","rt":"1323","correct":true,"confidence":-1},{"trial_n":21,"span":16,"encoder":"7868333391849255","distractor":"7868303391849255","target":"present","response":"absent","rt":"3106","correct":false,"confidence":5},{"trial_n":22,"span":15,"encoder":"588635396720899","distractor":"588635396720399","target":"absent","response":"absent","rt":"2758","correct":true,"confidence":5},{"trial_n":23,"span":15,"encoder":"980788570866530","distractor":"180788570866530","target":"absent","response":"present","rt":"5124","correct":false,"confidence":4},{"trial_n":24,"span":14,"encoder":"60258066175507","distractor":"60258086175507","target":"absent","response":"present","rt":"1688","correct":false,"confidence":4},{"trial_n":25,"span":13,"encoder":"5990582664225","distractor":"5290582664225","target":"absent","response":"absent","rt":"6511","correct":true,"confidence":3},{"trial_n":26,"span":13,"encoder":"2685440346174","distractor":"2685440347174","target":"absent","response":"present","rt":"2123","correct":false,"confidence":4},{"trial_n":27,"span":12,"encoder":"187857153680","distractor":"187850153680","target":"absent","response":"present","rt":"3815","correct":false,"confidence":5},{"trial_n":28,"span":11,"encoder":"13706495936","distractor":"13706495932","target":"present","response":"absent","rt":"6870","correct":false,"confidence":2},{"trial_n":29,"span":10,"encoder":"5089601315","distractor":"5081601315","target":"absent","response":"present","rt":"3884","correct":false,"confidence":2},{"trial_n":30,"span":9,"encoder":"447283809","distractor":"447283609","target":"absent","response":"present","rt":"3593","correct":false,"confidence":4},{"trial_n":31,"span":8,"encoder":"46613401","distractor":"46613301","target":"absent","response":"present","rt":"3304","correct":false,"confidence":3},{"trial_n":32,"span":7,"encoder":"6402766","distractor":"6401766","target":"present","response":"absent","rt":"5368","correct":false,"confidence":3},{"trial_n":33,"span":6,"encoder":"155596","distractor":"153596","target":"present","response":"present","rt":"1900","correct":true,"confidence":4},{"trial_n":34,"span":6,"encoder":"090757","distractor":"090727","target":"present","response":"present","rt":"1390","correct":true,"confidence":5},{"trial_n":35,"span":7,"encoder":"8949606","distractor":"9949606","target":"absent","response":"absent","rt":"2185","correct":true,"confidence":5},{"trial_n":36,"span":7,"encoder":"0926044","distractor":"3926044","target":"present","response":"absent","rt":"7143","correct":false,"confidence":3},{"trial_n":37,"span":6,"encoder":"905427","distractor":"905827","target":"absent","response":"absent","rt":"3999","correct":true,"confidence":5},{"trial_n":38,"span":6,"encoder":"336139","distractor":"376139","target":"absent","response":"absent","rt":"4430","correct":true,"confidence":5},{"trial_n":39,"span":7,"encoder":"9954770","distractor":"9954760","target":"absent","response":"absent","rt":"2962","correct":true,"confidence":3},{"trial_n":40,"span":7,"encoder":"9331708","distractor":"9331788","target":"absent","response":"absent","rt":"3589","correct":true,"confidence":4},{"trial_n":41,"span":8,"encoder":"29265657","distractor":"29365657","target":"present","response":"present","rt":"3512","correct":true,"confidence":4},{"trial_n":42,"span":8,"encoder":"97639295","distractor":"67639295","target":"absent","response":"absent","rt":"3813","correct":true,"confidence":3},{"trial_n":43,"span":9,"encoder":"501254259","distractor":"501254359","target":"present","response":"present","rt":"2952.9999999999","correct":true,"confidence":5},{"trial_n":44,"span":9,"encoder":"961239612","distractor":"965239612","target":"absent","response":"absent","rt":"5051","correct":true,"confidence":3},{"trial_n":45,"span":10,"encoder":"3169131242","distractor":"3169131842","target":"absent","response":"present","rt":"4010","correct":false,"confidence":2},{"trial_n":46,"span":9,"encoder":"515359567","distractor":"575359567","target":"present","response":"present","rt":"3411","correct":true,"confidence":4},{"trial_n":47,"span":9,"encoder":"940532974","distractor":"946532974","target":"present","response":"present","rt":"1321","correct":true,"confidence":2},{"trial_n":48,"span":10,"encoder":"6741928893","distractor":"9741928893","target":"present","response":"absent","rt":"5258.9999999999","correct":false,"confidence":2},{"trial_n":49,"span":9,"encoder":"465607142","distractor":"465607642","target":"absent","response":"present","rt":"4221","correct":false,"confidence":4},{"trial_n":50,"span":8,"encoder":"12325460","distractor":"14325460","target":"absent","response":"absent","rt":"7846","correct":true,"confidence":3},{"trial_n":51,"span":8,"encoder":"10638229","distractor":"15638229","target":"present","response":"present","rt":"1581.0000000001","correct":true,"confidence":4},{"trial_n":52,"span":9,"encoder":"186117187","distractor":"186114187","target":"absent","response":"absent","rt":"3282","correct":true,"confidence":4},{"trial_n":53,"span":9,"encoder":"159354730","distractor":"119354730","target":"absent","response":"present","rt":"4523","correct":false,"confidence":3},{"trial_n":54,"span":8,"encoder":"45570147","distractor":"45570247","target":"present","response":"present","rt":"2801","correct":true,"confidence":5},{"trial_n":55,"span":8,"encoder":"35406350","distractor":"39406350","target":"absent","response":"absent","rt":"4394","correct":true,"confidence":4},{"trial_n":56,"span":9,"encoder":"887162134","distractor":"887562134","target":"present","response":"present","rt":"2356","correct":true,"confidence":5},{"trial_n":57,"span":9,"encoder":"939434746","distractor":"939439746","target":"present","response":"present","rt":"2928","correct":true,"confidence":5},{"trial_n":58,"span":10,"encoder":"7326133459","distractor":"7626133459","target":"present","response":"present","rt":"3119.0000000001","correct":true,"confidence":5},{"trial_n":59,"span":10,"encoder":"1888173218","distractor":"1888173217","target":"present","response":"present","rt":"2933.9999999999","correct":true,"confidence":5},{"trial_n":60,"span":11,"encoder":"65473368277","distractor":"65473364277","target":"present","response":"present","rt":"4199.0000000001","correct":true,"confidence":5},{"trial_n":61,"span":11,"encoder":"15336845023","distractor":"19336845023","target":"absent","response":"absent","rt":"2244","correct":true,"confidence":4},{"trial_n":62,"span":12,"encoder":"753322231020","distractor":"753322231080","target":"present","response":"present","rt":"4187","correct":true,"confidence":5},{"trial_n":63,"span":12,"encoder":"768993969870","distractor":"768993669870","target":"absent","response":"absent","rt":"2984","correct":true,"confidence":4},{"trial_n":64,"span":13,"encoder":"1949661620516","distractor":"1949661670516","target":"present","response":"absent","rt":"4391","correct":false,"confidence":4},{"trial_n":65,"span":12,"encoder":"858084761457","distractor":"858087761457","target":"absent","response":"present","rt":"1962","correct":false,"confidence":3},{"trial_n":66,"span":11,"encoder":"63605234038","distractor":"63602234038","target":"present","response":"absent","rt":"7013","correct":false,"confidence":2},{"trial_n":67,"span":10,"encoder":"3375436297","distractor":"3372436297","target":"present","response":"present","rt":"4872.9999999999","correct":true,"confidence":5},{"trial_n":68,"span":10,"encoder":"0667665671","distractor":"0667665674","target":"absent","response":"absent","rt":"6108","correct":true,"confidence":4},{"trial_n":69,"span":11,"encoder":"90394660755","distractor":"30394660755","target":"absent","response":"absent","rt":"4685","correct":true,"confidence":3},{"trial_n":70,"span":11,"encoder":"14040645687","distractor":"14060645687","target":"absent","response":"absent","rt":"4843","correct":true,"confidence":4},{"trial_n":71,"span":8,"encoder":"22122342","distractor":"22122362","target":"present","response":"present","rt":"6505","correct":true,"confidence":-1},{"trial_n":72,"span":8,"encoder":"70623203","distractor":"70623253","target":"present","response":"absent","rt":"1335","correct":false,"confidence":-1},{"trial_n":73,"span":7,"encoder":"4634939","distractor":"4637939","target":"absent","response":"absent","rt":"3967","correct":true,"confidence":-1},{"trial_n":74,"span":7,"encoder":"5647538","distractor":"9647538","target":"absent","response":"absent","rt":"3769","correct":true,"confidence":-1},{"trial_n":75,"span":8,"encoder":"32205156","distractor":"33205156","target":"present","response":"absent","rt":"878","correct":false,"confidence":-1},{"trial_n":76,"span":7,"encoder":"3770432","distractor":"3770932","target":"absent","response":"present","rt":"584.00000000012","correct":false,"confidence":-1},{"trial_n":77,"span":6,"encoder":"544698","distractor":"574698","target":"absent","response":"absent","rt":"4577","correct":true,"confidence":-1},{"trial_n":78,"span":6,"encoder":"210710","distractor":"210717","target":"absent","response":"absent","rt":"344","correct":true,"confidence":-1},{"trial_n":79,"span":7,"encoder":"7931903","distractor":"7931403","target":"present","response":"present","rt":"1534","correct":true,"confidence":-1},{"trial_n":80,"span":7,"encoder":"5383993","distractor":"5323993","target":"absent","response":"absent","rt":"2290","correct":true,"confidence":-1},{"trial_n":81,"span":8,"encoder":"75557785","distractor":"75555785","target":"present","response":"present","rt":"3044","correct":true,"confidence":-1},{"trial_n":82,"span":8,"encoder":"79362350","distractor":"79363350","target":"present","response":"present","rt":"3236.9999999999","correct":true,"confidence":-1},{"trial_n":83,"span":9,"encoder":"998897662","distractor":"998897962","target":"absent","response":"absent","rt":"2203.9999999999","correct":true,"confidence":-1},{"trial_n":84,"span":9,"encoder":"473800885","distractor":"473800825","target":"absent","response":"absent","rt":"2091","correct":true,"confidence":-1},{"trial_n":85,"span":10,"encoder":"2975258774","distractor":"2975258754","target":"absent","response":"absent","rt":"1877.9999999999","correct":true,"confidence":-1},{"trial_n":86,"span":10,"encoder":"5352982578","distractor":"5322982578","target":"absent","response":"present","rt":"335","correct":false,"confidence":-1},{"trial_n":87,"span":9,"encoder":"111448923","distractor":"111448983","target":"absent","response":"present","rt":"2662","correct":false,"confidence":-1},{"trial_n":88,"span":8,"encoder":"48500179","distractor":"48400179","target":"present","response":"absent","rt":"866","correct":false,"confidence":-1},{"trial_n":89,"span":7,"encoder":"1421419","distractor":"1428419","target":"absent","response":"present","rt":"2970","correct":false,"confidence":-1},{"trial_n":90,"span":6,"encoder":"772059","distractor":"776059","target":"present","response":"present","rt":"1008.0000000001","correct":true,"confidence":-1},{"trial_n":91,"span":6,"encoder":"372612","distractor":"362612","target":"absent","response":"absent","rt":"1359","correct":true,"confidence":5},{"trial_n":92,"span":7,"encoder":"9918060","distractor":"9918260","target":"absent","response":"absent","rt":"4067","correct":true,"confidence":5},{"trial_n":93,"span":7,"encoder":"9052875","distractor":"9752875","target":"present","response":"present","rt":"4507","correct":true,"confidence":5},{"trial_n":94,"span":8,"encoder":"37464614","distractor":"37404614","target":"present","response":"present","rt":"5035","correct":true,"confidence":5},{"trial_n":95,"span":8,"encoder":"71180178","distractor":"71100178","target":"present","response":"present","rt":"7604.0000000002","correct":true,"confidence":5},{"trial_n":96,"span":9,"encoder":"162008884","distractor":"162008886","target":"absent","response":"absent","rt":"2729","correct":true,"confidence":5},{"trial_n":97,"span":9,"encoder":"332248782","distractor":"332248742","target":"absent","response":"absent","rt":"5662","correct":true,"confidence":5},{"trial_n":98,"span":10,"encoder":"3400033953","distractor":"3400073953","target":"present","response":"present","rt":"5244.0000000002","correct":true,"confidence":4},{"trial_n":99,"span":10,"encoder":"7854709427","distractor":"7854709417","target":"present","response":"present","rt":"4968","correct":true,"confidence":4},{"trial_n":100,"span":11,"encoder":"51544964610","distractor":"51544264610","target":"absent","response":"present","rt":"6055","correct":false,"confidence":4},{"trial_n":101,"span":10,"encoder":"7395435553","distractor":"7995435553","target":"absent","response":"absent","rt":"3627","correct":true,"confidence":3},{"trial_n":102,"span":10,"encoder":"4540400210","distractor":"4540800210","target":"present","response":"present","rt":"4282","correct":true,"confidence":2},{"trial_n":103,"span":11,"encoder":"71371736321","distractor":"71373736321","target":"absent","response":"absent","rt":"3043","correct":true,"confidence":5},{"trial_n":104,"span":11,"encoder":"84747000560","distractor":"54747000560","target":"present","response":"present","rt":"3190","correct":true,"confidence":5},{"trial_n":105,"span":12,"encoder":"775393535065","distractor":"375393535065","target":"absent","response":"absent","rt":"1074","correct":true,"confidence":5},{"trial_n":106,"span":12,"encoder":"156170643998","distractor":"156070643998","target":"absent","response":"absent","rt":"4139","correct":true,"confidence":4},{"trial_n":107,"span":13,"encoder":"6010175585480","distractor":"8010175585480","target":"present","response":"present","rt":"3183","correct":true,"confidence":5},{"trial_n":108,"span":13,"encoder":"2650615086232","distractor":"2650615686232","target":"present","response":"present","rt":"7155","correct":true,"confidence":5},{"trial_n":109,"span":14,"encoder":"15571436758972","distractor":"11571436758972","target":"present","response":"present","rt":"9161","correct":true,"confidence":1},{"trial_n":110,"span":14,"encoder":"23088132927153","distractor":"23088132920153","target":"present","response":"absent","rt":"7138","correct":false,"confidence":2},{"trial_n":111,"span":13,"encoder":"0700672297857","distractor":"0700672297847","target":"present","response":"present","rt":"1765","correct":true,"confidence":5},{"trial_n":112,"span":13,"encoder":"3683131426950","distractor":"7683131426950","target":"present","response":"present","rt":"3085","correct":true,"confidence":3},{"trial_n":113,"span":14,"encoder":"63836435309077","distractor":"63836435309777","target":"present","response":"present","rt":"1743.0000000002","correct":true,"confidence":4},{"trial_n":114,"span":14,"encoder":"06907945376352","distractor":"06907945376252","target":"absent","response":"present","rt":"10008","correct":false,"confidence":2},{"trial_n":115,"span":13,"encoder":"3588121591276","distractor":"3588121691276","target":"absent","response":"absent","rt":"4233","correct":true,"confidence":1},{"trial_n":116,"span":13,"encoder":"0248786227542","distractor":"0248786527542","target":"absent","response":"absent","rt":"4067","correct":true,"confidence":5},{"trial_n":117,"span":14,"encoder":"43957012539076","distractor":"43954012539076","target":"present","response":"present","rt":"3899","correct":true,"confidence":3},{"trial_n":118,"span":14,"encoder":"04871835041448","distractor":"04871835011448","target":"absent","response":"absent","rt":"7743","correct":true,"confidence":3},{"trial_n":119,"span":15,"encoder":"089483964101536","distractor":"089483964101526","target":"absent","response":"absent","rt":"2728","correct":true,"confidence":5},{"trial_n":120,"span":15,"encoder":"946505010548264","distractor":"946505010548764","target":"present","response":"present","rt":"2118","correct":true,"confidence":5},{"trial_n":121,"span":16,"encoder":"9021822118940126","distractor":"9021822118040126","target":"present","response":"absent","rt":"7921.0000000002","correct":false,"confidence":3},{"trial_n":122,"span":15,"encoder":"342336637639673","distractor":"312336637639673","target":"absent","response":"absent","rt":"1231","correct":true,"confidence":1},{"trial_n":123,"span":15,"encoder":"211964469099514","distractor":"211964469099414","target":"present","response":"present","rt":"3689","correct":true,"confidence":4},{"trial_n":124,"span":16,"encoder":"9628747483868655","distractor":"9628747483868955","target":"absent","response":"absent","rt":"3914","correct":true,"confidence":5},{"trial_n":125,"span":16,"encoder":"1545876489925872","distractor":"1545876489925871","target":"present","response":"present","rt":"1210","correct":true,"confidence":5},{"trial_n":126,"span":17,"encoder":"07005565448751453","distractor":"04005565448751453","target":"present","response":"absent","rt":"5913","correct":false,"confidence":3},{"trial_n":127,"span":16,"encoder":"5340945458775753","distractor":"5340945458975753","target":"present","response":"present","rt":"3540","correct":true,"confidence":2},{"trial_n":128,"span":16,"encoder":"8807072047974297","distractor":"8807072077974297","target":"absent","response":"present","rt":"6459","correct":false,"confidence":1},{"trial_n":129,"span":15,"encoder":"355632833249377","distractor":"355632833249371","target":"present","response":"present","rt":"1414","correct":true,"confidence":5},{"trial_n":130,"span":15,"encoder":"516315143198006","distractor":"516315143198004","target":"present","response":"present","rt":"1537","correct":true,"confidence":5},{"trial_n":131,"span":16,"encoder":"7111487536674413","distractor":"7112487536674413","target":"absent","response":"absent","rt":"6321","correct":true,"confidence":4},{"trial_n":132,"span":16,"encoder":"3439931516670681","distractor":"3439931517670681","target":"absent","response":"absent","rt":"6347","correct":true,"confidence":1},{"trial_n":133,"span":17,"encoder":"51961759011697020","distractor":"51661759011697020","target":"present","response":"absent","rt":"3679","correct":false,"confidence":2},{"trial_n":134,"span":16,"encoder":"9295636174363783","distractor":"9295634174363783","target":"present","response":"present","rt":"15097","correct":true,"confidence":1},{"trial_n":135,"span":16,"encoder":"4425485353695116","distractor":"4425485353675116","target":"absent","response":"absent","rt":"1828","correct":true,"confidence":1},{"trial_n":136,"span":17,"encoder":"01281813673786390","distractor":"41281813673786390","target":"present","response":"present","rt":"8337","correct":true,"confidence":3},{"trial_n":137,"span":17,"encoder":"91331655366583943","distractor":"91331655366580943","target":"absent","response":"absent","rt":"9721","correct":true,"confidence":2},{"trial_n":138,"span":18,"encoder":"200334257301906775","distractor":"200234257301906775","target":"absent","response":"present","rt":"7876","correct":false,"confidence":2},{"trial_n":139,"span":17,"encoder":"41404342906508847","distractor":"41404340906508847","target":"present","response":"absent","rt":"6716.9999999998","correct":false,"confidence":1},{"trial_n":140,"span":16,"encoder":"9604682067109703","distractor":"9604682067109707","target":"present","response":"present","rt":"2389.0000000002","correct":true,"confidence":4}]