[{"trial_n":1,"span":8,"encoder":"37388291","distractor":"37380291","target":"present","response":"present","rt":"3742.5","correct":true,"confidence":-1},{"trial_n":2,"span":8,"encoder":"71586466","distractor":"77586466","target":"present","response":"present","rt":"3511.799999997","correct":true,"confidence":-1},{"trial_n":3,"span":10,"encoder":"0026827594","distractor":"0028827594","target":"absent","response":"present","rt":"2463.5","correct":false,"confidence":-1},{"trial_n":4,"span":8,"encoder":"60656703","distractor":"60657703","target":"absent","response":"absent","rt":"2818.599999994","correct":true,"confidence":-1},{"trial_n":5,"span":8,"encoder":"65568827","distractor":"65561827","target":"present","response":"present","rt":"1816.5","correct":true,"confidence":-1},{"trial_n":6,"span":10,"encoder":"3523035448","distractor":"0523035448","target":"absent","response":"present","rt":"1276","correct":false,"confidence":-1},{"trial_n":7,"span":8,"encoder":"36608527","distractor":"36608523","target":"absent","response":"absent","rt":"1923.5","correct":true,"confidence":-1},{"trial_n":8,"span":8,"encoder":"58042315","distractor":"58041315","target":"absent","response":"present","rt":"1985.1999999881","correct":false,"confidence":-1},{"trial_n":9,"span":6,"encoder":"703144","distractor":"003144","target":"absent","response":"present","rt":"1606.6000000089","correct":false,"confidence":-1},{"trial_n":10,"span":4,"encoder":"6143","distractor":"6147","target":"present","response":"present","rt":"1928.700000003","correct":true,"confidence":-1},{"trial_n":11,"span":4,"encoder":"0053","distractor":"1053","target":"absent","response":"absent","rt":"1409.799999997","correct":true,"confidence":-1},{"trial_n":12,"span":5,"encoder":"09921","distractor":"09929","target":"absent","response":"absent","rt":"1511.8999999911","correct":true,"confidence":-1},{"trial_n":13,"span":5,"encoder":"78771","distractor":"75771","target":"present","response":"present","rt":"1499.599999994","correct":true,"confidence":-1},{"trial_n":14,"span":6,"encoder":"115681","distractor":"114681","target":"absent","response":"absent","rt":"2005.299999997","correct":true,"confidence":-1},{"trial_n":15,"span":6,"encoder":"319311","distractor":"399311","target":"present","response":"present","rt":"1680.5","correct":true,"confidence":-1},{"trial_n":16,"span":7,"encoder":"6365113","distractor":"6368113","target":"present","response":"absent","rt":"1923.900000006","correct":false,"confidence":-1},{"trial_n":17,"span":6,"encoder":"975372","distractor":"975272","target":"present","response":"present","rt":"1063.900000006","correct":true,"confidence":-1},{"trial_n":18,"span":6,"encoder":"315674","distractor":"315644","target":"present","response":"present","rt":"1283.599999994","correct":true,"confidence":-1},{"trial_n":19,"span":7,"encoder":"8648210","distractor":"9648210","target":"present","response":"present","rt":"1722.099999994","correct":true,"confidence":-1},{"trial_n":20,"span":7,"encoder":"0787409","distractor":"0087409","target":"absent","response":"present","rt":"1145","correct":false,"confidence":-1},{"trial_n":21,"span":6,"encoder":"821461","distractor":"821861","target":"present","response":"present","rt":"1467.3999999911","correct":true,"confidence":5},{"trial_n":22,"span":6,"encoder":"682634","distractor":"082634","target":"absent","response":"absent","rt":"2229.599999994","correct":true,"confidence":5},{"trial_n":23,"span":7,"encoder":"5966437","distractor":"5966037","target":"present","response":"present","rt":"3506","correct":true,"confidence":3},{"trial_n":24,"span":7,"encoder":"3569646","distractor":"3569616","target":"absent","response":"absent","rt":"2622.299999997","correct":true,"confidence":5},{"trial_n":25,"span":8,"encoder":"91851194","distractor":"91854194","target":"absent","response":"present","rt":"3147.3000000119","correct":false,"confidence":3},{"trial_n":26,"span":7,"encoder":"3358530","distractor":"3358500","target":"absent","response":"absent","rt":"2166.099999994","correct":true,"confidence":2},{"trial_n":27,"span":7,"encoder":"4559219","distractor":"4529219","target":"absent","response":"present","rt":"1937.099999994","correct":false,"confidence":3},{"trial_n":28,"span":6,"encoder":"592284","distractor":"592384","target":"absent","response":"absent","rt":"2444.900000006","correct":true,"confidence":4},{"trial_n":29,"span":6,"encoder":"040906","distractor":"043906","target":"present","response":"present","rt":"1949.6999999881","correct":true,"confidence":5},{"trial_n":30,"span":7,"encoder":"9866991","distractor":"9861991","target":"absent","response":"absent","rt":"1949.5","correct":true,"confidence":5},{"trial_n":31,"span":7,"encoder":"1716006","distractor":"1796006","target":"present","response":"present","rt":"2086.8999999911","correct":true,"confidence":5},{"trial_n":32,"span":8,"encoder":"62170157","distractor":"62170159","target":"present","response":"present","rt":"3818.5","correct":true,"confidence":2},{"trial_n":33,"span":8,"encoder":"56330920","distractor":"56330927","target":"present","response":"present","rt":"2844.299999997","correct":true,"confidence":3},{"trial_n":34,"span":9,"encoder":"235380275","distractor":"235380265","target":"present","response":"present","rt":"3779","correct":true,"confidence":5},{"trial_n":35,"span":9,"encoder":"959317081","distractor":"959317082","target":"absent","response":"absent","rt":"3759.400000006","correct":true,"confidence":5},{"trial_n":36,"span":10,"encoder":"1772603954","distractor":"1372603954","target":"present","response":"absent","rt":"9189.700000003","correct":false,"confidence":4},{"trial_n":37,"span":9,"encoder":"674260472","distractor":"684260472","target":"present","response":"absent","rt":"4358.299999997","correct":false,"confidence":4},{"trial_n":38,"span":8,"encoder":"88290829","distractor":"88290826","target":"absent","response":"absent","rt":"3475.1999999881","correct":true,"confidence":5},{"trial_n":39,"span":8,"encoder":"18598579","distractor":"18592579","target":"present","response":"present","rt":"2954.700000003","correct":true,"confidence":5},{"trial_n":40,"span":9,"encoder":"402258570","distractor":"402258550","target":"absent","response":"absent","rt":"3167.1000000089","correct":true,"confidence":4},{"trial_n":41,"span":9,"encoder":"731025708","distractor":"731075708","target":"present","response":"present","rt":"2942.700000003","correct":true,"confidence":5},{"trial_n":42,"span":10,"encoder":"8541999121","distractor":"8541999126","target":"absent","response":"absent","rt":"2363.200000003","correct":true,"confidence":5},{"trial_n":43,"span":10,"encoder":"1424670007","distractor":"1424670002","target":"absent","response":"absent","rt":"2469","correct":true,"confidence":4},{"trial_n":44,"span":11,"encoder":"57009250267","distractor":"57009250227","target":"present","response":"present","rt":"4317.900000006","correct":true,"confidence":4},{"trial_n":45,"span":11,"encoder":"10218141797","distractor":"10218141777","target":"present","response":"present","rt":"4744.299999997","correct":true,"confidence":4},{"trial_n":46,"span":12,"encoder":"697333869281","distractor":"297333869281","target":"absent","response":"present","rt":"3770.200000003","correct":false,"confidence":4},{"trial_n":47,"span":11,"encoder":"67073449632","distractor":"17073449632","target":"present","response":"present","rt":"3522","correct":true,"confidence":3},{"trial_n":48,"span":11,"encoder":"52244233438","distractor":"52244333438","target":"absent","response":"absent","rt":"3051.6000000089","correct":true,"confidence":3},{"trial_n":49,"span":12,"encoder":"594799262790","distractor":"594759262790","target":"present","response":"absent","rt":"4752.5","correct":false,"confidence":4},{"trial_n":50,"span":11,"encoder":"16248497177","distractor":"16240497177","target":"present","response":"present","rt":"4665.200000003","correct":true,"confidence":4},{"trial_n":51,"span":11,"encoder":"59612085805","distractor":"59612089805","target":"present","response":"present","rt":"5719","correct":true,"confidence":4},{"trial_n":52,"span":12,"encoder":"887761623803","distractor":"887771623803","target":"absent","response":"absent","rt":"3226.799999997","correct":true,"confidence":3},{"trial_n":53,"span":12,"encoder":"437917651423","distractor":"437917651623","target":"absent","response":"present","rt":"5842.799999997","correct":false,"confidence":4},{"trial_n":54,"span":11,"encoder":"27151941221","distractor":"22151941221","target":"absent","response":"absent","rt":"2825","correct":true,"confidence":3},{"trial_n":55,"span":11,"encoder":"89027129800","distractor":"89027120800","target":"present","response":"present","rt":"3460.099999994","correct":true,"confidence":4},{"trial_n":56,"span":12,"encoder":"176604796705","distractor":"116604796705","target":"present","response":"present","rt":"4268.1000000089","correct":true,"confidence":5},{"trial_n":57,"span":12,"encoder":"623085709004","distractor":"623085409004","target":"absent","response":"present","rt":"4044.200000003","correct":false,"confidence":3},{"trial_n":58,"span":11,"encoder":"54361131122","distractor":"24361131122","target":"absent","response":"present","rt":"2017.1000000089","correct":false,"confidence":4},{"trial_n":59,"span":10,"encoder":"8996513028","distractor":"8916513028","target":"present","response":"present","rt":"3023.5","correct":true,"confidence":5},{"trial_n":60,"span":10,"encoder":"8486778453","distractor":"8486578453","target":"absent","response":"absent","rt":"4591.200000003","correct":true,"confidence":5},{"trial_n":61,"span":11,"encoder":"67241507347","distractor":"67241507307","target":"absent","response":"absent","rt":"4224.900000006","correct":true,"confidence":5},{"trial_n":62,"span":11,"encoder":"01357120285","distractor":"01357120885","target":"present","response":"absent","rt":"7462.799999997","correct":false,"confidence":3},{"trial_n":63,"span":10,"encoder":"8816531826","distractor":"8806531826","target":"absent","response":"present","rt":"3269.200000003","correct":false,"confidence":4},{"trial_n":64,"span":9,"encoder":"181058363","distractor":"181058369","target":"present","response":"present","rt":"3488.299999997","correct":true,"confidence":3},{"trial_n":65,"span":9,"encoder":"582039268","distractor":"582639268","target":"present","response":"present","rt":"4280.8000000119","correct":true,"confidence":4},{"trial_n":66,"span":10,"encoder":"2084605099","distractor":"2044605099","target":"present","response":"present","rt":"5427.799999997","correct":true,"confidence":4},{"trial_n":67,"span":10,"encoder":"1612406127","distractor":"1612406124","target":"absent","response":"absent","rt":"4981.6000000089","correct":true,"confidence":3},{"trial_n":68,"span":11,"encoder":"64974120011","distractor":"62974120011","target":"absent","response":"present","rt":"4762.8000000119","correct":false,"confidence":3},{"trial_n":69,"span":10,"encoder":"2728259524","distractor":"2328259524","target":"present","response":"absent","rt":"4974.200000003","correct":false,"confidence":3},{"trial_n":70,"span":9,"encoder":"118797351","distractor":"118697351","target":"present","response":"present","rt":"3412.1000000089","correct":true,"confidence":5},{"trial_n":71,"span":8,"encoder":"70541531","distractor":"70541541","target":"present","response":"present","rt":"4518.1000000089","correct":true,"confidence":-1},{"trial_n":72,"span":8,"encoder":"27632756","distractor":"27832756","target":"present","response":"present","rt":"5357.5","correct":true,"confidence":-1},{"trial_n":73,"span":9,"encoder":"668260338","distractor":"668260038","target":"absent","response":"absent","rt":"2043.299999997","correct":true,"confidence":-1},{"trial_n":74,"span":9,"encoder":"595428828","distractor":"525428828","target":"absent","response":"absent","rt":"4307.099999994","correct":true,"confidence":-1},{"trial_n":75,"span":10,"encoder":"0308920955","distractor":"0308920655","target":"present","response":"present","rt":"3163.8000000119","correct":true,"confidence":-1},{"trial_n":76,"span":10,"encoder":"3390673245","distractor":"3990673245","target":"absent","response":"absent","rt":"5782","correct":true,"confidence":-1},{"trial_n":77,"span":11,"encoder":"06005456464","distractor":"06605456464","target":"present","response":"absent","rt":"2807.5","correct":false,"confidence":-1},{"trial_n":78,"span":10,"encoder":"4532289862","distractor":"4502289862","target":"absent","response":"present","rt":"8569.099999994","correct":false,"confidence":-1},{"trial_n":79,"span":9,"encoder":"081174243","distractor":"081194243","target":"present","response":"present","rt":"4230.799999997","correct":true,"confidence":-1},{"trial_n":80,"span":9,"encoder":"649678680","distractor":"649378680","target":"present","response":"present","rt":"4787.3000000119","correct":true,"confidence":-1},{"trial_n":81,"span":10,"encoder":"3987049747","distractor":"3987049347","target":"present","response":"present","rt":"7334.099999994","correct":true,"confidence":-1},{"trial_n":82,"span":10,"encoder":"5153941671","distractor":"5159941671","target":"present","response":"present","rt":"1840.700000003","correct":true,"confidence":-1},{"trial_n":83,"span":11,"encoder":"87547093862","distractor":"87547093462","target":"present","response":"present","rt":"4784.200000003","correct":true,"confidence":-1},{"trial_n":84,"span":11,"encoder":"44109029733","distractor":"54109029733","target":"absent","response":"absent","rt":"1909.8000000119","correct":true,"confidence":-1},{"trial_n":85,"span":12,"encoder":"418465399281","distractor":"418465099281","target":"absent","response":"absent","rt":"4852.3000000119","correct":true,"confidence":-1},{"trial_n":86,"span":12,"encoder":"811017606502","distractor":"811017606509","target":"present","response":"present","rt":"2779.400000006","correct":true,"confidence":-1},{"trial_n":87,"span":13,"encoder":"7223422914151","distractor":"7223422914101","target":"absent","response":"absent","rt":"4049.8999999911","correct":true,"confidence":-1},{"trial_n":88,"span":13,"encoder":"2400496728001","distractor":"2400496722001","target":"absent","response":"absent","rt":"1719.700000003","correct":true,"confidence":-1},{"trial_n":89,"span":14,"encoder":"66792969694772","distractor":"66792169694772","target":"present","response":"present","rt":"6944.5","correct":true,"confidence":-1},{"trial_n":90,"span":14,"encoder":"21401304845761","distractor":"21401304545761","target":"present","response":"present","rt":"7930","correct":true,"confidence":-1},{"trial_n":91,"span":15,"encoder":"189472734770598","distractor":"189072734770598","target":"absent","response":"absent","rt":"2715","correct":true,"confidence":4},{"trial_n":92,"span":15,"encoder":"159981857260637","distractor":"159981857260632","target":"present","response":"present","rt":"2864.8999999911","correct":true,"confidence":5},{"trial_n":93,"span":16,"encoder":"7513141511102290","distractor":"7523141511102290","target":"absent","response":"present","rt":"6781.700000003","correct":false,"confidence":3},{"trial_n":94,"span":15,"encoder":"808578084861766","distractor":"802578084861766","target":"absent","response":"present","rt":"8708.299999997","correct":false,"confidence":3},{"trial_n":95,"span":14,"encoder":"31958801309216","distractor":"31958501309216","target":"present","response":"present","rt":"7750.200000003","correct":true,"confidence":3},{"trial_n":96,"span":14,"encoder":"22808859963024","distractor":"23808859963024","target":"present","response":"present","rt":"10863.300000012","correct":true,"confidence":3},{"trial_n":97,"span":15,"encoder":"154524783457273","distractor":"154524783857273","target":"present","response":"present","rt":"5096.299999997","correct":true,"confidence":4},{"trial_n":98,"span":15,"encoder":"175919199333482","distractor":"175919199733482","target":"present","response":"absent","rt":"6842.6000000089","correct":false,"confidence":3},{"trial_n":99,"span":14,"encoder":"30060215574101","distractor":"30060215574601","target":"absent","response":"present","rt":"6452","correct":false,"confidence":5},{"trial_n":100,"span":13,"encoder":"7689334351662","distractor":"7689331351662","target":"absent","response":"absent","rt":"5861.099999994","correct":true,"confidence":3},{"trial_n":101,"span":13,"encoder":"0562633603351","distractor":"0562633103351","target":"present","response":"absent","rt":"6307.8000000119","correct":false,"confidence":4},{"trial_n":102,"span":12,"encoder":"956174284480","distractor":"956174281480","target":"absent","response":"absent","rt":"2704","correct":true,"confidence":5},{"trial_n":103,"span":12,"encoder":"967061133216","distractor":"967061133416","target":"present","response":"present","rt":"5285","correct":true,"confidence":5},{"trial_n":104,"span":13,"encoder":"1124736399076","distractor":"1124736399276","target":"absent","response":"absent","rt":"2266.099999994","correct":true,"confidence":4},{"trial_n":105,"span":13,"encoder":"3969719848491","distractor":"3569719848491","target":"absent","response":"absent","rt":"8543","correct":true,"confidence":4},{"trial_n":106,"span":14,"encoder":"10867436608469","distractor":"10867436108469","target":"absent","response":"absent","rt":"3132.5","correct":true,"confidence":5},{"trial_n":107,"span":14,"encoder":"37277048176321","distractor":"37277048173321","target":"present","response":"present","rt":"4793","correct":true,"confidence":4},{"trial_n":108,"span":15,"encoder":"256470201163327","distractor":"256570201163327","target":"absent","response":"absent","rt":"10761.200000003","correct":true,"confidence":3},{"trial_n":109,"span":15,"encoder":"523280617216136","distractor":"527280617216136","target":"absent","response":"present","rt":"16146.199999988","correct":false,"confidence":3},{"trial_n":110,"span":14,"encoder":"18720265942101","distractor":"18620265942101","target":"present","response":"absent","rt":"8573.6000000089","correct":false,"confidence":3},{"trial_n":111,"span":13,"encoder":"5593149173496","distractor":"1593149173496","target":"absent","response":"absent","rt":"4364.099999994","correct":true,"confidence":4},{"trial_n":112,"span":13,"encoder":"0399738698741","distractor":"0399738696741","target":"present","response":"absent","rt":"11547.900000006","correct":false,"confidence":3},{"trial_n":113,"span":12,"encoder":"730391925731","distractor":"730391925734","target":"present","response":"present","rt":"7089.5","correct":true,"confidence":4},{"trial_n":114,"span":12,"encoder":"252933548485","distractor":"252933548465","target":"absent","response":"absent","rt":"2033.5","correct":true,"confidence":3},{"trial_n":115,"span":13,"encoder":"6882794153956","distractor":"6882794153950","target":"present","response":"present","rt":"1692","correct":true,"confidence":5},{"trial_n":116,"span":13,"encoder":"1633653339336","distractor":"1633652339336","target":"present","response":"present","rt":"3660.8000000119","correct":true,"confidence":5},{"trial_n":117,"span":14,"encoder":"33885379205457","distractor":"73885379205457","target":"absent","response":"absent","rt":"11637.700000003","correct":true,"confidence":4},{"trial_n":118,"span":14,"encoder":"56111483902721","distractor":"56111483922721","target":"present","response":"present","rt":"12479.900000006","correct":true,"confidence":2},{"trial_n":119,"span":15,"encoder":"416004321737235","distractor":"316004321737235","target":"absent","response":"absent","rt":"5846.700000003","correct":true,"confidence":3},{"trial_n":120,"span":15,"encoder":"125245053014356","distractor":"125295053014356","target":"absent","response":"absent","rt":"5227.900000006","correct":true,"confidence":2},{"trial_n":121,"span":16,"encoder":"7895727338599035","distractor":"7895727338599095","target":"absent","response":"absent","rt":"8773.700000003","correct":true,"confidence":4},{"trial_n":122,"span":16,"encoder":"4579465153789658","distractor":"4679465153789658","target":"present","response":"absent","rt":"5329","correct":false,"confidence":3},{"trial_n":123,"span":15,"encoder":"610980268321855","distractor":"610980268321865","target":"present","response":"present","rt":"2505.900000006","correct":true,"confidence":4},{"trial_n":124,"span":15,"encoder":"137252006667627","distractor":"137252006767627","target":"absent","response":"absent","rt":"2027.700000003","correct":true,"confidence":4},{"trial_n":125,"span":16,"encoder":"3740075540785468","distractor":"3740085540785468","target":"present","response":"present","rt":"7293.900000006","correct":true,"confidence":3},{"trial_n":126,"span":16,"encoder":"1922420101037839","distractor":"1928420101037839","target":"present","response":"absent","rt":"7376.8999999911","correct":false,"confidence":3},{"trial_n":127,"span":15,"encoder":"052120490647757","distractor":"052120490697757","target":"present","response":"present","rt":"3632.3000000119","correct":true,"confidence":3},{"trial_n":128,"span":15,"encoder":"533232229724737","distractor":"533232229724732","target":"present","response":"present","rt":"3581.299999997","correct":true,"confidence":5},{"trial_n":129,"span":16,"encoder":"5180859798286413","distractor":"5180859790286413","target":"present","response":"present","rt":"9738.200000003","correct":true,"confidence":3},{"trial_n":130,"span":16,"encoder":"1616431692677264","distractor":"1616431692677224","target":"absent","response":"absent","rt":"2081.1000000089","correct":true,"confidence":5},{"trial_n":131,"span":17,"encoder":"72428106275388270","distractor":"72428106275388278","target":"absent","response":"absent","rt":"2100.700000003","correct":true,"confidence":5},{"trial_n":132,"span":17,"encoder":"60957262603468113","distractor":"67957262603468113","target":"absent","response":"absent","rt":"10202.700000003","correct":true,"confidence":4},{"trial_n":133,"span":18,"encoder":"294842213459441746","distractor":"294812213459441746","target":"absent","response":"absent","rt":"9771.5","correct":true,"confidence":3},{"trial_n":134,"span":18,"encoder":"352023110712543270","distractor":"352023110712542270","target":"absent","response":"present","rt":"13961.400000006","correct":false,"confidence":3},{"trial_n":135,"span":17,"encoder":"73174160448476214","distractor":"73174160498476214","target":"present","response":"present","rt":"8556","correct":true,"confidence":4},{"trial_n":136,"span":17,"encoder":"30225709254196670","distractor":"37225709254196670","target":"present","response":"present","rt":"4702.3000000119","correct":true,"confidence":3},{"trial_n":137,"span":18,"encoder":"481947580052913403","distractor":"481947580052913603","target":"absent","response":"absent","rt":"2174","correct":true,"confidence":4},{"trial_n":138,"span":18,"encoder":"100398864842293247","distractor":"100398884842293247","target":"present","response":"absent","rt":"6669.5","correct":false,"confidence":3},{"trial_n":139,"span":17,"encoder":"96920657836705497","distractor":"96920652836705497","target":"absent","response":"present","rt":"6580.6000000089","correct":false,"confidence":3},{"trial_n":140,"span":16,"encoder":"0690571394315883","distractor":"0690571392315883","target":"absent","response":"present","rt":"10542.300000012","correct":false,"confidence":2}]