[{"trial_n":1,"span":8,"encoder":"44743240","distractor":"44743210","target":"present","response":"present","rt":"7491.4000000954","correct":true,"confidence":-1},{"trial_n":2,"span":8,"encoder":"75033170","distractor":"75733170","target":"present","response":"absent","rt":"6235.8000001907","correct":false,"confidence":-1},{"trial_n":3,"span":6,"encoder":"723768","distractor":"723778","target":"absent","response":"present","rt":"3617.3000001907","correct":false,"confidence":-1},{"trial_n":4,"span":4,"encoder":"5389","distractor":"5489","target":"absent","response":"present","rt":"2616","correct":false,"confidence":-1},{"trial_n":5,"span":2,"encoder":"31","distractor":"71","target":"present","response":"present","rt":"1290.1000003815","correct":true,"confidence":-1},{"trial_n":6,"span":2,"encoder":"79","distractor":"75","target":"present","response":"present","rt":"911.10000038147","correct":true,"confidence":-1},{"trial_n":7,"span":4,"encoder":"2053","distractor":"2043","target":"absent","response":"absent","rt":"2606.5","correct":true,"confidence":-1},{"trial_n":8,"span":4,"encoder":"1100","distractor":"1105","target":"present","response":"present","rt":"1075.0999999046","correct":true,"confidence":-1},{"trial_n":9,"span":6,"encoder":"537186","distractor":"937186","target":"absent","response":"absent","rt":"4417.3999996185","correct":true,"confidence":-1},{"trial_n":10,"span":6,"encoder":"146128","distractor":"146928","target":"absent","response":"absent","rt":"2435.1000003815","correct":true,"confidence":-1},{"trial_n":11,"span":8,"encoder":"12278244","distractor":"12278242","target":"absent","response":"absent","rt":"3312.1999998093","correct":true,"confidence":-1},{"trial_n":12,"span":8,"encoder":"70792003","distractor":"80792003","target":"present","response":"present","rt":"2962.5","correct":true,"confidence":-1},{"trial_n":13,"span":9,"encoder":"649123483","distractor":"629123483","target":"present","response":"absent","rt":"2297.4000000954","correct":false,"confidence":-1},{"trial_n":14,"span":8,"encoder":"96432959","distractor":"96412959","target":"absent","response":"present","rt":"1909.0999999046","correct":false,"confidence":-1},{"trial_n":15,"span":7,"encoder":"0550267","distractor":"0550207","target":"absent","response":"present","rt":"3481.2000002861","correct":false,"confidence":-1},{"trial_n":16,"span":6,"encoder":"849892","distractor":"844892","target":"absent","response":"present","rt":"1271.0999999046","correct":false,"confidence":-1},{"trial_n":17,"span":5,"encoder":"87150","distractor":"87050","target":"absent","response":"present","rt":"2340","correct":false,"confidence":-1},{"trial_n":18,"span":4,"encoder":"2984","distractor":"2944","target":"present","response":"present","rt":"1216.5999999046","correct":true,"confidence":-1},{"trial_n":19,"span":4,"encoder":"4418","distractor":"4428","target":"present","response":"present","rt":"2014.2999997139","correct":true,"confidence":-1},{"trial_n":20,"span":5,"encoder":"93729","distractor":"83729","target":"absent","response":"absent","rt":"4379.5","correct":true,"confidence":-1},{"trial_n":21,"span":5,"encoder":"30474","distractor":"31474","target":"absent","response":"absent","rt":"2909.8000001907","correct":true,"confidence":3},{"trial_n":22,"span":6,"encoder":"649276","distractor":"649176","target":"absent","response":"present","rt":"4118.2000002861","correct":false,"confidence":4},{"trial_n":23,"span":5,"encoder":"52255","distractor":"52285","target":"present","response":"present","rt":"1936.3000001907","correct":true,"confidence":5},{"trial_n":24,"span":5,"encoder":"14023","distractor":"14083","target":"present","response":"present","rt":"1637.5","correct":true,"confidence":5},{"trial_n":25,"span":6,"encoder":"739515","distractor":"732515","target":"present","response":"present","rt":"3704.1999998093","correct":true,"confidence":5},{"trial_n":26,"span":6,"encoder":"529154","distractor":"528154","target":"present","response":"present","rt":"2742.5999999046","correct":true,"confidence":5},{"trial_n":27,"span":7,"encoder":"6622875","distractor":"6622175","target":"absent","response":"absent","rt":"2824.8000001907","correct":true,"confidence":5},{"trial_n":28,"span":7,"encoder":"0626467","distractor":"0626464","target":"present","response":"present","rt":"3688.4000000954","correct":true,"confidence":3},{"trial_n":29,"span":8,"encoder":"57752051","distractor":"57756051","target":"present","response":"present","rt":"3423.5999999046","correct":true,"confidence":1},{"trial_n":30,"span":8,"encoder":"00202114","distractor":"05202114","target":"absent","response":"absent","rt":"5073.5","correct":true,"confidence":2},{"trial_n":31,"span":9,"encoder":"584501870","distractor":"584501570","target":"absent","response":"absent","rt":"4624.2000002861","correct":true,"confidence":3},{"trial_n":32,"span":9,"encoder":"859564270","distractor":"859564970","target":"absent","response":"absent","rt":"6939.4000000954","correct":true,"confidence":4},{"trial_n":33,"span":10,"encoder":"4762561872","distractor":"4762591872","target":"absent","response":"present","rt":"4626.4000000954","correct":false,"confidence":1},{"trial_n":34,"span":9,"encoder":"729737419","distractor":"729737413","target":"present","response":"absent","rt":"8261.5","correct":false,"confidence":1},{"trial_n":35,"span":8,"encoder":"90616918","distractor":"90816918","target":"absent","response":"absent","rt":"3022.1999998093","correct":true,"confidence":4},{"trial_n":36,"span":8,"encoder":"51305408","distractor":"51105408","target":"present","response":"present","rt":"4720.5","correct":true,"confidence":3},{"trial_n":37,"span":9,"encoder":"394032243","distractor":"394032843","target":"present","response":"present","rt":"3155.7000002861","correct":true,"confidence":3},{"trial_n":38,"span":9,"encoder":"751994394","distractor":"761994394","target":"absent","response":"absent","rt":"6919.7000002861","correct":true,"confidence":3},{"trial_n":39,"span":10,"encoder":"2704908676","distractor":"2704908646","target":"absent","response":"absent","rt":"3155.7999997139","correct":true,"confidence":4},{"trial_n":40,"span":10,"encoder":"2021943841","distractor":"2021943141","target":"present","response":"absent","rt":"6677.9000000954","correct":false,"confidence":2},{"trial_n":41,"span":9,"encoder":"518726780","distractor":"518726770","target":"present","response":"absent","rt":"1543.5","correct":false,"confidence":1},{"trial_n":42,"span":8,"encoder":"70917343","distractor":"90917343","target":"present","response":"present","rt":"3182.0999999046","correct":true,"confidence":2},{"trial_n":43,"span":8,"encoder":"91657443","distractor":"91657493","target":"absent","response":"absent","rt":"1717.7000002861","correct":true,"confidence":5},{"trial_n":44,"span":9,"encoder":"206232103","distractor":"206233103","target":"present","response":"absent","rt":"7023.8000001907","correct":false,"confidence":3},{"trial_n":45,"span":8,"encoder":"54331673","distractor":"55331673","target":"present","response":"present","rt":"3068.2000002861","correct":true,"confidence":5},{"trial_n":46,"span":8,"encoder":"91733295","distractor":"92733295","target":"present","response":"present","rt":"4591.3000001907","correct":true,"confidence":4},{"trial_n":47,"span":9,"encoder":"264605412","distractor":"224605412","target":"present","response":"present","rt":"4309","correct":true,"confidence":3},{"trial_n":48,"span":9,"encoder":"487133119","distractor":"487103119","target":"absent","response":"absent","rt":"2108","correct":true,"confidence":4},{"trial_n":49,"span":10,"encoder":"3062183709","distractor":"3082183709","target":"absent","response":"absent","rt":"4597.9000000954","correct":true,"confidence":2},{"trial_n":50,"span":10,"encoder":"7378087118","distractor":"7375087118","target":"present","response":"absent","rt":"5442.7000002861","correct":false,"confidence":4},{"trial_n":51,"span":9,"encoder":"870086750","distractor":"873086750","target":"present","response":"present","rt":"2339.8000001907","correct":true,"confidence":2},{"trial_n":52,"span":9,"encoder":"370638995","distractor":"370630995","target":"present","response":"present","rt":"2110.3000001907","correct":true,"confidence":2},{"trial_n":53,"span":10,"encoder":"8730242395","distractor":"8731242395","target":"absent","response":"present","rt":"3399","correct":false,"confidence":1},{"trial_n":54,"span":9,"encoder":"918944963","distractor":"913944963","target":"present","response":"absent","rt":"5206.8000001907","correct":false,"confidence":1},{"trial_n":55,"span":8,"encoder":"76275543","distractor":"76275513","target":"absent","response":"absent","rt":"2847.5999999046","correct":true,"confidence":4},{"trial_n":56,"span":8,"encoder":"21273315","distractor":"21273395","target":"absent","response":"present","rt":"3157.9000000954","correct":false,"confidence":5},{"trial_n":57,"span":7,"encoder":"9880969","distractor":"9889969","target":"absent","response":"absent","rt":"3423.3999996185","correct":true,"confidence":3},{"trial_n":58,"span":7,"encoder":"9293084","distractor":"9293484","target":"present","response":"absent","rt":"2461.7000002861","correct":false,"confidence":2},{"trial_n":59,"span":6,"encoder":"095505","distractor":"295505","target":"present","response":"present","rt":"1903.2000002861","correct":true,"confidence":4},{"trial_n":60,"span":6,"encoder":"547609","distractor":"547809","target":"absent","response":"present","rt":"1858.6999998093","correct":false,"confidence":3},{"trial_n":61,"span":5,"encoder":"16503","distractor":"17503","target":"absent","response":"absent","rt":"5260.9000000954","correct":true,"confidence":2},{"trial_n":62,"span":5,"encoder":"72438","distractor":"72138","target":"present","response":"present","rt":"4619","correct":true,"confidence":3},{"trial_n":63,"span":6,"encoder":"877904","distractor":"872904","target":"absent","response":"absent","rt":"2697.4000000954","correct":true,"confidence":3},{"trial_n":64,"span":6,"encoder":"211011","distractor":"218011","target":"present","response":"present","rt":"5396.5","correct":true,"confidence":3},{"trial_n":65,"span":7,"encoder":"4046954","distractor":"4096954","target":"present","response":"present","rt":"2249.5999999046","correct":true,"confidence":3},{"trial_n":66,"span":7,"encoder":"0994230","distractor":"5994230","target":"absent","response":"present","rt":"3660","correct":false,"confidence":4},{"trial_n":67,"span":6,"encoder":"618836","distractor":"618736","target":"present","response":"present","rt":"2288.8999996185","correct":true,"confidence":4},{"trial_n":68,"span":6,"encoder":"895449","distractor":"865449","target":"absent","response":"present","rt":"2309.2000002861","correct":false,"confidence":4},{"trial_n":69,"span":5,"encoder":"42008","distractor":"62008","target":"present","response":"present","rt":"2646.9000000954","correct":true,"confidence":5},{"trial_n":70,"span":5,"encoder":"74992","distractor":"14992","target":"absent","response":"present","rt":"2178.2000002861","correct":false,"confidence":3},{"trial_n":71,"span":8,"encoder":"80405082","distractor":"80405072","target":"present","response":"present","rt":"5875.2999997139","correct":true,"confidence":-1},{"trial_n":72,"span":8,"encoder":"20168192","distractor":"60168192","target":"present","response":"absent","rt":"14403.5","correct":false,"confidence":-1},{"trial_n":73,"span":7,"encoder":"4351885","distractor":"4356885","target":"absent","response":"absent","rt":"6721.8000001907","correct":true,"confidence":-1},{"trial_n":74,"span":7,"encoder":"2137337","distractor":"2137377","target":"absent","response":"absent","rt":"6699.9000000954","correct":true,"confidence":-1},{"trial_n":75,"span":8,"encoder":"54843980","distractor":"44843980","target":"present","response":"present","rt":"7959.0999999046","correct":true,"confidence":-1},{"trial_n":76,"span":8,"encoder":"83034230","distractor":"81034230","target":"present","response":"present","rt":"7989.5","correct":true,"confidence":-1},{"trial_n":77,"span":9,"encoder":"815984354","distractor":"815924354","target":"absent","response":"present","rt":"7741.8000001907","correct":false,"confidence":-1},{"trial_n":78,"span":8,"encoder":"20882046","distractor":"20880046","target":"present","response":"present","rt":"3777.4000000954","correct":true,"confidence":-1},{"trial_n":79,"span":8,"encoder":"76987390","distractor":"76927390","target":"present","response":"absent","rt":"2651.7999997139","correct":false,"confidence":-1},{"trial_n":80,"span":7,"encoder":"2409135","distractor":"2409133","target":"absent","response":"absent","rt":"2813.0999999046","correct":true,"confidence":-1},{"trial_n":81,"span":7,"encoder":"4503707","distractor":"4502707","target":"present","response":"absent","rt":"2159.0999999046","correct":false,"confidence":-1},{"trial_n":82,"span":6,"encoder":"475673","distractor":"473673","target":"present","response":"present","rt":"944.40000009537","correct":true,"confidence":-1},{"trial_n":83,"span":6,"encoder":"967274","distractor":"967974","target":"absent","response":"absent","rt":"1785.1999998093","correct":true,"confidence":-1},{"trial_n":84,"span":7,"encoder":"2485492","distractor":"2485892","target":"absent","response":"present","rt":"11071","correct":false,"confidence":-1},{"trial_n":85,"span":6,"encoder":"439706","distractor":"429706","target":"absent","response":"absent","rt":"1686","correct":true,"confidence":-1},{"trial_n":86,"span":6,"encoder":"184313","distractor":"154313","target":"absent","response":"absent","rt":"1776.0999999046","correct":true,"confidence":-1},{"trial_n":87,"span":7,"encoder":"5726225","distractor":"5726275","target":"absent","response":"absent","rt":"3016.6999998093","correct":true,"confidence":-1},{"trial_n":88,"span":7,"encoder":"3309020","distractor":"3309028","target":"present","response":"absent","rt":"3460.7000002861","correct":false,"confidence":-1},{"trial_n":89,"span":6,"encoder":"847462","distractor":"847482","target":"present","response":"present","rt":"2821","correct":true,"confidence":-1},{"trial_n":90,"span":6,"encoder":"412800","distractor":"312800","target":"absent","response":"absent","rt":"2425.4000000954","correct":true,"confidence":-1},{"trial_n":91,"span":7,"encoder":"5243101","distractor":"5246101","target":"present","response":"present","rt":"6504.0999999046","correct":true,"confidence":5},{"trial_n":92,"span":7,"encoder":"7530771","distractor":"7534771","target":"absent","response":"absent","rt":"4000","correct":true,"confidence":4},{"trial_n":93,"span":8,"encoder":"96316626","distractor":"96316646","target":"present","response":"present","rt":"3096.5999999046","correct":true,"confidence":5},{"trial_n":94,"span":8,"encoder":"76989248","distractor":"76489248","target":"present","response":"present","rt":"8179.5999999046","correct":true,"confidence":4},{"trial_n":95,"span":9,"encoder":"583568600","distractor":"583568400","target":"present","response":"present","rt":"3254","correct":true,"confidence":4},{"trial_n":96,"span":9,"encoder":"205626791","distractor":"225626791","target":"absent","response":"absent","rt":"7617.4000000954","correct":true,"confidence":3},{"trial_n":97,"span":10,"encoder":"0492437581","distractor":"0492137581","target":"present","response":"present","rt":"2453.9000000954","correct":true,"confidence":1},{"trial_n":98,"span":10,"encoder":"7076413889","distractor":"7076413884","target":"absent","response":"absent","rt":"2492.8000001907","correct":true,"confidence":5},{"trial_n":99,"span":11,"encoder":"78045922981","distractor":"78045972981","target":"present","response":"present","rt":"5098.4000000954","correct":true,"confidence":5},{"trial_n":100,"span":11,"encoder":"97330853682","distractor":"97330853684","target":"absent","response":"present","rt":"10602.100000381","correct":false,"confidence":2},{"trial_n":101,"span":10,"encoder":"4641988318","distractor":"4141988318","target":"present","response":"absent","rt":"4582.3000001907","correct":false,"confidence":3},{"trial_n":102,"span":9,"encoder":"877462581","distractor":"377462581","target":"absent","response":"absent","rt":"15457.599999905","correct":true,"confidence":1},{"trial_n":103,"span":9,"encoder":"706065578","distractor":"706035578","target":"absent","response":"absent","rt":"3283.8000001907","correct":true,"confidence":5},{"trial_n":104,"span":10,"encoder":"8804343093","distractor":"8804343493","target":"present","response":"absent","rt":"8599.4000000954","correct":false,"confidence":2},{"trial_n":105,"span":9,"encoder":"305443021","distractor":"355443021","target":"present","response":"absent","rt":"4829.8000001907","correct":false,"confidence":1},{"trial_n":106,"span":8,"encoder":"62434473","distractor":"62437473","target":"absent","response":"absent","rt":"2404.5","correct":true,"confidence":4},{"trial_n":107,"span":8,"encoder":"08155830","distractor":"02155830","target":"absent","response":"absent","rt":"4994.0999999046","correct":true,"confidence":1},{"trial_n":108,"span":9,"encoder":"566162678","distractor":"566167678","target":"absent","response":"absent","rt":"3949","correct":true,"confidence":2},{"trial_n":109,"span":9,"encoder":"191498350","distractor":"091498350","target":"absent","response":"absent","rt":"10214.099999905","correct":true,"confidence":2},{"trial_n":110,"span":10,"encoder":"0440504322","distractor":"0440594322","target":"absent","response":"absent","rt":"7681","correct":true,"confidence":1},{"trial_n":111,"span":10,"encoder":"0790346910","distractor":"1790346910","target":"absent","response":"present","rt":"23127.400000095","correct":false,"confidence":1},{"trial_n":112,"span":9,"encoder":"166542426","distractor":"166542456","target":"present","response":"absent","rt":"7964.8999996185","correct":false,"confidence":1},{"trial_n":113,"span":8,"encoder":"70812333","distractor":"70812343","target":"present","response":"present","rt":"11737.400000095","correct":true,"confidence":3},{"trial_n":114,"span":8,"encoder":"55559389","distractor":"55559381","target":"present","response":"present","rt":"6454.2999997139","correct":true,"confidence":3},{"trial_n":115,"span":9,"encoder":"507806118","distractor":"507806178","target":"absent","response":"absent","rt":"2852.4000000954","correct":true,"confidence":5},{"trial_n":116,"span":9,"encoder":"999262488","distractor":"499262488","target":"absent","response":"absent","rt":"2214.9000000954","correct":true,"confidence":5},{"trial_n":117,"span":10,"encoder":"7644957174","distractor":"7644957154","target":"present","response":"present","rt":"2684.8000001907","correct":true,"confidence":5},{"trial_n":118,"span":10,"encoder":"5144594750","distractor":"5144534750","target":"present","response":"present","rt":"5468","correct":true,"confidence":2},{"trial_n":119,"span":11,"encoder":"66460834582","distractor":"36460834582","target":"absent","response":"absent","rt":"3236.0999999046","correct":true,"confidence":1},{"trial_n":120,"span":11,"encoder":"53290031035","distractor":"03290031035","target":"present","response":"present","rt":"6130.5999999046","correct":true,"confidence":2},{"trial_n":121,"span":12,"encoder":"694791949644","distractor":"694791949944","target":"absent","response":"absent","rt":"2988.0999999046","correct":true,"confidence":2},{"trial_n":122,"span":12,"encoder":"681433022347","distractor":"681433022387","target":"present","response":"present","rt":"5763.5999999046","correct":true,"confidence":3},{"trial_n":123,"span":13,"encoder":"2687892372862","distractor":"2687892372562","target":"absent","response":"present","rt":"1937.2999997139","correct":false,"confidence":1},{"trial_n":124,"span":12,"encoder":"980046119155","distractor":"980046119255","target":"absent","response":"present","rt":"7701","correct":false,"confidence":2},{"trial_n":125,"span":11,"encoder":"12912804614","distractor":"12912806614","target":"absent","response":"absent","rt":"2827.9000000954","correct":true,"confidence":3},{"trial_n":126,"span":11,"encoder":"65650803832","distractor":"65650803838","target":"absent","response":"absent","rt":"3393.7000002861","correct":true,"confidence":1},{"trial_n":127,"span":12,"encoder":"440316687279","distractor":"420316687279","target":"present","response":"absent","rt":"12288.300000191","correct":false,"confidence":1},{"trial_n":128,"span":11,"encoder":"40488775257","distractor":"40483775257","target":"present","response":"absent","rt":"2586.5","correct":false,"confidence":1},{"trial_n":129,"span":10,"encoder":"4874917638","distractor":"4274917638","target":"present","response":"present","rt":"4757","correct":true,"confidence":1},{"trial_n":130,"span":10,"encoder":"0353103200","distractor":"0353103207","target":"present","response":"present","rt":"2275.1999998093","correct":true,"confidence":5},{"trial_n":131,"span":11,"encoder":"27884958740","distractor":"27884958640","target":"absent","response":"present","rt":"6429.3000001907","correct":false,"confidence":2},{"trial_n":132,"span":10,"encoder":"7372976460","distractor":"7372966460","target":"present","response":"present","rt":"2374.8000001907","correct":true,"confidence":1},{"trial_n":133,"span":10,"encoder":"7753762191","distractor":"9753762191","target":"absent","response":"absent","rt":"5412.0999999046","correct":true,"confidence":2},{"trial_n":134,"span":11,"encoder":"52085080575","distractor":"52085280575","target":"absent","response":"present","rt":"3579.9000000954","correct":false,"confidence":1},{"trial_n":135,"span":10,"encoder":"0188020010","distractor":"0688020010","target":"present","response":"absent","rt":"5441","correct":false,"confidence":1},{"trial_n":136,"span":9,"encoder":"873092131","distractor":"873092171","target":"present","response":"absent","rt":"7044","correct":false,"confidence":1},{"trial_n":137,"span":8,"encoder":"33146259","distractor":"33146279","target":"absent","response":"absent","rt":"2489.2999997139","correct":true,"confidence":4},{"trial_n":138,"span":8,"encoder":"41088146","distractor":"41082146","target":"present","response":"present","rt":"4597","correct":true,"confidence":5},{"trial_n":139,"span":9,"encoder":"001229068","distractor":"000229068","target":"present","response":"present","rt":"4750.0999999046","correct":true,"confidence":5},{"trial_n":140,"span":9,"encoder":"332243406","distractor":"332443406","target":"present","response":"present","rt":"4532.5999999046","correct":true,"confidence":5}]