[{"trial_n":1,"min":25,"max":230,"target":"present","response":"absent","rt":6740.5999999046,"correct":false,"confidence":-1},{"trial_n":2,"min":25,"max":230,"target":"present","response":"present","rt":2009.2999999523,"correct":true,"confidence":-1},{"trial_n":3,"min":25,"max":230,"target":"absent","response":"absent","rt":1350.2999999523,"correct":true,"confidence":-1},{"trial_n":4,"min":41,"max":214,"target":"absent","response":"absent","rt":1154.6000001431,"correct":true,"confidence":-1},{"trial_n":5,"min":41,"max":214,"target":"present","response":"present","rt":1144.5,"correct":true,"confidence":-1},{"trial_n":6,"min":57,"max":198,"target":"absent","response":"absent","rt":1050.7000000477,"correct":true,"confidence":-1},{"trial_n":7,"min":57,"max":198,"target":"absent","response":"absent","rt":1028.6999998093,"correct":true,"confidence":-1},{"trial_n":8,"min":73,"max":182,"target":"absent","response":"absent","rt":1042.5999999046,"correct":true,"confidence":-1},{"trial_n":9,"min":73,"max":182,"target":"present","response":"present","rt":1148.7000000477,"correct":true,"confidence":-1},{"trial_n":10,"min":89,"max":166,"target":"present","response":"present","rt":1076.7000000477,"correct":true,"confidence":-1},{"trial_n":11,"min":89,"max":166,"target":"present","response":"absent","rt":952.29999995232,"correct":false,"confidence":-1},{"trial_n":12,"min":81,"max":174,"target":"present","response":"absent","rt":1159.5999999046,"correct":false,"confidence":-1},{"trial_n":13,"min":73,"max":182,"target":"present","response":"absent","rt":1481.9000000954,"correct":false,"confidence":-1},{"trial_n":14,"min":65,"max":190,"target":"absent","response":"absent","rt":1172.6000001431,"correct":true,"confidence":-1},{"trial_n":15,"min":65,"max":190,"target":"present","response":"present","rt":908.60000014305,"correct":true,"confidence":-1},{"trial_n":16,"min":73,"max":182,"target":"present","response":"present","rt":1105.2000000477,"correct":true,"confidence":-1},{"trial_n":17,"min":73,"max":182,"target":"present","response":"present","rt":1047.0999999046,"correct":true,"confidence":-1},{"trial_n":18,"min":81,"max":174,"target":"present","response":"present","rt":1044,"correct":true,"confidence":-1},{"trial_n":19,"min":81,"max":174,"target":"absent","response":"absent","rt":1057.8999998569,"correct":true,"confidence":-1},{"trial_n":20,"min":89,"max":166,"target":"absent","response":"absent","rt":962.20000004768,"correct":true,"confidence":-1},{"trial_n":21,"min":89,"max":166,"target":"absent","response":"absent","rt":1126.2000000477,"correct":true,"confidence":3},{"trial_n":22,"min":93,"max":162,"target":"present","response":"present","rt":1834.9000000954,"correct":true,"confidence":2},{"trial_n":23,"min":93,"max":162,"target":"absent","response":"present","rt":960.5,"correct":false,"confidence":4},{"trial_n":24,"min":89,"max":166,"target":"absent","response":"present","rt":1034.1000001431,"correct":false,"confidence":4},{"trial_n":25,"min":85,"max":170,"target":"absent","response":"absent","rt":1759.9000000954,"correct":true,"confidence":1},{"trial_n":26,"min":85,"max":170,"target":"present","response":"present","rt":949.59999990463,"correct":true,"confidence":3},{"trial_n":27,"min":89,"max":166,"target":"absent","response":"absent","rt":1506.7999999523,"correct":true,"confidence":2},{"trial_n":28,"min":89,"max":166,"target":"absent","response":"present","rt":1014.3999998569,"correct":false,"confidence":3},{"trial_n":29,"min":85,"max":170,"target":"present","response":"present","rt":1018.6999998093,"correct":true,"confidence":5},{"trial_n":30,"min":85,"max":170,"target":"present","response":"present","rt":1067.8999998569,"correct":true,"confidence":5},{"trial_n":31,"min":87,"max":168,"target":"present","response":"present","rt":1269.1000001431,"correct":true,"confidence":5},{"trial_n":32,"min":87,"max":168,"target":"absent","response":"present","rt":766.70000004768,"correct":false,"confidence":4},{"trial_n":33,"min":85,"max":170,"target":"absent","response":"present","rt":849.89999985695,"correct":false,"confidence":3},{"trial_n":34,"min":83,"max":172,"target":"present","response":"present","rt":977.79999995232,"correct":true,"confidence":5},{"trial_n":35,"min":83,"max":172,"target":"present","response":"present","rt":742.79999995232,"correct":true,"confidence":5},{"trial_n":36,"min":85,"max":170,"target":"present","response":"present","rt":849.60000014305,"correct":true,"confidence":5},{"trial_n":37,"min":85,"max":170,"target":"present","response":"present","rt":1811.3999998569,"correct":true,"confidence":3},{"trial_n":38,"min":87,"max":168,"target":"absent","response":"absent","rt":1545.5999999046,"correct":true,"confidence":2},{"trial_n":39,"min":87,"max":168,"target":"present","response":"present","rt":720.5,"correct":true,"confidence":5},{"trial_n":40,"min":89,"max":166,"target":"absent","response":"present","rt":2506.0999999046,"correct":false,"confidence":3},{"trial_n":41,"min":88,"max":167,"target":"absent","response":"absent","rt":1300.0999999046,"correct":true,"confidence":3},{"trial_n":42,"min":88,"max":167,"target":"present","response":"present","rt":806.40000009537,"correct":true,"confidence":4},{"trial_n":43,"min":89,"max":166,"target":"absent","response":"absent","rt":1015.7000000477,"correct":true,"confidence":3},{"trial_n":44,"min":89,"max":166,"target":"present","response":"absent","rt":959.39999985695,"correct":false,"confidence":3},{"trial_n":45,"min":88,"max":167,"target":"absent","response":"absent","rt":1135,"correct":true,"confidence":4},{"trial_n":46,"min":88,"max":167,"target":"absent","response":"absent","rt":1199.2999999523,"correct":true,"confidence":3},{"trial_n":47,"min":89,"max":166,"target":"present","response":"present","rt":928.60000014305,"correct":true,"confidence":4},{"trial_n":48,"min":89,"max":166,"target":"absent","response":"absent","rt":1014.7000000477,"correct":true,"confidence":3},{"trial_n":49,"min":90,"max":165,"target":"present","response":"present","rt":1302.6000001431,"correct":true,"confidence":4},{"trial_n":50,"min":90,"max":165,"target":"absent","response":"absent","rt":1906.2999999523,"correct":true,"confidence":1},{"trial_n":51,"min":91,"max":164,"target":"present","response":"present","rt":2117.7000000477,"correct":true,"confidence":1},{"trial_n":52,"min":91,"max":164,"target":"absent","response":"absent","rt":2753.7000000477,"correct":true,"confidence":2},{"trial_n":53,"min":92,"max":163,"target":"present","response":"present","rt":716,"correct":true,"confidence":4},{"trial_n":54,"min":92,"max":163,"target":"absent","response":"absent","rt":1632.2000000477,"correct":true,"confidence":1},{"trial_n":55,"min":93,"max":162,"target":"present","response":"present","rt":1763.8999998569,"correct":true,"confidence":2},{"trial_n":56,"min":93,"max":162,"target":"present","response":"present","rt":1534.6000001431,"correct":true,"confidence":1},{"trial_n":57,"min":94,"max":161,"target":"present","response":"absent","rt":7812.0999999046,"correct":false,"confidence":1},{"trial_n":58,"min":93,"max":162,"target":"absent","response":"absent","rt":2677.2000000477,"correct":true,"confidence":1},{"trial_n":59,"min":93,"max":162,"target":"absent","response":"present","rt":2986,"correct":false,"confidence":1},{"trial_n":60,"min":92,"max":163,"target":"present","response":"present","rt":1091.0999999046,"correct":true,"confidence":3},{"trial_n":61,"min":92,"max":163,"target":"absent","response":"absent","rt":1578.8999998569,"correct":true,"confidence":2},{"trial_n":62,"min":93,"max":162,"target":"absent","response":"present","rt":1317,"correct":false,"confidence":2},{"trial_n":63,"min":92,"max":163,"target":"absent","response":"present","rt":5034.2999999523,"correct":false,"confidence":1},{"trial_n":64,"min":91,"max":164,"target":"present","response":"present","rt":890.79999995232,"correct":true,"confidence":4},{"trial_n":65,"min":91,"max":164,"target":"present","response":"present","rt":749.09999990463,"correct":true,"confidence":4},{"trial_n":66,"min":92,"max":163,"target":"absent","response":"absent","rt":888.19999980927,"correct":true,"confidence":5},{"trial_n":67,"min":92,"max":163,"target":"present","response":"present","rt":2472.9000000954,"correct":true,"confidence":1},{"trial_n":68,"min":93,"max":162,"target":"absent","response":"present","rt":1616,"correct":false,"confidence":2},{"trial_n":69,"min":92,"max":163,"target":"present","response":"absent","rt":811.29999995232,"correct":false,"confidence":5},{"trial_n":70,"min":91,"max":164,"target":"absent","response":"absent","rt":1675.9000000954,"correct":true,"confidence":2},{"trial_n":71,"min":41,"max":214,"target":"present","response":"absent","rt":8232.0999999046,"correct":false,"confidence":-1},{"trial_n":72,"min":41,"max":214,"target":"present","response":"present","rt":5083.4000000954,"correct":true,"confidence":-1},{"trial_n":73,"min":41,"max":214,"target":"absent","response":"absent","rt":2085.5999999046,"correct":true,"confidence":-1},{"trial_n":74,"min":57,"max":198,"target":"absent","response":"absent","rt":1254.0999999046,"correct":true,"confidence":-1},{"trial_n":75,"min":57,"max":198,"target":"present","response":"present","rt":1930.2000000477,"correct":true,"confidence":-1},{"trial_n":76,"min":73,"max":182,"target":"absent","response":"absent","rt":1288.2999999523,"correct":true,"confidence":-1},{"trial_n":77,"min":73,"max":182,"target":"present","response":"present","rt":5671.8000001907,"correct":true,"confidence":-1},{"trial_n":78,"min":89,"max":166,"target":"present","response":"present","rt":1688.3999998569,"correct":true,"confidence":-1},{"trial_n":79,"min":89,"max":166,"target":"present","response":"present","rt":1599.2999999523,"correct":true,"confidence":-1},{"trial_n":80,"min":105,"max":150,"target":"present","response":"present","rt":1260,"correct":true,"confidence":-1},{"trial_n":81,"min":105,"max":150,"target":"absent","response":"present","rt":2473.2999999523,"correct":false,"confidence":-1},{"trial_n":82,"min":97,"max":158,"target":"absent","response":"absent","rt":1580.7000000477,"correct":true,"confidence":-1},{"trial_n":83,"min":97,"max":158,"target":"absent","response":"present","rt":1777.8999998569,"correct":false,"confidence":-1},{"trial_n":84,"min":89,"max":166,"target":"absent","response":"absent","rt":1558.7999999523,"correct":true,"confidence":-1},{"trial_n":85,"min":89,"max":166,"target":"present","response":"present","rt":1162.5,"correct":true,"confidence":-1},{"trial_n":86,"min":97,"max":158,"target":"absent","response":"absent","rt":1589.3999998569,"correct":true,"confidence":-1},{"trial_n":87,"min":97,"max":158,"target":"present","response":"present","rt":1408.8000001907,"correct":true,"confidence":-1},{"trial_n":88,"min":105,"max":150,"target":"present","response":"present","rt":1446.0999999046,"correct":true,"confidence":-1},{"trial_n":89,"min":105,"max":150,"target":"present","response":"absent","rt":1161.7999999523,"correct":false,"confidence":-1},{"trial_n":90,"min":97,"max":158,"target":"absent","response":"present","rt":1110.9000000954,"correct":false,"confidence":-1},{"trial_n":91,"min":93,"max":162,"target":"present","response":"present","rt":1139.2999999523,"correct":true,"confidence":4},{"trial_n":92,"min":93,"max":162,"target":"absent","response":"present","rt":1433,"correct":false,"confidence":2},{"trial_n":93,"min":89,"max":166,"target":"absent","response":"absent","rt":1248.4000000954,"correct":true,"confidence":1},{"trial_n":94,"min":89,"max":166,"target":"absent","response":"present","rt":3517.9000000954,"correct":false,"confidence":3},{"trial_n":95,"min":85,"max":170,"target":"present","response":"present","rt":1468.3999998569,"correct":true,"confidence":2},{"trial_n":96,"min":85,"max":170,"target":"absent","response":"absent","rt":1044.3999998569,"correct":true,"confidence":5},{"trial_n":97,"min":89,"max":166,"target":"absent","response":"absent","rt":1564.0999999046,"correct":true,"confidence":5},{"trial_n":98,"min":89,"max":166,"target":"absent","response":"absent","rt":1795.2999999523,"correct":true,"confidence":4},{"trial_n":99,"min":93,"max":162,"target":"present","response":"present","rt":1001,"correct":true,"confidence":5},{"trial_n":100,"min":93,"max":162,"target":"absent","response":"absent","rt":1197.8999998569,"correct":true,"confidence":3},{"trial_n":101,"min":95,"max":160,"target":"present","response":"present","rt":1284.5,"correct":true,"confidence":2},{"trial_n":102,"min":95,"max":160,"target":"present","response":"present","rt":1481.7000000477,"correct":true,"confidence":2},{"trial_n":103,"min":97,"max":158,"target":"absent","response":"present","rt":1530.9000000954,"correct":false,"confidence":2},{"trial_n":104,"min":95,"max":160,"target":"present","response":"absent","rt":1160.2999999523,"correct":false,"confidence":3},{"trial_n":105,"min":93,"max":162,"target":"present","response":"present","rt":1143.5999999046,"correct":true,"confidence":4},{"trial_n":106,"min":93,"max":162,"target":"absent","response":"present","rt":2940.4000000954,"correct":false,"confidence":1},{"trial_n":107,"min":91,"max":164,"target":"absent","response":"absent","rt":1084.5999999046,"correct":true,"confidence":4},{"trial_n":108,"min":91,"max":164,"target":"absent","response":"absent","rt":1085.1999998093,"correct":true,"confidence":4},{"trial_n":109,"min":93,"max":162,"target":"present","response":"present","rt":3586.8999998569,"correct":true,"confidence":1},{"trial_n":110,"min":93,"max":162,"target":"present","response":"present","rt":1504.4000000954,"correct":true,"confidence":4},{"trial_n":111,"min":94,"max":161,"target":"present","response":"present","rt":1222.7000000477,"correct":true,"confidence":3},{"trial_n":112,"min":94,"max":161,"target":"absent","response":"present","rt":1686.5,"correct":false,"confidence":1},{"trial_n":113,"min":93,"max":162,"target":"present","response":"present","rt":1737.3999998569,"correct":true,"confidence":2},{"trial_n":114,"min":93,"max":162,"target":"absent","response":"present","rt":2307.2000000477,"correct":false,"confidence":3},{"trial_n":115,"min":92,"max":163,"target":"absent","response":"present","rt":1674.2000000477,"correct":false,"confidence":1},{"trial_n":116,"min":91,"max":164,"target":"present","response":"present","rt":1334.1000001431,"correct":true,"confidence":5},{"trial_n":117,"min":91,"max":164,"target":"present","response":"absent","rt":1420.2000000477,"correct":false,"confidence":3},{"trial_n":118,"min":90,"max":165,"target":"present","response":"present","rt":1186.5,"correct":true,"confidence":4},{"trial_n":119,"min":90,"max":165,"target":"absent","response":"absent","rt":1385.1999998093,"correct":true,"confidence":4},{"trial_n":120,"min":91,"max":164,"target":"absent","response":"present","rt":1949.8999998569,"correct":false,"confidence":3},{"trial_n":121,"min":90,"max":165,"target":"absent","response":"present","rt":1275.9000000954,"correct":false,"confidence":3},{"trial_n":122,"min":89,"max":166,"target":"present","response":"present","rt":944.20000004768,"correct":true,"confidence":5},{"trial_n":123,"min":89,"max":166,"target":"absent","response":"absent","rt":1182.5,"correct":true,"confidence":4},{"trial_n":124,"min":90,"max":165,"target":"present","response":"present","rt":1021,"correct":true,"confidence":4},{"trial_n":125,"min":90,"max":165,"target":"absent","response":"present","rt":1198.5999999046,"correct":false,"confidence":1},{"trial_n":126,"min":89,"max":166,"target":"present","response":"present","rt":1156.6999998093,"correct":true,"confidence":3},{"trial_n":127,"min":89,"max":166,"target":"absent","response":"absent","rt":1109.1000001431,"correct":true,"confidence":5},{"trial_n":128,"min":90,"max":165,"target":"absent","response":"present","rt":2963.7000000477,"correct":false,"confidence":4},{"trial_n":129,"min":89,"max":166,"target":"present","response":"present","rt":973.59999990463,"correct":true,"confidence":5},{"trial_n":130,"min":89,"max":166,"target":"absent","response":"present","rt":2538.2999999523,"correct":false,"confidence":3},{"trial_n":131,"min":88,"max":167,"target":"absent","response":"absent","rt":1046.6999998093,"correct":true,"confidence":5},{"trial_n":132,"min":88,"max":167,"target":"present","response":"present","rt":1012.4000000954,"correct":true,"confidence":5},{"trial_n":133,"min":89,"max":166,"target":"present","response":"present","rt":2435.2999999523,"correct":true,"confidence":5},{"trial_n":134,"min":89,"max":166,"target":"present","response":"present","rt":1221.7000000477,"correct":true,"confidence":4},{"trial_n":135,"min":90,"max":165,"target":"present","response":"present","rt":899.69999980927,"correct":true,"confidence":5},{"trial_n":136,"min":90,"max":165,"target":"present","response":"present","rt":1044.3999998569,"correct":true,"confidence":5},{"trial_n":137,"min":91,"max":164,"target":"absent","response":"present","rt":932.79999995232,"correct":false,"confidence":5},{"trial_n":138,"min":90,"max":165,"target":"absent","response":"absent","rt":1286.7000000477,"correct":true,"confidence":3},{"trial_n":139,"min":90,"max":165,"target":"present","response":"present","rt":1177.7000000477,"correct":true,"confidence":4},{"trial_n":140,"min":91,"max":164,"target":"present","response":"present","rt":1200.9000000954,"correct":true,"confidence":4}]