[{"trial_n":1,"min":25,"max":230,"target":"present","response":"absent","rt":4726,"correct":false,"confidence":-1},{"trial_n":2,"min":25,"max":230,"target":"present","response":"present","rt":1473,"correct":true,"confidence":-1},{"trial_n":3,"min":25,"max":230,"target":"absent","response":"present","rt":1544,"correct":false,"confidence":-1},{"trial_n":4,"min":9,"max":246,"target":"absent","response":"absent","rt":503,"correct":true,"confidence":-1},{"trial_n":5,"min":9,"max":246,"target":"present","response":"present","rt":310,"correct":true,"confidence":-1},{"trial_n":6,"min":25,"max":230,"target":"absent","response":"absent","rt":360,"correct":true,"confidence":-1},{"trial_n":7,"min":25,"max":230,"target":"absent","response":"absent","rt":311,"correct":true,"confidence":-1},{"trial_n":8,"min":41,"max":214,"target":"present","response":"present","rt":327,"correct":true,"confidence":-1},{"trial_n":9,"min":41,"max":214,"target":"present","response":"present","rt":319,"correct":true,"confidence":-1},{"trial_n":10,"min":57,"max":198,"target":"absent","response":"present","rt":490,"correct":false,"confidence":-1},{"trial_n":11,"min":49,"max":206,"target":"present","response":"present","rt":1100,"correct":true,"confidence":-1},{"trial_n":12,"min":49,"max":206,"target":"present","response":"present","rt":405,"correct":true,"confidence":-1},{"trial_n":13,"min":57,"max":198,"target":"absent","response":"absent","rt":460,"correct":true,"confidence":-1},{"trial_n":14,"min":57,"max":198,"target":"absent","response":"absent","rt":374,"correct":true,"confidence":-1},{"trial_n":15,"min":65,"max":190,"target":"present","response":"present","rt":474,"correct":true,"confidence":-1},{"trial_n":16,"min":65,"max":190,"target":"present","response":"present","rt":262,"correct":true,"confidence":-1},{"trial_n":17,"min":73,"max":182,"target":"present","response":"present","rt":947,"correct":true,"confidence":-1},{"trial_n":18,"min":73,"max":182,"target":"absent","response":"absent","rt":317,"correct":true,"confidence":-1},{"trial_n":19,"min":81,"max":174,"target":"absent","response":"present","rt":685,"correct":false,"confidence":-1},{"trial_n":20,"min":73,"max":182,"target":"present","response":"present","rt":290.99999999999,"correct":true,"confidence":-1},{"trial_n":21,"min":73,"max":182,"target":"absent","response":"present","rt":418,"correct":false,"confidence":3},{"trial_n":22,"min":69,"max":186,"target":"absent","response":"absent","rt":798,"correct":true,"confidence":3},{"trial_n":23,"min":69,"max":186,"target":"absent","response":"absent","rt":988,"correct":true,"confidence":2},{"trial_n":24,"min":73,"max":182,"target":"absent","response":"absent","rt":1281,"correct":true,"confidence":4},{"trial_n":25,"min":73,"max":182,"target":"present","response":"absent","rt":1228,"correct":false,"confidence":3},{"trial_n":26,"min":69,"max":186,"target":"present","response":"absent","rt":1076,"correct":false,"confidence":3},{"trial_n":27,"min":65,"max":190,"target":"absent","response":"absent","rt":828,"correct":true,"confidence":4},{"trial_n":28,"min":65,"max":190,"target":"absent","response":"present","rt":836,"correct":false,"confidence":3},{"trial_n":29,"min":61,"max":194,"target":"absent","response":"absent","rt":1131,"correct":true,"confidence":3},{"trial_n":30,"min":61,"max":194,"target":"present","response":"present","rt":644,"correct":true,"confidence":4},{"trial_n":31,"min":63,"max":192,"target":"absent","response":"absent","rt":1056,"correct":true,"confidence":2},{"trial_n":32,"min":63,"max":192,"target":"present","response":"present","rt":701,"correct":true,"confidence":4},{"trial_n":33,"min":65,"max":190,"target":"absent","response":"absent","rt":595.99999999999,"correct":true,"confidence":3},{"trial_n":34,"min":65,"max":190,"target":"absent","response":"present","rt":5869,"correct":false,"confidence":3},{"trial_n":35,"min":63,"max":192,"target":"present","response":"present","rt":1643,"correct":true,"confidence":4},{"trial_n":36,"min":63,"max":192,"target":"absent","response":"absent","rt":820.00000000001,"correct":true,"confidence":2},{"trial_n":37,"min":65,"max":190,"target":"present","response":"present","rt":1279,"correct":true,"confidence":3},{"trial_n":38,"min":65,"max":190,"target":"absent","response":"absent","rt":727.00000000001,"correct":true,"confidence":2},{"trial_n":39,"min":67,"max":188,"target":"present","response":"present","rt":891.00000000001,"correct":true,"confidence":4},{"trial_n":40,"min":67,"max":188,"target":"present","response":"present","rt":866.99999999999,"correct":true,"confidence":5},{"trial_n":41,"min":68,"max":187,"target":"present","response":"present","rt":554,"correct":true,"confidence":4},{"trial_n":42,"min":68,"max":187,"target":"present","response":"present","rt":848,"correct":true,"confidence":5},{"trial_n":43,"min":69,"max":186,"target":"present","response":"present","rt":875,"correct":true,"confidence":5},{"trial_n":44,"min":69,"max":186,"target":"present","response":"present","rt":509,"correct":true,"confidence":5},{"trial_n":45,"min":70,"max":185,"target":"absent","response":"present","rt":1474,"correct":false,"confidence":3},{"trial_n":46,"min":69,"max":186,"target":"absent","response":"absent","rt":486,"correct":true,"confidence":4},{"trial_n":47,"min":69,"max":186,"target":"absent","response":"absent","rt":956,"correct":true,"confidence":4},{"trial_n":48,"min":70,"max":185,"target":"present","response":"present","rt":945,"correct":true,"confidence":3},{"trial_n":49,"min":70,"max":185,"target":"absent","response":"absent","rt":441,"correct":true,"confidence":3},{"trial_n":50,"min":71,"max":184,"target":"absent","response":"present","rt":2171,"correct":false,"confidence":3},{"trial_n":51,"min":70,"max":185,"target":"present","response":"present","rt":719,"correct":true,"confidence":4},{"trial_n":52,"min":70,"max":185,"target":"absent","response":"absent","rt":1221,"correct":true,"confidence":2},{"trial_n":53,"min":71,"max":184,"target":"present","response":"present","rt":934,"correct":true,"confidence":2},{"trial_n":54,"min":71,"max":184,"target":"present","response":"absent","rt":1700,"correct":false,"confidence":3},{"trial_n":55,"min":70,"max":185,"target":"absent","response":"absent","rt":808,"correct":true,"confidence":5},{"trial_n":56,"min":70,"max":185,"target":"present","response":"present","rt":1521,"correct":true,"confidence":3},{"trial_n":57,"min":71,"max":184,"target":"present","response":"present","rt":2822,"correct":true,"confidence":4},{"trial_n":58,"min":71,"max":184,"target":"present","response":"absent","rt":658,"correct":false,"confidence":3},{"trial_n":59,"min":70,"max":185,"target":"present","response":"present","rt":559,"correct":true,"confidence":4},{"trial_n":60,"min":70,"max":185,"target":"absent","response":"absent","rt":531.00000000003,"correct":true,"confidence":5},{"trial_n":61,"min":71,"max":184,"target":"absent","response":"absent","rt":580,"correct":true,"confidence":5},{"trial_n":62,"min":71,"max":184,"target":"absent","response":"absent","rt":881,"correct":true,"confidence":5},{"trial_n":63,"min":72,"max":183,"target":"absent","response":"absent","rt":402,"correct":true,"confidence":5},{"trial_n":64,"min":72,"max":183,"target":"present","response":"present","rt":1083,"correct":true,"confidence":3},{"trial_n":65,"min":73,"max":182,"target":"present","response":"absent","rt":1154,"correct":false,"confidence":4},{"trial_n":66,"min":72,"max":183,"target":"absent","response":"absent","rt":1485,"correct":true,"confidence":4},{"trial_n":67,"min":72,"max":183,"target":"present","response":"present","rt":938,"correct":true,"confidence":3},{"trial_n":68,"min":73,"max":182,"target":"present","response":"absent","rt":1119,"correct":false,"confidence":2},{"trial_n":69,"min":72,"max":183,"target":"absent","response":"absent","rt":1232,"correct":true,"confidence":2},{"trial_n":70,"min":72,"max":183,"target":"present","response":"present","rt":643,"correct":true,"confidence":4},{"trial_n":71,"min":41,"max":214,"target":"present","response":"present","rt":1408,"correct":true,"confidence":-1},{"trial_n":72,"min":41,"max":214,"target":"present","response":"present","rt":442,"correct":true,"confidence":-1},{"trial_n":73,"min":57,"max":198,"target":"absent","response":"absent","rt":494,"correct":true,"confidence":-1},{"trial_n":74,"min":57,"max":198,"target":"absent","response":"absent","rt":401,"correct":true,"confidence":-1},{"trial_n":75,"min":73,"max":182,"target":"present","response":"present","rt":651,"correct":true,"confidence":-1},{"trial_n":76,"min":73,"max":182,"target":"present","response":"present","rt":613,"correct":true,"confidence":-1},{"trial_n":77,"min":89,"max":166,"target":"absent","response":"absent","rt":1039,"correct":true,"confidence":-1},{"trial_n":78,"min":89,"max":166,"target":"absent","response":"present","rt":667.99999999997,"correct":false,"confidence":-1},{"trial_n":79,"min":73,"max":182,"target":"absent","response":"absent","rt":637,"correct":true,"confidence":-1},{"trial_n":80,"min":73,"max":182,"target":"present","response":"present","rt":433,"correct":true,"confidence":-1},{"trial_n":81,"min":81,"max":174,"target":"present","response":"present","rt":651.00000000003,"correct":true,"confidence":-1},{"trial_n":82,"min":81,"max":174,"target":"absent","response":"absent","rt":1302,"correct":true,"confidence":-1},{"trial_n":83,"min":89,"max":166,"target":"present","response":"present","rt":756,"correct":true,"confidence":-1},{"trial_n":84,"min":89,"max":166,"target":"present","response":"absent","rt":804,"correct":false,"confidence":-1},{"trial_n":85,"min":81,"max":174,"target":"absent","response":"present","rt":544,"correct":false,"confidence":-1},{"trial_n":86,"min":73,"max":182,"target":"absent","response":"absent","rt":369,"correct":true,"confidence":-1},{"trial_n":87,"min":73,"max":182,"target":"present","response":"present","rt":194.00000000003,"correct":true,"confidence":-1},{"trial_n":88,"min":81,"max":174,"target":"present","response":"present","rt":363,"correct":true,"confidence":-1},{"trial_n":89,"min":81,"max":174,"target":"absent","response":"present","rt":1059,"correct":false,"confidence":-1},{"trial_n":90,"min":73,"max":182,"target":"absent","response":"absent","rt":424,"correct":true,"confidence":-1},{"trial_n":91,"min":73,"max":182,"target":"absent","response":"absent","rt":1024.9999999999,"correct":true,"confidence":2},{"trial_n":92,"min":77,"max":178,"target":"absent","response":"absent","rt":764,"correct":true,"confidence":2},{"trial_n":93,"min":77,"max":178,"target":"present","response":"present","rt":583,"correct":true,"confidence":4},{"trial_n":94,"min":81,"max":174,"target":"absent","response":"present","rt":530,"correct":false,"confidence":4},{"trial_n":95,"min":77,"max":178,"target":"absent","response":"absent","rt":792,"correct":true,"confidence":3},{"trial_n":96,"min":77,"max":178,"target":"present","response":"present","rt":207,"correct":true,"confidence":5},{"trial_n":97,"min":81,"max":174,"target":"absent","response":"absent","rt":882.00000000006,"correct":true,"confidence":2},{"trial_n":98,"min":81,"max":174,"target":"absent","response":"absent","rt":645,"correct":true,"confidence":4},{"trial_n":99,"min":85,"max":170,"target":"present","response":"present","rt":353,"correct":true,"confidence":5},{"trial_n":100,"min":85,"max":170,"target":"present","response":"present","rt":858.99999999994,"correct":true,"confidence":2},{"trial_n":101,"min":87,"max":168,"target":"absent","response":"absent","rt":832,"correct":true,"confidence":2},{"trial_n":102,"min":87,"max":168,"target":"present","response":"present","rt":803.99999999994,"correct":true,"confidence":2},{"trial_n":103,"min":89,"max":166,"target":"present","response":"present","rt":322,"correct":true,"confidence":4},{"trial_n":104,"min":89,"max":166,"target":"present","response":"present","rt":414,"correct":true,"confidence":4},{"trial_n":105,"min":91,"max":164,"target":"absent","response":"present","rt":464,"correct":false,"confidence":4},{"trial_n":106,"min":89,"max":166,"target":"absent","response":"present","rt":696,"correct":false,"confidence":3},{"trial_n":107,"min":87,"max":168,"target":"present","response":"present","rt":362,"correct":true,"confidence":4},{"trial_n":108,"min":87,"max":168,"target":"present","response":"present","rt":851,"correct":true,"confidence":2},{"trial_n":109,"min":89,"max":166,"target":"present","response":"present","rt":1513,"correct":true,"confidence":1},{"trial_n":110,"min":89,"max":166,"target":"absent","response":"present","rt":589,"correct":false,"confidence":4},{"trial_n":111,"min":88,"max":167,"target":"present","response":"present","rt":617.00000000006,"correct":true,"confidence":2},{"trial_n":112,"min":88,"max":167,"target":"present","response":"present","rt":393,"correct":true,"confidence":4},{"trial_n":113,"min":89,"max":166,"target":"absent","response":"present","rt":1107.9999999999,"correct":false,"confidence":1},{"trial_n":114,"min":88,"max":167,"target":"present","response":"absent","rt":1185.0000000001,"correct":false,"confidence":2},{"trial_n":115,"min":87,"max":168,"target":"present","response":"present","rt":721,"correct":true,"confidence":3},{"trial_n":116,"min":87,"max":168,"target":"absent","response":"present","rt":709,"correct":false,"confidence":1},{"trial_n":117,"min":86,"max":169,"target":"present","response":"present","rt":500,"correct":true,"confidence":4},{"trial_n":118,"min":86,"max":169,"target":"present","response":"present","rt":468,"correct":true,"confidence":3},{"trial_n":119,"min":87,"max":168,"target":"present","response":"present","rt":389,"correct":true,"confidence":4},{"trial_n":120,"min":87,"max":168,"target":"absent","response":"present","rt":1411,"correct":false,"confidence":1},{"trial_n":121,"min":86,"max":169,"target":"absent","response":"present","rt":1001,"correct":false,"confidence":3},{"trial_n":122,"min":85,"max":170,"target":"absent","response":"absent","rt":981,"correct":true,"confidence":1},{"trial_n":123,"min":85,"max":170,"target":"absent","response":"absent","rt":984,"correct":true,"confidence":1},{"trial_n":124,"min":86,"max":169,"target":"absent","response":"absent","rt":2010,"correct":true,"confidence":2},{"trial_n":125,"min":86,"max":169,"target":"absent","response":"absent","rt":1053,"correct":true,"confidence":2},{"trial_n":126,"min":87,"max":168,"target":"present","response":"absent","rt":1712.9999999999,"correct":false,"confidence":2},{"trial_n":127,"min":86,"max":169,"target":"absent","response":"absent","rt":1658,"correct":true,"confidence":1},{"trial_n":128,"min":86,"max":169,"target":"absent","response":"present","rt":759,"correct":false,"confidence":1},{"trial_n":129,"min":85,"max":170,"target":"absent","response":"absent","rt":618,"correct":true,"confidence":4},{"trial_n":130,"min":85,"max":170,"target":"present","response":"absent","rt":791,"correct":false,"confidence":3},{"trial_n":131,"min":84,"max":171,"target":"present","response":"present","rt":191.00000000006,"correct":true,"confidence":4},{"trial_n":132,"min":84,"max":171,"target":"present","response":"present","rt":409,"correct":true,"confidence":3},{"trial_n":133,"min":85,"max":170,"target":"absent","response":"present","rt":588,"correct":false,"confidence":1},{"trial_n":134,"min":84,"max":171,"target":"present","response":"present","rt":442.99999999994,"correct":true,"confidence":2},{"trial_n":135,"min":84,"max":171,"target":"present","response":"present","rt":640,"correct":true,"confidence":1},{"trial_n":136,"min":85,"max":170,"target":"present","response":"present","rt":267,"correct":true,"confidence":4},{"trial_n":137,"min":85,"max":170,"target":"present","response":"present","rt":407,"correct":true,"confidence":4},{"trial_n":138,"min":86,"max":169,"target":"absent","response":"absent","rt":680,"correct":true,"confidence":2},{"trial_n":139,"min":86,"max":169,"target":"present","response":"present","rt":371,"correct":true,"confidence":5},{"trial_n":140,"min":87,"max":168,"target":"absent","response":"absent","rt":855,"correct":true,"confidence":2}]