[{"trial_n":1,"n_dots":4.25,"target":"right","response":"right","rt":4519,"correct":true,"confidence":-1},{"trial_n":2,"n_dots":4.25,"target":"right","response":"right","rt":658,"correct":true,"confidence":-1},{"trial_n":3,"n_dots":3.85,"target":"left","response":"left","rt":223,"correct":true,"confidence":-1},{"trial_n":4,"n_dots":3.85,"target":"right","response":"right","rt":545.99999999994,"correct":true,"confidence":-1},{"trial_n":5,"n_dots":3.45,"target":"right","response":"left","rt":283,"correct":false,"confidence":-1},{"trial_n":6,"n_dots":3.85,"target":"right","response":"left","rt":253,"correct":false,"confidence":-1},{"trial_n":7,"n_dots":4.25,"target":"right","response":"left","rt":445,"correct":false,"confidence":-1},{"trial_n":8,"n_dots":4.45,"target":"left","response":"left","rt":69,"correct":true,"confidence":-1},{"trial_n":9,"n_dots":4.45,"target":"left","response":"left","rt":236,"correct":true,"confidence":-1},{"trial_n":10,"n_dots":4.25,"target":"left","response":"left","rt":240.00000000006,"correct":true,"confidence":-1},{"trial_n":11,"n_dots":4.25,"target":"right","response":"right","rt":5560,"correct":true,"confidence":-1},{"trial_n":12,"n_dots":4.05,"target":"right","response":"right","rt":516,"correct":true,"confidence":-1},{"trial_n":13,"n_dots":4.05,"target":"left","response":"left","rt":196,"correct":true,"confidence":-1},{"trial_n":14,"n_dots":3.95,"target":"right","response":"right","rt":86,"correct":true,"confidence":-1},{"trial_n":15,"n_dots":3.95,"target":"right","response":"right","rt":520,"correct":true,"confidence":-1},{"trial_n":16,"n_dots":3.85,"target":"right","response":"left","rt":672,"correct":false,"confidence":-1},{"trial_n":17,"n_dots":3.95,"target":"right","response":"right","rt":579,"correct":true,"confidence":-1},{"trial_n":18,"n_dots":3.95,"target":"left","response":"left","rt":704.00000000006,"correct":true,"confidence":-1},{"trial_n":19,"n_dots":3.85,"target":"left","response":"left","rt":622,"correct":true,"confidence":-1},{"trial_n":20,"n_dots":3.85,"target":"left","response":"left","rt":595,"correct":true,"confidence":-1},{"trial_n":21,"n_dots":3.75,"target":"right","response":"right","rt":341,"correct":true,"confidence":3},{"trial_n":22,"n_dots":3.75,"target":"right","response":"left","rt":572,"correct":false,"confidence":2},{"trial_n":23,"n_dots":3.85,"target":"right","response":"right","rt":176.00000000006,"correct":true,"confidence":3},{"trial_n":24,"n_dots":3.85,"target":"left","response":"left","rt":900,"correct":true,"confidence":4},{"trial_n":25,"n_dots":3.75,"target":"left","response":"left","rt":85.999999999942,"correct":true,"confidence":4},{"trial_n":26,"n_dots":3.75,"target":"left","response":"left","rt":645,"correct":true,"confidence":2},{"trial_n":27,"n_dots":3.65,"target":"left","response":"left","rt":341,"correct":true,"confidence":3},{"trial_n":28,"n_dots":3.65,"target":"left","response":"left","rt":486,"correct":true,"confidence":2},{"trial_n":29,"n_dots":3.55,"target":"left","response":"left","rt":262,"correct":true,"confidence":3},{"trial_n":30,"n_dots":3.55,"target":"left","response":"left","rt":272.99999999994,"correct":true,"confidence":3},{"trial_n":31,"n_dots":3.45,"target":"right","response":"right","rt":633,"correct":true,"confidence":2},{"trial_n":32,"n_dots":3.45,"target":"left","response":"left","rt":952.99999999994,"correct":true,"confidence":3},{"trial_n":33,"n_dots":3.35,"target":"right","response":"right","rt":559,"correct":true,"confidence":4},{"trial_n":34,"n_dots":3.35,"target":"right","response":"right","rt":282,"correct":true,"confidence":4},{"trial_n":35,"n_dots":3.25,"target":"right","response":"right","rt":580.99999999994,"correct":true,"confidence":3},{"trial_n":36,"n_dots":3.25,"target":"right","response":"right","rt":1251,"correct":true,"confidence":1},{"trial_n":37,"n_dots":3.15,"target":"left","response":"left","rt":338,"correct":true,"confidence":3},{"trial_n":38,"n_dots":3.15,"target":"left","response":"left","rt":188,"correct":true,"confidence":4},{"trial_n":39,"n_dots":3.05,"target":"left","response":"left","rt":632,"correct":true,"confidence":3},{"trial_n":40,"n_dots":3.05,"target":"left","response":"left","rt":293,"correct":true,"confidence":3},{"trial_n":41,"n_dots":2.95,"target":"left","response":"left","rt":561,"correct":true,"confidence":4},{"trial_n":42,"n_dots":2.95,"target":"left","response":"left","rt":514,"correct":true,"confidence":3},{"trial_n":43,"n_dots":2.85,"target":"right","response":"left","rt":418,"correct":false,"confidence":3},{"trial_n":44,"n_dots":2.95,"target":"left","response":"left","rt":52,"correct":true,"confidence":4},{"trial_n":45,"n_dots":2.95,"target":"left","response":"right","rt":349,"correct":false,"confidence":2},{"trial_n":46,"n_dots":3.05,"target":"right","response":"left","rt":730,"correct":false,"confidence":2},{"trial_n":47,"n_dots":3.15,"target":"right","response":"left","rt":723,"correct":false,"confidence":3},{"trial_n":48,"n_dots":3.25,"target":"left","response":"left","rt":147,"correct":true,"confidence":3},{"trial_n":49,"n_dots":3.25,"target":"right","response":"right","rt":922,"correct":true,"confidence":2},{"trial_n":50,"n_dots":3.15,"target":"left","response":"right","rt":582,"correct":false,"confidence":1},{"trial_n":51,"n_dots":3.25,"target":"right","response":"right","rt":1283.0000000001,"correct":true,"confidence":1},{"trial_n":52,"n_dots":3.25,"target":"left","response":"left","rt":460,"correct":true,"confidence":3},{"trial_n":53,"n_dots":3.15,"target":"right","response":"right","rt":251,"correct":true,"confidence":3},{"trial_n":54,"n_dots":3.15,"target":"left","response":"left","rt":545,"correct":true,"confidence":4},{"trial_n":55,"n_dots":3.05,"target":"left","response":"left","rt":473,"correct":true,"confidence":3},{"trial_n":56,"n_dots":3.05,"target":"right","response":"right","rt":418,"correct":true,"confidence":2},{"trial_n":57,"n_dots":2.95,"target":"left","response":"left","rt":340,"correct":true,"confidence":3},{"trial_n":58,"n_dots":2.95,"target":"right","response":"right","rt":299,"correct":true,"confidence":2},{"trial_n":59,"n_dots":2.85,"target":"left","response":"right","rt":823,"correct":false,"confidence":1},{"trial_n":60,"n_dots":2.95,"target":"left","response":"left","rt":802,"correct":true,"confidence":2},{"trial_n":61,"n_dots":2.95,"target":"left","response":"left","rt":866,"correct":true,"confidence":3},{"trial_n":62,"n_dots":2.85,"target":"left","response":"left","rt":394,"correct":true,"confidence":3},{"trial_n":63,"n_dots":2.85,"target":"right","response":"left","rt":40,"correct":false,"confidence":3},{"trial_n":64,"n_dots":2.95,"target":"left","response":"left","rt":548,"correct":true,"confidence":2},{"trial_n":65,"n_dots":2.95,"target":"left","response":"left","rt":556,"correct":true,"confidence":2},{"trial_n":66,"n_dots":2.85,"target":"left","response":"right","rt":294.99999999977,"correct":false,"confidence":1},{"trial_n":67,"n_dots":2.95,"target":"left","response":"left","rt":593.99999999977,"correct":true,"confidence":2},{"trial_n":68,"n_dots":2.95,"target":"right","response":"right","rt":247.99999999977,"correct":true,"confidence":3},{"trial_n":69,"n_dots":2.85,"target":"right","response":"left","rt":545,"correct":false,"confidence":2},{"trial_n":70,"n_dots":2.95,"target":"right","response":"right","rt":466,"correct":true,"confidence":2},{"trial_n":71,"n_dots":2.95,"target":"left","response":"left","rt":294.99999999977,"correct":true,"confidence":3},{"trial_n":72,"n_dots":2.85,"target":"right","response":"left","rt":1842,"correct":false,"confidence":2},{"trial_n":73,"n_dots":2.95,"target":"left","response":"left","rt":519,"correct":true,"confidence":3},{"trial_n":74,"n_dots":2.95,"target":"right","response":"right","rt":171,"correct":true,"confidence":2},{"trial_n":75,"n_dots":2.85,"target":"right","response":"left","rt":355,"correct":false,"confidence":3},{"trial_n":76,"n_dots":2.95,"target":"left","response":"left","rt":311,"correct":true,"confidence":3},{"trial_n":77,"n_dots":2.95,"target":"right","response":"right","rt":137,"correct":true,"confidence":3},{"trial_n":78,"n_dots":2.85,"target":"right","response":"left","rt":616,"correct":false,"confidence":3},{"trial_n":79,"n_dots":2.95,"target":"left","response":"left","rt":690,"correct":true,"confidence":2},{"trial_n":80,"n_dots":2.95,"target":"right","response":"right","rt":412,"correct":true,"confidence":3},{"trial_n":81,"n_dots":2.85,"target":"left","response":"left","rt":30,"correct":true,"confidence":4},{"trial_n":82,"n_dots":2.85,"target":"right","response":"left","rt":154,"correct":false,"confidence":3},{"trial_n":83,"n_dots":2.95,"target":"right","response":"right","rt":137,"correct":true,"confidence":3},{"trial_n":84,"n_dots":2.95,"target":"left","response":"left","rt":162.99999999977,"correct":true,"confidence":4},{"trial_n":85,"n_dots":2.85,"target":"left","response":"left","rt":412,"correct":true,"confidence":3},{"trial_n":86,"n_dots":2.85,"target":"right","response":"right","rt":259,"correct":true,"confidence":3},{"trial_n":87,"n_dots":2.75,"target":"left","response":"left","rt":512,"correct":true,"confidence":2},{"trial_n":88,"n_dots":2.75,"target":"right","response":"left","rt":643,"correct":false,"confidence":3},{"trial_n":89,"n_dots":2.85,"target":"right","response":"right","rt":739,"correct":true,"confidence":1},{"trial_n":90,"n_dots":2.85,"target":"right","response":"right","rt":302,"correct":true,"confidence":2},{"trial_n":91,"n_dots":2.75,"target":"right","response":"left","rt":1002,"correct":false,"confidence":3},{"trial_n":92,"n_dots":2.85,"target":"left","response":"left","rt":1165,"correct":true,"confidence":3},{"trial_n":93,"n_dots":2.85,"target":"right","response":"left","rt":1212,"correct":false,"confidence":1},{"trial_n":94,"n_dots":2.95,"target":"right","response":"left","rt":448,"correct":false,"confidence":2},{"trial_n":95,"n_dots":3.05,"target":"right","response":"right","rt":439,"correct":true,"confidence":3},{"trial_n":96,"n_dots":3.05,"target":"right","response":"right","rt":179.99999999977,"correct":true,"confidence":3},{"trial_n":97,"n_dots":2.95,"target":"left","response":"left","rt":497.99999999977,"correct":true,"confidence":3},{"trial_n":98,"n_dots":2.95,"target":"left","response":"left","rt":151,"correct":true,"confidence":3},{"trial_n":99,"n_dots":2.85,"target":"right","response":"right","rt":72,"correct":true,"confidence":3},{"trial_n":100,"n_dots":2.85,"target":"left","response":"left","rt":70,"correct":true,"confidence":3},{"trial_n":101,"n_dots":2.75,"target":"right","response":"right","rt":651,"correct":true,"confidence":3},{"trial_n":102,"n_dots":2.75,"target":"left","response":"right","rt":254,"correct":false,"confidence":2},{"trial_n":103,"n_dots":2.85,"target":"left","response":"left","rt":265,"correct":true,"confidence":3},{"trial_n":104,"n_dots":2.85,"target":"left","response":"left","rt":250,"correct":true,"confidence":3},{"trial_n":105,"n_dots":2.75,"target":"left","response":"left","rt":241,"correct":true,"confidence":3},{"trial_n":106,"n_dots":2.75,"target":"right","response":"right","rt":350,"correct":true,"confidence":2},{"trial_n":107,"n_dots":2.65,"target":"right","response":"right","rt":228,"correct":true,"confidence":2},{"trial_n":108,"n_dots":2.65,"target":"left","response":"left","rt":305,"correct":true,"confidence":2},{"trial_n":109,"n_dots":2.55,"target":"left","response":"right","rt":508.00000000023,"correct":false,"confidence":1},{"trial_n":110,"n_dots":2.65,"target":"right","response":"right","rt":664,"correct":true,"confidence":1},{"trial_n":111,"n_dots":2.65,"target":"right","response":"left","rt":398,"correct":false,"confidence":2},{"trial_n":112,"n_dots":2.75,"target":"left","response":"left","rt":224,"correct":true,"confidence":3},{"trial_n":113,"n_dots":2.75,"target":"right","response":"right","rt":189.00000000023,"correct":true,"confidence":2},{"trial_n":114,"n_dots":2.65,"target":"left","response":"left","rt":428,"correct":true,"confidence":2},{"trial_n":115,"n_dots":2.65,"target":"right","response":"right","rt":140,"correct":true,"confidence":3},{"trial_n":116,"n_dots":2.55,"target":"right","response":"right","rt":835.99999999977,"correct":true,"confidence":1},{"trial_n":117,"n_dots":2.55,"target":"left","response":"left","rt":753,"correct":true,"confidence":4},{"trial_n":118,"n_dots":2.45,"target":"right","response":"right","rt":815,"correct":true,"confidence":1},{"trial_n":119,"n_dots":2.45,"target":"left","response":"left","rt":470,"correct":true,"confidence":3},{"trial_n":120,"n_dots":2.35,"target":"right","response":"right","rt":668.99999999977,"correct":true,"confidence":3}]