[{"trial_n":1,"span":8,"encoder":"21488578","distractor":"21489578","target":"present","response":"absent","rt":"2929","correct":false,"confidence":-1},{"trial_n":2,"span":6,"encoder":"861268","distractor":"861668","target":"present","response":"absent","rt":"1672","correct":false,"confidence":-1},{"trial_n":3,"span":4,"encoder":"8007","distractor":"8057","target":"absent","response":"absent","rt":"1775","correct":true,"confidence":-1},{"trial_n":4,"span":4,"encoder":"6088","distractor":"6688","target":"absent","response":"absent","rt":"1349","correct":true,"confidence":-1},{"trial_n":5,"span":6,"encoder":"707730","distractor":"507730","target":"present","response":"present","rt":"1955","correct":true,"confidence":-1},{"trial_n":6,"span":6,"encoder":"451820","distractor":"441820","target":"present","response":"present","rt":"1152","correct":true,"confidence":-1},{"trial_n":7,"span":8,"encoder":"22197446","distractor":"22190446","target":"absent","response":"present","rt":"1010","correct":false,"confidence":-1},{"trial_n":8,"span":6,"encoder":"743550","distractor":"743551","target":"absent","response":"absent","rt":"1211","correct":true,"confidence":-1},{"trial_n":9,"span":6,"encoder":"083375","distractor":"084375","target":"present","response":"present","rt":"2409","correct":true,"confidence":-1},{"trial_n":10,"span":8,"encoder":"66785971","distractor":"66785871","target":"present","response":"present","rt":"1533","correct":true,"confidence":-1},{"trial_n":11,"span":8,"encoder":"28555021","distractor":"28525021","target":"present","response":"present","rt":"948","correct":true,"confidence":-1},{"trial_n":12,"span":9,"encoder":"647609345","distractor":"647409345","target":"absent","response":"present","rt":"1936","correct":false,"confidence":-1},{"trial_n":13,"span":8,"encoder":"59603980","distractor":"59673980","target":"present","response":"absent","rt":"900","correct":false,"confidence":-1},{"trial_n":14,"span":7,"encoder":"8691915","distractor":"8691945","target":"present","response":"present","rt":"1149","correct":true,"confidence":-1},{"trial_n":15,"span":7,"encoder":"0911359","distractor":"0971359","target":"absent","response":"absent","rt":"3034","correct":true,"confidence":-1},{"trial_n":16,"span":8,"encoder":"95938952","distractor":"95938452","target":"present","response":"present","rt":"2122","correct":true,"confidence":-1},{"trial_n":17,"span":8,"encoder":"17548455","distractor":"17568455","target":"absent","response":"present","rt":"750","correct":false,"confidence":-1},{"trial_n":18,"span":7,"encoder":"4530407","distractor":"4530403","target":"absent","response":"absent","rt":"854","correct":true,"confidence":-1},{"trial_n":19,"span":7,"encoder":"9698588","distractor":"9698598","target":"present","response":"present","rt":"1013","correct":true,"confidence":-1},{"trial_n":20,"span":8,"encoder":"29422382","distractor":"20422382","target":"absent","response":"present","rt":"872.99999999977","correct":false,"confidence":-1},{"trial_n":21,"span":7,"encoder":"0692876","distractor":"0602876","target":"present","response":"present","rt":"1047","correct":true,"confidence":3},{"trial_n":22,"span":7,"encoder":"1186261","distractor":"1146261","target":"present","response":"present","rt":"1894","correct":true,"confidence":3},{"trial_n":23,"span":8,"encoder":"65690910","distractor":"65690917","target":"present","response":"present","rt":"3114","correct":true,"confidence":2},{"trial_n":24,"span":8,"encoder":"14717654","distractor":"54717654","target":"absent","response":"present","rt":"3065","correct":false,"confidence":3},{"trial_n":25,"span":7,"encoder":"4629928","distractor":"1629928","target":"present","response":"present","rt":"2353.9999999998","correct":true,"confidence":4},{"trial_n":26,"span":7,"encoder":"3600330","distractor":"1600330","target":"absent","response":"absent","rt":"2914","correct":true,"confidence":3},{"trial_n":27,"span":8,"encoder":"46288851","distractor":"46288801","target":"present","response":"absent","rt":"3876","correct":false,"confidence":2},{"trial_n":28,"span":7,"encoder":"7978098","distractor":"7978398","target":"absent","response":"absent","rt":"1456","correct":true,"confidence":5},{"trial_n":29,"span":7,"encoder":"4848292","distractor":"4848299","target":"absent","response":"absent","rt":"2372","correct":true,"confidence":4},{"trial_n":30,"span":8,"encoder":"18977933","distractor":"18077933","target":"absent","response":"absent","rt":"3586","correct":true,"confidence":3},{"trial_n":31,"span":8,"encoder":"21188181","distractor":"21128181","target":"absent","response":"absent","rt":"3807","correct":true,"confidence":4},{"trial_n":32,"span":9,"encoder":"959463732","distractor":"957463732","target":"present","response":"present","rt":"4207","correct":true,"confidence":4},{"trial_n":33,"span":9,"encoder":"196723825","distractor":"196223825","target":"absent","response":"absent","rt":"2552","correct":true,"confidence":3},{"trial_n":34,"span":10,"encoder":"0231239449","distractor":"0231219449","target":"absent","response":"present","rt":"2711","correct":false,"confidence":2},{"trial_n":35,"span":9,"encoder":"229336414","distractor":"529336414","target":"absent","response":"absent","rt":"2954.9999999998","correct":true,"confidence":1},{"trial_n":36,"span":9,"encoder":"927364516","distractor":"967364516","target":"absent","response":"absent","rt":"4280","correct":true,"confidence":2},{"trial_n":37,"span":10,"encoder":"9279583222","distractor":"9299583222","target":"present","response":"present","rt":"1368","correct":true,"confidence":3},{"trial_n":38,"span":10,"encoder":"7687824208","distractor":"7680824208","target":"present","response":"absent","rt":"3674","correct":false,"confidence":3},{"trial_n":39,"span":9,"encoder":"248984022","distractor":"248984062","target":"absent","response":"absent","rt":"1363","correct":true,"confidence":4},{"trial_n":40,"span":9,"encoder":"878393806","distractor":"878393306","target":"present","response":"present","rt":"5369","correct":true,"confidence":2},{"trial_n":41,"span":10,"encoder":"1907327070","distractor":"1907327078","target":"present","response":"present","rt":"4547","correct":true,"confidence":4},{"trial_n":42,"span":10,"encoder":"6834541223","distractor":"6831541223","target":"present","response":"absent","rt":"8807","correct":false,"confidence":3},{"trial_n":43,"span":9,"encoder":"473050494","distractor":"473050424","target":"absent","response":"present","rt":"1605","correct":false,"confidence":3},{"trial_n":44,"span":8,"encoder":"60395114","distractor":"60395154","target":"present","response":"present","rt":"1133.0000000002","correct":true,"confidence":3},{"trial_n":45,"span":8,"encoder":"31486079","distractor":"30486079","target":"present","response":"present","rt":"4223","correct":true,"confidence":4},{"trial_n":46,"span":9,"encoder":"848794760","distractor":"848794260","target":"present","response":"present","rt":"3745.0000000002","correct":true,"confidence":3},{"trial_n":47,"span":9,"encoder":"627613500","distractor":"627683500","target":"absent","response":"present","rt":"4068","correct":false,"confidence":2},{"trial_n":48,"span":8,"encoder":"59011838","distractor":"59011138","target":"absent","response":"absent","rt":"2220","correct":true,"confidence":3},{"trial_n":49,"span":8,"encoder":"27590959","distractor":"27590957","target":"present","response":"present","rt":"1695.0000000002","correct":true,"confidence":3},{"trial_n":50,"span":9,"encoder":"276479596","distractor":"276079596","target":"absent","response":"absent","rt":"1976","correct":true,"confidence":1},{"trial_n":51,"span":9,"encoder":"481335673","distractor":"491335673","target":"absent","response":"absent","rt":"3259.0000000002","correct":true,"confidence":2},{"trial_n":52,"span":10,"encoder":"0833112265","distractor":"0839112265","target":"present","response":"present","rt":"2230","correct":true,"confidence":3},{"trial_n":53,"span":10,"encoder":"1062628636","distractor":"1062623636","target":"absent","response":"absent","rt":"3084.9999999998","correct":true,"confidence":2},{"trial_n":54,"span":11,"encoder":"83759250040","distractor":"93759250040","target":"present","response":"present","rt":"1752.0000000002","correct":true,"confidence":2},{"trial_n":55,"span":11,"encoder":"66116269654","distractor":"46116269654","target":"absent","response":"absent","rt":"1827","correct":true,"confidence":3},{"trial_n":56,"span":12,"encoder":"652125985623","distractor":"652125985633","target":"absent","response":"absent","rt":"3261","correct":true,"confidence":1},{"trial_n":57,"span":12,"encoder":"267501208842","distractor":"267501207842","target":"absent","response":"present","rt":"1880","correct":false,"confidence":2},{"trial_n":58,"span":11,"encoder":"83321035513","distractor":"83321035515","target":"present","response":"present","rt":"1985","correct":true,"confidence":3},{"trial_n":59,"span":11,"encoder":"16481162468","distractor":"16481162478","target":"absent","response":"absent","rt":"2188","correct":true,"confidence":3},{"trial_n":60,"span":12,"encoder":"078866338322","distractor":"071866338322","target":"present","response":"present","rt":"6161","correct":true,"confidence":3},{"trial_n":61,"span":12,"encoder":"031824365080","distractor":"031624365080","target":"present","response":"absent","rt":"4090.9999999998","correct":false,"confidence":2},{"trial_n":62,"span":11,"encoder":"53328150836","distractor":"53228150836","target":"absent","response":"absent","rt":"3503","correct":true,"confidence":3},{"trial_n":63,"span":11,"encoder":"57233239494","distractor":"57243239494","target":"present","response":"present","rt":"2979","correct":true,"confidence":4},{"trial_n":64,"span":12,"encoder":"248821054755","distractor":"248821054756","target":"absent","response":"absent","rt":"1743","correct":true,"confidence":4},{"trial_n":65,"span":12,"encoder":"483716340705","distractor":"483716740705","target":"present","response":"present","rt":"3321","correct":true,"confidence":2},{"trial_n":66,"span":13,"encoder":"3453584816950","distractor":"3453584816910","target":"present","response":"present","rt":"5871","correct":true,"confidence":3},{"trial_n":67,"span":13,"encoder":"4505911446690","distractor":"4505211446690","target":"absent","response":"present","rt":"2365","correct":false,"confidence":1},{"trial_n":68,"span":12,"encoder":"424875594829","distractor":"424875594029","target":"present","response":"absent","rt":"2768","correct":false,"confidence":2},{"trial_n":69,"span":11,"encoder":"30372322141","distractor":"30372322146","target":"present","response":"present","rt":"1824","correct":true,"confidence":2},{"trial_n":70,"span":11,"encoder":"42264560292","distractor":"42264560290","target":"absent","response":"absent","rt":"2163","correct":true,"confidence":2},{"trial_n":71,"span":8,"encoder":"31106882","distractor":"31606882","target":"present","response":"present","rt":"5423","correct":true,"confidence":-1},{"trial_n":72,"span":8,"encoder":"84815068","distractor":"84865068","target":"present","response":"present","rt":"3439","correct":true,"confidence":-1},{"trial_n":73,"span":9,"encoder":"390130619","distractor":"399130619","target":"absent","response":"absent","rt":"3078","correct":true,"confidence":-1},{"trial_n":74,"span":9,"encoder":"870427186","distractor":"870427116","target":"absent","response":"absent","rt":"1604","correct":true,"confidence":-1},{"trial_n":75,"span":10,"encoder":"9366599554","distractor":"9366599514","target":"present","response":"absent","rt":"3315.9999999998","correct":false,"confidence":-1},{"trial_n":76,"span":9,"encoder":"976378053","distractor":"970378053","target":"present","response":"present","rt":"940.99999999977","correct":true,"confidence":-1},{"trial_n":77,"span":9,"encoder":"942902977","distractor":"942901977","target":"present","response":"present","rt":"2959.0000000002","correct":true,"confidence":-1},{"trial_n":78,"span":10,"encoder":"5073463678","distractor":"5073363678","target":"present","response":"absent","rt":"6152.9999999998","correct":false,"confidence":-1},{"trial_n":79,"span":9,"encoder":"182006107","distractor":"182026107","target":"present","response":"present","rt":"2322.9999999998","correct":true,"confidence":-1},{"trial_n":80,"span":9,"encoder":"466882592","distractor":"466852592","target":"present","response":"present","rt":"2640.9999999995","correct":true,"confidence":-1},{"trial_n":81,"span":10,"encoder":"8274346343","distractor":"0274346343","target":"present","response":"present","rt":"2136","correct":true,"confidence":-1},{"trial_n":82,"span":10,"encoder":"2404701505","distractor":"2404771505","target":"absent","response":"present","rt":"2213","correct":false,"confidence":-1},{"trial_n":83,"span":9,"encoder":"272273821","distractor":"202273821","target":"present","response":"absent","rt":"383","correct":false,"confidence":-1},{"trial_n":84,"span":8,"encoder":"72681789","distractor":"72621789","target":"absent","response":"present","rt":"588","correct":false,"confidence":-1},{"trial_n":85,"span":7,"encoder":"5180350","distractor":"5180358","target":"absent","response":"absent","rt":"1175","correct":true,"confidence":-1},{"trial_n":86,"span":7,"encoder":"7649656","distractor":"7449656","target":"absent","response":"absent","rt":"1389.9999999995","correct":true,"confidence":-1},{"trial_n":87,"span":8,"encoder":"74010417","distractor":"74810417","target":"present","response":"absent","rt":"1072.0000000005","correct":false,"confidence":-1},{"trial_n":88,"span":7,"encoder":"7665691","distractor":"7665791","target":"absent","response":"absent","rt":"1877","correct":true,"confidence":-1},{"trial_n":89,"span":7,"encoder":"6254046","distractor":"6254076","target":"absent","response":"absent","rt":"977","correct":true,"confidence":-1},{"trial_n":90,"span":8,"encoder":"55240909","distractor":"55340909","target":"present","response":"absent","rt":"2201","correct":false,"confidence":-1},{"trial_n":91,"span":7,"encoder":"8298271","distractor":"8248271","target":"absent","response":"absent","rt":"2133","correct":true,"confidence":5},{"trial_n":92,"span":7,"encoder":"3917213","distractor":"3917243","target":"absent","response":"absent","rt":"2020.0000000005","correct":true,"confidence":4},{"trial_n":93,"span":8,"encoder":"55630872","distractor":"55630572","target":"absent","response":"absent","rt":"5627","correct":true,"confidence":3},{"trial_n":94,"span":8,"encoder":"67845939","distractor":"67845739","target":"absent","response":"absent","rt":"7597","correct":true,"confidence":3},{"trial_n":95,"span":9,"encoder":"049470634","distractor":"049970634","target":"present","response":"absent","rt":"5094","correct":false,"confidence":2},{"trial_n":96,"span":8,"encoder":"89033974","distractor":"89033774","target":"absent","response":"absent","rt":"3300","correct":true,"confidence":4},{"trial_n":97,"span":8,"encoder":"01778792","distractor":"01772792","target":"present","response":"present","rt":"2511.0000000005","correct":true,"confidence":5},{"trial_n":98,"span":9,"encoder":"069163714","distractor":"061163714","target":"present","response":"present","rt":"4522","correct":true,"confidence":3},{"trial_n":99,"span":9,"encoder":"597695315","distractor":"597697315","target":"absent","response":"present","rt":"8407.0000000005","correct":false,"confidence":2},{"trial_n":100,"span":8,"encoder":"69916142","distractor":"69912142","target":"present","response":"present","rt":"5349","correct":true,"confidence":2},{"trial_n":101,"span":8,"encoder":"07868488","distractor":"07867488","target":"absent","response":"absent","rt":"4588","correct":true,"confidence":4},{"trial_n":102,"span":9,"encoder":"062828905","distractor":"562828905","target":"present","response":"present","rt":"2160.0000000005","correct":true,"confidence":5},{"trial_n":103,"span":9,"encoder":"949968504","distractor":"949968524","target":"absent","response":"absent","rt":"3605","correct":true,"confidence":4},{"trial_n":104,"span":10,"encoder":"5473413660","distractor":"5073413660","target":"present","response":"present","rt":"2678","correct":true,"confidence":4},{"trial_n":105,"span":10,"encoder":"4801512892","distractor":"4801512992","target":"absent","response":"absent","rt":"3530","correct":true,"confidence":5},{"trial_n":106,"span":11,"encoder":"23756008052","distractor":"23756008252","target":"present","response":"present","rt":"3699","correct":true,"confidence":4},{"trial_n":107,"span":11,"encoder":"14141841725","distractor":"16141841725","target":"absent","response":"absent","rt":"1630","correct":true,"confidence":5},{"trial_n":108,"span":12,"encoder":"480873606333","distractor":"460873606333","target":"present","response":"absent","rt":"5361","correct":false,"confidence":2},{"trial_n":109,"span":11,"encoder":"94873016939","distractor":"94873016938","target":"present","response":"present","rt":"2098.9999999995","correct":true,"confidence":5},{"trial_n":110,"span":11,"encoder":"10445246072","distractor":"10445246074","target":"present","response":"absent","rt":"6578","correct":false,"confidence":1},{"trial_n":111,"span":10,"encoder":"8314000639","distractor":"8314000649","target":"absent","response":"absent","rt":"3922","correct":true,"confidence":4},{"trial_n":112,"span":10,"encoder":"1946843919","distractor":"1646843919","target":"present","response":"absent","rt":"3352","correct":false,"confidence":3},{"trial_n":113,"span":9,"encoder":"343893563","distractor":"343793563","target":"present","response":"present","rt":"2508","correct":true,"confidence":4},{"trial_n":114,"span":9,"encoder":"832369777","distractor":"832379777","target":"absent","response":"absent","rt":"3714","correct":true,"confidence":5},{"trial_n":115,"span":10,"encoder":"9629735877","distractor":"9629635877","target":"absent","response":"absent","rt":"5629","correct":true,"confidence":2},{"trial_n":116,"span":10,"encoder":"6946001294","distractor":"6946009294","target":"absent","response":"absent","rt":"2329","correct":true,"confidence":5},{"trial_n":117,"span":11,"encoder":"38846443035","distractor":"38866443035","target":"present","response":"present","rt":"5784","correct":true,"confidence":3},{"trial_n":118,"span":11,"encoder":"62384360143","distractor":"62484360143","target":"present","response":"present","rt":"3469","correct":true,"confidence":1},{"trial_n":119,"span":12,"encoder":"666394978733","distractor":"666394979733","target":"absent","response":"present","rt":"5290","correct":false,"confidence":4},{"trial_n":120,"span":11,"encoder":"84820232505","distractor":"74820232505","target":"present","response":"absent","rt":"3210","correct":false,"confidence":2},{"trial_n":121,"span":10,"encoder":"8549584076","distractor":"4549584076","target":"absent","response":"absent","rt":"3050.9999999991","correct":true,"confidence":2},{"trial_n":122,"span":10,"encoder":"7825232169","distractor":"7822232169","target":"absent","response":"absent","rt":"2659","correct":true,"confidence":4},{"trial_n":123,"span":11,"encoder":"16233928682","distractor":"16237928682","target":"present","response":"present","rt":"2919.9999999991","correct":true,"confidence":3},{"trial_n":124,"span":11,"encoder":"10521647710","distractor":"10521447710","target":"present","response":"present","rt":"4794","correct":true,"confidence":2},{"trial_n":125,"span":12,"encoder":"976416173871","distractor":"576416173871","target":"absent","response":"absent","rt":"3446","correct":true,"confidence":1},{"trial_n":126,"span":12,"encoder":"373468027596","distractor":"373668027596","target":"absent","response":"absent","rt":"2120","correct":true,"confidence":4},{"trial_n":127,"span":13,"encoder":"7363107002238","distractor":"8363107002238","target":"absent","response":"absent","rt":"3627.9999999991","correct":true,"confidence":3},{"trial_n":128,"span":13,"encoder":"0828007928779","distractor":"0828007928772","target":"absent","response":"absent","rt":"2983","correct":true,"confidence":4},{"trial_n":129,"span":14,"encoder":"29645945427236","distractor":"29645945426236","target":"absent","response":"absent","rt":"2308","correct":true,"confidence":4},{"trial_n":130,"span":14,"encoder":"80808757149972","distractor":"80808757129972","target":"absent","response":"present","rt":"6306.0000000009","correct":false,"confidence":1},{"trial_n":131,"span":13,"encoder":"0937084825258","distractor":"0934084825258","target":"present","response":"absent","rt":"1312.0000000009","correct":false,"confidence":2},{"trial_n":132,"span":12,"encoder":"621093207767","distractor":"621093207787","target":"present","response":"absent","rt":"2771","correct":false,"confidence":1},{"trial_n":133,"span":11,"encoder":"43086754061","distractor":"43006754061","target":"present","response":"absent","rt":"6779","correct":false,"confidence":2},{"trial_n":134,"span":10,"encoder":"0313020729","distractor":"0313020799","target":"present","response":"present","rt":"7117","correct":true,"confidence":2},{"trial_n":135,"span":10,"encoder":"7022125009","distractor":"7022123009","target":"present","response":"present","rt":"4871.9999999991","correct":true,"confidence":3},{"trial_n":136,"span":11,"encoder":"88561608839","distractor":"88561608829","target":"absent","response":"absent","rt":"4106","correct":true,"confidence":3},{"trial_n":137,"span":11,"encoder":"82925730155","distractor":"82925770155","target":"present","response":"absent","rt":"3461.0000000009","correct":false,"confidence":2},{"trial_n":138,"span":10,"encoder":"5256775692","distractor":"5256779692","target":"present","response":"absent","rt":"5291","correct":false,"confidence":2},{"trial_n":139,"span":9,"encoder":"315914192","distractor":"345914192","target":"absent","response":"absent","rt":"3159","correct":true,"confidence":3},{"trial_n":140,"span":9,"encoder":"365669468","distractor":"365659468","target":"absent","response":"present","rt":"8695","correct":false,"confidence":2}]