[{"trial_n":1,"span":8,"encoder":"78024522","distractor":"38024522","target":"present","response":"absent","rt":"4554279.5999999","correct":false,"confidence":-1},{"trial_n":2,"span":6,"encoder":"019798","distractor":"019799","target":"present","response":"present","rt":"1948.8999998569","correct":true,"confidence":-1},{"trial_n":3,"span":6,"encoder":"879167","distractor":"876167","target":"absent","response":"absent","rt":"3173.5999999046","correct":true,"confidence":-1},{"trial_n":4,"span":8,"encoder":"13029724","distractor":"13229724","target":"absent","response":"absent","rt":"4006","correct":true,"confidence":-1},{"trial_n":5,"span":8,"encoder":"77397432","distractor":"77387432","target":"present","response":"absent","rt":"13441.900000095","correct":false,"confidence":-1},{"trial_n":6,"span":6,"encoder":"929922","distractor":"429922","target":"absent","response":"present","rt":"1980.6000001431","correct":false,"confidence":-1},{"trial_n":7,"span":4,"encoder":"8988","distractor":"3988","target":"present","response":"present","rt":"2512.7000000477","correct":true,"confidence":-1},{"trial_n":8,"span":4,"encoder":"6740","distractor":"4740","target":"present","response":"present","rt":"241154.20000005","correct":true,"confidence":-1},{"trial_n":9,"span":6,"encoder":"789011","distractor":"789811","target":"absent","response":"absent","rt":"1900.4000000954","correct":true,"confidence":-1},{"trial_n":10,"span":6,"encoder":"959313","distractor":"929313","target":"absent","response":"present","rt":"16928.299999952","correct":false,"confidence":-1},{"trial_n":11,"span":4,"encoder":"4910","distractor":"4970","target":"absent","response":"absent","rt":"3705.7999999523","correct":true,"confidence":-1},{"trial_n":12,"span":4,"encoder":"7851","distractor":"7811","target":"absent","response":"absent","rt":"4005.9000000954","correct":true,"confidence":-1},{"trial_n":13,"span":5,"encoder":"72303","distractor":"72308","target":"absent","response":"absent","rt":"2499.2999999523","correct":true,"confidence":-1},{"trial_n":14,"span":5,"encoder":"24530","distractor":"94530","target":"present","response":"present","rt":"3285.2999999523","correct":true,"confidence":-1},{"trial_n":15,"span":6,"encoder":"091823","distractor":"291823","target":"absent","response":"present","rt":"75646.5","correct":false,"confidence":-1},{"trial_n":16,"span":5,"encoder":"93620","distractor":"96620","target":"absent","response":"absent","rt":"4178.3999998569","correct":true,"confidence":-1},{"trial_n":17,"span":5,"encoder":"62177","distractor":"68177","target":"present","response":"present","rt":"1585.5999999046","correct":true,"confidence":-1},{"trial_n":18,"span":6,"encoder":"222469","distractor":"202469","target":"absent","response":"absent","rt":"563412.70000005","correct":true,"confidence":-1},{"trial_n":19,"span":6,"encoder":"465178","distractor":"465778","target":"present","response":"present","rt":"8940.7000000477","correct":true,"confidence":-1},{"trial_n":20,"span":7,"encoder":"8547187","distractor":"8547177","target":"present","response":"present","rt":"96470.400000095","correct":true,"confidence":-1},{"trial_n":21,"span":7,"encoder":"5228697","distractor":"5228397","target":"present","response":"absent","rt":"2813.5","correct":false,"confidence":3},{"trial_n":22,"span":6,"encoder":"853398","distractor":"852398","target":"present","response":"absent","rt":"114779.79999995","correct":false,"confidence":1},{"trial_n":23,"span":5,"encoder":"42362","distractor":"42363","target":"present","response":"present","rt":"24283.099999905","correct":true,"confidence":4},{"trial_n":24,"span":5,"encoder":"29409","distractor":"29309","target":"present","response":"present","rt":"16985.299999952","correct":true,"confidence":4},{"trial_n":25,"span":6,"encoder":"927931","distractor":"927933","target":"present","response":"present","rt":"4485.3999998569","correct":true,"confidence":4},{"trial_n":26,"span":6,"encoder":"797572","distractor":"997572","target":"present","response":"present","rt":"1861.5","correct":true,"confidence":5},{"trial_n":27,"span":7,"encoder":"0666356","distractor":"0666256","target":"absent","response":"present","rt":"5918.7000000477","correct":false,"confidence":4},{"trial_n":28,"span":6,"encoder":"267353","distractor":"277353","target":"absent","response":"present","rt":"9360.2000000477","correct":false,"confidence":3},{"trial_n":29,"span":5,"encoder":"53999","distractor":"53899","target":"absent","response":"absent","rt":"1868.6000001431","correct":true,"confidence":4},{"trial_n":30,"span":5,"encoder":"65794","distractor":"65796","target":"absent","response":"absent","rt":"2945.2999999523","correct":true,"confidence":4},{"trial_n":31,"span":6,"encoder":"840040","distractor":"841040","target":"absent","response":"absent","rt":"2133.2999999523","correct":true,"confidence":5},{"trial_n":32,"span":6,"encoder":"377899","distractor":"377890","target":"present","response":"present","rt":"16046.700000048","correct":true,"confidence":4},{"trial_n":33,"span":7,"encoder":"5490936","distractor":"5490836","target":"present","response":"present","rt":"1946.6000001431","correct":true,"confidence":5},{"trial_n":34,"span":7,"encoder":"4523861","distractor":"4523261","target":"present","response":"present","rt":"2573.5","correct":true,"confidence":4},{"trial_n":35,"span":8,"encoder":"50691495","distractor":"40691495","target":"present","response":"absent","rt":"76770.899999857","correct":false,"confidence":3},{"trial_n":36,"span":7,"encoder":"3351253","distractor":"3351252","target":"present","response":"present","rt":"20591.200000048","correct":true,"confidence":4},{"trial_n":37,"span":7,"encoder":"2216989","distractor":"2226989","target":"absent","response":"absent","rt":"4483.4000000954","correct":true,"confidence":3},{"trial_n":38,"span":8,"encoder":"85084841","distractor":"85084741","target":"present","response":"present","rt":"11934.799999952","correct":true,"confidence":4},{"trial_n":39,"span":8,"encoder":"42195209","distractor":"52195209","target":"present","response":"present","rt":"2137.1000001431","correct":true,"confidence":4},{"trial_n":40,"span":9,"encoder":"778797245","distractor":"778797243","target":"absent","response":"present","rt":"13264.400000095","correct":false,"confidence":4},{"trial_n":41,"span":8,"encoder":"36352321","distractor":"36252321","target":"present","response":"present","rt":"8449.7000000477","correct":true,"confidence":4},{"trial_n":42,"span":8,"encoder":"54555157","distractor":"54595157","target":"absent","response":"present","rt":"187775.79999995","correct":false,"confidence":1},{"trial_n":43,"span":7,"encoder":"7285033","distractor":"7285133","target":"absent","response":"absent","rt":"3200.5","correct":true,"confidence":5},{"trial_n":44,"span":7,"encoder":"7498849","distractor":"7498847","target":"present","response":"present","rt":"1517","correct":true,"confidence":4},{"trial_n":45,"span":8,"encoder":"50114340","distractor":"00114340","target":"absent","response":"absent","rt":"12800","correct":true,"confidence":4},{"trial_n":46,"span":8,"encoder":"81462117","distractor":"81462112","target":"absent","response":"absent","rt":"2340","correct":true,"confidence":5},{"trial_n":47,"span":9,"encoder":"962756873","distractor":"662756873","target":"absent","response":"absent","rt":"35112.899999857","correct":true,"confidence":1},{"trial_n":48,"span":9,"encoder":"895701214","distractor":"895701218","target":"absent","response":"absent","rt":"1758.2999999523","correct":true,"confidence":4},{"trial_n":49,"span":10,"encoder":"9668931743","distractor":"9668931747","target":"absent","response":"absent","rt":"5614.3000001907","correct":true,"confidence":4},{"trial_n":50,"span":10,"encoder":"8923468568","distractor":"8623468568","target":"present","response":"present","rt":"2063.2000000477","correct":true,"confidence":4},{"trial_n":51,"span":11,"encoder":"96736095601","distractor":"92736095601","target":"present","response":"present","rt":"2266.7000000477","correct":true,"confidence":4},{"trial_n":52,"span":11,"encoder":"38808685209","distractor":"38208685209","target":"absent","response":"present","rt":"1988.2999999523","correct":false,"confidence":2},{"trial_n":53,"span":10,"encoder":"1296444637","distractor":"1196444637","target":"present","response":"absent","rt":"105751.39999986","correct":false,"confidence":1},{"trial_n":54,"span":9,"encoder":"306377612","distractor":"306347612","target":"present","response":"absent","rt":"2784.1999998093","correct":false,"confidence":2},{"trial_n":55,"span":8,"encoder":"33303946","distractor":"33203946","target":"present","response":"present","rt":"2940.8999998569","correct":true,"confidence":4},{"trial_n":56,"span":8,"encoder":"83579818","distractor":"83579868","target":"present","response":"present","rt":"7875.5","correct":true,"confidence":2},{"trial_n":57,"span":9,"encoder":"779879785","distractor":"779849785","target":"absent","response":"absent","rt":"5619.4000000954","correct":true,"confidence":3},{"trial_n":58,"span":9,"encoder":"137268291","distractor":"637268291","target":"absent","response":"present","rt":"3202.4000000954","correct":false,"confidence":2},{"trial_n":59,"span":8,"encoder":"47742377","distractor":"47742357","target":"present","response":"present","rt":"2112.9000000954","correct":true,"confidence":4},{"trial_n":60,"span":8,"encoder":"17780159","distractor":"67780159","target":"absent","response":"present","rt":"1781.8999998569","correct":false,"confidence":3},{"trial_n":61,"span":7,"encoder":"2316447","distractor":"2314447","target":"absent","response":"present","rt":"10972.400000095","correct":false,"confidence":2},{"trial_n":62,"span":6,"encoder":"759532","distractor":"759538","target":"present","response":"absent","rt":"27647.799999952","correct":false,"confidence":1},{"trial_n":63,"span":5,"encoder":"82092","distractor":"85092","target":"present","response":"present","rt":"1445.2000000477","correct":true,"confidence":4},{"trial_n":64,"span":5,"encoder":"22001","distractor":"22101","target":"absent","response":"present","rt":"2585.7999999523","correct":false,"confidence":3},{"trial_n":65,"span":4,"encoder":"5603","distractor":"5693","target":"absent","response":"present","rt":"2498","correct":false,"confidence":3},{"trial_n":66,"span":3,"encoder":"544","distractor":"534","target":"absent","response":"absent","rt":"1464.5","correct":true,"confidence":2},{"trial_n":67,"span":3,"encoder":"699","distractor":"698","target":"absent","response":"absent","rt":"15779.700000048","correct":true,"confidence":1},{"trial_n":68,"span":4,"encoder":"7347","distractor":"7367","target":"present","response":"present","rt":"4140.3000001907","correct":true,"confidence":3},{"trial_n":69,"span":4,"encoder":"3138","distractor":"3178","target":"present","response":"present","rt":"1365.7000000477","correct":true,"confidence":4},{"trial_n":70,"span":5,"encoder":"79131","distractor":"71131","target":"present","response":"present","rt":"1102.7000000477","correct":true,"confidence":4},{"trial_n":71,"span":8,"encoder":"47684962","distractor":"47684963","target":"present","response":"present","rt":"8038.8999998569","correct":true,"confidence":-1},{"trial_n":72,"span":8,"encoder":"33701975","distractor":"83701975","target":"present","response":"present","rt":"4292","correct":true,"confidence":-1},{"trial_n":73,"span":9,"encoder":"339738195","distractor":"139738195","target":"absent","response":"absent","rt":"2194.6000001431","correct":true,"confidence":-1},{"trial_n":74,"span":9,"encoder":"872754800","distractor":"872754807","target":"absent","response":"absent","rt":"2914.0999999046","correct":true,"confidence":-1},{"trial_n":75,"span":10,"encoder":"4481043997","distractor":"4481043998","target":"present","response":"present","rt":"2786.5999999046","correct":true,"confidence":-1},{"trial_n":76,"span":10,"encoder":"3961334236","distractor":"3961332236","target":"present","response":"absent","rt":"2862.6000001431","correct":false,"confidence":-1},{"trial_n":77,"span":9,"encoder":"699308255","distractor":"698308255","target":"absent","response":"present","rt":"5308.9000000954","correct":false,"confidence":-1},{"trial_n":78,"span":8,"encoder":"41394033","distractor":"91394033","target":"absent","response":"present","rt":"2834.7000000477","correct":false,"confidence":-1},{"trial_n":79,"span":7,"encoder":"1735656","distractor":"1739656","target":"present","response":"present","rt":"4847.7000000477","correct":true,"confidence":-1},{"trial_n":80,"span":7,"encoder":"5589585","distractor":"5789585","target":"present","response":"present","rt":"3340.2000000477","correct":true,"confidence":-1},{"trial_n":81,"span":8,"encoder":"95203438","distractor":"95803438","target":"absent","response":"present","rt":"4303.0999999046","correct":false,"confidence":-1},{"trial_n":82,"span":7,"encoder":"6364747","distractor":"6364737","target":"present","response":"present","rt":"2454.3999998569","correct":true,"confidence":-1},{"trial_n":83,"span":7,"encoder":"8350914","distractor":"8350913","target":"present","response":"absent","rt":"3024.0999999046","correct":false,"confidence":-1},{"trial_n":84,"span":6,"encoder":"840939","distractor":"840339","target":"present","response":"present","rt":"3020.2999999523","correct":true,"confidence":-1},{"trial_n":85,"span":6,"encoder":"682065","distractor":"682066","target":"absent","response":"absent","rt":"3294.5","correct":true,"confidence":-1},{"trial_n":86,"span":7,"encoder":"9650727","distractor":"9050727","target":"present","response":"present","rt":"4971.8999998569","correct":true,"confidence":-1},{"trial_n":87,"span":7,"encoder":"7230376","distractor":"7230374","target":"absent","response":"absent","rt":"2298.3999998569","correct":true,"confidence":-1},{"trial_n":88,"span":8,"encoder":"51750935","distractor":"58750935","target":"absent","response":"present","rt":"2508.5","correct":false,"confidence":-1},{"trial_n":89,"span":7,"encoder":"9738275","distractor":"9238275","target":"absent","response":"absent","rt":"3844.6999998093","correct":true,"confidence":-1},{"trial_n":90,"span":7,"encoder":"3654697","distractor":"3654897","target":"present","response":"present","rt":"5453.3999998569","correct":true,"confidence":-1},{"trial_n":91,"span":8,"encoder":"27777171","distractor":"27737171","target":"present","response":"absent","rt":"5143.5","correct":false,"confidence":3},{"trial_n":92,"span":7,"encoder":"7686375","distractor":"7286375","target":"absent","response":"present","rt":"10929.5","correct":false,"confidence":3},{"trial_n":93,"span":6,"encoder":"020168","distractor":"020138","target":"present","response":"present","rt":"5627.7999999523","correct":true,"confidence":3},{"trial_n":94,"span":6,"encoder":"471212","distractor":"471218","target":"absent","response":"present","rt":"8434","correct":false,"confidence":3},{"trial_n":95,"span":5,"encoder":"87173","distractor":"87973","target":"absent","response":"present","rt":"17593.800000191","correct":false,"confidence":3},{"trial_n":96,"span":4,"encoder":"5630","distractor":"2630","target":"absent","response":"absent","rt":"6431.2000000477","correct":true,"confidence":3},{"trial_n":97,"span":4,"encoder":"1667","distractor":"2667","target":"absent","response":"absent","rt":"2974.0999999046","correct":true,"confidence":3},{"trial_n":98,"span":5,"encoder":"70239","distractor":"20239","target":"absent","response":"absent","rt":"5215.8000001907","correct":true,"confidence":4},{"trial_n":99,"span":5,"encoder":"77644","distractor":"37644","target":"present","response":"present","rt":"3664","correct":true,"confidence":3},{"trial_n":100,"span":6,"encoder":"357913","distractor":"357413","target":"present","response":"absent","rt":"4165.4000000954","correct":false,"confidence":4},{"trial_n":101,"span":5,"encoder":"38563","distractor":"38593","target":"absent","response":"absent","rt":"2554.4000000954","correct":true,"confidence":4},{"trial_n":102,"span":5,"encoder":"55331","distractor":"55031","target":"present","response":"present","rt":"1391.7000000477","correct":true,"confidence":4},{"trial_n":103,"span":6,"encoder":"451434","distractor":"351434","target":"present","response":"absent","rt":"2561","correct":false,"confidence":4},{"trial_n":104,"span":5,"encoder":"59264","distractor":"59269","target":"present","response":"present","rt":"1973","correct":true,"confidence":4},{"trial_n":105,"span":5,"encoder":"69560","distractor":"79560","target":"present","response":"present","rt":"2521.5","correct":true,"confidence":4},{"trial_n":106,"span":6,"encoder":"535984","distractor":"535988","target":"present","response":"present","rt":"3123.0999999046","correct":true,"confidence":4},{"trial_n":107,"span":6,"encoder":"720044","distractor":"920044","target":"absent","response":"present","rt":"8450.3999998569","correct":false,"confidence":4},{"trial_n":108,"span":5,"encoder":"23958","distractor":"73958","target":"absent","response":"absent","rt":"5880.0999999046","correct":true,"confidence":4},{"trial_n":109,"span":5,"encoder":"32496","distractor":"32396","target":"present","response":"present","rt":"3836.7999999523","correct":true,"confidence":4},{"trial_n":110,"span":6,"encoder":"665910","distractor":"665914","target":"absent","response":"absent","rt":"2057","correct":true,"confidence":3},{"trial_n":111,"span":6,"encoder":"640270","distractor":"641270","target":"absent","response":"absent","rt":"2481.7999999523","correct":true,"confidence":4},{"trial_n":112,"span":7,"encoder":"3775061","distractor":"6775061","target":"absent","response":"absent","rt":"2187.2000000477","correct":true,"confidence":1},{"trial_n":113,"span":7,"encoder":"8600005","distractor":"8800005","target":"present","response":"present","rt":"9306.5","correct":true,"confidence":3},{"trial_n":114,"span":8,"encoder":"33708791","distractor":"34708791","target":"present","response":"absent","rt":"2729","correct":false,"confidence":3},{"trial_n":115,"span":7,"encoder":"5530931","distractor":"5532931","target":"present","response":"present","rt":"8098.3999998569","correct":true,"confidence":3},{"trial_n":116,"span":7,"encoder":"2328999","distractor":"2328997","target":"present","response":"absent","rt":"36545.399999857","correct":false,"confidence":1},{"trial_n":117,"span":6,"encoder":"341698","distractor":"341198","target":"present","response":"present","rt":"2840.7000000477","correct":true,"confidence":4},{"trial_n":118,"span":6,"encoder":"937147","distractor":"937142","target":"absent","response":"absent","rt":"9597.7000000477","correct":true,"confidence":1},{"trial_n":119,"span":7,"encoder":"7666265","distractor":"7666263","target":"present","response":"present","rt":"1910.8999998569","correct":true,"confidence":4},{"trial_n":120,"span":7,"encoder":"3450527","distractor":"3450927","target":"absent","response":"absent","rt":"4103.1999998093","correct":true,"confidence":4},{"trial_n":121,"span":8,"encoder":"51673312","distractor":"51673362","target":"absent","response":"absent","rt":"4179.2000000477","correct":true,"confidence":4},{"trial_n":122,"span":8,"encoder":"97155494","distractor":"91155494","target":"absent","response":"absent","rt":"4263.7999999523","correct":true,"confidence":1},{"trial_n":123,"span":9,"encoder":"305720542","distractor":"005720542","target":"present","response":"present","rt":"5106","correct":true,"confidence":1},{"trial_n":124,"span":9,"encoder":"554080474","distractor":"556080474","target":"present","response":"absent","rt":"5354.2999999523","correct":false,"confidence":1},{"trial_n":125,"span":8,"encoder":"23149576","distractor":"23129576","target":"absent","response":"present","rt":"6407.4000000954","correct":false,"confidence":1},{"trial_n":126,"span":7,"encoder":"5846509","distractor":"5746509","target":"absent","response":"present","rt":"3194.7000000477","correct":false,"confidence":1},{"trial_n":127,"span":6,"encoder":"842563","distractor":"842573","target":"present","response":"present","rt":"4061.6999998093","correct":true,"confidence":1},{"trial_n":128,"span":6,"encoder":"941180","distractor":"741180","target":"absent","response":"present","rt":"6487.2000000477","correct":false,"confidence":1},{"trial_n":129,"span":5,"encoder":"67246","distractor":"97246","target":"absent","response":"present","rt":"3342.2000000477","correct":false,"confidence":1},{"trial_n":130,"span":4,"encoder":"4817","distractor":"4847","target":"present","response":"absent","rt":"15764","correct":false,"confidence":1},{"trial_n":131,"span":3,"encoder":"956","distractor":"456","target":"absent","response":"absent","rt":"1763.6999998093","correct":true,"confidence":4},{"trial_n":132,"span":3,"encoder":"759","distractor":"959","target":"present","response":"present","rt":"4524.1999998093","correct":true,"confidence":1},{"trial_n":133,"span":4,"encoder":"1008","distractor":"7008","target":"present","response":"present","rt":"1282.5","correct":true,"confidence":5},{"trial_n":134,"span":4,"encoder":"9853","distractor":"9253","target":"present","response":"present","rt":"1638.9000000954","correct":true,"confidence":5},{"trial_n":135,"span":5,"encoder":"60528","distractor":"60520","target":"absent","response":"absent","rt":"39596.299999952","correct":true,"confidence":4},{"trial_n":136,"span":5,"encoder":"30653","distractor":"30651","target":"present","response":"present","rt":"2485.8000001907","correct":true,"confidence":4},{"trial_n":137,"span":6,"encoder":"579727","distractor":"579737","target":"absent","response":"absent","rt":"1807.4000000954","correct":true,"confidence":4},{"trial_n":138,"span":6,"encoder":"372638","distractor":"332638","target":"present","response":"present","rt":"2500","correct":true,"confidence":4},{"trial_n":139,"span":7,"encoder":"1104572","distractor":"1134572","target":"absent","response":"absent","rt":"3484","correct":true,"confidence":4},{"trial_n":140,"span":7,"encoder":"5659085","distractor":"5659080","target":"absent","response":"absent","rt":"2690.6999998093","correct":true,"confidence":4}]