[{"trial_n":1,"n_dots":4.25,"target":"left","response":"right","rt":3860.7000000477,"correct":false,"confidence":-1},{"trial_n":2,"n_dots":4.25,"target":"left","response":"left","rt":1256.2000000477,"correct":true,"confidence":-1},{"trial_n":3,"n_dots":4.25,"target":"right","response":"right","rt":1100.8000001907,"correct":true,"confidence":-1},{"trial_n":4,"n_dots":3.85,"target":"left","response":"left","rt":965.59999990463,"correct":true,"confidence":-1},{"trial_n":5,"n_dots":3.85,"target":"right","response":"right","rt":2002,"correct":true,"confidence":-1},{"trial_n":6,"n_dots":3.45,"target":"right","response":"right","rt":908.89999985695,"correct":true,"confidence":-1},{"trial_n":7,"n_dots":3.45,"target":"left","response":"right","rt":1018.1000001431,"correct":false,"confidence":-1},{"trial_n":8,"n_dots":3.65,"target":"right","response":"right","rt":1527.5,"correct":true,"confidence":-1},{"trial_n":9,"n_dots":3.65,"target":"right","response":"left","rt":1060.8999998569,"correct":false,"confidence":-1},{"trial_n":10,"n_dots":3.85,"target":"right","response":"right","rt":771.29999995232,"correct":true,"confidence":-1},{"trial_n":11,"n_dots":3.85,"target":"left","response":"left","rt":833,"correct":true,"confidence":-1},{"trial_n":12,"n_dots":3.65,"target":"right","response":"left","rt":791.39999985695,"correct":false,"confidence":-1},{"trial_n":13,"n_dots":3.75,"target":"right","response":"right","rt":4320.5,"correct":true,"confidence":-1},{"trial_n":14,"n_dots":3.75,"target":"right","response":"left","rt":762.59999990463,"correct":false,"confidence":-1},{"trial_n":15,"n_dots":3.85,"target":"right","response":"right","rt":755,"correct":true,"confidence":-1},{"trial_n":16,"n_dots":3.85,"target":"left","response":"left","rt":900.79999995232,"correct":true,"confidence":-1},{"trial_n":17,"n_dots":3.75,"target":"left","response":"left","rt":445.40000009537,"correct":true,"confidence":-1},{"trial_n":18,"n_dots":3.75,"target":"right","response":"left","rt":638.90000009537,"correct":false,"confidence":-1},{"trial_n":19,"n_dots":3.85,"target":"right","response":"right","rt":1217.2000000477,"correct":true,"confidence":-1},{"trial_n":20,"n_dots":3.85,"target":"left","response":"left","rt":817.5,"correct":true,"confidence":-1},{"trial_n":21,"n_dots":3.75,"target":"left","response":"left","rt":743.79999995232,"correct":true,"confidence":3},{"trial_n":22,"n_dots":3.75,"target":"right","response":"left","rt":807.29999995232,"correct":false,"confidence":4},{"trial_n":23,"n_dots":3.85,"target":"right","response":"left","rt":806.30000019073,"correct":false,"confidence":4},{"trial_n":24,"n_dots":3.95,"target":"right","response":"left","rt":2096.9000000954,"correct":false,"confidence":2},{"trial_n":25,"n_dots":4.05,"target":"right","response":"left","rt":2085.7000000477,"correct":false,"confidence":1},{"trial_n":26,"n_dots":4.15,"target":"right","response":"left","rt":1837.1000001431,"correct":false,"confidence":4},{"trial_n":27,"n_dots":4.25,"target":"right","response":"right","rt":1372.2999999523,"correct":true,"confidence":1},{"trial_n":28,"n_dots":4.25,"target":"right","response":"right","rt":3203,"correct":true,"confidence":1},{"trial_n":29,"n_dots":4.15,"target":"left","response":"left","rt":999.29999995232,"correct":true,"confidence":4},{"trial_n":30,"n_dots":4.15,"target":"right","response":"left","rt":1062,"correct":false,"confidence":3},{"trial_n":31,"n_dots":4.25,"target":"right","response":"left","rt":899.89999985695,"correct":false,"confidence":2},{"trial_n":32,"n_dots":4.35,"target":"right","response":"right","rt":3171.7999999523,"correct":true,"confidence":3},{"trial_n":33,"n_dots":4.35,"target":"left","response":"left","rt":911.90000009537,"correct":true,"confidence":5},{"trial_n":34,"n_dots":4.25,"target":"right","response":"left","rt":963,"correct":false,"confidence":3},{"trial_n":35,"n_dots":4.35,"target":"right","response":"right","rt":1944.4000000954,"correct":true,"confidence":2},{"trial_n":36,"n_dots":4.35,"target":"left","response":"left","rt":931.10000014305,"correct":true,"confidence":5},{"trial_n":37,"n_dots":4.25,"target":"left","response":"left","rt":877,"correct":true,"confidence":5},{"trial_n":38,"n_dots":4.25,"target":"left","response":"left","rt":1034.5,"correct":true,"confidence":5},{"trial_n":39,"n_dots":4.15,"target":"left","response":"left","rt":658.5,"correct":true,"confidence":5},{"trial_n":40,"n_dots":4.15,"target":"left","response":"left","rt":660.39999985695,"correct":true,"confidence":5},{"trial_n":41,"n_dots":4.05,"target":"left","response":"left","rt":706.40000009537,"correct":true,"confidence":4},{"trial_n":42,"n_dots":4.05,"target":"right","response":"left","rt":476.59999990463,"correct":false,"confidence":4},{"trial_n":43,"n_dots":4.15,"target":"left","response":"left","rt":684.89999985695,"correct":true,"confidence":4},{"trial_n":44,"n_dots":4.15,"target":"right","response":"right","rt":1065.7000000477,"correct":true,"confidence":3},{"trial_n":45,"n_dots":4.05,"target":"left","response":"left","rt":916.70000004768,"correct":true,"confidence":4},{"trial_n":46,"n_dots":4.05,"target":"right","response":"right","rt":930.80000019073,"correct":true,"confidence":4},{"trial_n":47,"n_dots":3.95,"target":"left","response":"left","rt":970.29999995232,"correct":true,"confidence":4},{"trial_n":48,"n_dots":3.95,"target":"left","response":"left","rt":824,"correct":true,"confidence":4},{"trial_n":49,"n_dots":3.85,"target":"right","response":"right","rt":2069.6000001431,"correct":true,"confidence":1},{"trial_n":50,"n_dots":3.85,"target":"left","response":"left","rt":708.20000004768,"correct":true,"confidence":4},{"trial_n":51,"n_dots":3.75,"target":"left","response":"left","rt":662.70000004768,"correct":true,"confidence":3},{"trial_n":52,"n_dots":3.75,"target":"right","response":"left","rt":1094.7999999523,"correct":false,"confidence":3},{"trial_n":53,"n_dots":3.85,"target":"left","response":"left","rt":433.09999990463,"correct":true,"confidence":4},{"trial_n":54,"n_dots":3.85,"target":"left","response":"left","rt":534.80000019073,"correct":true,"confidence":4},{"trial_n":55,"n_dots":3.75,"target":"left","response":"left","rt":766.40000009537,"correct":true,"confidence":3},{"trial_n":56,"n_dots":3.75,"target":"left","response":"left","rt":778.60000014305,"correct":true,"confidence":3},{"trial_n":57,"n_dots":3.65,"target":"right","response":"right","rt":775.59999990463,"correct":true,"confidence":3},{"trial_n":58,"n_dots":3.65,"target":"right","response":"right","rt":846.20000004768,"correct":true,"confidence":2},{"trial_n":59,"n_dots":3.55,"target":"left","response":"left","rt":600.20000004768,"correct":true,"confidence":3},{"trial_n":60,"n_dots":3.55,"target":"left","response":"left","rt":1053.0999999046,"correct":true,"confidence":3},{"trial_n":61,"n_dots":3.45,"target":"left","response":"left","rt":957.5,"correct":true,"confidence":1},{"trial_n":62,"n_dots":3.45,"target":"left","response":"left","rt":691,"correct":true,"confidence":1},{"trial_n":63,"n_dots":3.35,"target":"right","response":"right","rt":1547.6000001431,"correct":true,"confidence":1},{"trial_n":64,"n_dots":3.35,"target":"right","response":"left","rt":1603.4000000954,"correct":false,"confidence":1},{"trial_n":65,"n_dots":3.45,"target":"right","response":"right","rt":1096.5999999046,"correct":true,"confidence":2},{"trial_n":66,"n_dots":3.45,"target":"right","response":"right","rt":1298.5,"correct":true,"confidence":1},{"trial_n":67,"n_dots":3.35,"target":"left","response":"left","rt":1037.9000000954,"correct":true,"confidence":1},{"trial_n":68,"n_dots":3.35,"target":"right","response":"right","rt":1131.5999999046,"correct":true,"confidence":1},{"trial_n":69,"n_dots":3.25,"target":"left","response":"left","rt":931.29999995232,"correct":true,"confidence":3},{"trial_n":70,"n_dots":3.25,"target":"right","response":"left","rt":1094.3000001907,"correct":false,"confidence":1},{"trial_n":71,"n_dots":3.35,"target":"left","response":"left","rt":860.29999995232,"correct":true,"confidence":3},{"trial_n":72,"n_dots":3.35,"target":"left","response":"left","rt":833.90000009537,"correct":true,"confidence":3},{"trial_n":73,"n_dots":3.25,"target":"left","response":"left","rt":1072.5,"correct":true,"confidence":3},{"trial_n":74,"n_dots":3.25,"target":"left","response":"right","rt":1207.2000000477,"correct":false,"confidence":2},{"trial_n":75,"n_dots":3.35,"target":"left","response":"left","rt":663.79999995232,"correct":true,"confidence":3},{"trial_n":76,"n_dots":3.35,"target":"right","response":"left","rt":1253.0999999046,"correct":false,"confidence":1},{"trial_n":77,"n_dots":3.45,"target":"right","response":"left","rt":828.89999985695,"correct":false,"confidence":2},{"trial_n":78,"n_dots":3.55,"target":"left","response":"left","rt":752.5,"correct":true,"confidence":2},{"trial_n":79,"n_dots":3.55,"target":"left","response":"left","rt":884.59999990463,"correct":true,"confidence":1},{"trial_n":80,"n_dots":3.45,"target":"right","response":"left","rt":1932.7000000477,"correct":false,"confidence":1},{"trial_n":81,"n_dots":3.55,"target":"left","response":"left","rt":1573,"correct":true,"confidence":1},{"trial_n":82,"n_dots":3.55,"target":"left","response":"left","rt":296272.70000005,"correct":true,"confidence":1},{"trial_n":83,"n_dots":3.45,"target":"left","response":"left","rt":624.79999995232,"correct":true,"confidence":4},{"trial_n":84,"n_dots":3.45,"target":"right","response":"right","rt":698.90000009537,"correct":true,"confidence":4},{"trial_n":85,"n_dots":3.35,"target":"right","response":"right","rt":642.79999995232,"correct":true,"confidence":1},{"trial_n":86,"n_dots":3.35,"target":"right","response":"left","rt":928.79999995232,"correct":false,"confidence":1},{"trial_n":87,"n_dots":3.45,"target":"right","response":"right","rt":418.90000009537,"correct":true,"confidence":3},{"trial_n":88,"n_dots":3.45,"target":"left","response":"left","rt":502.60000014305,"correct":true,"confidence":3},{"trial_n":89,"n_dots":3.35,"target":"right","response":"right","rt":798.59999990463,"correct":true,"confidence":1},{"trial_n":90,"n_dots":3.35,"target":"right","response":"left","rt":2102.3000001907,"correct":false,"confidence":1},{"trial_n":91,"n_dots":3.45,"target":"left","response":"left","rt":790.79999995232,"correct":true,"confidence":3},{"trial_n":92,"n_dots":3.45,"target":"left","response":"left","rt":736,"correct":true,"confidence":1},{"trial_n":93,"n_dots":3.35,"target":"left","response":"left","rt":757,"correct":true,"confidence":1},{"trial_n":94,"n_dots":3.35,"target":"right","response":"left","rt":591.39999985695,"correct":false,"confidence":1},{"trial_n":95,"n_dots":3.45,"target":"right","response":"right","rt":2104.5,"correct":true,"confidence":1},{"trial_n":96,"n_dots":3.45,"target":"right","response":"left","rt":418.20000004768,"correct":false,"confidence":1},{"trial_n":97,"n_dots":3.55,"target":"right","response":"left","rt":872,"correct":false,"confidence":1},{"trial_n":98,"n_dots":3.65,"target":"left","response":"left","rt":487.60000014305,"correct":true,"confidence":1},{"trial_n":99,"n_dots":3.65,"target":"left","response":"left","rt":521.39999985695,"correct":true,"confidence":1},{"trial_n":100,"n_dots":3.55,"target":"right","response":"right","rt":484.09999990463,"correct":true,"confidence":1},{"trial_n":101,"n_dots":3.55,"target":"left","response":"left","rt":704.5,"correct":true,"confidence":1},{"trial_n":102,"n_dots":3.45,"target":"left","response":"left","rt":350.5,"correct":true,"confidence":4},{"trial_n":103,"n_dots":3.45,"target":"left","response":"left","rt":1687.3999998569,"correct":true,"confidence":1},{"trial_n":104,"n_dots":3.35,"target":"left","response":"left","rt":611.09999990463,"correct":true,"confidence":2},{"trial_n":105,"n_dots":3.35,"target":"right","response":"right","rt":685.89999985695,"correct":true,"confidence":3},{"trial_n":106,"n_dots":3.25,"target":"left","response":"left","rt":469.59999990463,"correct":true,"confidence":3},{"trial_n":107,"n_dots":3.25,"target":"right","response":"right","rt":754.70000004768,"correct":true,"confidence":4},{"trial_n":108,"n_dots":3.15,"target":"left","response":"left","rt":726,"correct":true,"confidence":3},{"trial_n":109,"n_dots":3.15,"target":"right","response":"left","rt":721.40000009537,"correct":false,"confidence":1},{"trial_n":110,"n_dots":3.25,"target":"right","response":"left","rt":706.5,"correct":false,"confidence":3},{"trial_n":111,"n_dots":3.35,"target":"right","response":"right","rt":662.5,"correct":true,"confidence":4},{"trial_n":112,"n_dots":3.35,"target":"left","response":"left","rt":751.60000014305,"correct":true,"confidence":3},{"trial_n":113,"n_dots":3.25,"target":"right","response":"left","rt":820.79999995232,"correct":false,"confidence":1},{"trial_n":114,"n_dots":3.35,"target":"right","response":"right","rt":734.79999995232,"correct":true,"confidence":3},{"trial_n":115,"n_dots":3.35,"target":"right","response":"right","rt":637.60000014305,"correct":true,"confidence":3},{"trial_n":116,"n_dots":3.25,"target":"left","response":"left","rt":624.90000009537,"correct":true,"confidence":3},{"trial_n":117,"n_dots":3.25,"target":"left","response":"left","rt":797.59999990463,"correct":true,"confidence":1},{"trial_n":118,"n_dots":3.15,"target":"right","response":"right","rt":676.59999990463,"correct":true,"confidence":4},{"trial_n":119,"n_dots":3.15,"target":"left","response":"left","rt":831.60000014305,"correct":true,"confidence":1},{"trial_n":120,"n_dots":3.05,"target":"left","response":"left","rt":574.29999995232,"correct":true,"confidence":2}]