[{"trial_n":1,"span":8,"encoder":"83764386","distractor":"83714386","target":"present","response":"absent","rt":"2947.3999998569","correct":false,"confidence":-1},{"trial_n":2,"span":6,"encoder":"627623","distractor":"627673","target":"present","response":"present","rt":"2337.5","correct":true,"confidence":-1},{"trial_n":3,"span":6,"encoder":"632259","distractor":"631259","target":"absent","response":"absent","rt":"1571.5999999046","correct":true,"confidence":-1},{"trial_n":4,"span":8,"encoder":"64658400","distractor":"14658400","target":"absent","response":"absent","rt":"1249","correct":true,"confidence":-1},{"trial_n":5,"span":8,"encoder":"51948059","distractor":"51948099","target":"present","response":"present","rt":"2629.7999999523","correct":true,"confidence":-1},{"trial_n":6,"span":10,"encoder":"6314812008","distractor":"6314811008","target":"absent","response":"present","rt":"1592.1000001431","correct":false,"confidence":-1},{"trial_n":7,"span":8,"encoder":"63859381","distractor":"63859351","target":"present","response":"present","rt":"2385.6000001431","correct":true,"confidence":-1},{"trial_n":8,"span":8,"encoder":"67043464","distractor":"65043464","target":"absent","response":"absent","rt":"2307.5","correct":true,"confidence":-1},{"trial_n":9,"span":10,"encoder":"7723155741","distractor":"7723655741","target":"present","response":"absent","rt":"2522.4000000954","correct":false,"confidence":-1},{"trial_n":10,"span":8,"encoder":"38572571","distractor":"34572571","target":"absent","response":"absent","rt":"375.29999995232","correct":true,"confidence":-1},{"trial_n":11,"span":8,"encoder":"05741655","distractor":"06741655","target":"absent","response":"present","rt":"2217.5","correct":false,"confidence":-1},{"trial_n":12,"span":7,"encoder":"1765357","distractor":"1735357","target":"present","response":"present","rt":"742.5","correct":true,"confidence":-1},{"trial_n":13,"span":7,"encoder":"0421658","distractor":"0425658","target":"absent","response":"absent","rt":"1167.5","correct":true,"confidence":-1},{"trial_n":14,"span":8,"encoder":"84440292","distractor":"84447292","target":"absent","response":"present","rt":"1203.2999999523","correct":false,"confidence":-1},{"trial_n":15,"span":7,"encoder":"4452904","distractor":"4452004","target":"present","response":"absent","rt":"431.70000004768","correct":false,"confidence":-1},{"trial_n":16,"span":6,"encoder":"411064","distractor":"410064","target":"absent","response":"present","rt":"1799.2999999523","correct":false,"confidence":-1},{"trial_n":17,"span":5,"encoder":"93384","distractor":"93394","target":"absent","response":"present","rt":"1170.1000001431","correct":false,"confidence":-1},{"trial_n":18,"span":4,"encoder":"9737","distractor":"9537","target":"present","response":"present","rt":"975.29999995232","correct":true,"confidence":-1},{"trial_n":19,"span":4,"encoder":"8008","distractor":"8308","target":"present","response":"present","rt":"1076.5999999046","correct":true,"confidence":-1},{"trial_n":20,"span":5,"encoder":"96076","distractor":"96276","target":"absent","response":"absent","rt":"2087.9000000954","correct":true,"confidence":-1},{"trial_n":21,"span":5,"encoder":"42560","distractor":"42540","target":"present","response":"present","rt":"2114.9000000954","correct":true,"confidence":5},{"trial_n":22,"span":6,"encoder":"621235","distractor":"621035","target":"present","response":"present","rt":"3490.7000000477","correct":true,"confidence":4},{"trial_n":23,"span":6,"encoder":"253945","distractor":"233945","target":"absent","response":"absent","rt":"1687.0999999046","correct":true,"confidence":5},{"trial_n":24,"span":7,"encoder":"6465042","distractor":"7465042","target":"absent","response":"absent","rt":"2980.6000001431","correct":true,"confidence":5},{"trial_n":25,"span":7,"encoder":"2839919","distractor":"2839910","target":"absent","response":"absent","rt":"6586.8999998569","correct":true,"confidence":4},{"trial_n":26,"span":8,"encoder":"96072236","distractor":"96052236","target":"present","response":"present","rt":"3083","correct":true,"confidence":5},{"trial_n":27,"span":8,"encoder":"59112397","distractor":"59182397","target":"present","response":"present","rt":"2643.3999998569","correct":true,"confidence":5},{"trial_n":28,"span":9,"encoder":"559131235","distractor":"659131235","target":"present","response":"absent","rt":"2196.5","correct":false,"confidence":3},{"trial_n":29,"span":8,"encoder":"87691989","distractor":"87691689","target":"present","response":"present","rt":"3312.5","correct":true,"confidence":4},{"trial_n":30,"span":8,"encoder":"58476638","distractor":"58486638","target":"present","response":"present","rt":"3385.5","correct":true,"confidence":4},{"trial_n":31,"span":9,"encoder":"935235163","distractor":"935235162","target":"absent","response":"absent","rt":"2097","correct":true,"confidence":3},{"trial_n":32,"span":9,"encoder":"720247632","distractor":"120247632","target":"absent","response":"absent","rt":"1357.5","correct":true,"confidence":5},{"trial_n":33,"span":10,"encoder":"1759397936","distractor":"1739397936","target":"present","response":"absent","rt":"4318.8999998569","correct":false,"confidence":1},{"trial_n":34,"span":9,"encoder":"727098030","distractor":"721098030","target":"absent","response":"present","rt":"1998.3999998569","correct":false,"confidence":3},{"trial_n":35,"span":8,"encoder":"88900903","distractor":"88900907","target":"present","response":"present","rt":"3600.5","correct":true,"confidence":3},{"trial_n":36,"span":8,"encoder":"19664525","distractor":"19694525","target":"present","response":"absent","rt":"3268.7000000477","correct":false,"confidence":5},{"trial_n":37,"span":7,"encoder":"5128519","distractor":"5128569","target":"absent","response":"absent","rt":"2680","correct":true,"confidence":5},{"trial_n":38,"span":7,"encoder":"3674362","distractor":"3674369","target":"absent","response":"absent","rt":"4556.2999999523","correct":true,"confidence":3},{"trial_n":39,"span":8,"encoder":"71506098","distractor":"71516098","target":"present","response":"absent","rt":"2819.6000001431","correct":false,"confidence":1},{"trial_n":40,"span":7,"encoder":"3351708","distractor":"3051708","target":"absent","response":"absent","rt":"2123.2000000477","correct":true,"confidence":4},{"trial_n":41,"span":7,"encoder":"4072664","distractor":"4072064","target":"present","response":"present","rt":"2868.0999999046","correct":true,"confidence":5},{"trial_n":42,"span":8,"encoder":"05137260","distractor":"05137560","target":"present","response":"present","rt":"2698.0999999046","correct":true,"confidence":4},{"trial_n":43,"span":8,"encoder":"90151163","distractor":"90151103","target":"present","response":"absent","rt":"4805","correct":false,"confidence":2},{"trial_n":44,"span":7,"encoder":"0781942","distractor":"0781948","target":"absent","response":"absent","rt":"4789.5","correct":true,"confidence":5},{"trial_n":45,"span":7,"encoder":"5466481","distractor":"5466451","target":"absent","response":"absent","rt":"4367.6999998093","correct":true,"confidence":5},{"trial_n":46,"span":8,"encoder":"47539577","distractor":"46539577","target":"present","response":"present","rt":"4116.1000001431","correct":true,"confidence":3},{"trial_n":47,"span":8,"encoder":"34543467","distractor":"34543469","target":"present","response":"absent","rt":"4421.1999998093","correct":false,"confidence":1},{"trial_n":48,"span":7,"encoder":"8540284","distractor":"3540284","target":"present","response":"present","rt":"2931.9000000954","correct":true,"confidence":5},{"trial_n":49,"span":7,"encoder":"8705285","distractor":"8905285","target":"absent","response":"absent","rt":"1769.9000000954","correct":true,"confidence":5},{"trial_n":50,"span":8,"encoder":"10711855","distractor":"10701855","target":"absent","response":"absent","rt":"2955.4000000954","correct":true,"confidence":5},{"trial_n":51,"span":8,"encoder":"93510467","distractor":"93010467","target":"present","response":"absent","rt":"3042.2999999523","correct":false,"confidence":4},{"trial_n":52,"span":7,"encoder":"0863448","distractor":"0803448","target":"present","response":"present","rt":"2322.2000000477","correct":true,"confidence":5},{"trial_n":53,"span":7,"encoder":"4623615","distractor":"4123615","target":"absent","response":"absent","rt":"2212.2999999523","correct":true,"confidence":3},{"trial_n":54,"span":8,"encoder":"01858850","distractor":"71858850","target":"absent","response":"absent","rt":"2806","correct":true,"confidence":4},{"trial_n":55,"span":8,"encoder":"93929342","distractor":"93929343","target":"present","response":"present","rt":"4172.8999998569","correct":true,"confidence":4},{"trial_n":56,"span":9,"encoder":"496565062","distractor":"496565962","target":"absent","response":"absent","rt":"4836.9000000954","correct":true,"confidence":2},{"trial_n":57,"span":9,"encoder":"013620090","distractor":"015620090","target":"absent","response":"absent","rt":"2520","correct":true,"confidence":3},{"trial_n":58,"span":10,"encoder":"6976146916","distractor":"6976846916","target":"present","response":"absent","rt":"4475.7999999523","correct":false,"confidence":4},{"trial_n":59,"span":9,"encoder":"229686069","distractor":"229086069","target":"absent","response":"present","rt":"904.60000014305","correct":false,"confidence":1},{"trial_n":60,"span":8,"encoder":"21010827","distractor":"21040827","target":"present","response":"present","rt":"5212.0999999046","correct":true,"confidence":3},{"trial_n":61,"span":8,"encoder":"33377759","distractor":"33377757","target":"absent","response":"absent","rt":"3556.0999999046","correct":true,"confidence":4},{"trial_n":62,"span":9,"encoder":"416052331","distractor":"216052331","target":"present","response":"absent","rt":"4137.8999998569","correct":false,"confidence":4},{"trial_n":63,"span":8,"encoder":"94923803","distractor":"94923833","target":"absent","response":"absent","rt":"3139.9000000954","correct":true,"confidence":5},{"trial_n":64,"span":8,"encoder":"35945462","distractor":"65945462","target":"absent","response":"absent","rt":"3246.7000000477","correct":true,"confidence":3},{"trial_n":65,"span":9,"encoder":"734191156","distractor":"739191156","target":"present","response":"present","rt":"5044.8999998569","correct":true,"confidence":2},{"trial_n":66,"span":9,"encoder":"365765687","distractor":"365765686","target":"absent","response":"absent","rt":"5205.3999998569","correct":true,"confidence":5},{"trial_n":67,"span":10,"encoder":"9420033990","distractor":"9420233990","target":"present","response":"absent","rt":"3924.5","correct":false,"confidence":4},{"trial_n":68,"span":9,"encoder":"383020094","distractor":"383025094","target":"absent","response":"present","rt":"4705.5","correct":false,"confidence":4},{"trial_n":69,"span":8,"encoder":"94930324","distractor":"94940324","target":"present","response":"present","rt":"6480.5","correct":true,"confidence":3},{"trial_n":70,"span":8,"encoder":"54208925","distractor":"54208920","target":"present","response":"absent","rt":"3209.8999998569","correct":false,"confidence":4},{"trial_n":71,"span":8,"encoder":"08291583","distractor":"08291083","target":"present","response":"present","rt":"3547.0999999046","correct":true,"confidence":-1},{"trial_n":72,"span":8,"encoder":"45647730","distractor":"45644730","target":"present","response":"present","rt":"2364.2000000477","correct":true,"confidence":-1},{"trial_n":73,"span":9,"encoder":"554824137","distractor":"554324137","target":"absent","response":"absent","rt":"532","correct":true,"confidence":-1},{"trial_n":74,"span":9,"encoder":"788943384","distractor":"788947384","target":"absent","response":"present","rt":"3370.5999999046","correct":false,"confidence":-1},{"trial_n":75,"span":8,"encoder":"27479470","distractor":"47479470","target":"present","response":"present","rt":"1095.2999999523","correct":true,"confidence":-1},{"trial_n":76,"span":8,"encoder":"74440628","distractor":"74440328","target":"present","response":"present","rt":"2534.5999999046","correct":true,"confidence":-1},{"trial_n":77,"span":9,"encoder":"706941018","distractor":"776941018","target":"absent","response":"present","rt":"2616.9000000954","correct":false,"confidence":-1},{"trial_n":78,"span":8,"encoder":"57523875","distractor":"57923875","target":"absent","response":"present","rt":"546.69999980927","correct":false,"confidence":-1},{"trial_n":79,"span":7,"encoder":"2068386","distractor":"2065386","target":"present","response":"present","rt":"1664.7999999523","correct":true,"confidence":-1},{"trial_n":80,"span":7,"encoder":"8548810","distractor":"8543810","target":"absent","response":"present","rt":"403.79999995232","correct":false,"confidence":-1},{"trial_n":81,"span":6,"encoder":"033728","distractor":"035728","target":"absent","response":"absent","rt":"3654.5","correct":true,"confidence":-1},{"trial_n":82,"span":6,"encoder":"954188","distractor":"954118","target":"present","response":"present","rt":"2824","correct":true,"confidence":-1},{"trial_n":83,"span":7,"encoder":"3892278","distractor":"3899278","target":"absent","response":"absent","rt":"4346.9000000954","correct":true,"confidence":-1},{"trial_n":84,"span":7,"encoder":"5115353","distractor":"5115653","target":"absent","response":"absent","rt":"3058.7999999523","correct":true,"confidence":-1},{"trial_n":85,"span":8,"encoder":"22711383","distractor":"22711387","target":"absent","response":"absent","rt":"5656.7999999523","correct":true,"confidence":-1},{"trial_n":86,"span":8,"encoder":"30896211","distractor":"30893211","target":"present","response":"present","rt":"3330.5999999046","correct":true,"confidence":-1},{"trial_n":87,"span":9,"encoder":"972103360","distractor":"972103460","target":"present","response":"present","rt":"777","correct":true,"confidence":-1},{"trial_n":88,"span":9,"encoder":"607521381","distractor":"609521381","target":"absent","response":"present","rt":"724.60000014305","correct":false,"confidence":-1},{"trial_n":89,"span":8,"encoder":"89166912","distractor":"99166912","target":"absent","response":"present","rt":"3237.9000000954","correct":false,"confidence":-1},{"trial_n":90,"span":7,"encoder":"2063993","distractor":"2063963","target":"present","response":"absent","rt":"716.79999995232","correct":false,"confidence":-1},{"trial_n":91,"span":6,"encoder":"325782","distractor":"375782","target":"present","response":"present","rt":"3506.2999999523","correct":true,"confidence":5},{"trial_n":92,"span":6,"encoder":"064342","distractor":"664342","target":"absent","response":"absent","rt":"3993","correct":true,"confidence":5},{"trial_n":93,"span":7,"encoder":"2598170","distractor":"2595170","target":"absent","response":"absent","rt":"2899.4000000954","correct":true,"confidence":5},{"trial_n":94,"span":7,"encoder":"1333578","distractor":"1333598","target":"absent","response":"present","rt":"2759.6000001431","correct":false,"confidence":2},{"trial_n":95,"span":6,"encoder":"954888","distractor":"955888","target":"present","response":"present","rt":"2724.5999999046","correct":true,"confidence":5},{"trial_n":96,"span":6,"encoder":"518570","distractor":"518670","target":"present","response":"present","rt":"3590.3999998569","correct":true,"confidence":5},{"trial_n":97,"span":7,"encoder":"7874172","distractor":"7074172","target":"absent","response":"absent","rt":"3642.4000000954","correct":true,"confidence":5},{"trial_n":98,"span":7,"encoder":"2260538","distractor":"1260538","target":"present","response":"present","rt":"3738.8999998569","correct":true,"confidence":1},{"trial_n":99,"span":8,"encoder":"04256296","distractor":"02256296","target":"absent","response":"present","rt":"3168.7000000477","correct":false,"confidence":3},{"trial_n":100,"span":7,"encoder":"7009243","distractor":"7008243","target":"absent","response":"absent","rt":"2639.6000001431","correct":true,"confidence":4},{"trial_n":101,"span":7,"encoder":"5933647","distractor":"5930647","target":"present","response":"present","rt":"5069.2000000477","correct":true,"confidence":5},{"trial_n":102,"span":8,"encoder":"05156387","distractor":"05176387","target":"absent","response":"absent","rt":"5743.9000000954","correct":true,"confidence":2},{"trial_n":103,"span":8,"encoder":"89268311","distractor":"89868311","target":"present","response":"present","rt":"3924.5999999046","correct":true,"confidence":5},{"trial_n":104,"span":9,"encoder":"720124091","distractor":"720124991","target":"absent","response":"present","rt":"4458.3999998569","correct":false,"confidence":1},{"trial_n":105,"span":8,"encoder":"65616953","distractor":"63616953","target":"present","response":"present","rt":"2306.4000000954","correct":true,"confidence":4},{"trial_n":106,"span":8,"encoder":"14047263","distractor":"14947263","target":"present","response":"absent","rt":"1153.2999999523","correct":false,"confidence":1},{"trial_n":107,"span":7,"encoder":"3868436","distractor":"3868416","target":"present","response":"present","rt":"2612.7999999523","correct":true,"confidence":3},{"trial_n":108,"span":7,"encoder":"5973875","distractor":"2973875","target":"absent","response":"absent","rt":"2494.0999999046","correct":true,"confidence":5},{"trial_n":109,"span":8,"encoder":"89694713","distractor":"89694716","target":"absent","response":"absent","rt":"2717.1000001431","correct":true,"confidence":5},{"trial_n":110,"span":8,"encoder":"06981550","distractor":"06981520","target":"absent","response":"present","rt":"6881.5999999046","correct":false,"confidence":3},{"trial_n":111,"span":7,"encoder":"2864207","distractor":"2867207","target":"absent","response":"absent","rt":"8747.2000000477","correct":true,"confidence":1},{"trial_n":112,"span":7,"encoder":"6998889","distractor":"6998789","target":"present","response":"absent","rt":"1264.7999999523","correct":false,"confidence":1},{"trial_n":113,"span":6,"encoder":"378329","distractor":"278329","target":"absent","response":"absent","rt":"3310.5","correct":true,"confidence":3},{"trial_n":114,"span":6,"encoder":"860447","distractor":"880447","target":"present","response":"present","rt":"2761.4000000954","correct":true,"confidence":4},{"trial_n":115,"span":7,"encoder":"0369580","distractor":"0365580","target":"absent","response":"absent","rt":"5838.8999998569","correct":true,"confidence":4},{"trial_n":116,"span":7,"encoder":"7815079","distractor":"7815072","target":"absent","response":"absent","rt":"5491.9000000954","correct":true,"confidence":3},{"trial_n":117,"span":8,"encoder":"95570890","distractor":"05570890","target":"present","response":"present","rt":"2833.0999999046","correct":true,"confidence":5},{"trial_n":118,"span":8,"encoder":"93077657","distractor":"93076657","target":"absent","response":"absent","rt":"2326.1000001431","correct":true,"confidence":4},{"trial_n":119,"span":9,"encoder":"473898909","distractor":"475898909","target":"present","response":"present","rt":"3018","correct":true,"confidence":4},{"trial_n":120,"span":9,"encoder":"181551492","distractor":"180551492","target":"absent","response":"present","rt":"6141.5","correct":false,"confidence":1},{"trial_n":121,"span":8,"encoder":"36770508","distractor":"36770503","target":"present","response":"present","rt":"3308.0999999046","correct":true,"confidence":4},{"trial_n":122,"span":8,"encoder":"74708630","distractor":"74708632","target":"present","response":"present","rt":"2648.1000001431","correct":true,"confidence":5},{"trial_n":123,"span":9,"encoder":"375052547","distractor":"675052547","target":"present","response":"present","rt":"4253.4000000954","correct":true,"confidence":2},{"trial_n":124,"span":9,"encoder":"930870374","distractor":"730870374","target":"present","response":"present","rt":"2808.7999999523","correct":true,"confidence":5},{"trial_n":125,"span":10,"encoder":"9982209236","distractor":"9982209235","target":"present","response":"present","rt":"4286.9000000954","correct":true,"confidence":4},{"trial_n":126,"span":10,"encoder":"4452184221","distractor":"0452184221","target":"absent","response":"absent","rt":"3502.7000000477","correct":true,"confidence":5},{"trial_n":127,"span":11,"encoder":"18121233805","distractor":"18127233805","target":"absent","response":"absent","rt":"7991.4000000954","correct":true,"confidence":1},{"trial_n":128,"span":11,"encoder":"73458936033","distractor":"73458933033","target":"present","response":"present","rt":"3590","correct":true,"confidence":1},{"trial_n":129,"span":12,"encoder":"154907059460","distractor":"154987059460","target":"absent","response":"absent","rt":"3414.4000000954","correct":true,"confidence":4},{"trial_n":130,"span":12,"encoder":"265280343428","distractor":"265280343628","target":"absent","response":"absent","rt":"10130.099999905","correct":true,"confidence":3},{"trial_n":131,"span":13,"encoder":"6685677804889","distractor":"6685607804889","target":"present","response":"absent","rt":"7577.8000001907","correct":false,"confidence":3},{"trial_n":132,"span":12,"encoder":"649468473704","distractor":"644468473704","target":"absent","response":"absent","rt":"5066.3999998569","correct":true,"confidence":5},{"trial_n":133,"span":12,"encoder":"225012757548","distractor":"225012757540","target":"present","response":"present","rt":"1912.9000000954","correct":true,"confidence":5},{"trial_n":134,"span":13,"encoder":"6697596289977","distractor":"6597596289977","target":"present","response":"present","rt":"3484.2000000477","correct":true,"confidence":4},{"trial_n":135,"span":13,"encoder":"9715259763135","distractor":"9715259763105","target":"present","response":"present","rt":"5001.5","correct":true,"confidence":2},{"trial_n":136,"span":14,"encoder":"65599522487336","distractor":"65599522487036","target":"present","response":"present","rt":"6419.8000001907","correct":true,"confidence":3},{"trial_n":137,"span":14,"encoder":"59474294750938","distractor":"59474295750938","target":"present","response":"present","rt":"3597.8000001907","correct":true,"confidence":2},{"trial_n":138,"span":15,"encoder":"436850863620839","distractor":"436850883620839","target":"present","response":"absent","rt":"7433.8999998569","correct":false,"confidence":1},{"trial_n":139,"span":14,"encoder":"53152957501080","distractor":"53152957501180","target":"present","response":"present","rt":"5238.9000000954","correct":true,"confidence":3},{"trial_n":140,"span":14,"encoder":"25589956185983","distractor":"25589955185983","target":"absent","response":"present","rt":"8003.2999999523","correct":false,"confidence":4}]