[{"trial_n":1,"min":25,"max":230,"target":"present","response":"present","rt":11365.199999928,"correct":true,"confidence":-1},{"trial_n":2,"min":25,"max":230,"target":"present","response":"present","rt":828.19999992847,"correct":true,"confidence":-1},{"trial_n":3,"min":41,"max":214,"target":"absent","response":"present","rt":1046.1000000238,"correct":false,"confidence":-1},{"trial_n":4,"min":25,"max":230,"target":"absent","response":"absent","rt":1459.1000000238,"correct":true,"confidence":-1},{"trial_n":5,"min":25,"max":230,"target":"present","response":"present","rt":1039,"correct":true,"confidence":-1},{"trial_n":6,"min":41,"max":214,"target":"absent","response":"absent","rt":1365,"correct":true,"confidence":-1},{"trial_n":7,"min":41,"max":214,"target":"absent","response":"absent","rt":640.09999990463,"correct":true,"confidence":-1},{"trial_n":8,"min":57,"max":198,"target":"present","response":"present","rt":1099,"correct":true,"confidence":-1},{"trial_n":9,"min":57,"max":198,"target":"present","response":"absent","rt":820.5,"correct":false,"confidence":-1},{"trial_n":10,"min":41,"max":214,"target":"present","response":"present","rt":831.29999995232,"correct":true,"confidence":-1},{"trial_n":11,"min":41,"max":214,"target":"present","response":"present","rt":413.09999990463,"correct":true,"confidence":-1},{"trial_n":12,"min":49,"max":206,"target":"absent","response":"absent","rt":478.89999997616,"correct":true,"confidence":-1},{"trial_n":13,"min":49,"max":206,"target":"absent","response":"absent","rt":397.89999997616,"correct":true,"confidence":-1},{"trial_n":14,"min":57,"max":198,"target":"present","response":"present","rt":203,"correct":true,"confidence":-1},{"trial_n":15,"min":57,"max":198,"target":"absent","response":"absent","rt":487.39999997616,"correct":true,"confidence":-1},{"trial_n":16,"min":65,"max":190,"target":"present","response":"present","rt":341.10000002384,"correct":true,"confidence":-1},{"trial_n":17,"min":65,"max":190,"target":"present","response":"present","rt":618.29999995232,"correct":true,"confidence":-1},{"trial_n":18,"min":73,"max":182,"target":"absent","response":"absent","rt":354.39999997616,"correct":true,"confidence":-1},{"trial_n":19,"min":73,"max":182,"target":"absent","response":"absent","rt":389,"correct":true,"confidence":-1},{"trial_n":20,"min":81,"max":174,"target":"present","response":"absent","rt":320.10000002384,"correct":false,"confidence":-1},{"trial_n":21,"min":77,"max":178,"target":"present","response":"present","rt":775.39999997616,"correct":true,"confidence":3},{"trial_n":22,"min":77,"max":178,"target":"absent","response":"absent","rt":407,"correct":true,"confidence":4},{"trial_n":23,"min":81,"max":174,"target":"absent","response":"absent","rt":923.69999992847,"correct":true,"confidence":5},{"trial_n":24,"min":81,"max":174,"target":"absent","response":"absent","rt":478.10000002384,"correct":true,"confidence":5},{"trial_n":25,"min":85,"max":170,"target":"absent","response":"absent","rt":964.70000004768,"correct":true,"confidence":5},{"trial_n":26,"min":85,"max":170,"target":"absent","response":"absent","rt":289.80000007153,"correct":true,"confidence":5},{"trial_n":27,"min":89,"max":166,"target":"present","response":"absent","rt":1216.7000000477,"correct":false,"confidence":5},{"trial_n":28,"min":85,"max":170,"target":"present","response":"present","rt":912.30000007153,"correct":true,"confidence":4},{"trial_n":29,"min":85,"max":170,"target":"absent","response":"absent","rt":1057.6999999285,"correct":true,"confidence":5},{"trial_n":30,"min":89,"max":166,"target":"present","response":"absent","rt":677.10000002384,"correct":false,"confidence":5},{"trial_n":31,"min":87,"max":168,"target":"present","response":"absent","rt":856.5,"correct":false,"confidence":5},{"trial_n":32,"min":85,"max":170,"target":"absent","response":"absent","rt":775.60000002384,"correct":true,"confidence":5},{"trial_n":33,"min":85,"max":170,"target":"present","response":"present","rt":1061.8000000715,"correct":true,"confidence":5},{"trial_n":34,"min":87,"max":168,"target":"present","response":"absent","rt":914.60000002384,"correct":false,"confidence":5},{"trial_n":35,"min":85,"max":170,"target":"absent","response":"absent","rt":740.39999997616,"correct":true,"confidence":5},{"trial_n":36,"min":85,"max":170,"target":"present","response":"present","rt":1190.1000000238,"correct":true,"confidence":3},{"trial_n":37,"min":87,"max":168,"target":"absent","response":"present","rt":1036.3999999762,"correct":false,"confidence":2},{"trial_n":38,"min":85,"max":170,"target":"present","response":"absent","rt":1090.2000000477,"correct":false,"confidence":5},{"trial_n":39,"min":83,"max":172,"target":"present","response":"absent","rt":816.79999995232,"correct":false,"confidence":5},{"trial_n":40,"min":81,"max":174,"target":"present","response":"absent","rt":692.30000007153,"correct":false,"confidence":4},{"trial_n":41,"min":80,"max":175,"target":"absent","response":"absent","rt":1404.6000000238,"correct":true,"confidence":3},{"trial_n":42,"min":80,"max":175,"target":"present","response":"absent","rt":993.70000004768,"correct":false,"confidence":3},{"trial_n":43,"min":79,"max":176,"target":"present","response":"present","rt":986.10000002384,"correct":true,"confidence":3},{"trial_n":44,"min":79,"max":176,"target":"absent","response":"absent","rt":2275.1999999285,"correct":true,"confidence":1},{"trial_n":45,"min":80,"max":175,"target":"absent","response":"absent","rt":1349,"correct":true,"confidence":1},{"trial_n":46,"min":80,"max":175,"target":"absent","response":"absent","rt":1270.7000000477,"correct":true,"confidence":3},{"trial_n":47,"min":81,"max":174,"target":"absent","response":"absent","rt":1188.6999999285,"correct":true,"confidence":3},{"trial_n":48,"min":81,"max":174,"target":"absent","response":"present","rt":1629.6999999285,"correct":false,"confidence":2},{"trial_n":49,"min":80,"max":175,"target":"present","response":"present","rt":1172.7999999523,"correct":true,"confidence":5},{"trial_n":50,"min":80,"max":175,"target":"present","response":"present","rt":898.70000004768,"correct":true,"confidence":5},{"trial_n":51,"min":81,"max":174,"target":"present","response":"present","rt":1064,"correct":true,"confidence":3},{"trial_n":52,"min":81,"max":174,"target":"present","response":"present","rt":1230,"correct":true,"confidence":3},{"trial_n":53,"min":82,"max":173,"target":"present","response":"present","rt":947.89999997616,"correct":true,"confidence":5},{"trial_n":54,"min":82,"max":173,"target":"present","response":"absent","rt":2441,"correct":false,"confidence":1},{"trial_n":55,"min":81,"max":174,"target":"present","response":"present","rt":674.19999992847,"correct":true,"confidence":5},{"trial_n":56,"min":81,"max":174,"target":"absent","response":"present","rt":1556.3000000715,"correct":false,"confidence":1},{"trial_n":57,"min":80,"max":175,"target":"present","response":"present","rt":2375.5,"correct":true,"confidence":1},{"trial_n":58,"min":80,"max":175,"target":"present","response":"present","rt":857,"correct":true,"confidence":5},{"trial_n":59,"min":81,"max":174,"target":"absent","response":"present","rt":1101.8000000715,"correct":false,"confidence":5},{"trial_n":60,"min":80,"max":175,"target":"absent","response":"present","rt":907.79999995232,"correct":false,"confidence":4},{"trial_n":61,"min":79,"max":176,"target":"absent","response":"present","rt":931.89999997616,"correct":false,"confidence":4},{"trial_n":62,"min":78,"max":177,"target":"absent","response":"present","rt":930.90000009537,"correct":false,"confidence":4},{"trial_n":63,"min":77,"max":178,"target":"absent","response":"present","rt":882.60000002384,"correct":false,"confidence":3},{"trial_n":64,"min":76,"max":179,"target":"present","response":"present","rt":1740.0999999046,"correct":true,"confidence":5},{"trial_n":65,"min":76,"max":179,"target":"absent","response":"absent","rt":1180.6000000238,"correct":true,"confidence":4},{"trial_n":66,"min":77,"max":178,"target":"present","response":"present","rt":743.70000004768,"correct":true,"confidence":5},{"trial_n":67,"min":77,"max":178,"target":"absent","response":"present","rt":2335.2999999523,"correct":false,"confidence":1},{"trial_n":68,"min":76,"max":179,"target":"present","response":"present","rt":919.5,"correct":true,"confidence":5},{"trial_n":69,"min":76,"max":179,"target":"absent","response":"present","rt":1092.1999999285,"correct":false,"confidence":4},{"trial_n":70,"min":75,"max":180,"target":"absent","response":"absent","rt":698.79999995232,"correct":true,"confidence":5},{"trial_n":71,"min":41,"max":214,"target":"present","response":"present","rt":1681.8999999762,"correct":true,"confidence":-1},{"trial_n":72,"min":41,"max":214,"target":"present","response":"absent","rt":1033.8000000715,"correct":false,"confidence":-1},{"trial_n":73,"min":25,"max":230,"target":"absent","response":"absent","rt":985.20000004768,"correct":true,"confidence":-1},{"trial_n":74,"min":25,"max":230,"target":"absent","response":"absent","rt":661.29999995232,"correct":true,"confidence":-1},{"trial_n":75,"min":41,"max":214,"target":"present","response":"present","rt":779.20000004768,"correct":true,"confidence":-1},{"trial_n":76,"min":41,"max":214,"target":"absent","response":"absent","rt":653.29999995232,"correct":true,"confidence":-1},{"trial_n":77,"min":57,"max":198,"target":"present","response":"present","rt":626.40000009537,"correct":true,"confidence":-1},{"trial_n":78,"min":57,"max":198,"target":"absent","response":"absent","rt":876.40000009537,"correct":true,"confidence":-1},{"trial_n":79,"min":73,"max":182,"target":"absent","response":"absent","rt":1432.5,"correct":true,"confidence":-1},{"trial_n":80,"min":73,"max":182,"target":"absent","response":"absent","rt":761.29999995232,"correct":true,"confidence":-1},{"trial_n":81,"min":81,"max":174,"target":"present","response":"present","rt":741.80000007153,"correct":true,"confidence":-1},{"trial_n":82,"min":81,"max":174,"target":"present","response":"present","rt":910.5,"correct":true,"confidence":-1},{"trial_n":83,"min":89,"max":166,"target":"absent","response":"absent","rt":1303.2999999523,"correct":true,"confidence":-1},{"trial_n":84,"min":89,"max":166,"target":"present","response":"absent","rt":1027.2000000477,"correct":false,"confidence":-1},{"trial_n":85,"min":81,"max":174,"target":"absent","response":"present","rt":808.60000002384,"correct":false,"confidence":-1},{"trial_n":86,"min":73,"max":182,"target":"present","response":"present","rt":736.39999997616,"correct":true,"confidence":-1},{"trial_n":87,"min":73,"max":182,"target":"present","response":"present","rt":727.89999997616,"correct":true,"confidence":-1},{"trial_n":88,"min":81,"max":174,"target":"present","response":"present","rt":598.20000004768,"correct":true,"confidence":-1},{"trial_n":89,"min":81,"max":174,"target":"absent","response":"absent","rt":755.69999992847,"correct":true,"confidence":-1},{"trial_n":90,"min":89,"max":166,"target":"present","response":"absent","rt":951.10000002384,"correct":false,"confidence":-1},{"trial_n":91,"min":85,"max":170,"target":"absent","response":"absent","rt":954.80000007153,"correct":true,"confidence":3},{"trial_n":92,"min":85,"max":170,"target":"absent","response":"absent","rt":687.70000004768,"correct":true,"confidence":5},{"trial_n":93,"min":89,"max":166,"target":"absent","response":"absent","rt":866.20000004768,"correct":true,"confidence":1},{"trial_n":94,"min":89,"max":166,"target":"absent","response":"absent","rt":1107.7999999523,"correct":true,"confidence":4},{"trial_n":95,"min":93,"max":162,"target":"absent","response":"absent","rt":921.19999992847,"correct":true,"confidence":3},{"trial_n":96,"min":93,"max":162,"target":"present","response":"present","rt":898.40000009537,"correct":true,"confidence":3},{"trial_n":97,"min":97,"max":158,"target":"present","response":"absent","rt":1612.3999999762,"correct":false,"confidence":1},{"trial_n":98,"min":93,"max":162,"target":"present","response":"absent","rt":1544.7000000477,"correct":false,"confidence":2},{"trial_n":99,"min":89,"max":166,"target":"present","response":"absent","rt":786.80000007153,"correct":false,"confidence":2},{"trial_n":100,"min":85,"max":170,"target":"absent","response":"absent","rt":1020.5,"correct":true,"confidence":3},{"trial_n":101,"min":85,"max":170,"target":"absent","response":"absent","rt":1075.2999999523,"correct":true,"confidence":5},{"trial_n":102,"min":87,"max":168,"target":"present","response":"present","rt":851.10000002384,"correct":true,"confidence":5},{"trial_n":103,"min":87,"max":168,"target":"absent","response":"absent","rt":651.39999997616,"correct":true,"confidence":5},{"trial_n":104,"min":89,"max":166,"target":"absent","response":"absent","rt":876.70000004768,"correct":true,"confidence":5},{"trial_n":105,"min":89,"max":166,"target":"absent","response":"absent","rt":689.29999995232,"correct":true,"confidence":5},{"trial_n":106,"min":91,"max":164,"target":"absent","response":"absent","rt":1489.3999999762,"correct":true,"confidence":2},{"trial_n":107,"min":91,"max":164,"target":"present","response":"absent","rt":1035.5,"correct":false,"confidence":1},{"trial_n":108,"min":89,"max":166,"target":"absent","response":"absent","rt":1490.3999999762,"correct":true,"confidence":5},{"trial_n":109,"min":89,"max":166,"target":"absent","response":"absent","rt":1055.5,"correct":true,"confidence":5},{"trial_n":110,"min":91,"max":164,"target":"present","response":"present","rt":672.89999997616,"correct":true,"confidence":3},{"trial_n":111,"min":91,"max":164,"target":"present","response":"absent","rt":1077.2000000477,"correct":false,"confidence":1},{"trial_n":112,"min":90,"max":165,"target":"absent","response":"absent","rt":1678.2999999523,"correct":true,"confidence":3},{"trial_n":113,"min":90,"max":165,"target":"absent","response":"absent","rt":1510,"correct":true,"confidence":1},{"trial_n":114,"min":91,"max":164,"target":"absent","response":"absent","rt":977.70000004768,"correct":true,"confidence":1},{"trial_n":115,"min":91,"max":164,"target":"present","response":"present","rt":823.39999997616,"correct":true,"confidence":4},{"trial_n":116,"min":92,"max":163,"target":"absent","response":"absent","rt":824.80000007153,"correct":true,"confidence":1},{"trial_n":117,"min":92,"max":163,"target":"absent","response":"absent","rt":881,"correct":true,"confidence":2},{"trial_n":118,"min":93,"max":162,"target":"absent","response":"present","rt":1636.5,"correct":false,"confidence":1},{"trial_n":119,"min":92,"max":163,"target":"present","response":"present","rt":870.5,"correct":true,"confidence":2},{"trial_n":120,"min":92,"max":163,"target":"absent","response":"absent","rt":1353.5,"correct":true,"confidence":4},{"trial_n":121,"min":93,"max":162,"target":"present","response":"absent","rt":821.10000002384,"correct":false,"confidence":1},{"trial_n":122,"min":92,"max":163,"target":"present","response":"absent","rt":720.39999997616,"correct":false,"confidence":1},{"trial_n":123,"min":91,"max":164,"target":"absent","response":"present","rt":773.70000004768,"correct":false,"confidence":3},{"trial_n":124,"min":90,"max":165,"target":"present","response":"present","rt":714.19999992847,"correct":true,"confidence":3},{"trial_n":125,"min":90,"max":165,"target":"present","response":"present","rt":1158.3999999762,"correct":true,"confidence":3},{"trial_n":126,"min":91,"max":164,"target":"present","response":"present","rt":846,"correct":true,"confidence":2},{"trial_n":127,"min":91,"max":164,"target":"present","response":"absent","rt":1010.7000000477,"correct":false,"confidence":1},{"trial_n":128,"min":90,"max":165,"target":"absent","response":"absent","rt":960.60000002384,"correct":true,"confidence":4},{"trial_n":129,"min":90,"max":165,"target":"absent","response":"absent","rt":1053.3999999762,"correct":true,"confidence":1},{"trial_n":130,"min":91,"max":164,"target":"present","response":"absent","rt":1128.7999999523,"correct":false,"confidence":1},{"trial_n":131,"min":90,"max":165,"target":"present","response":"present","rt":794.70000004768,"correct":true,"confidence":1},{"trial_n":132,"min":90,"max":165,"target":"absent","response":"absent","rt":776.79999995232,"correct":true,"confidence":4},{"trial_n":133,"min":91,"max":164,"target":"present","response":"present","rt":805.80000007153,"correct":true,"confidence":4},{"trial_n":134,"min":91,"max":164,"target":"present","response":"absent","rt":2055.8999999762,"correct":false,"confidence":1},{"trial_n":135,"min":90,"max":165,"target":"present","response":"present","rt":633.90000009537,"correct":true,"confidence":4},{"trial_n":136,"min":90,"max":165,"target":"absent","response":"absent","rt":931.69999992847,"correct":true,"confidence":1},{"trial_n":137,"min":91,"max":164,"target":"present","response":"absent","rt":752.70000004768,"correct":false,"confidence":1},{"trial_n":138,"min":90,"max":165,"target":"present","response":"present","rt":554.89999997616,"correct":true,"confidence":4},{"trial_n":139,"min":90,"max":165,"target":"present","response":"present","rt":759.5,"correct":true,"confidence":5},{"trial_n":140,"min":91,"max":164,"target":"present","response":"present","rt":1710.7000000477,"correct":true,"confidence":5}]