[{"trial_n":1,"min":25,"max":230,"target":"present","response":"absent","rt":8783.5,"correct":false,"confidence":-1},{"trial_n":2,"min":25,"max":230,"target":"present","response":"absent","rt":3422.6000001431,"correct":false,"confidence":-1},{"trial_n":3,"min":9,"max":246,"target":"absent","response":"present","rt":1209.2999999523,"correct":false,"confidence":-1},{"trial_n":4,"min":0,"max":255,"target":"absent","response":"absent","rt":1268.5999999046,"correct":true,"confidence":-1},{"trial_n":5,"min":0,"max":255,"target":"present","response":"present","rt":1362.3000001907,"correct":true,"confidence":-1},{"trial_n":6,"min":16,"max":239,"target":"present","response":"present","rt":927.20000004768,"correct":true,"confidence":-1},{"trial_n":7,"min":16,"max":239,"target":"absent","response":"absent","rt":937.70000004768,"correct":true,"confidence":-1},{"trial_n":8,"min":32,"max":223,"target":"present","response":"present","rt":785.29999995232,"correct":true,"confidence":-1},{"trial_n":9,"min":32,"max":223,"target":"absent","response":"absent","rt":630.39999985695,"correct":true,"confidence":-1},{"trial_n":10,"min":48,"max":207,"target":"absent","response":"absent","rt":1009.1999998093,"correct":true,"confidence":-1},{"trial_n":11,"min":48,"max":207,"target":"present","response":"present","rt":945.40000009537,"correct":true,"confidence":-1},{"trial_n":12,"min":56,"max":199,"target":"present","response":"present","rt":1266.2000000477,"correct":true,"confidence":-1},{"trial_n":13,"min":56,"max":199,"target":"absent","response":"absent","rt":495.39999985695,"correct":true,"confidence":-1},{"trial_n":14,"min":64,"max":191,"target":"present","response":"absent","rt":702.29999995232,"correct":false,"confidence":-1},{"trial_n":15,"min":56,"max":199,"target":"present","response":"present","rt":1102.5999999046,"correct":true,"confidence":-1},{"trial_n":16,"min":56,"max":199,"target":"present","response":"absent","rt":1208.7000000477,"correct":false,"confidence":-1},{"trial_n":17,"min":48,"max":207,"target":"present","response":"absent","rt":714.09999990463,"correct":false,"confidence":-1},{"trial_n":18,"min":40,"max":215,"target":"absent","response":"absent","rt":562,"correct":true,"confidence":-1},{"trial_n":19,"min":40,"max":215,"target":"present","response":"present","rt":1452.5,"correct":true,"confidence":-1},{"trial_n":20,"min":48,"max":207,"target":"absent","response":"absent","rt":607,"correct":true,"confidence":-1},{"trial_n":21,"min":48,"max":207,"target":"absent","response":"present","rt":4440.1000001431,"correct":false,"confidence":2},{"trial_n":22,"min":44,"max":211,"target":"present","response":"present","rt":1705.9000000954,"correct":true,"confidence":5},{"trial_n":23,"min":44,"max":211,"target":"present","response":"present","rt":1278,"correct":true,"confidence":4},{"trial_n":24,"min":48,"max":207,"target":"absent","response":"absent","rt":2758.3999998569,"correct":true,"confidence":3},{"trial_n":25,"min":48,"max":207,"target":"absent","response":"absent","rt":1320.1000001431,"correct":true,"confidence":3},{"trial_n":26,"min":52,"max":203,"target":"present","response":"present","rt":901.5,"correct":true,"confidence":5},{"trial_n":27,"min":52,"max":203,"target":"present","response":"present","rt":832.89999985695,"correct":true,"confidence":5},{"trial_n":28,"min":56,"max":199,"target":"present","response":"present","rt":761.40000009537,"correct":true,"confidence":5},{"trial_n":29,"min":56,"max":199,"target":"present","response":"present","rt":1150.3000001907,"correct":true,"confidence":4},{"trial_n":30,"min":60,"max":195,"target":"absent","response":"absent","rt":948.39999985695,"correct":true,"confidence":5},{"trial_n":31,"min":60,"max":195,"target":"present","response":"present","rt":5542,"correct":true,"confidence":3},{"trial_n":32,"min":62,"max":193,"target":"present","response":"present","rt":928.70000004768,"correct":true,"confidence":2},{"trial_n":33,"min":62,"max":193,"target":"present","response":"present","rt":764.39999985695,"correct":true,"confidence":4},{"trial_n":34,"min":64,"max":191,"target":"present","response":"absent","rt":1412.7999999523,"correct":false,"confidence":2},{"trial_n":35,"min":62,"max":193,"target":"absent","response":"present","rt":1858.5999999046,"correct":false,"confidence":1},{"trial_n":36,"min":60,"max":195,"target":"present","response":"present","rt":1166.9000000954,"correct":true,"confidence":4},{"trial_n":37,"min":60,"max":195,"target":"present","response":"present","rt":1556.2999999523,"correct":true,"confidence":1},{"trial_n":38,"min":62,"max":193,"target":"absent","response":"absent","rt":1072.7000000477,"correct":true,"confidence":4},{"trial_n":39,"min":62,"max":193,"target":"present","response":"present","rt":1058,"correct":true,"confidence":4},{"trial_n":40,"min":64,"max":191,"target":"present","response":"present","rt":763.60000014305,"correct":true,"confidence":3},{"trial_n":41,"min":64,"max":191,"target":"absent","response":"absent","rt":1437.3000001907,"correct":true,"confidence":5},{"trial_n":42,"min":65,"max":190,"target":"absent","response":"absent","rt":5280.4000000954,"correct":true,"confidence":1},{"trial_n":43,"min":65,"max":190,"target":"absent","response":"absent","rt":991.70000004768,"correct":true,"confidence":4},{"trial_n":44,"min":66,"max":189,"target":"absent","response":"absent","rt":1501.7999999523,"correct":true,"confidence":5},{"trial_n":45,"min":66,"max":189,"target":"present","response":"present","rt":962.39999985695,"correct":true,"confidence":3},{"trial_n":46,"min":67,"max":188,"target":"present","response":"present","rt":715.90000009537,"correct":true,"confidence":4},{"trial_n":47,"min":67,"max":188,"target":"present","response":"present","rt":1109.5,"correct":true,"confidence":1},{"trial_n":48,"min":68,"max":187,"target":"present","response":"present","rt":1024.6000001431,"correct":true,"confidence":3},{"trial_n":49,"min":68,"max":187,"target":"absent","response":"absent","rt":1059.9000000954,"correct":true,"confidence":5},{"trial_n":50,"min":69,"max":186,"target":"absent","response":"absent","rt":1056.0999999046,"correct":true,"confidence":5},{"trial_n":51,"min":69,"max":186,"target":"absent","response":"absent","rt":1077.2000000477,"correct":true,"confidence":4},{"trial_n":52,"min":70,"max":185,"target":"absent","response":"absent","rt":723.59999990463,"correct":true,"confidence":5},{"trial_n":53,"min":70,"max":185,"target":"absent","response":"absent","rt":780,"correct":true,"confidence":5},{"trial_n":54,"min":71,"max":184,"target":"present","response":"present","rt":778.20000004768,"correct":true,"confidence":2},{"trial_n":55,"min":71,"max":184,"target":"present","response":"present","rt":654.59999990463,"correct":true,"confidence":2},{"trial_n":56,"min":72,"max":183,"target":"absent","response":"absent","rt":1686.5,"correct":true,"confidence":1},{"trial_n":57,"min":72,"max":183,"target":"absent","response":"absent","rt":902.79999995232,"correct":true,"confidence":5},{"trial_n":58,"min":73,"max":182,"target":"absent","response":"absent","rt":1148.7000000477,"correct":true,"confidence":5},{"trial_n":59,"min":73,"max":182,"target":"present","response":"present","rt":1164.9000000954,"correct":true,"confidence":3},{"trial_n":60,"min":74,"max":181,"target":"present","response":"present","rt":644.10000014305,"correct":true,"confidence":4},{"trial_n":61,"min":74,"max":181,"target":"absent","response":"absent","rt":836.20000004768,"correct":true,"confidence":5},{"trial_n":62,"min":75,"max":180,"target":"absent","response":"absent","rt":786.70000004768,"correct":true,"confidence":4},{"trial_n":63,"min":75,"max":180,"target":"absent","response":"absent","rt":957.09999990463,"correct":true,"confidence":4},{"trial_n":64,"min":76,"max":179,"target":"present","response":"absent","rt":1310.8999998569,"correct":false,"confidence":2},{"trial_n":65,"min":75,"max":180,"target":"absent","response":"absent","rt":654.40000009537,"correct":true,"confidence":3},{"trial_n":66,"min":75,"max":180,"target":"absent","response":"absent","rt":744,"correct":true,"confidence":3},{"trial_n":67,"min":76,"max":179,"target":"present","response":"absent","rt":729.60000014305,"correct":false,"confidence":3},{"trial_n":68,"min":75,"max":180,"target":"absent","response":"absent","rt":615.29999995232,"correct":true,"confidence":5},{"trial_n":69,"min":75,"max":180,"target":"absent","response":"absent","rt":1091.5,"correct":true,"confidence":5},{"trial_n":70,"min":76,"max":179,"target":"absent","response":"absent","rt":715.40000009537,"correct":true,"confidence":5},{"trial_n":71,"min":41,"max":214,"target":"present","response":"absent","rt":5517.5,"correct":false,"confidence":-1},{"trial_n":72,"min":41,"max":214,"target":"present","response":"present","rt":1097.2000000477,"correct":true,"confidence":-1},{"trial_n":73,"min":41,"max":214,"target":"absent","response":"absent","rt":1710.7999999523,"correct":true,"confidence":-1},{"trial_n":74,"min":57,"max":198,"target":"absent","response":"absent","rt":872.60000014305,"correct":true,"confidence":-1},{"trial_n":75,"min":57,"max":198,"target":"present","response":"present","rt":1433.5,"correct":true,"confidence":-1},{"trial_n":76,"min":73,"max":182,"target":"absent","response":"absent","rt":863.5,"correct":true,"confidence":-1},{"trial_n":77,"min":73,"max":182,"target":"present","response":"absent","rt":2692.5,"correct":false,"confidence":-1},{"trial_n":78,"min":57,"max":198,"target":"absent","response":"present","rt":1674.3999998569,"correct":false,"confidence":-1},{"trial_n":79,"min":41,"max":214,"target":"present","response":"present","rt":1089.1000001431,"correct":true,"confidence":-1},{"trial_n":80,"min":41,"max":214,"target":"absent","response":"absent","rt":1595.8999998569,"correct":true,"confidence":-1},{"trial_n":81,"min":49,"max":206,"target":"present","response":"present","rt":737.09999990463,"correct":true,"confidence":-1},{"trial_n":82,"min":49,"max":206,"target":"present","response":"present","rt":926,"correct":true,"confidence":-1},{"trial_n":83,"min":57,"max":198,"target":"present","response":"present","rt":556.59999990463,"correct":true,"confidence":-1},{"trial_n":84,"min":57,"max":198,"target":"absent","response":"absent","rt":961.79999995232,"correct":true,"confidence":-1},{"trial_n":85,"min":65,"max":190,"target":"present","response":"present","rt":866.79999995232,"correct":true,"confidence":-1},{"trial_n":86,"min":65,"max":190,"target":"absent","response":"present","rt":877.90000009537,"correct":false,"confidence":-1},{"trial_n":87,"min":57,"max":198,"target":"present","response":"present","rt":531.69999980927,"correct":true,"confidence":-1},{"trial_n":88,"min":57,"max":198,"target":"absent","response":"absent","rt":1114.7999999523,"correct":true,"confidence":-1},{"trial_n":89,"min":65,"max":190,"target":"absent","response":"absent","rt":1624.0999999046,"correct":true,"confidence":-1},{"trial_n":90,"min":65,"max":190,"target":"present","response":"absent","rt":847.79999995232,"correct":false,"confidence":-1},{"trial_n":91,"min":61,"max":194,"target":"present","response":"present","rt":1607.1000001431,"correct":true,"confidence":3},{"trial_n":92,"min":61,"max":194,"target":"absent","response":"absent","rt":895.79999995232,"correct":true,"confidence":4},{"trial_n":93,"min":65,"max":190,"target":"absent","response":"absent","rt":1219.2000000477,"correct":true,"confidence":2},{"trial_n":94,"min":65,"max":190,"target":"present","response":"present","rt":630.90000009537,"correct":true,"confidence":5},{"trial_n":95,"min":69,"max":186,"target":"absent","response":"absent","rt":1940,"correct":true,"confidence":1},{"trial_n":96,"min":69,"max":186,"target":"present","response":"present","rt":846.10000014305,"correct":true,"confidence":4},{"trial_n":97,"min":73,"max":182,"target":"absent","response":"absent","rt":1141.7000000477,"correct":true,"confidence":2},{"trial_n":98,"min":73,"max":182,"target":"absent","response":"absent","rt":5530.6999998093,"correct":true,"confidence":2},{"trial_n":99,"min":77,"max":178,"target":"absent","response":"absent","rt":1270.1000001431,"correct":true,"confidence":1},{"trial_n":100,"min":77,"max":178,"target":"present","response":"present","rt":1048.5,"correct":true,"confidence":4},{"trial_n":101,"min":79,"max":176,"target":"present","response":"present","rt":1193.5,"correct":true,"confidence":3},{"trial_n":102,"min":79,"max":176,"target":"present","response":"present","rt":730,"correct":true,"confidence":4},{"trial_n":103,"min":81,"max":174,"target":"absent","response":"absent","rt":999.19999980927,"correct":true,"confidence":2},{"trial_n":104,"min":81,"max":174,"target":"present","response":"present","rt":642.80000019073,"correct":true,"confidence":4},{"trial_n":105,"min":83,"max":172,"target":"absent","response":"present","rt":1481.5999999046,"correct":false,"confidence":4},{"trial_n":106,"min":81,"max":174,"target":"present","response":"present","rt":685,"correct":true,"confidence":2},{"trial_n":107,"min":81,"max":174,"target":"present","response":"absent","rt":1112.2999999523,"correct":false,"confidence":1},{"trial_n":108,"min":79,"max":176,"target":"present","response":"absent","rt":850,"correct":false,"confidence":1},{"trial_n":109,"min":77,"max":178,"target":"present","response":"absent","rt":1041.2999999523,"correct":false,"confidence":1},{"trial_n":110,"min":75,"max":180,"target":"present","response":"present","rt":650.90000009537,"correct":true,"confidence":3},{"trial_n":111,"min":75,"max":180,"target":"present","response":"present","rt":698.20000004768,"correct":true,"confidence":4},{"trial_n":112,"min":76,"max":179,"target":"absent","response":"present","rt":1400.1000001431,"correct":false,"confidence":1},{"trial_n":113,"min":75,"max":180,"target":"absent","response":"absent","rt":861.10000014305,"correct":true,"confidence":3},{"trial_n":114,"min":75,"max":180,"target":"absent","response":"present","rt":894.79999995232,"correct":false,"confidence":1},{"trial_n":115,"min":74,"max":181,"target":"absent","response":"absent","rt":1042.5999999046,"correct":true,"confidence":2},{"trial_n":116,"min":74,"max":181,"target":"present","response":"present","rt":807.29999995232,"correct":true,"confidence":4},{"trial_n":117,"min":75,"max":180,"target":"present","response":"present","rt":627,"correct":true,"confidence":5},{"trial_n":118,"min":75,"max":180,"target":"absent","response":"absent","rt":996.5,"correct":true,"confidence":4},{"trial_n":119,"min":76,"max":179,"target":"present","response":"present","rt":613.20000004768,"correct":true,"confidence":3},{"trial_n":120,"min":76,"max":179,"target":"absent","response":"present","rt":2212.4000000954,"correct":false,"confidence":1},{"trial_n":121,"min":75,"max":180,"target":"present","response":"present","rt":645,"correct":true,"confidence":5},{"trial_n":122,"min":75,"max":180,"target":"absent","response":"absent","rt":1025.5999999046,"correct":true,"confidence":2},{"trial_n":123,"min":76,"max":179,"target":"present","response":"present","rt":1039.3999998569,"correct":true,"confidence":4},{"trial_n":124,"min":76,"max":179,"target":"absent","response":"present","rt":798.29999995232,"correct":false,"confidence":4},{"trial_n":125,"min":75,"max":180,"target":"absent","response":"absent","rt":1407.2999999523,"correct":true,"confidence":1},{"trial_n":126,"min":75,"max":180,"target":"present","response":"present","rt":689.5,"correct":true,"confidence":3},{"trial_n":127,"min":76,"max":179,"target":"absent","response":"absent","rt":1024.5,"correct":true,"confidence":3},{"trial_n":128,"min":76,"max":179,"target":"absent","response":"absent","rt":1188.7000000477,"correct":true,"confidence":1},{"trial_n":129,"min":77,"max":178,"target":"absent","response":"present","rt":1056.9000000954,"correct":false,"confidence":1},{"trial_n":130,"min":76,"max":179,"target":"absent","response":"absent","rt":856.20000004768,"correct":true,"confidence":2},{"trial_n":131,"min":76,"max":179,"target":"absent","response":"present","rt":1313,"correct":false,"confidence":1},{"trial_n":132,"min":75,"max":180,"target":"present","response":"present","rt":1037.1000001431,"correct":true,"confidence":4},{"trial_n":133,"min":75,"max":180,"target":"present","response":"present","rt":1180.7999999523,"correct":true,"confidence":3},{"trial_n":134,"min":76,"max":179,"target":"absent","response":"present","rt":1155.7000000477,"correct":false,"confidence":1},{"trial_n":135,"min":75,"max":180,"target":"absent","response":"absent","rt":1116.1999998093,"correct":true,"confidence":2},{"trial_n":136,"min":75,"max":180,"target":"absent","response":"absent","rt":861.40000009537,"correct":true,"confidence":2},{"trial_n":137,"min":76,"max":179,"target":"present","response":"present","rt":767.79999995232,"correct":true,"confidence":4},{"trial_n":138,"min":76,"max":179,"target":"present","response":"present","rt":703,"correct":true,"confidence":3},{"trial_n":139,"min":77,"max":178,"target":"present","response":"present","rt":724,"correct":true,"confidence":2},{"trial_n":140,"min":77,"max":178,"target":"present","response":"present","rt":788.40000009537,"correct":true,"confidence":4}]