[{"trial_n":1,"span":8,"encoder":"26859603","distractor":"28859603","target":"present","response":"present","rt":"2951.5999999046","correct":true,"confidence":-1},{"trial_n":2,"span":8,"encoder":"46667747","distractor":"46663747","target":"present","response":"absent","rt":"2312.5","correct":false,"confidence":-1},{"trial_n":3,"span":6,"encoder":"942842","distractor":"949842","target":"absent","response":"absent","rt":"2712.4000000954","correct":true,"confidence":-1},{"trial_n":4,"span":6,"encoder":"627264","distractor":"627269","target":"absent","response":"absent","rt":"3096.4000000954","correct":true,"confidence":-1},{"trial_n":5,"span":8,"encoder":"66787901","distractor":"66687901","target":"present","response":"present","rt":"3411.2000000477","correct":true,"confidence":-1},{"trial_n":6,"span":8,"encoder":"80670613","distractor":"00670613","target":"absent","response":"absent","rt":"2044.4000000954","correct":true,"confidence":-1},{"trial_n":7,"span":10,"encoder":"8846904913","distractor":"8846904915","target":"present","response":"present","rt":"2102.5","correct":true,"confidence":-1},{"trial_n":8,"span":10,"encoder":"7692397772","distractor":"7692097772","target":"absent","response":"present","rt":"1501.5","correct":false,"confidence":-1},{"trial_n":9,"span":8,"encoder":"74879368","distractor":"74889368","target":"present","response":"present","rt":"1167.7999999523","correct":true,"confidence":-1},{"trial_n":10,"span":8,"encoder":"33605013","distractor":"33605113","target":"absent","response":"present","rt":"1318.7999999523","correct":false,"confidence":-1},{"trial_n":11,"span":6,"encoder":"875777","distractor":"815777","target":"absent","response":"present","rt":"935.09999990463","correct":false,"confidence":-1},{"trial_n":12,"span":5,"encoder":"03128","distractor":"01128","target":"present","response":"present","rt":"933.89999985695","correct":true,"confidence":-1},{"trial_n":13,"span":5,"encoder":"84793","distractor":"84792","target":"absent","response":"absent","rt":"1902.5","correct":true,"confidence":-1},{"trial_n":14,"span":6,"encoder":"717432","distractor":"716432","target":"absent","response":"absent","rt":"2037","correct":true,"confidence":-1},{"trial_n":15,"span":6,"encoder":"292668","distractor":"262668","target":"present","response":"present","rt":"1201.1000001431","correct":true,"confidence":-1},{"trial_n":16,"span":7,"encoder":"3818877","distractor":"3818857","target":"absent","response":"absent","rt":"2619.2000000477","correct":true,"confidence":-1},{"trial_n":17,"span":7,"encoder":"2459733","distractor":"2459033","target":"present","response":"present","rt":"2002.5999999046","correct":true,"confidence":-1},{"trial_n":18,"span":8,"encoder":"37663692","distractor":"57663692","target":"present","response":"present","rt":"2511.7999999523","correct":true,"confidence":-1},{"trial_n":19,"span":8,"encoder":"18020195","distractor":"16020195","target":"absent","response":"absent","rt":"1708.7999999523","correct":true,"confidence":-1},{"trial_n":20,"span":9,"encoder":"976841990","distractor":"986841990","target":"present","response":"present","rt":"2135.3999998569","correct":true,"confidence":-1},{"trial_n":21,"span":9,"encoder":"730249475","distractor":"733249475","target":"absent","response":"absent","rt":"2417.1999998093","correct":true,"confidence":2},{"trial_n":22,"span":10,"encoder":"9733559508","distractor":"9433559508","target":"absent","response":"present","rt":"1932.3999998569","correct":false,"confidence":4},{"trial_n":23,"span":9,"encoder":"592844160","distractor":"592845160","target":"absent","response":"absent","rt":"3803.2999999523","correct":true,"confidence":2},{"trial_n":24,"span":9,"encoder":"609952969","distractor":"604952969","target":"absent","response":"absent","rt":"4826.1000001431","correct":true,"confidence":2},{"trial_n":25,"span":10,"encoder":"9136645244","distractor":"9136945244","target":"absent","response":"present","rt":"2058.2999999523","correct":false,"confidence":3},{"trial_n":26,"span":9,"encoder":"591749332","distractor":"511749332","target":"absent","response":"present","rt":"1374.9000000954","correct":false,"confidence":3},{"trial_n":27,"span":8,"encoder":"96569191","distractor":"96569199","target":"absent","response":"absent","rt":"2228.7999999523","correct":true,"confidence":4},{"trial_n":28,"span":8,"encoder":"42284008","distractor":"42294008","target":"present","response":"present","rt":"1263.9000000954","correct":true,"confidence":4},{"trial_n":29,"span":9,"encoder":"704899338","distractor":"704899332","target":"present","response":"present","rt":"1575.7999999523","correct":true,"confidence":5},{"trial_n":30,"span":9,"encoder":"116469509","distractor":"116461509","target":"present","response":"present","rt":"2786.2999999523","correct":true,"confidence":4},{"trial_n":31,"span":10,"encoder":"8865074404","distractor":"8845074404","target":"absent","response":"present","rt":"1730.7000000477","correct":false,"confidence":4},{"trial_n":32,"span":9,"encoder":"536692822","distractor":"536693822","target":"absent","response":"present","rt":"2034","correct":false,"confidence":3},{"trial_n":33,"span":8,"encoder":"11631363","distractor":"11639363","target":"absent","response":"present","rt":"1796.2000000477","correct":false,"confidence":4},{"trial_n":34,"span":7,"encoder":"6460247","distractor":"6460249","target":"present","response":"present","rt":"1135.9000000954","correct":true,"confidence":4},{"trial_n":35,"span":7,"encoder":"6119000","distractor":"6113000","target":"present","response":"absent","rt":"2442.0999999046","correct":false,"confidence":3},{"trial_n":36,"span":6,"encoder":"923082","distractor":"923482","target":"present","response":"present","rt":"3013.5","correct":true,"confidence":2},{"trial_n":37,"span":6,"encoder":"406538","distractor":"106538","target":"absent","response":"present","rt":"1603.2999999523","correct":false,"confidence":2},{"trial_n":38,"span":5,"encoder":"84559","distractor":"44559","target":"absent","response":"present","rt":"1317","correct":false,"confidence":4},{"trial_n":39,"span":4,"encoder":"7430","distractor":"7530","target":"absent","response":"present","rt":"2079.7999999523","correct":false,"confidence":2},{"trial_n":40,"span":3,"encoder":"681","distractor":"691","target":"absent","response":"absent","rt":"1215.9000000954","correct":true,"confidence":5},{"trial_n":41,"span":3,"encoder":"142","distractor":"143","target":"absent","response":"absent","rt":"1316.8999998569","correct":true,"confidence":5},{"trial_n":42,"span":4,"encoder":"6928","distractor":"6128","target":"present","response":"present","rt":"1202.0999999046","correct":true,"confidence":5},{"trial_n":43,"span":4,"encoder":"1621","distractor":"1629","target":"present","response":"present","rt":"1013.8999998569","correct":true,"confidence":5},{"trial_n":44,"span":5,"encoder":"67483","distractor":"67443","target":"present","response":"present","rt":"1350.9000000954","correct":true,"confidence":4},{"trial_n":45,"span":5,"encoder":"19412","distractor":"29412","target":"present","response":"present","rt":"1715.0999999046","correct":true,"confidence":4},{"trial_n":46,"span":6,"encoder":"905520","distractor":"305520","target":"present","response":"present","rt":"2310.2999999523","correct":true,"confidence":1},{"trial_n":47,"span":6,"encoder":"379023","distractor":"379523","target":"absent","response":"absent","rt":"1851.7000000477","correct":true,"confidence":5},{"trial_n":48,"span":7,"encoder":"9543188","distractor":"9544188","target":"absent","response":"absent","rt":"1999.6999998093","correct":true,"confidence":5},{"trial_n":49,"span":7,"encoder":"7656306","distractor":"7156306","target":"present","response":"absent","rt":"2285.6000001431","correct":false,"confidence":3},{"trial_n":50,"span":6,"encoder":"534252","distractor":"524252","target":"present","response":"absent","rt":"9286.1000001431","correct":false,"confidence":5},{"trial_n":51,"span":5,"encoder":"25694","distractor":"25394","target":"present","response":"present","rt":"1741.5999999046","correct":true,"confidence":4},{"trial_n":52,"span":5,"encoder":"32060","distractor":"31060","target":"absent","response":"absent","rt":"2846.8000001907","correct":true,"confidence":5},{"trial_n":53,"span":6,"encoder":"727571","distractor":"827571","target":"absent","response":"present","rt":"3630.3999998569","correct":false,"confidence":4},{"trial_n":54,"span":5,"encoder":"54003","distractor":"24003","target":"present","response":"present","rt":"1202.7999999523","correct":true,"confidence":5},{"trial_n":55,"span":5,"encoder":"80849","distractor":"85849","target":"absent","response":"absent","rt":"1389.5","correct":true,"confidence":5},{"trial_n":56,"span":6,"encoder":"847326","distractor":"847126","target":"present","response":"present","rt":"2824.7999999523","correct":true,"confidence":4},{"trial_n":57,"span":6,"encoder":"571689","distractor":"571989","target":"absent","response":"absent","rt":"1841.2999999523","correct":true,"confidence":3},{"trial_n":58,"span":7,"encoder":"4052070","distractor":"9052070","target":"present","response":"present","rt":"3494.6000001431","correct":true,"confidence":3},{"trial_n":59,"span":7,"encoder":"0734580","distractor":"0732580","target":"absent","response":"absent","rt":"3224.5","correct":true,"confidence":2},{"trial_n":60,"span":8,"encoder":"12891883","distractor":"12891886","target":"present","response":"absent","rt":"2052.6000001431","correct":false,"confidence":2},{"trial_n":61,"span":7,"encoder":"0626375","distractor":"0626175","target":"present","response":"present","rt":"2080.9000000954","correct":true,"confidence":4},{"trial_n":62,"span":7,"encoder":"2996128","distractor":"2996148","target":"present","response":"present","rt":"1816.1999998093","correct":true,"confidence":3},{"trial_n":63,"span":8,"encoder":"69536785","distractor":"69556785","target":"absent","response":"absent","rt":"2075.0999999046","correct":true,"confidence":4},{"trial_n":64,"span":8,"encoder":"94820883","distractor":"94820881","target":"present","response":"absent","rt":"1928.7999999523","correct":false,"confidence":1},{"trial_n":65,"span":7,"encoder":"2193809","distractor":"2133809","target":"absent","response":"present","rt":"1369.9000000954","correct":false,"confidence":4},{"trial_n":66,"span":6,"encoder":"442208","distractor":"447208","target":"present","response":"present","rt":"2068.9000000954","correct":true,"confidence":4},{"trial_n":67,"span":6,"encoder":"823650","distractor":"823850","target":"present","response":"present","rt":"1844.6999998093","correct":true,"confidence":4},{"trial_n":68,"span":7,"encoder":"1057721","distractor":"8057721","target":"present","response":"present","rt":"1337.2999999523","correct":true,"confidence":5},{"trial_n":69,"span":7,"encoder":"3922199","distractor":"3922192","target":"present","response":"present","rt":"1836.6000001431","correct":true,"confidence":5},{"trial_n":70,"span":8,"encoder":"86822714","distractor":"86821714","target":"present","response":"absent","rt":"3961.4000000954","correct":false,"confidence":3},{"trial_n":71,"span":8,"encoder":"94231940","distractor":"93231940","target":"present","response":"absent","rt":"3185.2999999523","correct":false,"confidence":-1},{"trial_n":72,"span":7,"encoder":"4612408","distractor":"4612418","target":"present","response":"present","rt":"2128","correct":true,"confidence":-1},{"trial_n":73,"span":7,"encoder":"6049654","distractor":"6049644","target":"absent","response":"absent","rt":"1792.1000001431","correct":true,"confidence":-1},{"trial_n":74,"span":8,"encoder":"49011902","distractor":"49061902","target":"absent","response":"absent","rt":"3307.2000000477","correct":true,"confidence":-1},{"trial_n":75,"span":8,"encoder":"00358864","distractor":"00358867","target":"present","response":"present","rt":"3382.6000001431","correct":true,"confidence":-1},{"trial_n":76,"span":9,"encoder":"521097667","distractor":"521097467","target":"present","response":"present","rt":"2605.5","correct":true,"confidence":-1},{"trial_n":77,"span":9,"encoder":"107785737","distractor":"107795737","target":"absent","response":"absent","rt":"3541.5","correct":true,"confidence":-1},{"trial_n":78,"span":10,"encoder":"7022923929","distractor":"7022963929","target":"absent","response":"absent","rt":"15100","correct":true,"confidence":-1},{"trial_n":79,"span":10,"encoder":"9002845353","distractor":"9002885353","target":"absent","response":"absent","rt":"2316.7000000477","correct":true,"confidence":-1},{"trial_n":80,"span":11,"encoder":"77832612566","distractor":"77832692566","target":"absent","response":"absent","rt":"2617.6999998093","correct":true,"confidence":-1},{"trial_n":81,"span":11,"encoder":"20631653384","distractor":"80631653384","target":"absent","response":"absent","rt":"3704.8999998569","correct":true,"confidence":-1},{"trial_n":82,"span":12,"encoder":"937335303074","distractor":"937335303084","target":"present","response":"present","rt":"1873.4000000954","correct":true,"confidence":-1},{"trial_n":83,"span":12,"encoder":"313354022203","distractor":"314354022203","target":"present","response":"present","rt":"3455.5","correct":true,"confidence":-1},{"trial_n":84,"span":13,"encoder":"7436694824940","distractor":"7436684824940","target":"absent","response":"present","rt":"420","correct":false,"confidence":-1},{"trial_n":85,"span":12,"encoder":"415566058079","distractor":"415566958079","target":"present","response":"present","rt":"2204.5","correct":true,"confidence":-1},{"trial_n":86,"span":12,"encoder":"022433685762","distractor":"022333685762","target":"present","response":"absent","rt":"785.70000004768","correct":false,"confidence":-1},{"trial_n":87,"span":11,"encoder":"10348455165","distractor":"10348455195","target":"absent","response":"absent","rt":"1100.6999998093","correct":true,"confidence":-1},{"trial_n":88,"span":11,"encoder":"18935412120","distractor":"18935412320","target":"present","response":"present","rt":"1605","correct":true,"confidence":-1},{"trial_n":89,"span":12,"encoder":"836916232093","distractor":"836916632093","target":"present","response":"present","rt":"2436.2000000477","correct":true,"confidence":-1},{"trial_n":90,"span":12,"encoder":"385390112143","distractor":"385390172143","target":"absent","response":"absent","rt":"2942.7000000477","correct":true,"confidence":-1},{"trial_n":91,"span":13,"encoder":"8650148197889","distractor":"3650148197889","target":"present","response":"present","rt":"7421.3999998569","correct":true,"confidence":3},{"trial_n":92,"span":13,"encoder":"0375609861417","distractor":"0375609891417","target":"present","response":"absent","rt":"3015.8999998569","correct":false,"confidence":2},{"trial_n":93,"span":12,"encoder":"526718813038","distractor":"566718813038","target":"absent","response":"absent","rt":"7477.2999999523","correct":true,"confidence":1},{"trial_n":94,"span":12,"encoder":"496050920665","distractor":"496050925665","target":"absent","response":"present","rt":"4043.2000000477","correct":false,"confidence":1},{"trial_n":95,"span":11,"encoder":"03298498848","distractor":"03298408848","target":"absent","response":"present","rt":"435304.89999986","correct":false,"confidence":1},{"trial_n":96,"span":10,"encoder":"8044898218","distractor":"8049898218","target":"present","response":"present","rt":"1952.7999999523","correct":true,"confidence":4},{"trial_n":97,"span":10,"encoder":"4815524045","distractor":"4815524085","target":"present","response":"present","rt":"2754","correct":true,"confidence":3},{"trial_n":98,"span":11,"encoder":"60554268010","distractor":"60534268010","target":"absent","response":"present","rt":"4424.7000000477","correct":false,"confidence":2},{"trial_n":99,"span":10,"encoder":"6392840095","distractor":"6392850095","target":"absent","response":"absent","rt":"8777.2000000477","correct":true,"confidence":3},{"trial_n":100,"span":10,"encoder":"8800482575","distractor":"8800482375","target":"present","response":"present","rt":"1695.9000000954","correct":true,"confidence":5},{"trial_n":101,"span":11,"encoder":"73434734909","distractor":"73434733909","target":"present","response":"present","rt":"7457.6999998093","correct":true,"confidence":3},{"trial_n":102,"span":11,"encoder":"75144757707","distractor":"75145757707","target":"present","response":"present","rt":"4780.7000000477","correct":true,"confidence":2},{"trial_n":103,"span":12,"encoder":"388589439556","distractor":"388589439516","target":"present","response":"present","rt":"2062.9000000954","correct":true,"confidence":5},{"trial_n":104,"span":12,"encoder":"427310293196","distractor":"427310293186","target":"present","response":"present","rt":"3698.5","correct":true,"confidence":4},{"trial_n":105,"span":13,"encoder":"7974606753768","distractor":"7974606753368","target":"present","response":"present","rt":"2554.7999999523","correct":true,"confidence":4},{"trial_n":106,"span":13,"encoder":"1354324274432","distractor":"1357324274432","target":"absent","response":"present","rt":"10385.099999905","correct":false,"confidence":2},{"trial_n":107,"span":12,"encoder":"809301909151","distractor":"809301109151","target":"present","response":"present","rt":"3174.1000001431","correct":true,"confidence":3},{"trial_n":108,"span":12,"encoder":"989714768804","distractor":"989724768804","target":"present","response":"present","rt":"2498.4000000954","correct":true,"confidence":1},{"trial_n":109,"span":13,"encoder":"9766740565115","distractor":"9966740565115","target":"present","response":"present","rt":"9015","correct":true,"confidence":3},{"trial_n":110,"span":13,"encoder":"8593202350929","distractor":"8593209350929","target":"present","response":"absent","rt":"4988.2000000477","correct":false,"confidence":2},{"trial_n":111,"span":12,"encoder":"117912120091","distractor":"117712120091","target":"present","response":"present","rt":"2398.2999999523","correct":true,"confidence":5},{"trial_n":112,"span":12,"encoder":"845100779068","distractor":"840100779068","target":"present","response":"absent","rt":"6196.4000000954","correct":false,"confidence":3},{"trial_n":113,"span":11,"encoder":"82184243154","distractor":"82184643154","target":"absent","response":"absent","rt":"3449.2999999523","correct":true,"confidence":2},{"trial_n":114,"span":11,"encoder":"53792378948","distractor":"53792378928","target":"absent","response":"absent","rt":"2419.2000000477","correct":true,"confidence":5},{"trial_n":115,"span":12,"encoder":"739048898355","distractor":"734048898355","target":"present","response":"present","rt":"6171.2000000477","correct":true,"confidence":3},{"trial_n":116,"span":12,"encoder":"281968984932","distractor":"281968984912","target":"absent","response":"absent","rt":"1540.2999999523","correct":true,"confidence":5},{"trial_n":117,"span":13,"encoder":"0896191196857","distractor":"0896191186857","target":"present","response":"absent","rt":"10264.399999857","correct":false,"confidence":3},{"trial_n":118,"span":12,"encoder":"626792680629","distractor":"626796680629","target":"absent","response":"present","rt":"7438.5","correct":false,"confidence":1},{"trial_n":119,"span":11,"encoder":"76102278450","distractor":"76202278450","target":"absent","response":"present","rt":"5261.2000000477","correct":false,"confidence":2},{"trial_n":120,"span":10,"encoder":"0388415995","distractor":"0388415595","target":"present","response":"absent","rt":"7454.2000000477","correct":false,"confidence":3},{"trial_n":121,"span":9,"encoder":"766252045","distractor":"766252645","target":"present","response":"present","rt":"2160.2999999523","correct":true,"confidence":3},{"trial_n":122,"span":9,"encoder":"718549966","distractor":"718541966","target":"present","response":"absent","rt":"3028.7000000477","correct":false,"confidence":3},{"trial_n":123,"span":8,"encoder":"55196157","distractor":"55996157","target":"absent","response":"absent","rt":"2517.5999999046","correct":true,"confidence":3},{"trial_n":124,"span":8,"encoder":"90718433","distractor":"90918433","target":"absent","response":"absent","rt":"17194.400000095","correct":true,"confidence":2},{"trial_n":125,"span":9,"encoder":"247177233","distractor":"447177233","target":"absent","response":"absent","rt":"5663.0999999046","correct":true,"confidence":2},{"trial_n":126,"span":9,"encoder":"691881514","distractor":"691888514","target":"absent","response":"absent","rt":"2753.1000001431","correct":true,"confidence":3},{"trial_n":127,"span":10,"encoder":"8606714146","distractor":"8606714546","target":"present","response":"present","rt":"1774","correct":true,"confidence":4},{"trial_n":128,"span":10,"encoder":"8341835005","distractor":"8941835005","target":"absent","response":"absent","rt":"4257.7999999523","correct":true,"confidence":4},{"trial_n":129,"span":11,"encoder":"47894834980","distractor":"47894834970","target":"absent","response":"absent","rt":"2221.6000001431","correct":true,"confidence":1},{"trial_n":130,"span":11,"encoder":"22896292722","distractor":"22816292722","target":"present","response":"absent","rt":"4068.2000000477","correct":false,"confidence":1},{"trial_n":131,"span":10,"encoder":"9306719545","distractor":"6306719545","target":"absent","response":"absent","rt":"4784.7999999523","correct":true,"confidence":4},{"trial_n":132,"span":10,"encoder":"6180005130","distractor":"6180005150","target":"absent","response":"absent","rt":"1661.0999999046","correct":true,"confidence":5},{"trial_n":133,"span":11,"encoder":"59096117744","distractor":"51096117744","target":"present","response":"present","rt":"13454.5","correct":true,"confidence":1},{"trial_n":134,"span":11,"encoder":"46860419008","distractor":"46860419508","target":"absent","response":"present","rt":"5761.4000000954","correct":false,"confidence":4},{"trial_n":135,"span":10,"encoder":"9029481330","distractor":"9039481330","target":"present","response":"absent","rt":"6307.0999999046","correct":false,"confidence":2},{"trial_n":136,"span":9,"encoder":"696968319","distractor":"396968319","target":"absent","response":"absent","rt":"4199.2000000477","correct":true,"confidence":3},{"trial_n":137,"span":9,"encoder":"397090439","distractor":"398090439","target":"absent","response":"present","rt":"2892.2999999523","correct":false,"confidence":1},{"trial_n":138,"span":8,"encoder":"61517194","distractor":"61617194","target":"absent","response":"absent","rt":"3601.7999999523","correct":true,"confidence":3},{"trial_n":139,"span":8,"encoder":"78396047","distractor":"78396347","target":"present","response":"absent","rt":"3138.5","correct":false,"confidence":1},{"trial_n":140,"span":7,"encoder":"6832048","distractor":"6830048","target":"absent","response":"absent","rt":"1416.7000000477","correct":true,"confidence":3}]