[{"trial_n":1,"min":25,"max":230,"target":"present","response":"absent","rt":8933,"correct":false,"confidence":-1},{"trial_n":2,"min":25,"max":230,"target":"present","response":"present","rt":1250.5999999046,"correct":true,"confidence":-1},{"trial_n":3,"min":25,"max":230,"target":"absent","response":"absent","rt":851.59999990463,"correct":true,"confidence":-1},{"trial_n":4,"min":41,"max":214,"target":"absent","response":"absent","rt":1132.7000000477,"correct":true,"confidence":-1},{"trial_n":5,"min":41,"max":214,"target":"present","response":"present","rt":1082.2999999523,"correct":true,"confidence":-1},{"trial_n":6,"min":57,"max":198,"target":"present","response":"present","rt":914,"correct":true,"confidence":-1},{"trial_n":7,"min":57,"max":198,"target":"absent","response":"absent","rt":1162.4000000954,"correct":true,"confidence":-1},{"trial_n":8,"min":73,"max":182,"target":"absent","response":"absent","rt":848.19999980927,"correct":true,"confidence":-1},{"trial_n":9,"min":73,"max":182,"target":"present","response":"present","rt":821.30000019073,"correct":true,"confidence":-1},{"trial_n":10,"min":89,"max":166,"target":"present","response":"absent","rt":792.70000004768,"correct":false,"confidence":-1},{"trial_n":11,"min":81,"max":174,"target":"absent","response":"absent","rt":1032.7999999523,"correct":true,"confidence":-1},{"trial_n":12,"min":81,"max":174,"target":"absent","response":"absent","rt":1051.4000000954,"correct":true,"confidence":-1},{"trial_n":13,"min":89,"max":166,"target":"present","response":"present","rt":867.59999990463,"correct":true,"confidence":-1},{"trial_n":14,"min":89,"max":166,"target":"absent","response":"absent","rt":1001.1000001431,"correct":true,"confidence":-1},{"trial_n":15,"min":97,"max":158,"target":"present","response":"absent","rt":933.70000004768,"correct":false,"confidence":-1},{"trial_n":16,"min":89,"max":166,"target":"present","response":"present","rt":905.29999995232,"correct":true,"confidence":-1},{"trial_n":17,"min":89,"max":166,"target":"absent","response":"absent","rt":1231.7000000477,"correct":true,"confidence":-1},{"trial_n":18,"min":97,"max":158,"target":"present","response":"absent","rt":1035.3000001907,"correct":false,"confidence":-1},{"trial_n":19,"min":89,"max":166,"target":"present","response":"present","rt":1364.1000001431,"correct":true,"confidence":-1},{"trial_n":20,"min":89,"max":166,"target":"absent","response":"present","rt":1031.9000000954,"correct":false,"confidence":-1},{"trial_n":21,"min":85,"max":170,"target":"absent","response":"absent","rt":1618.5,"correct":true,"confidence":1},{"trial_n":22,"min":85,"max":170,"target":"present","response":"absent","rt":1119.8999998569,"correct":false,"confidence":1},{"trial_n":23,"min":81,"max":174,"target":"absent","response":"absent","rt":946.60000014305,"correct":true,"confidence":3},{"trial_n":24,"min":81,"max":174,"target":"absent","response":"absent","rt":1046.7000000477,"correct":true,"confidence":3},{"trial_n":25,"min":85,"max":170,"target":"present","response":"present","rt":1053.7999999523,"correct":true,"confidence":5},{"trial_n":26,"min":85,"max":170,"target":"present","response":"present","rt":739.70000004768,"correct":true,"confidence":4},{"trial_n":27,"min":89,"max":166,"target":"absent","response":"present","rt":1098.6000001431,"correct":false,"confidence":4},{"trial_n":28,"min":85,"max":170,"target":"present","response":"present","rt":795.39999985695,"correct":true,"confidence":3},{"trial_n":29,"min":85,"max":170,"target":"absent","response":"present","rt":807.5,"correct":false,"confidence":3},{"trial_n":30,"min":81,"max":174,"target":"present","response":"present","rt":791.79999995232,"correct":true,"confidence":5},{"trial_n":31,"min":81,"max":174,"target":"present","response":"present","rt":1651.7999999523,"correct":true,"confidence":5},{"trial_n":32,"min":83,"max":172,"target":"present","response":"present","rt":697.10000014305,"correct":true,"confidence":3},{"trial_n":33,"min":83,"max":172,"target":"present","response":"present","rt":655.69999980927,"correct":true,"confidence":5},{"trial_n":34,"min":85,"max":170,"target":"present","response":"present","rt":961.90000009537,"correct":true,"confidence":5},{"trial_n":35,"min":85,"max":170,"target":"absent","response":"present","rt":1807.2999999523,"correct":false,"confidence":2},{"trial_n":36,"min":83,"max":172,"target":"absent","response":"absent","rt":1540.6000001431,"correct":true,"confidence":3},{"trial_n":37,"min":83,"max":172,"target":"absent","response":"absent","rt":975.5,"correct":true,"confidence":4},{"trial_n":38,"min":85,"max":170,"target":"absent","response":"present","rt":1791.9000000954,"correct":false,"confidence":2},{"trial_n":39,"min":83,"max":172,"target":"present","response":"present","rt":1887.2999999523,"correct":true,"confidence":5},{"trial_n":40,"min":83,"max":172,"target":"absent","response":"present","rt":832.5,"correct":false,"confidence":3},{"trial_n":41,"min":82,"max":173,"target":"present","response":"absent","rt":1951.6999998093,"correct":false,"confidence":3},{"trial_n":42,"min":81,"max":174,"target":"absent","response":"absent","rt":982.79999995232,"correct":true,"confidence":3},{"trial_n":43,"min":81,"max":174,"target":"absent","response":"absent","rt":996.40000009537,"correct":true,"confidence":4},{"trial_n":44,"min":82,"max":173,"target":"present","response":"present","rt":887.40000009537,"correct":true,"confidence":4},{"trial_n":45,"min":82,"max":173,"target":"absent","response":"absent","rt":1318.5,"correct":true,"confidence":1},{"trial_n":46,"min":83,"max":172,"target":"present","response":"present","rt":859.29999995232,"correct":true,"confidence":4},{"trial_n":47,"min":83,"max":172,"target":"absent","response":"absent","rt":2216.9000000954,"correct":true,"confidence":1},{"trial_n":48,"min":84,"max":171,"target":"absent","response":"absent","rt":2600.5,"correct":true,"confidence":1},{"trial_n":49,"min":84,"max":171,"target":"present","response":"present","rt":770.90000009537,"correct":true,"confidence":5},{"trial_n":50,"min":85,"max":170,"target":"present","response":"present","rt":1065.2000000477,"correct":true,"confidence":5},{"trial_n":51,"min":85,"max":170,"target":"present","response":"present","rt":1459.9000000954,"correct":true,"confidence":1},{"trial_n":52,"min":86,"max":169,"target":"present","response":"present","rt":1151.1999998093,"correct":true,"confidence":5},{"trial_n":53,"min":86,"max":169,"target":"present","response":"absent","rt":949.5,"correct":false,"confidence":3},{"trial_n":54,"min":85,"max":170,"target":"present","response":"present","rt":818.29999995232,"correct":true,"confidence":5},{"trial_n":55,"min":85,"max":170,"target":"absent","response":"present","rt":1817.4000000954,"correct":false,"confidence":1},{"trial_n":56,"min":84,"max":171,"target":"absent","response":"present","rt":809.40000009537,"correct":false,"confidence":5},{"trial_n":57,"min":83,"max":172,"target":"present","response":"present","rt":1438.4000000954,"correct":true,"confidence":1},{"trial_n":58,"min":83,"max":172,"target":"absent","response":"present","rt":1266.1999998093,"correct":false,"confidence":3},{"trial_n":59,"min":82,"max":173,"target":"absent","response":"present","rt":932,"correct":false,"confidence":4},{"trial_n":60,"min":81,"max":174,"target":"present","response":"present","rt":863.89999985695,"correct":true,"confidence":5},{"trial_n":61,"min":81,"max":174,"target":"absent","response":"present","rt":1163.3999998569,"correct":false,"confidence":1},{"trial_n":62,"min":80,"max":175,"target":"absent","response":"present","rt":1335.9000000954,"correct":false,"confidence":3},{"trial_n":63,"min":79,"max":176,"target":"present","response":"present","rt":689.40000009537,"correct":true,"confidence":5},{"trial_n":64,"min":79,"max":176,"target":"present","response":"absent","rt":1591,"correct":false,"confidence":1},{"trial_n":65,"min":78,"max":177,"target":"present","response":"present","rt":784.90000009537,"correct":true,"confidence":5},{"trial_n":66,"min":78,"max":177,"target":"present","response":"present","rt":850.79999995232,"correct":true,"confidence":5},{"trial_n":67,"min":79,"max":176,"target":"absent","response":"absent","rt":1359,"correct":true,"confidence":4},{"trial_n":68,"min":79,"max":176,"target":"absent","response":"absent","rt":1135.1999998093,"correct":true,"confidence":3},{"trial_n":69,"min":80,"max":175,"target":"absent","response":"absent","rt":805.89999985695,"correct":true,"confidence":4},{"trial_n":70,"min":80,"max":175,"target":"absent","response":"absent","rt":1863.5,"correct":true,"confidence":2},{"trial_n":71,"min":41,"max":214,"target":"present","response":"present","rt":12992.299999952,"correct":true,"confidence":-1},{"trial_n":72,"min":41,"max":214,"target":"present","response":"present","rt":565.20000004768,"correct":true,"confidence":-1},{"trial_n":73,"min":57,"max":198,"target":"absent","response":"absent","rt":860.20000004768,"correct":true,"confidence":-1},{"trial_n":74,"min":57,"max":198,"target":"absent","response":"absent","rt":591.39999985695,"correct":true,"confidence":-1},{"trial_n":75,"min":73,"max":182,"target":"present","response":"present","rt":521.79999995232,"correct":true,"confidence":-1},{"trial_n":76,"min":73,"max":182,"target":"present","response":"present","rt":846.09999990463,"correct":true,"confidence":-1},{"trial_n":77,"min":89,"max":166,"target":"present","response":"absent","rt":676.29999995232,"correct":false,"confidence":-1},{"trial_n":78,"min":73,"max":182,"target":"present","response":"present","rt":1266.8000001907,"correct":true,"confidence":-1},{"trial_n":79,"min":73,"max":182,"target":"present","response":"present","rt":917.19999980927,"correct":true,"confidence":-1},{"trial_n":80,"min":89,"max":166,"target":"present","response":"present","rt":872.5,"correct":true,"confidence":-1},{"trial_n":81,"min":89,"max":166,"target":"present","response":"absent","rt":938.09999990463,"correct":false,"confidence":-1},{"trial_n":82,"min":81,"max":174,"target":"present","response":"absent","rt":890.5,"correct":false,"confidence":-1},{"trial_n":83,"min":73,"max":182,"target":"absent","response":"absent","rt":2008.5,"correct":true,"confidence":-1},{"trial_n":84,"min":73,"max":182,"target":"absent","response":"present","rt":883.39999985695,"correct":false,"confidence":-1},{"trial_n":85,"min":65,"max":190,"target":"present","response":"present","rt":565,"correct":true,"confidence":-1},{"trial_n":86,"min":65,"max":190,"target":"absent","response":"absent","rt":1368.7999999523,"correct":true,"confidence":-1},{"trial_n":87,"min":73,"max":182,"target":"absent","response":"absent","rt":6830.7000000477,"correct":true,"confidence":-1},{"trial_n":88,"min":73,"max":182,"target":"absent","response":"absent","rt":739.60000014305,"correct":true,"confidence":-1},{"trial_n":89,"min":81,"max":174,"target":"present","response":"present","rt":609.70000004768,"correct":true,"confidence":-1},{"trial_n":90,"min":81,"max":174,"target":"absent","response":"present","rt":1039.8000001907,"correct":false,"confidence":-1},{"trial_n":91,"min":77,"max":178,"target":"present","response":"present","rt":717.29999995232,"correct":true,"confidence":5},{"trial_n":92,"min":77,"max":178,"target":"absent","response":"absent","rt":751.90000009537,"correct":true,"confidence":5},{"trial_n":93,"min":81,"max":174,"target":"present","response":"present","rt":697.39999985695,"correct":true,"confidence":5},{"trial_n":94,"min":81,"max":174,"target":"present","response":"present","rt":528.70000004768,"correct":true,"confidence":5},{"trial_n":95,"min":85,"max":170,"target":"present","response":"present","rt":650.89999985695,"correct":true,"confidence":5},{"trial_n":96,"min":85,"max":170,"target":"present","response":"present","rt":597.70000004768,"correct":true,"confidence":5},{"trial_n":97,"min":89,"max":166,"target":"present","response":"absent","rt":1181.0999999046,"correct":false,"confidence":2},{"trial_n":98,"min":85,"max":170,"target":"absent","response":"absent","rt":1497.7000000477,"correct":true,"confidence":2},{"trial_n":99,"min":85,"max":170,"target":"absent","response":"present","rt":968,"correct":false,"confidence":4},{"trial_n":100,"min":81,"max":174,"target":"present","response":"present","rt":489.79999995232,"correct":true,"confidence":4},{"trial_n":101,"min":81,"max":174,"target":"absent","response":"absent","rt":1012.5,"correct":true,"confidence":3},{"trial_n":102,"min":83,"max":172,"target":"absent","response":"absent","rt":635.29999995232,"correct":true,"confidence":4},{"trial_n":103,"min":83,"max":172,"target":"absent","response":"present","rt":1002.5999999046,"correct":false,"confidence":3},{"trial_n":104,"min":81,"max":174,"target":"absent","response":"absent","rt":1562.2000000477,"correct":true,"confidence":2},{"trial_n":105,"min":81,"max":174,"target":"present","response":"present","rt":637.29999995232,"correct":true,"confidence":5},{"trial_n":106,"min":83,"max":172,"target":"present","response":"present","rt":1050.5,"correct":true,"confidence":4},{"trial_n":107,"min":83,"max":172,"target":"present","response":"present","rt":1579.2999999523,"correct":true,"confidence":1},{"trial_n":108,"min":85,"max":170,"target":"absent","response":"absent","rt":686.60000014305,"correct":true,"confidence":4},{"trial_n":109,"min":85,"max":170,"target":"present","response":"absent","rt":771.70000004768,"correct":false,"confidence":4},{"trial_n":110,"min":83,"max":172,"target":"absent","response":"absent","rt":740.09999990463,"correct":true,"confidence":3},{"trial_n":111,"min":83,"max":172,"target":"present","response":"present","rt":1265.8999998569,"correct":true,"confidence":5},{"trial_n":112,"min":84,"max":171,"target":"absent","response":"absent","rt":985.69999980927,"correct":true,"confidence":3},{"trial_n":113,"min":84,"max":171,"target":"absent","response":"absent","rt":1464.7000000477,"correct":true,"confidence":3},{"trial_n":114,"min":85,"max":170,"target":"absent","response":"absent","rt":899.20000004768,"correct":true,"confidence":3},{"trial_n":115,"min":85,"max":170,"target":"absent","response":"absent","rt":1313.4000000954,"correct":true,"confidence":5},{"trial_n":116,"min":86,"max":169,"target":"absent","response":"absent","rt":1561.7999999523,"correct":true,"confidence":4},{"trial_n":117,"min":86,"max":169,"target":"present","response":"present","rt":947.70000004768,"correct":true,"confidence":4},{"trial_n":118,"min":87,"max":168,"target":"absent","response":"present","rt":1079.6000001431,"correct":false,"confidence":4},{"trial_n":119,"min":86,"max":169,"target":"absent","response":"absent","rt":1229.9000000954,"correct":true,"confidence":3},{"trial_n":120,"min":86,"max":169,"target":"present","response":"present","rt":1465.5,"correct":true,"confidence":4},{"trial_n":121,"min":87,"max":168,"target":"absent","response":"absent","rt":1117.8000001907,"correct":true,"confidence":4},{"trial_n":122,"min":87,"max":168,"target":"absent","response":"present","rt":963.60000014305,"correct":false,"confidence":1},{"trial_n":123,"min":86,"max":169,"target":"absent","response":"absent","rt":867.29999995232,"correct":true,"confidence":3},{"trial_n":124,"min":86,"max":169,"target":"present","response":"present","rt":1167.7999999523,"correct":true,"confidence":5},{"trial_n":125,"min":87,"max":168,"target":"absent","response":"absent","rt":1445.2000000477,"correct":true,"confidence":2},{"trial_n":126,"min":87,"max":168,"target":"present","response":"absent","rt":1099.7999999523,"correct":false,"confidence":1},{"trial_n":127,"min":86,"max":169,"target":"absent","response":"absent","rt":1238,"correct":true,"confidence":5},{"trial_n":128,"min":86,"max":169,"target":"absent","response":"present","rt":1596.6999998093,"correct":false,"confidence":3},{"trial_n":129,"min":85,"max":170,"target":"absent","response":"absent","rt":950.5,"correct":true,"confidence":4},{"trial_n":130,"min":85,"max":170,"target":"present","response":"present","rt":1996.2999999523,"correct":true,"confidence":5},{"trial_n":131,"min":86,"max":169,"target":"present","response":"present","rt":816.5,"correct":true,"confidence":5},{"trial_n":132,"min":86,"max":169,"target":"present","response":"present","rt":1449.5,"correct":true,"confidence":5},{"trial_n":133,"min":87,"max":168,"target":"absent","response":"absent","rt":997.60000014305,"correct":true,"confidence":4},{"trial_n":134,"min":87,"max":168,"target":"absent","response":"absent","rt":1184,"correct":true,"confidence":4},{"trial_n":135,"min":88,"max":167,"target":"present","response":"present","rt":1061.6000001431,"correct":true,"confidence":3},{"trial_n":136,"min":88,"max":167,"target":"present","response":"present","rt":716.09999990463,"correct":true,"confidence":5},{"trial_n":137,"min":89,"max":166,"target":"present","response":"present","rt":849.90000009537,"correct":true,"confidence":5},{"trial_n":138,"min":89,"max":166,"target":"present","response":"present","rt":1138,"correct":true,"confidence":5},{"trial_n":139,"min":90,"max":165,"target":"absent","response":"absent","rt":1347.7999999523,"correct":true,"confidence":4},{"trial_n":140,"min":90,"max":165,"target":"present","response":"present","rt":780.60000014305,"correct":true,"confidence":4}]