[{"trial_n":1,"n_dots":4.25,"target":"left","response":"left","rt":3366,"correct":true,"confidence":-1},{"trial_n":2,"n_dots":4.25,"target":"right","response":"right","rt":1839,"correct":true,"confidence":-1},{"trial_n":3,"n_dots":3.85,"target":"left","response":"left","rt":1588,"correct":true,"confidence":-1},{"trial_n":4,"n_dots":3.85,"target":"right","response":"right","rt":1490,"correct":true,"confidence":-1},{"trial_n":5,"n_dots":3.45,"target":"right","response":"left","rt":2207,"correct":false,"confidence":-1},{"trial_n":6,"n_dots":3.85,"target":"right","response":"right","rt":1110,"correct":true,"confidence":-1},{"trial_n":7,"n_dots":3.85,"target":"right","response":"left","rt":2456,"correct":false,"confidence":-1},{"trial_n":8,"n_dots":4.05,"target":"right","response":"left","rt":2492,"correct":false,"confidence":-1},{"trial_n":9,"n_dots":4.25,"target":"right","response":"right","rt":824,"correct":true,"confidence":-1},{"trial_n":10,"n_dots":4.25,"target":"right","response":"right","rt":973,"correct":true,"confidence":-1},{"trial_n":11,"n_dots":4.05,"target":"left","response":"right","rt":1008,"correct":false,"confidence":-1},{"trial_n":12,"n_dots":4.25,"target":"left","response":"left","rt":757,"correct":true,"confidence":-1},{"trial_n":13,"n_dots":4.25,"target":"right","response":"left","rt":1825,"correct":false,"confidence":-1},{"trial_n":14,"n_dots":4.35,"target":"right","response":"right","rt":707,"correct":true,"confidence":-1},{"trial_n":15,"n_dots":4.35,"target":"left","response":"left","rt":1156,"correct":true,"confidence":-1},{"trial_n":16,"n_dots":4.25,"target":"left","response":"left","rt":939,"correct":true,"confidence":-1},{"trial_n":17,"n_dots":4.25,"target":"left","response":"left","rt":691.00000000001,"correct":true,"confidence":-1},{"trial_n":18,"n_dots":4.15,"target":"left","response":"left","rt":691.00000000001,"correct":true,"confidence":-1},{"trial_n":19,"n_dots":4.15,"target":"left","response":"left","rt":756.99999999999,"correct":true,"confidence":-1},{"trial_n":20,"n_dots":4.05,"target":"left","response":"left","rt":576.00000000001,"correct":true,"confidence":-1},{"trial_n":21,"n_dots":4.05,"target":"right","response":"right","rt":695,"correct":true,"confidence":3},{"trial_n":22,"n_dots":3.95,"target":"right","response":"right","rt":1027,"correct":true,"confidence":4},{"trial_n":23,"n_dots":3.95,"target":"left","response":"left","rt":1029,"correct":true,"confidence":3},{"trial_n":24,"n_dots":3.85,"target":"right","response":"right","rt":4225,"correct":true,"confidence":2},{"trial_n":25,"n_dots":3.85,"target":"left","response":"left","rt":3410,"correct":true,"confidence":2},{"trial_n":26,"n_dots":3.75,"target":"left","response":"right","rt":4876,"correct":false,"confidence":2},{"trial_n":27,"n_dots":3.85,"target":"right","response":"left","rt":2262,"correct":false,"confidence":3},{"trial_n":28,"n_dots":3.95,"target":"right","response":"right","rt":3010,"correct":true,"confidence":2},{"trial_n":29,"n_dots":3.95,"target":"left","response":"left","rt":1010,"correct":true,"confidence":3},{"trial_n":30,"n_dots":3.85,"target":"right","response":"left","rt":3113,"correct":false,"confidence":3},{"trial_n":31,"n_dots":3.95,"target":"right","response":"right","rt":3079,"correct":true,"confidence":2},{"trial_n":32,"n_dots":3.95,"target":"right","response":"left","rt":1546,"correct":false,"confidence":3},{"trial_n":33,"n_dots":4.05,"target":"right","response":"right","rt":944.00000000003,"correct":true,"confidence":4},{"trial_n":34,"n_dots":4.05,"target":"right","response":"right","rt":1295,"correct":true,"confidence":4},{"trial_n":35,"n_dots":3.95,"target":"right","response":"right","rt":978,"correct":true,"confidence":4},{"trial_n":36,"n_dots":3.95,"target":"right","response":"right","rt":846.00000000003,"correct":true,"confidence":4},{"trial_n":37,"n_dots":3.85,"target":"right","response":"right","rt":713,"correct":true,"confidence":5},{"trial_n":38,"n_dots":3.85,"target":"left","response":"left","rt":1780,"correct":true,"confidence":4},{"trial_n":39,"n_dots":3.75,"target":"left","response":"left","rt":730.00000000003,"correct":true,"confidence":5},{"trial_n":40,"n_dots":3.75,"target":"left","response":"left","rt":929,"correct":true,"confidence":4},{"trial_n":41,"n_dots":3.65,"target":"right","response":"left","rt":1498,"correct":false,"confidence":3},{"trial_n":42,"n_dots":3.75,"target":"left","response":"left","rt":1114.9999999999,"correct":true,"confidence":3},{"trial_n":43,"n_dots":3.75,"target":"right","response":"right","rt":2348,"correct":true,"confidence":2},{"trial_n":44,"n_dots":3.65,"target":"left","response":"left","rt":1930,"correct":true,"confidence":2},{"trial_n":45,"n_dots":3.65,"target":"right","response":"right","rt":1914.0000000001,"correct":true,"confidence":2},{"trial_n":46,"n_dots":3.55,"target":"right","response":"right","rt":2964,"correct":true,"confidence":2},{"trial_n":47,"n_dots":3.55,"target":"right","response":"right","rt":982,"correct":true,"confidence":3},{"trial_n":48,"n_dots":3.45,"target":"left","response":"left","rt":2133,"correct":true,"confidence":1},{"trial_n":49,"n_dots":3.45,"target":"left","response":"right","rt":1282.0000000001,"correct":false,"confidence":2},{"trial_n":50,"n_dots":3.55,"target":"right","response":"right","rt":933.00000000006,"correct":true,"confidence":3},{"trial_n":51,"n_dots":3.55,"target":"right","response":"right","rt":1134,"correct":true,"confidence":2},{"trial_n":52,"n_dots":3.45,"target":"right","response":"left","rt":2534.9999999999,"correct":false,"confidence":2},{"trial_n":53,"n_dots":3.55,"target":"left","response":"left","rt":818,"correct":true,"confidence":4},{"trial_n":54,"n_dots":3.55,"target":"left","response":"left","rt":751,"correct":true,"confidence":4},{"trial_n":55,"n_dots":3.45,"target":"right","response":"left","rt":916,"correct":false,"confidence":4},{"trial_n":56,"n_dots":3.55,"target":"right","response":"right","rt":1619,"correct":true,"confidence":3},{"trial_n":57,"n_dots":3.55,"target":"left","response":"left","rt":768.00000000006,"correct":true,"confidence":4},{"trial_n":58,"n_dots":3.45,"target":"left","response":"left","rt":901,"correct":true,"confidence":4},{"trial_n":59,"n_dots":3.45,"target":"left","response":"left","rt":802,"correct":true,"confidence":4},{"trial_n":60,"n_dots":3.35,"target":"right","response":"left","rt":2920.0000000001,"correct":false,"confidence":2},{"trial_n":61,"n_dots":3.45,"target":"right","response":"left","rt":1085,"correct":false,"confidence":3},{"trial_n":62,"n_dots":3.55,"target":"right","response":"left","rt":2986,"correct":false,"confidence":2},{"trial_n":63,"n_dots":3.65,"target":"left","response":"left","rt":885.99999999994,"correct":true,"confidence":3},{"trial_n":64,"n_dots":3.65,"target":"left","response":"left","rt":985.00000000006,"correct":true,"confidence":3},{"trial_n":65,"n_dots":3.55,"target":"left","response":"left","rt":1312,"correct":true,"confidence":2},{"trial_n":66,"n_dots":3.55,"target":"left","response":"left","rt":3703,"correct":true,"confidence":2},{"trial_n":67,"n_dots":3.45,"target":"left","response":"left","rt":1753,"correct":true,"confidence":3},{"trial_n":68,"n_dots":3.45,"target":"left","response":"left","rt":1003,"correct":true,"confidence":4},{"trial_n":69,"n_dots":3.35,"target":"left","response":"left","rt":3819,"correct":true,"confidence":2},{"trial_n":70,"n_dots":3.35,"target":"right","response":"right","rt":1906,"correct":true,"confidence":2},{"trial_n":71,"n_dots":3.25,"target":"left","response":"left","rt":788.99999999994,"correct":true,"confidence":3},{"trial_n":72,"n_dots":3.25,"target":"left","response":"right","rt":1836.9999999999,"correct":false,"confidence":2},{"trial_n":73,"n_dots":3.35,"target":"left","response":"left","rt":804,"correct":true,"confidence":4},{"trial_n":74,"n_dots":3.35,"target":"left","response":"left","rt":772,"correct":true,"confidence":4},{"trial_n":75,"n_dots":3.25,"target":"right","response":"left","rt":1469,"correct":false,"confidence":3},{"trial_n":76,"n_dots":3.35,"target":"right","response":"left","rt":987,"correct":false,"confidence":4},{"trial_n":77,"n_dots":3.45,"target":"left","response":"left","rt":773,"correct":true,"confidence":5},{"trial_n":78,"n_dots":3.45,"target":"left","response":"left","rt":654,"correct":true,"confidence":5},{"trial_n":79,"n_dots":3.35,"target":"left","response":"left","rt":723,"correct":true,"confidence":5},{"trial_n":80,"n_dots":3.35,"target":"left","response":"left","rt":755,"correct":true,"confidence":5},{"trial_n":81,"n_dots":3.25,"target":"left","response":"left","rt":688,"correct":true,"confidence":3},{"trial_n":82,"n_dots":3.25,"target":"left","response":"left","rt":1122,"correct":true,"confidence":2},{"trial_n":83,"n_dots":3.15,"target":"right","response":"right","rt":1173,"correct":true,"confidence":2},{"trial_n":84,"n_dots":3.15,"target":"right","response":"left","rt":1507,"correct":false,"confidence":2},{"trial_n":85,"n_dots":3.25,"target":"right","response":"right","rt":2923,"correct":true,"confidence":2},{"trial_n":86,"n_dots":3.25,"target":"left","response":"left","rt":1039.0000000001,"correct":true,"confidence":2},{"trial_n":87,"n_dots":3.15,"target":"right","response":"right","rt":989.00000000006,"correct":true,"confidence":3},{"trial_n":88,"n_dots":3.15,"target":"right","response":"right","rt":1173,"correct":true,"confidence":2},{"trial_n":89,"n_dots":3.05,"target":"right","response":"right","rt":774,"correct":true,"confidence":3},{"trial_n":90,"n_dots":3.05,"target":"left","response":"left","rt":1006,"correct":true,"confidence":3},{"trial_n":91,"n_dots":2.95,"target":"right","response":"right","rt":2174,"correct":true,"confidence":2},{"trial_n":92,"n_dots":2.95,"target":"right","response":"right","rt":758,"correct":true,"confidence":3},{"trial_n":93,"n_dots":2.85,"target":"left","response":"right","rt":1808,"correct":false,"confidence":2},{"trial_n":94,"n_dots":2.95,"target":"right","response":"right","rt":1075,"correct":true,"confidence":2},{"trial_n":95,"n_dots":2.95,"target":"right","response":"right","rt":1325,"correct":true,"confidence":3},{"trial_n":96,"n_dots":2.85,"target":"left","response":"left","rt":1708,"correct":true,"confidence":2},{"trial_n":97,"n_dots":2.85,"target":"right","response":"right","rt":1026,"correct":true,"confidence":3},{"trial_n":98,"n_dots":2.75,"target":"right","response":"left","rt":2043.9999999999,"correct":false,"confidence":3},{"trial_n":99,"n_dots":2.85,"target":"right","response":"right","rt":891,"correct":true,"confidence":3},{"trial_n":100,"n_dots":2.85,"target":"left","response":"right","rt":993,"correct":false,"confidence":3},{"trial_n":101,"n_dots":2.95,"target":"right","response":"left","rt":1011,"correct":false,"confidence":2},{"trial_n":102,"n_dots":3.05,"target":"left","response":"left","rt":759.99999999988,"correct":true,"confidence":3},{"trial_n":103,"n_dots":3.05,"target":"left","response":"left","rt":875,"correct":true,"confidence":3},{"trial_n":104,"n_dots":2.95,"target":"left","response":"left","rt":1075.9999999999,"correct":true,"confidence":3},{"trial_n":105,"n_dots":2.95,"target":"left","response":"left","rt":743,"correct":true,"confidence":4},{"trial_n":106,"n_dots":2.85,"target":"left","response":"left","rt":1025.0000000001,"correct":true,"confidence":4},{"trial_n":107,"n_dots":2.85,"target":"right","response":"left","rt":827,"correct":false,"confidence":4},{"trial_n":108,"n_dots":2.95,"target":"left","response":"left","rt":1126.9999999999,"correct":true,"confidence":3},{"trial_n":109,"n_dots":2.95,"target":"right","response":"left","rt":1276,"correct":false,"confidence":3},{"trial_n":110,"n_dots":3.05,"target":"left","response":"left","rt":844,"correct":true,"confidence":4},{"trial_n":111,"n_dots":3.05,"target":"left","response":"left","rt":1061,"correct":true,"confidence":4},{"trial_n":112,"n_dots":2.95,"target":"right","response":"left","rt":1529,"correct":false,"confidence":2},{"trial_n":113,"n_dots":3.05,"target":"left","response":"left","rt":944,"correct":true,"confidence":3},{"trial_n":114,"n_dots":3.05,"target":"left","response":"right","rt":3061,"correct":false,"confidence":2},{"trial_n":115,"n_dots":3.15,"target":"right","response":"left","rt":1611,"correct":false,"confidence":2},{"trial_n":116,"n_dots":3.25,"target":"right","response":"left","rt":878,"correct":false,"confidence":2},{"trial_n":117,"n_dots":3.35,"target":"left","response":"left","rt":879,"correct":true,"confidence":3},{"trial_n":118,"n_dots":3.35,"target":"left","response":"left","rt":962,"correct":true,"confidence":4},{"trial_n":119,"n_dots":3.25,"target":"right","response":"left","rt":1096,"correct":false,"confidence":2},{"trial_n":120,"n_dots":3.35,"target":"right","response":"left","rt":1261,"correct":false,"confidence":3}]