[{"trial_n":1,"n_dots":4.25,"target":"right","response":"left","rt":7362.1999999993,"correct":false,"confidence":-1},{"trial_n":2,"n_dots":4.25,"target":"right","response":"left","rt":5734.0999999996,"correct":false,"confidence":-1},{"trial_n":3,"n_dots":4.65,"target":"right","response":"right","rt":1196.9000000004,"correct":true,"confidence":-1},{"trial_n":4,"n_dots":4.65,"target":"right","response":"right","rt":497,"correct":true,"confidence":-1},{"trial_n":5,"n_dots":4.25,"target":"left","response":"right","rt":491.29999999888,"correct":false,"confidence":-1},{"trial_n":6,"n_dots":4.65,"target":"right","response":"left","rt":742.39999999851,"correct":false,"confidence":-1},{"trial_n":7,"n_dots":5.05,"target":"left","response":"left","rt":429.39999999851,"correct":true,"confidence":-1},{"trial_n":8,"n_dots":5.05,"target":"right","response":"right","rt":49,"correct":true,"confidence":-1},{"trial_n":9,"n_dots":4.85,"target":"right","response":"right","rt":45.39999999851,"correct":true,"confidence":-1},{"trial_n":10,"n_dots":4.85,"target":"right","response":"right","rt":165.59999999963,"correct":true,"confidence":-1},{"trial_n":11,"n_dots":4.65,"target":"left","response":"left","rt":240.39999999851,"correct":true,"confidence":-1},{"trial_n":12,"n_dots":4.65,"target":"right","response":"right","rt":190.39999999851,"correct":true,"confidence":-1},{"trial_n":13,"n_dots":4.55,"target":"right","response":"right","rt":458,"correct":true,"confidence":-1},{"trial_n":14,"n_dots":4.55,"target":"left","response":"left","rt":107.40000000037,"correct":true,"confidence":-1},{"trial_n":15,"n_dots":4.45,"target":"left","response":"left","rt":96.299999998882,"correct":true,"confidence":-1},{"trial_n":16,"n_dots":4.45,"target":"left","response":"left","rt":794.79999999888,"correct":true,"confidence":-1},{"trial_n":17,"n_dots":4.35,"target":"left","response":"left","rt":5.4000000003725,"correct":true,"confidence":-1},{"trial_n":18,"n_dots":4.35,"target":"right","response":"right","rt":532.5,"correct":true,"confidence":-1},{"trial_n":19,"n_dots":4.25,"target":"left","response":"left","rt":146.69999999925,"correct":true,"confidence":-1},{"trial_n":20,"n_dots":4.25,"target":"right","response":"right","rt":209.79999999888,"correct":true,"confidence":-1},{"trial_n":21,"n_dots":4.15,"target":"left","response":"left","rt":436,"correct":true,"confidence":4},{"trial_n":22,"n_dots":4.15,"target":"left","response":"left","rt":510.79999999888,"correct":true,"confidence":4},{"trial_n":23,"n_dots":4.05,"target":"right","response":"right","rt":1176.1999999993,"correct":true,"confidence":2},{"trial_n":24,"n_dots":4.05,"target":"left","response":"left","rt":406.5,"correct":true,"confidence":4},{"trial_n":25,"n_dots":3.95,"target":"left","response":"left","rt":200.29999999888,"correct":true,"confidence":4},{"trial_n":26,"n_dots":3.95,"target":"left","response":"left","rt":349,"correct":true,"confidence":4},{"trial_n":27,"n_dots":3.85,"target":"left","response":"left","rt":300.5,"correct":true,"confidence":4},{"trial_n":28,"n_dots":3.85,"target":"right","response":"right","rt":771.39999999851,"correct":true,"confidence":2},{"trial_n":29,"n_dots":3.75,"target":"left","response":"left","rt":353.29999999888,"correct":true,"confidence":4},{"trial_n":30,"n_dots":3.75,"target":"right","response":"right","rt":1407.3999999985,"correct":true,"confidence":2},{"trial_n":31,"n_dots":3.65,"target":"right","response":"right","rt":609.29999999888,"correct":true,"confidence":2},{"trial_n":32,"n_dots":3.65,"target":"left","response":"left","rt":346.29999999888,"correct":true,"confidence":3},{"trial_n":33,"n_dots":3.55,"target":"left","response":"left","rt":272.09999999963,"correct":true,"confidence":4},{"trial_n":34,"n_dots":3.55,"target":"right","response":"left","rt":599.80000000075,"correct":false,"confidence":3},{"trial_n":35,"n_dots":3.65,"target":"right","response":"left","rt":326.29999999888,"correct":false,"confidence":3},{"trial_n":36,"n_dots":3.75,"target":"right","response":"right","rt":874.59999999963,"correct":true,"confidence":4},{"trial_n":37,"n_dots":3.75,"target":"right","response":"right","rt":527,"correct":true,"confidence":4},{"trial_n":38,"n_dots":3.65,"target":"left","response":"right","rt":369.80000000075,"correct":false,"confidence":3},{"trial_n":39,"n_dots":3.75,"target":"left","response":"left","rt":511.29999999888,"correct":true,"confidence":3},{"trial_n":40,"n_dots":3.75,"target":"left","response":"left","rt":1036.7999999989,"correct":true,"confidence":3},{"trial_n":41,"n_dots":3.65,"target":"left","response":"left","rt":290.20000000112,"correct":true,"confidence":4},{"trial_n":42,"n_dots":3.65,"target":"left","response":"left","rt":338.60000000149,"correct":true,"confidence":4},{"trial_n":43,"n_dots":3.55,"target":"left","response":"left","rt":293.30000000075,"correct":true,"confidence":4},{"trial_n":44,"n_dots":3.55,"target":"right","response":"left","rt":1316.1999999993,"correct":false,"confidence":4},{"trial_n":45,"n_dots":3.65,"target":"left","response":"left","rt":796.5,"correct":true,"confidence":3},{"trial_n":46,"n_dots":3.65,"target":"left","response":"left","rt":856.69999999925,"correct":true,"confidence":4},{"trial_n":47,"n_dots":3.55,"target":"left","response":"left","rt":711.70000000112,"correct":true,"confidence":3},{"trial_n":48,"n_dots":3.55,"target":"right","response":"right","rt":1765.3000000007,"correct":true,"confidence":3},{"trial_n":49,"n_dots":3.45,"target":"right","response":"right","rt":355.20000000112,"correct":true,"confidence":4},{"trial_n":50,"n_dots":3.45,"target":"left","response":"left","rt":579.5,"correct":true,"confidence":3},{"trial_n":51,"n_dots":3.35,"target":"right","response":"right","rt":278.40000000037,"correct":true,"confidence":3},{"trial_n":52,"n_dots":3.35,"target":"left","response":"left","rt":511.09999999963,"correct":true,"confidence":2},{"trial_n":53,"n_dots":3.25,"target":"left","response":"left","rt":668.90000000037,"correct":true,"confidence":3},{"trial_n":54,"n_dots":3.25,"target":"left","response":"left","rt":489.5,"correct":true,"confidence":3},{"trial_n":55,"n_dots":3.15,"target":"left","response":"left","rt":496.30000000075,"correct":true,"confidence":3},{"trial_n":56,"n_dots":3.15,"target":"left","response":"left","rt":469.70000000112,"correct":true,"confidence":3},{"trial_n":57,"n_dots":3.05,"target":"right","response":"left","rt":629.40000000037,"correct":false,"confidence":3},{"trial_n":58,"n_dots":3.15,"target":"left","response":"left","rt":988.10000000149,"correct":true,"confidence":2},{"trial_n":59,"n_dots":3.15,"target":"right","response":"left","rt":307.90000000037,"correct":false,"confidence":2},{"trial_n":60,"n_dots":3.25,"target":"right","response":"left","rt":377.90000000037,"correct":false,"confidence":2},{"trial_n":61,"n_dots":3.35,"target":"right","response":"right","rt":794,"correct":true,"confidence":4},{"trial_n":62,"n_dots":3.35,"target":"left","response":"left","rt":1086.7000000011,"correct":true,"confidence":3},{"trial_n":63,"n_dots":3.25,"target":"left","response":"left","rt":322.90000000037,"correct":true,"confidence":3},{"trial_n":64,"n_dots":3.25,"target":"right","response":"right","rt":879.70000000112,"correct":true,"confidence":2},{"trial_n":65,"n_dots":3.15,"target":"left","response":"left","rt":375,"correct":true,"confidence":2},{"trial_n":66,"n_dots":3.15,"target":"right","response":"left","rt":571.09999999963,"correct":false,"confidence":2},{"trial_n":67,"n_dots":3.25,"target":"right","response":"right","rt":2085.9000000004,"correct":true,"confidence":2},{"trial_n":68,"n_dots":3.25,"target":"right","response":"right","rt":641.59999999963,"correct":true,"confidence":2},{"trial_n":69,"n_dots":3.15,"target":"right","response":"right","rt":1834.9000000004,"correct":true,"confidence":1},{"trial_n":70,"n_dots":3.15,"target":"right","response":"left","rt":659.40000000037,"correct":false,"confidence":2},{"trial_n":71,"n_dots":3.25,"target":"left","response":"right","rt":428.40000000037,"correct":false,"confidence":1},{"trial_n":72,"n_dots":3.35,"target":"left","response":"left","rt":402.40000000037,"correct":true,"confidence":2},{"trial_n":73,"n_dots":3.35,"target":"right","response":"left","rt":170.80000000075,"correct":false,"confidence":2},{"trial_n":74,"n_dots":3.45,"target":"left","response":"left","rt":861.30000000075,"correct":true,"confidence":2},{"trial_n":75,"n_dots":3.45,"target":"left","response":"left","rt":944.10000000149,"correct":true,"confidence":1},{"trial_n":76,"n_dots":3.35,"target":"right","response":"right","rt":306.60000000149,"correct":true,"confidence":2},{"trial_n":77,"n_dots":3.35,"target":"right","response":"right","rt":883.5,"correct":true,"confidence":2},{"trial_n":78,"n_dots":3.25,"target":"right","response":"right","rt":1025.2000000011,"correct":true,"confidence":2},{"trial_n":79,"n_dots":3.25,"target":"right","response":"right","rt":1294.3000000007,"correct":true,"confidence":1},{"trial_n":80,"n_dots":3.15,"target":"left","response":"left","rt":469.20000000112,"correct":true,"confidence":2},{"trial_n":81,"n_dots":3.15,"target":"right","response":"right","rt":743.20000000112,"correct":true,"confidence":1},{"trial_n":82,"n_dots":3.05,"target":"right","response":"right","rt":704.20000000112,"correct":true,"confidence":1},{"trial_n":83,"n_dots":3.05,"target":"left","response":"left","rt":518.40000000037,"correct":true,"confidence":2},{"trial_n":84,"n_dots":2.95,"target":"left","response":"left","rt":217.30000000075,"correct":true,"confidence":2},{"trial_n":85,"n_dots":2.95,"target":"left","response":"left","rt":395.59999999963,"correct":true,"confidence":2},{"trial_n":86,"n_dots":2.85,"target":"right","response":"left","rt":161.80000000075,"correct":false,"confidence":2},{"trial_n":87,"n_dots":2.95,"target":"right","response":"left","rt":151.30000000075,"correct":false,"confidence":2},{"trial_n":88,"n_dots":3.05,"target":"left","response":"left","rt":10,"correct":true,"confidence":2},{"trial_n":89,"n_dots":3.05,"target":"left","response":"left","rt":806,"correct":true,"confidence":1},{"trial_n":90,"n_dots":2.95,"target":"left","response":"left","rt":18.199999999255,"correct":true,"confidence":2},{"trial_n":91,"n_dots":2.95,"target":"left","response":"right","rt":1178.3000000007,"correct":false,"confidence":2},{"trial_n":92,"n_dots":3.05,"target":"left","response":"left","rt":926,"correct":true,"confidence":2},{"trial_n":93,"n_dots":3.05,"target":"right","response":"right","rt":513.90000000037,"correct":true,"confidence":2},{"trial_n":94,"n_dots":2.95,"target":"right","response":"right","rt":12,"correct":true,"confidence":2},{"trial_n":95,"n_dots":2.95,"target":"left","response":"right","rt":826.19999999925,"correct":false,"confidence":2},{"trial_n":96,"n_dots":3.05,"target":"right","response":"right","rt":1253.9000000004,"correct":true,"confidence":2},{"trial_n":97,"n_dots":3.05,"target":"right","response":"right","rt":925.30000000075,"correct":true,"confidence":1},{"trial_n":98,"n_dots":2.95,"target":"right","response":"right","rt":421.09999999963,"correct":true,"confidence":1},{"trial_n":99,"n_dots":2.95,"target":"left","response":"left","rt":558.80000000075,"correct":true,"confidence":2},{"trial_n":100,"n_dots":2.85,"target":"right","response":"right","rt":707.09999999963,"correct":true,"confidence":2},{"trial_n":101,"n_dots":2.85,"target":"left","response":"left","rt":288.69999999925,"correct":true,"confidence":2},{"trial_n":102,"n_dots":2.75,"target":"right","response":"right","rt":686.30000000075,"correct":true,"confidence":1},{"trial_n":103,"n_dots":2.75,"target":"left","response":"left","rt":164.70000000112,"correct":true,"confidence":2},{"trial_n":104,"n_dots":2.65,"target":"right","response":"right","rt":220.69999999925,"correct":true,"confidence":2},{"trial_n":105,"n_dots":2.65,"target":"right","response":"right","rt":302.69999999925,"correct":true,"confidence":2},{"trial_n":106,"n_dots":2.55,"target":"right","response":"left","rt":600.90000000037,"correct":false,"confidence":2},{"trial_n":107,"n_dots":2.65,"target":"left","response":"left","rt":1095.6999999993,"correct":true,"confidence":1},{"trial_n":108,"n_dots":2.65,"target":"right","response":"left","rt":602.80000000075,"correct":false,"confidence":1},{"trial_n":109,"n_dots":2.75,"target":"right","response":"right","rt":300.69999999925,"correct":true,"confidence":2},{"trial_n":110,"n_dots":2.75,"target":"left","response":"left","rt":573.40000000037,"correct":true,"confidence":1},{"trial_n":111,"n_dots":2.65,"target":"left","response":"right","rt":876,"correct":false,"confidence":2},{"trial_n":112,"n_dots":2.75,"target":"left","response":"right","rt":590.90000000037,"correct":false,"confidence":2},{"trial_n":113,"n_dots":2.85,"target":"right","response":"left","rt":796.19999999925,"correct":false,"confidence":1},{"trial_n":114,"n_dots":2.95,"target":"right","response":"right","rt":359.40000000037,"correct":true,"confidence":1},{"trial_n":115,"n_dots":2.95,"target":"right","response":"right","rt":94.800000000745,"correct":true,"confidence":2},{"trial_n":116,"n_dots":2.85,"target":"left","response":"left","rt":105.80000000075,"correct":true,"confidence":3},{"trial_n":117,"n_dots":2.85,"target":"left","response":"left","rt":47,"correct":true,"confidence":3},{"trial_n":118,"n_dots":2.75,"target":"right","response":"right","rt":244.5,"correct":true,"confidence":3},{"trial_n":119,"n_dots":2.75,"target":"left","response":"left","rt":782.80000000075,"correct":true,"confidence":3},{"trial_n":120,"n_dots":2.65,"target":"right","response":"left","rt":707.80000000075,"correct":false,"confidence":1}]