[{"trial_n":1,"span":8,"encoder":"98497376","distractor":"98447376","target":"present","response":"absent","rt":"5068.1999999993","correct":false,"confidence":-1},{"trial_n":2,"span":6,"encoder":"890605","distractor":"890005","target":"present","response":"present","rt":"4155.9000000004","correct":true,"confidence":-1},{"trial_n":3,"span":6,"encoder":"676089","distractor":"666089","target":"absent","response":"absent","rt":"1502.8000000007","correct":true,"confidence":-1},{"trial_n":4,"span":8,"encoder":"48291988","distractor":"48296988","target":"absent","response":"absent","rt":"1928.0999999996","correct":true,"confidence":-1},{"trial_n":5,"span":8,"encoder":"74387237","distractor":"75387237","target":"present","response":"present","rt":"3025.1999999993","correct":true,"confidence":-1},{"trial_n":6,"span":10,"encoder":"1474806574","distractor":"7474806574","target":"absent","response":"absent","rt":"1341.3000000007","correct":true,"confidence":-1},{"trial_n":7,"span":10,"encoder":"6183049381","distractor":"6183049181","target":"absent","response":"present","rt":"2321.2000000011","correct":false,"confidence":-1},{"trial_n":8,"span":8,"encoder":"25900849","distractor":"28900849","target":"absent","response":"present","rt":"1093","correct":false,"confidence":-1},{"trial_n":9,"span":6,"encoder":"014678","distractor":"014278","target":"absent","response":"absent","rt":"753.30000000075","correct":true,"confidence":-1},{"trial_n":10,"span":6,"encoder":"503086","distractor":"503046","target":"present","response":"present","rt":"1802.3000000007","correct":true,"confidence":-1},{"trial_n":11,"span":8,"encoder":"55534500","distractor":"55538500","target":"absent","response":"absent","rt":"1712.1999999993","correct":true,"confidence":-1},{"trial_n":12,"span":8,"encoder":"71086657","distractor":"71986657","target":"present","response":"present","rt":"2172.3000000007","correct":true,"confidence":-1},{"trial_n":13,"span":9,"encoder":"650634718","distractor":"650634118","target":"present","response":"present","rt":"1472.3000000007","correct":true,"confidence":-1},{"trial_n":14,"span":9,"encoder":"543096209","distractor":"563096209","target":"absent","response":"present","rt":"928.40000000037","correct":false,"confidence":-1},{"trial_n":15,"span":8,"encoder":"59153176","distractor":"59163176","target":"absent","response":"absent","rt":"1578.5","correct":true,"confidence":-1},{"trial_n":16,"span":8,"encoder":"99967950","distractor":"99967970","target":"present","response":"absent","rt":"1233.1999999993","correct":false,"confidence":-1},{"trial_n":17,"span":7,"encoder":"6434250","distractor":"6434350","target":"absent","response":"present","rt":"1345.2999999989","correct":false,"confidence":-1},{"trial_n":18,"span":6,"encoder":"432307","distractor":"452307","target":"absent","response":"present","rt":"1188.0999999996","correct":false,"confidence":-1},{"trial_n":19,"span":5,"encoder":"41117","distractor":"41114","target":"absent","response":"absent","rt":"1598.5","correct":true,"confidence":-1},{"trial_n":20,"span":5,"encoder":"01765","distractor":"01565","target":"absent","response":"absent","rt":"1472.5","correct":true,"confidence":-1},{"trial_n":21,"span":6,"encoder":"874209","distractor":"874204","target":"present","response":"present","rt":"1369.2999999989","correct":true,"confidence":3},{"trial_n":22,"span":6,"encoder":"544969","distractor":"444969","target":"present","response":"present","rt":"1814.6999999993","correct":true,"confidence":3},{"trial_n":23,"span":7,"encoder":"0273154","distractor":"0243154","target":"present","response":"present","rt":"1740.2999999989","correct":true,"confidence":2},{"trial_n":24,"span":7,"encoder":"8921678","distractor":"8921677","target":"present","response":"absent","rt":"4808","correct":false,"confidence":3},{"trial_n":25,"span":6,"encoder":"925186","distractor":"925286","target":"present","response":"present","rt":"1894.8999999985","correct":true,"confidence":5},{"trial_n":26,"span":6,"encoder":"112781","distractor":"110781","target":"absent","response":"absent","rt":"1319.7999999989","correct":true,"confidence":5},{"trial_n":27,"span":7,"encoder":"6221415","distractor":"6220415","target":"absent","response":"present","rt":"2451","correct":false,"confidence":4},{"trial_n":28,"span":6,"encoder":"456147","distractor":"454147","target":"present","response":"present","rt":"2541.5999999996","correct":true,"confidence":4},{"trial_n":29,"span":6,"encoder":"528374","distractor":"828374","target":"absent","response":"absent","rt":"1782.4000000004","correct":true,"confidence":3},{"trial_n":30,"span":7,"encoder":"7976176","distractor":"2976176","target":"present","response":"present","rt":"2839.5","correct":true,"confidence":4},{"trial_n":31,"span":7,"encoder":"7285292","distractor":"7235292","target":"absent","response":"absent","rt":"2454.2999999989","correct":true,"confidence":4},{"trial_n":32,"span":8,"encoder":"54462198","distractor":"54462194","target":"absent","response":"present","rt":"1043.7999999989","correct":false,"confidence":3},{"trial_n":33,"span":7,"encoder":"8958971","distractor":"8958921","target":"present","response":"absent","rt":"2576.1999999993","correct":false,"confidence":3},{"trial_n":34,"span":6,"encoder":"550295","distractor":"560295","target":"absent","response":"absent","rt":"1754.7999999989","correct":true,"confidence":4},{"trial_n":35,"span":6,"encoder":"713002","distractor":"703002","target":"present","response":"present","rt":"2568.7999999989","correct":true,"confidence":5},{"trial_n":36,"span":7,"encoder":"8127053","distractor":"8727053","target":"present","response":"present","rt":"1906.2999999989","correct":true,"confidence":5},{"trial_n":37,"span":7,"encoder":"6546688","distractor":"6540688","target":"absent","response":"present","rt":"2698.5","correct":false,"confidence":5},{"trial_n":38,"span":6,"encoder":"441750","distractor":"441650","target":"present","response":"present","rt":"1510.9000000004","correct":true,"confidence":5},{"trial_n":39,"span":6,"encoder":"038163","distractor":"038169","target":"absent","response":"present","rt":"1627","correct":false,"confidence":3},{"trial_n":40,"span":5,"encoder":"06928","distractor":"08928","target":"present","response":"present","rt":"1934","correct":true,"confidence":4},{"trial_n":41,"span":5,"encoder":"32266","distractor":"62266","target":"absent","response":"present","rt":"952.59999999963","correct":false,"confidence":4},{"trial_n":42,"span":4,"encoder":"7101","distractor":"7105","target":"present","response":"present","rt":"982.59999999963","correct":true,"confidence":5},{"trial_n":43,"span":4,"encoder":"0984","distractor":"0784","target":"present","response":"present","rt":"757.89999999851","correct":true,"confidence":5},{"trial_n":44,"span":5,"encoder":"48039","distractor":"48639","target":"absent","response":"absent","rt":"1973.1999999993","correct":true,"confidence":5},{"trial_n":45,"span":5,"encoder":"75394","distractor":"75294","target":"absent","response":"absent","rt":"2122.5","correct":true,"confidence":5},{"trial_n":46,"span":6,"encoder":"176080","distractor":"176090","target":"present","response":"present","rt":"1413.6999999993","correct":true,"confidence":5},{"trial_n":47,"span":6,"encoder":"498322","distractor":"408322","target":"present","response":"absent","rt":"2463.3999999985","correct":false,"confidence":4},{"trial_n":48,"span":5,"encoder":"74707","distractor":"24707","target":"present","response":"present","rt":"2617.1000000015","correct":true,"confidence":5},{"trial_n":49,"span":5,"encoder":"68226","distractor":"68826","target":"present","response":"present","rt":"1288.0999999996","correct":true,"confidence":5},{"trial_n":50,"span":6,"encoder":"315172","distractor":"315177","target":"present","response":"present","rt":"2453.8999999985","correct":true,"confidence":4},{"trial_n":51,"span":6,"encoder":"944902","distractor":"044902","target":"absent","response":"present","rt":"1617.1000000015","correct":false,"confidence":4},{"trial_n":52,"span":5,"encoder":"80603","distractor":"82603","target":"present","response":"present","rt":"2476.7999999989","correct":true,"confidence":4},{"trial_n":53,"span":5,"encoder":"64027","distractor":"24027","target":"present","response":"present","rt":"1842","correct":true,"confidence":5},{"trial_n":54,"span":6,"encoder":"952363","distractor":"942363","target":"present","response":"present","rt":"1588.3999999985","correct":true,"confidence":4},{"trial_n":55,"span":6,"encoder":"063662","distractor":"063661","target":"present","response":"present","rt":"1946.0999999996","correct":true,"confidence":4},{"trial_n":56,"span":7,"encoder":"2161331","distractor":"2161341","target":"absent","response":"absent","rt":"3226.5","correct":true,"confidence":4},{"trial_n":57,"span":7,"encoder":"4102214","distractor":"4106214","target":"present","response":"present","rt":"2112.0999999996","correct":true,"confidence":4},{"trial_n":58,"span":8,"encoder":"89355436","distractor":"89355936","target":"absent","response":"absent","rt":"3817.5","correct":true,"confidence":2},{"trial_n":59,"span":8,"encoder":"46664761","distractor":"46764761","target":"absent","response":"absent","rt":"1527","correct":true,"confidence":3},{"trial_n":60,"span":9,"encoder":"619422380","distractor":"619422383","target":"present","response":"present","rt":"2468.7999999989","correct":true,"confidence":2},{"trial_n":61,"span":9,"encoder":"286802464","distractor":"286802434","target":"present","response":"present","rt":"1876.5","correct":true,"confidence":3},{"trial_n":62,"span":10,"encoder":"9379946844","distractor":"9379946644","target":"present","response":"absent","rt":"2271.6999999993","correct":false,"confidence":4},{"trial_n":63,"span":9,"encoder":"301792435","distractor":"331792435","target":"present","response":"present","rt":"2432.7000000011","correct":true,"confidence":3},{"trial_n":64,"span":9,"encoder":"844712566","distractor":"844712766","target":"absent","response":"absent","rt":"3688.9000000004","correct":true,"confidence":3},{"trial_n":65,"span":10,"encoder":"0284810408","distractor":"0284810508","target":"absent","response":"absent","rt":"3701.8000000007","correct":true,"confidence":3},{"trial_n":66,"span":10,"encoder":"5881558415","distractor":"5281558415","target":"absent","response":"absent","rt":"1339.4000000004","correct":true,"confidence":5},{"trial_n":67,"span":11,"encoder":"65665465567","distractor":"66665465567","target":"absent","response":"absent","rt":"2304.4000000004","correct":true,"confidence":4},{"trial_n":68,"span":11,"encoder":"84640013520","distractor":"24640013520","target":"absent","response":"absent","rt":"3074.6000000015","correct":true,"confidence":3},{"trial_n":69,"span":12,"encoder":"561368935395","distractor":"561368936395","target":"absent","response":"present","rt":"3796.3999999985","correct":false,"confidence":4},{"trial_n":70,"span":11,"encoder":"28280809667","distractor":"28280809567","target":"present","response":"present","rt":"5876.8000000007","correct":true,"confidence":2},{"trial_n":71,"span":8,"encoder":"07012013","distractor":"07212013","target":"present","response":"absent","rt":"6759.2000000011","correct":false,"confidence":-1},{"trial_n":72,"span":7,"encoder":"8675039","distractor":"8675139","target":"present","response":"present","rt":"1075.9000000004","correct":true,"confidence":-1},{"trial_n":73,"span":7,"encoder":"3316622","distractor":"3316422","target":"absent","response":"absent","rt":"2277","correct":true,"confidence":-1},{"trial_n":74,"span":8,"encoder":"51637841","distractor":"51637041","target":"absent","response":"absent","rt":"3215.0999999996","correct":true,"confidence":-1},{"trial_n":75,"span":8,"encoder":"74324634","distractor":"74324639","target":"present","response":"present","rt":"827","correct":true,"confidence":-1},{"trial_n":76,"span":9,"encoder":"067954411","distractor":"067754411","target":"absent","response":"absent","rt":"2166","correct":true,"confidence":-1},{"trial_n":77,"span":9,"encoder":"509349760","distractor":"509349762","target":"absent","response":"absent","rt":"846.90000000037","correct":true,"confidence":-1},{"trial_n":78,"span":10,"encoder":"9279911783","distractor":"9279941783","target":"present","response":"absent","rt":"2534.3000000007","correct":false,"confidence":-1},{"trial_n":79,"span":9,"encoder":"888982510","distractor":"888982517","target":"absent","response":"absent","rt":"2974","correct":true,"confidence":-1},{"trial_n":80,"span":9,"encoder":"400742621","distractor":"403742621","target":"absent","response":"absent","rt":"3604.1999999993","correct":true,"confidence":-1},{"trial_n":81,"span":10,"encoder":"5222174453","distractor":"5222154453","target":"present","response":"absent","rt":"2553.2000000011","correct":false,"confidence":-1},{"trial_n":82,"span":9,"encoder":"403642852","distractor":"400642852","target":"absent","response":"absent","rt":"792.80000000075","correct":true,"confidence":-1},{"trial_n":83,"span":9,"encoder":"541001721","distractor":"541051721","target":"absent","response":"absent","rt":"591.20000000112","correct":true,"confidence":-1},{"trial_n":84,"span":10,"encoder":"8516187766","distractor":"8816187766","target":"present","response":"absent","rt":"975.80000000075","correct":false,"confidence":-1},{"trial_n":85,"span":9,"encoder":"616287906","distractor":"616287606","target":"absent","response":"absent","rt":"7420","correct":true,"confidence":-1},{"trial_n":86,"span":9,"encoder":"069948716","distractor":"065948716","target":"present","response":"present","rt":"5462.5999999996","correct":true,"confidence":-1},{"trial_n":87,"span":10,"encoder":"8955303792","distractor":"8955303790","target":"present","response":"absent","rt":"594.70000000112","correct":false,"confidence":-1},{"trial_n":88,"span":9,"encoder":"970460340","distractor":"970440340","target":"present","response":"present","rt":"6945.6999999993","correct":true,"confidence":-1},{"trial_n":89,"span":9,"encoder":"977007094","distractor":"977027094","target":"absent","response":"present","rt":"2198.1999999993","correct":false,"confidence":-1},{"trial_n":90,"span":8,"encoder":"24919479","distractor":"24979479","target":"present","response":"absent","rt":"1318.6999999993","correct":false,"confidence":-1},{"trial_n":91,"span":7,"encoder":"5289890","distractor":"5289490","target":"present","response":"present","rt":"3287.5999999996","correct":true,"confidence":3},{"trial_n":92,"span":7,"encoder":"7321414","distractor":"7321412","target":"absent","response":"absent","rt":"4191.3000000007","correct":true,"confidence":4},{"trial_n":93,"span":8,"encoder":"03894483","distractor":"03894493","target":"present","response":"present","rt":"3889.9000000004","correct":true,"confidence":3},{"trial_n":94,"span":8,"encoder":"97392592","distractor":"97393592","target":"absent","response":"present","rt":"6676.2999999989","correct":false,"confidence":2},{"trial_n":95,"span":7,"encoder":"8607942","distractor":"8697942","target":"present","response":"present","rt":"3483.6999999993","correct":true,"confidence":2},{"trial_n":96,"span":7,"encoder":"2977582","distractor":"2977552","target":"present","response":"present","rt":"2992.2999999989","correct":true,"confidence":4},{"trial_n":97,"span":8,"encoder":"71729311","distractor":"71722311","target":"present","response":"present","rt":"4519.8000000007","correct":true,"confidence":5},{"trial_n":98,"span":8,"encoder":"48812088","distractor":"48312088","target":"absent","response":"present","rt":"3635.5999999996","correct":false,"confidence":2},{"trial_n":99,"span":7,"encoder":"5831065","distractor":"5821065","target":"absent","response":"absent","rt":"6910.7999999989","correct":true,"confidence":3},{"trial_n":100,"span":7,"encoder":"9340346","distractor":"9342346","target":"absent","response":"absent","rt":"2273.2999999989","correct":true,"confidence":4},{"trial_n":101,"span":8,"encoder":"51486660","distractor":"51456660","target":"present","response":"present","rt":"3612.7999999989","correct":true,"confidence":5},{"trial_n":102,"span":8,"encoder":"93665962","distractor":"93665967","target":"present","response":"present","rt":"1434.4000000004","correct":true,"confidence":5},{"trial_n":103,"span":9,"encoder":"674990696","distractor":"674990698","target":"absent","response":"absent","rt":"1710.7999999989","correct":true,"confidence":5},{"trial_n":104,"span":9,"encoder":"793123171","distractor":"792123171","target":"absent","response":"present","rt":"9094.5999999996","correct":false,"confidence":2},{"trial_n":105,"span":8,"encoder":"80275958","distractor":"80272958","target":"absent","response":"absent","rt":"7637.1999999993","correct":true,"confidence":3},{"trial_n":106,"span":8,"encoder":"97500133","distractor":"97590133","target":"present","response":"absent","rt":"4339.3999999985","correct":false,"confidence":2},{"trial_n":107,"span":7,"encoder":"4756102","distractor":"4755102","target":"present","response":"present","rt":"5018","correct":true,"confidence":3},{"trial_n":108,"span":7,"encoder":"6420049","distractor":"3420049","target":"absent","response":"absent","rt":"4722","correct":true,"confidence":5},{"trial_n":109,"span":8,"encoder":"93678042","distractor":"93378042","target":"absent","response":"absent","rt":"5697.5","correct":true,"confidence":3},{"trial_n":110,"span":8,"encoder":"13232340","distractor":"13212340","target":"present","response":"present","rt":"4221.0999999996","correct":true,"confidence":4},{"trial_n":111,"span":9,"encoder":"225819539","distractor":"255819539","target":"present","response":"absent","rt":"5981.5999999996","correct":false,"confidence":2},{"trial_n":112,"span":8,"encoder":"92152306","distractor":"92152606","target":"absent","response":"absent","rt":"5423.8999999985","correct":true,"confidence":3},{"trial_n":113,"span":8,"encoder":"99559114","distractor":"90559114","target":"absent","response":"present","rt":"3118.4000000004","correct":false,"confidence":1},{"trial_n":114,"span":7,"encoder":"6570629","distractor":"6570229","target":"absent","response":"absent","rt":"3075.0999999996","correct":true,"confidence":3},{"trial_n":115,"span":7,"encoder":"5748193","distractor":"5743193","target":"absent","response":"absent","rt":"4190","correct":true,"confidence":4},{"trial_n":116,"span":8,"encoder":"25557332","distractor":"75557332","target":"present","response":"absent","rt":"2939.3999999985","correct":false,"confidence":2},{"trial_n":117,"span":7,"encoder":"9434851","distractor":"9934851","target":"present","response":"present","rt":"3507","correct":true,"confidence":5},{"trial_n":118,"span":7,"encoder":"7837195","distractor":"7837295","target":"absent","response":"absent","rt":"4121.6000000015","correct":true,"confidence":5},{"trial_n":119,"span":8,"encoder":"78179103","distractor":"78179173","target":"present","response":"present","rt":"1532.5999999996","correct":true,"confidence":5},{"trial_n":120,"span":8,"encoder":"56585397","distractor":"50585397","target":"absent","response":"present","rt":"4234.7000000011","correct":false,"confidence":4},{"trial_n":121,"span":7,"encoder":"6306979","distractor":"6306379","target":"absent","response":"absent","rt":"4473.3000000007","correct":true,"confidence":3},{"trial_n":122,"span":7,"encoder":"0548685","distractor":"0598685","target":"absent","response":"absent","rt":"2693.6000000015","correct":true,"confidence":3},{"trial_n":123,"span":8,"encoder":"38676614","distractor":"38676613","target":"present","response":"present","rt":"4115.1000000015","correct":true,"confidence":3},{"trial_n":124,"span":8,"encoder":"99823824","distractor":"99893824","target":"absent","response":"present","rt":"8211","correct":false,"confidence":2},{"trial_n":125,"span":7,"encoder":"1429277","distractor":"1427277","target":"absent","response":"absent","rt":"4421.9000000004","correct":true,"confidence":4},{"trial_n":126,"span":7,"encoder":"3305095","distractor":"3505095","target":"present","response":"present","rt":"7416.8000000007","correct":true,"confidence":3},{"trial_n":127,"span":8,"encoder":"88052091","distractor":"88072091","target":"present","response":"present","rt":"5527.1000000015","correct":true,"confidence":3},{"trial_n":128,"span":8,"encoder":"43195569","distractor":"43165569","target":"present","response":"present","rt":"7101.0999999996","correct":true,"confidence":2},{"trial_n":129,"span":9,"encoder":"756897089","distractor":"756897189","target":"present","response":"present","rt":"4913.2000000011","correct":true,"confidence":3},{"trial_n":130,"span":9,"encoder":"576675373","distractor":"576675673","target":"present","response":"present","rt":"5872.9000000004","correct":true,"confidence":2},{"trial_n":131,"span":10,"encoder":"6060481251","distractor":"6060461251","target":"absent","response":"absent","rt":"4031.7000000011","correct":true,"confidence":4},{"trial_n":132,"span":10,"encoder":"8738273162","distractor":"8738273165","target":"present","response":"present","rt":"2205.4000000004","correct":true,"confidence":5},{"trial_n":133,"span":11,"encoder":"72125426932","distractor":"72125426912","target":"present","response":"present","rt":"2108.4000000004","correct":true,"confidence":5},{"trial_n":134,"span":11,"encoder":"73123209512","distractor":"73123219512","target":"present","response":"present","rt":"5587.5999999996","correct":true,"confidence":2},{"trial_n":135,"span":12,"encoder":"630129630002","distractor":"630149630002","target":"present","response":"present","rt":"8488","correct":true,"confidence":4},{"trial_n":136,"span":12,"encoder":"271808334905","distractor":"271808354905","target":"absent","response":"absent","rt":"6763.5","correct":true,"confidence":3},{"trial_n":137,"span":13,"encoder":"5909406864332","distractor":"5909406861332","target":"absent","response":"absent","rt":"6087.4000000004","correct":true,"confidence":3},{"trial_n":138,"span":13,"encoder":"2613695749899","distractor":"2913695749899","target":"present","response":"present","rt":"6753.4000000004","correct":true,"confidence":1},{"trial_n":139,"span":14,"encoder":"27376490700906","distractor":"27376490703906","target":"present","response":"present","rt":"1991.3000000007","correct":true,"confidence":5},{"trial_n":140,"span":14,"encoder":"12452129073705","distractor":"12452129073405","target":"absent","response":"absent","rt":"7693","correct":true,"confidence":5}]