[{"trial_n":1,"min":25,"max":230,"target":"present","response":"present","rt":6243.6000000238,"correct":true,"confidence":-1},{"trial_n":2,"min":25,"max":230,"target":"present","response":"present","rt":1265.1999999285,"correct":true,"confidence":-1},{"trial_n":3,"min":41,"max":214,"target":"absent","response":"absent","rt":370.09999990463,"correct":true,"confidence":-1},{"trial_n":4,"min":41,"max":214,"target":"absent","response":"absent","rt":298.80000007153,"correct":true,"confidence":-1},{"trial_n":5,"min":57,"max":198,"target":"present","response":"present","rt":143,"correct":true,"confidence":-1},{"trial_n":6,"min":57,"max":198,"target":"absent","response":"absent","rt":190.29999995232,"correct":true,"confidence":-1},{"trial_n":7,"min":73,"max":182,"target":"present","response":"present","rt":188.09999990463,"correct":true,"confidence":-1},{"trial_n":8,"min":73,"max":182,"target":"present","response":"present","rt":387.5,"correct":true,"confidence":-1},{"trial_n":9,"min":89,"max":166,"target":"present","response":"absent","rt":172.30000007153,"correct":false,"confidence":-1},{"trial_n":10,"min":73,"max":182,"target":"absent","response":"absent","rt":561.5,"correct":true,"confidence":-1},{"trial_n":11,"min":73,"max":182,"target":"absent","response":"absent","rt":232.10000002384,"correct":true,"confidence":-1},{"trial_n":12,"min":81,"max":174,"target":"present","response":"present","rt":183.09999990463,"correct":true,"confidence":-1},{"trial_n":13,"min":81,"max":174,"target":"present","response":"present","rt":563.10000002384,"correct":true,"confidence":-1},{"trial_n":14,"min":89,"max":166,"target":"absent","response":"absent","rt":260,"correct":true,"confidence":-1},{"trial_n":15,"min":89,"max":166,"target":"present","response":"absent","rt":292.39999997616,"correct":false,"confidence":-1},{"trial_n":16,"min":81,"max":174,"target":"absent","response":"present","rt":351.59999990463,"correct":false,"confidence":-1},{"trial_n":17,"min":73,"max":182,"target":"present","response":"present","rt":858.19999992847,"correct":true,"confidence":-1},{"trial_n":18,"min":73,"max":182,"target":"absent","response":"absent","rt":187.10000002384,"correct":true,"confidence":-1},{"trial_n":19,"min":81,"max":174,"target":"present","response":"absent","rt":538.19999992847,"correct":false,"confidence":-1},{"trial_n":20,"min":73,"max":182,"target":"absent","response":"absent","rt":1669.7999999523,"correct":true,"confidence":-1},{"trial_n":21,"min":73,"max":182,"target":"present","response":"present","rt":4286,"correct":true,"confidence":5},{"trial_n":22,"min":77,"max":178,"target":"absent","response":"absent","rt":842.29999995232,"correct":true,"confidence":5},{"trial_n":23,"min":77,"max":178,"target":"present","response":"present","rt":974.5,"correct":true,"confidence":4},{"trial_n":24,"min":81,"max":174,"target":"present","response":"present","rt":802.20000004768,"correct":true,"confidence":5},{"trial_n":25,"min":81,"max":174,"target":"absent","response":"absent","rt":989.29999995232,"correct":true,"confidence":5},{"trial_n":26,"min":85,"max":170,"target":"present","response":"present","rt":895.59999990463,"correct":true,"confidence":4},{"trial_n":27,"min":85,"max":170,"target":"absent","response":"absent","rt":424.39999997616,"correct":true,"confidence":5},{"trial_n":28,"min":89,"max":166,"target":"absent","response":"absent","rt":968.09999990463,"correct":true,"confidence":2},{"trial_n":29,"min":89,"max":166,"target":"absent","response":"absent","rt":2066.8000000715,"correct":true,"confidence":4},{"trial_n":30,"min":93,"max":162,"target":"absent","response":"absent","rt":3252,"correct":true,"confidence":4},{"trial_n":31,"min":93,"max":162,"target":"absent","response":"absent","rt":983.69999992847,"correct":true,"confidence":5},{"trial_n":32,"min":95,"max":160,"target":"absent","response":"absent","rt":1110.3000000715,"correct":true,"confidence":2},{"trial_n":33,"min":95,"max":160,"target":"absent","response":"present","rt":790,"correct":false,"confidence":4},{"trial_n":34,"min":93,"max":162,"target":"present","response":"present","rt":630.60000002384,"correct":true,"confidence":2},{"trial_n":35,"min":93,"max":162,"target":"absent","response":"absent","rt":398.5,"correct":true,"confidence":5},{"trial_n":36,"min":95,"max":160,"target":"absent","response":"present","rt":595.5,"correct":false,"confidence":4},{"trial_n":37,"min":93,"max":162,"target":"absent","response":"absent","rt":530,"correct":true,"confidence":5},{"trial_n":38,"min":93,"max":162,"target":"present","response":"present","rt":2245.5,"correct":true,"confidence":2},{"trial_n":39,"min":95,"max":160,"target":"present","response":"present","rt":702.60000002384,"correct":true,"confidence":4},{"trial_n":40,"min":95,"max":160,"target":"present","response":"present","rt":590,"correct":true,"confidence":3},{"trial_n":41,"min":96,"max":159,"target":"absent","response":"present","rt":521.90000009537,"correct":false,"confidence":4},{"trial_n":42,"min":95,"max":160,"target":"present","response":"present","rt":1349.1000000238,"correct":true,"confidence":3},{"trial_n":43,"min":95,"max":160,"target":"present","response":"present","rt":601.39999997616,"correct":true,"confidence":2},{"trial_n":44,"min":96,"max":159,"target":"present","response":"present","rt":788,"correct":true,"confidence":3},{"trial_n":45,"min":96,"max":159,"target":"absent","response":"present","rt":855.59999990463,"correct":false,"confidence":5},{"trial_n":46,"min":95,"max":160,"target":"present","response":"present","rt":5678.8999999762,"correct":true,"confidence":1},{"trial_n":47,"min":95,"max":160,"target":"present","response":"absent","rt":1063.7000000477,"correct":false,"confidence":3},{"trial_n":48,"min":94,"max":161,"target":"absent","response":"present","rt":1065.6999999285,"correct":false,"confidence":1},{"trial_n":49,"min":93,"max":162,"target":"present","response":"absent","rt":688.60000002384,"correct":false,"confidence":4},{"trial_n":50,"min":92,"max":163,"target":"absent","response":"absent","rt":905.10000002384,"correct":true,"confidence":4},{"trial_n":51,"min":92,"max":163,"target":"absent","response":"absent","rt":877.89999997616,"correct":true,"confidence":4},{"trial_n":52,"min":93,"max":162,"target":"absent","response":"absent","rt":1795.5,"correct":true,"confidence":3},{"trial_n":53,"min":93,"max":162,"target":"present","response":"absent","rt":1060.0999999046,"correct":false,"confidence":2},{"trial_n":54,"min":92,"max":163,"target":"present","response":"absent","rt":701,"correct":false,"confidence":3},{"trial_n":55,"min":91,"max":164,"target":"absent","response":"absent","rt":584.70000004768,"correct":true,"confidence":4},{"trial_n":56,"min":91,"max":164,"target":"present","response":"present","rt":621.39999997616,"correct":true,"confidence":5},{"trial_n":57,"min":92,"max":163,"target":"absent","response":"absent","rt":539.20000004768,"correct":true,"confidence":3},{"trial_n":58,"min":92,"max":163,"target":"absent","response":"absent","rt":488.10000002384,"correct":true,"confidence":4},{"trial_n":59,"min":93,"max":162,"target":"absent","response":"present","rt":710.69999992847,"correct":false,"confidence":5},{"trial_n":60,"min":92,"max":163,"target":"present","response":"present","rt":439.69999992847,"correct":true,"confidence":5},{"trial_n":61,"min":92,"max":163,"target":"present","response":"present","rt":582.10000002384,"correct":true,"confidence":5},{"trial_n":62,"min":93,"max":162,"target":"absent","response":"present","rt":541.60000002384,"correct":false,"confidence":5},{"trial_n":63,"min":92,"max":163,"target":"present","response":"present","rt":410.30000007153,"correct":true,"confidence":4},{"trial_n":64,"min":92,"max":163,"target":"present","response":"present","rt":484.69999992847,"correct":true,"confidence":5},{"trial_n":65,"min":93,"max":162,"target":"present","response":"present","rt":312.79999995232,"correct":true,"confidence":4},{"trial_n":66,"min":93,"max":162,"target":"absent","response":"present","rt":857.20000004768,"correct":false,"confidence":5},{"trial_n":67,"min":92,"max":163,"target":"present","response":"present","rt":2474.7999999523,"correct":true,"confidence":4},{"trial_n":68,"min":92,"max":163,"target":"present","response":"present","rt":8882.8999999762,"correct":true,"confidence":4},{"trial_n":69,"min":93,"max":162,"target":"present","response":"present","rt":685.79999995232,"correct":true,"confidence":5},{"trial_n":70,"min":93,"max":162,"target":"absent","response":"present","rt":1582.1000000238,"correct":false,"confidence":5},{"trial_n":71,"min":41,"max":214,"target":"present","response":"absent","rt":3205.7999999523,"correct":false,"confidence":-1},{"trial_n":72,"min":41,"max":214,"target":"present","response":"present","rt":945.79999995232,"correct":true,"confidence":-1},{"trial_n":73,"min":41,"max":214,"target":"absent","response":"absent","rt":133.80000007153,"correct":true,"confidence":-1},{"trial_n":74,"min":57,"max":198,"target":"absent","response":"absent","rt":115.70000004768,"correct":true,"confidence":-1},{"trial_n":75,"min":57,"max":198,"target":"present","response":"present","rt":448.69999992847,"correct":true,"confidence":-1},{"trial_n":76,"min":73,"max":182,"target":"absent","response":"absent","rt":306.89999997616,"correct":true,"confidence":-1},{"trial_n":77,"min":73,"max":182,"target":"present","response":"present","rt":279.10000002384,"correct":true,"confidence":-1},{"trial_n":78,"min":89,"max":166,"target":"present","response":"present","rt":434.90000009537,"correct":true,"confidence":-1},{"trial_n":79,"min":89,"max":166,"target":"absent","response":"present","rt":669,"correct":false,"confidence":-1},{"trial_n":80,"min":73,"max":182,"target":"absent","response":"absent","rt":295.5,"correct":true,"confidence":-1},{"trial_n":81,"min":73,"max":182,"target":"present","response":"absent","rt":162.10000002384,"correct":false,"confidence":-1},{"trial_n":82,"min":65,"max":190,"target":"absent","response":"present","rt":223.39999997616,"correct":false,"confidence":-1},{"trial_n":83,"min":57,"max":198,"target":"absent","response":"absent","rt":205.80000007153,"correct":true,"confidence":-1},{"trial_n":84,"min":57,"max":198,"target":"absent","response":"absent","rt":385.19999992847,"correct":true,"confidence":-1},{"trial_n":85,"min":65,"max":190,"target":"present","response":"present","rt":571.80000007153,"correct":true,"confidence":-1},{"trial_n":86,"min":65,"max":190,"target":"present","response":"present","rt":362.29999995232,"correct":true,"confidence":-1},{"trial_n":87,"min":73,"max":182,"target":"present","response":"present","rt":344.39999997616,"correct":true,"confidence":-1},{"trial_n":88,"min":73,"max":182,"target":"absent","response":"absent","rt":441.5,"correct":true,"confidence":-1},{"trial_n":89,"min":81,"max":174,"target":"absent","response":"absent","rt":373.39999997616,"correct":true,"confidence":-1},{"trial_n":90,"min":81,"max":174,"target":"absent","response":"absent","rt":315.10000002384,"correct":true,"confidence":-1},{"trial_n":91,"min":85,"max":170,"target":"present","response":"present","rt":285.70000004768,"correct":true,"confidence":5},{"trial_n":92,"min":85,"max":170,"target":"absent","response":"absent","rt":407.30000007153,"correct":true,"confidence":2},{"trial_n":93,"min":89,"max":166,"target":"present","response":"present","rt":4097.6999999285,"correct":true,"confidence":1},{"trial_n":94,"min":89,"max":166,"target":"absent","response":"absent","rt":640.89999997616,"correct":true,"confidence":3},{"trial_n":95,"min":93,"max":162,"target":"present","response":"present","rt":416.70000004768,"correct":true,"confidence":4},{"trial_n":96,"min":93,"max":162,"target":"absent","response":"absent","rt":461.69999992847,"correct":true,"confidence":3},{"trial_n":97,"min":97,"max":158,"target":"absent","response":"present","rt":635.70000004768,"correct":false,"confidence":2},{"trial_n":98,"min":93,"max":162,"target":"present","response":"present","rt":648.60000002384,"correct":true,"confidence":2},{"trial_n":99,"min":93,"max":162,"target":"absent","response":"present","rt":1280,"correct":false,"confidence":2},{"trial_n":100,"min":89,"max":166,"target":"present","response":"present","rt":592.60000002384,"correct":true,"confidence":2},{"trial_n":101,"min":89,"max":166,"target":"present","response":"present","rt":568.29999995232,"correct":true,"confidence":3},{"trial_n":102,"min":91,"max":164,"target":"present","response":"present","rt":656.5,"correct":true,"confidence":2},{"trial_n":103,"min":91,"max":164,"target":"absent","response":"absent","rt":472.80000007153,"correct":true,"confidence":3},{"trial_n":104,"min":93,"max":162,"target":"present","response":"absent","rt":775,"correct":false,"confidence":3},{"trial_n":105,"min":91,"max":164,"target":"present","response":"present","rt":563.79999995232,"correct":true,"confidence":2},{"trial_n":106,"min":91,"max":164,"target":"absent","response":"present","rt":451.5,"correct":false,"confidence":2},{"trial_n":107,"min":89,"max":166,"target":"present","response":"absent","rt":480.20000004768,"correct":false,"confidence":3},{"trial_n":108,"min":87,"max":168,"target":"present","response":"absent","rt":654,"correct":false,"confidence":3},{"trial_n":109,"min":85,"max":170,"target":"present","response":"present","rt":507.39999997616,"correct":true,"confidence":2},{"trial_n":110,"min":85,"max":170,"target":"absent","response":"present","rt":466.20000004768,"correct":false,"confidence":1},{"trial_n":111,"min":84,"max":171,"target":"present","response":"absent","rt":755.10000002384,"correct":false,"confidence":1},{"trial_n":112,"min":83,"max":172,"target":"present","response":"present","rt":420.10000002384,"correct":true,"confidence":1},{"trial_n":113,"min":83,"max":172,"target":"present","response":"present","rt":486.10000002384,"correct":true,"confidence":1},{"trial_n":114,"min":84,"max":171,"target":"present","response":"absent","rt":437.5,"correct":false,"confidence":1},{"trial_n":115,"min":83,"max":172,"target":"absent","response":"present","rt":1168.5,"correct":false,"confidence":1},{"trial_n":116,"min":82,"max":173,"target":"present","response":"present","rt":861.80000007153,"correct":true,"confidence":3},{"trial_n":117,"min":82,"max":173,"target":"present","response":"absent","rt":408.20000004768,"correct":false,"confidence":4},{"trial_n":118,"min":81,"max":174,"target":"absent","response":"absent","rt":991.20000004768,"correct":true,"confidence":4},{"trial_n":119,"min":81,"max":174,"target":"present","response":"present","rt":566.79999995232,"correct":true,"confidence":4},{"trial_n":120,"min":82,"max":173,"target":"absent","response":"absent","rt":389.80000007153,"correct":true,"confidence":4},{"trial_n":121,"min":82,"max":173,"target":"absent","response":"present","rt":1072.2000000477,"correct":false,"confidence":1},{"trial_n":122,"min":81,"max":174,"target":"present","response":"present","rt":405.80000007153,"correct":true,"confidence":4},{"trial_n":123,"min":81,"max":174,"target":"absent","response":"absent","rt":442.70000004768,"correct":true,"confidence":4},{"trial_n":124,"min":82,"max":173,"target":"absent","response":"absent","rt":871.69999992847,"correct":true,"confidence":3},{"trial_n":125,"min":82,"max":173,"target":"present","response":"absent","rt":478.89999997616,"correct":false,"confidence":4},{"trial_n":126,"min":81,"max":174,"target":"present","response":"present","rt":366.30000007153,"correct":true,"confidence":5},{"trial_n":127,"min":81,"max":174,"target":"absent","response":"absent","rt":660.29999995232,"correct":true,"confidence":4},{"trial_n":128,"min":82,"max":173,"target":"absent","response":"absent","rt":740.10000002384,"correct":true,"confidence":2},{"trial_n":129,"min":82,"max":173,"target":"present","response":"present","rt":302.79999995232,"correct":true,"confidence":4},{"trial_n":130,"min":83,"max":172,"target":"present","response":"present","rt":169.20000004768,"correct":true,"confidence":4},{"trial_n":131,"min":83,"max":172,"target":"absent","response":"absent","rt":347,"correct":true,"confidence":4},{"trial_n":132,"min":84,"max":171,"target":"present","response":"present","rt":1134.7000000477,"correct":true,"confidence":3},{"trial_n":133,"min":84,"max":171,"target":"absent","response":"absent","rt":390.69999992847,"correct":true,"confidence":4},{"trial_n":134,"min":85,"max":170,"target":"absent","response":"absent","rt":269.70000004768,"correct":true,"confidence":2},{"trial_n":135,"min":85,"max":170,"target":"absent","response":"present","rt":405.69999992847,"correct":false,"confidence":3},{"trial_n":136,"min":84,"max":171,"target":"present","response":"present","rt":316.60000002384,"correct":true,"confidence":3},{"trial_n":137,"min":84,"max":171,"target":"absent","response":"absent","rt":440.20000004768,"correct":true,"confidence":3},{"trial_n":138,"min":85,"max":170,"target":"absent","response":"absent","rt":500.5,"correct":true,"confidence":4},{"trial_n":139,"min":85,"max":170,"target":"absent","response":"absent","rt":297.70000004768,"correct":true,"confidence":3},{"trial_n":140,"min":86,"max":169,"target":"present","response":"present","rt":760.80000007153,"correct":true,"confidence":2}]