[{"trial_n":1,"n_dots":4.25,"target":"right","response":"left","rt":3198.7999999523,"correct":false,"confidence":-1},{"trial_n":2,"n_dots":4.25,"target":"right","response":"right","rt":795.40000009537,"correct":true,"confidence":-1},{"trial_n":3,"n_dots":4.25,"target":"left","response":"left","rt":796.5,"correct":true,"confidence":-1},{"trial_n":4,"n_dots":3.85,"target":"right","response":"right","rt":478.79999995232,"correct":true,"confidence":-1},{"trial_n":5,"n_dots":3.85,"target":"right","response":"right","rt":302.40000009537,"correct":true,"confidence":-1},{"trial_n":6,"n_dots":3.45,"target":"left","response":"left","rt":843.90000009537,"correct":true,"confidence":-1},{"trial_n":7,"n_dots":3.45,"target":"left","response":"right","rt":512,"correct":false,"confidence":-1},{"trial_n":8,"n_dots":3.65,"target":"left","response":"left","rt":1239.5,"correct":true,"confidence":-1},{"trial_n":9,"n_dots":3.65,"target":"left","response":"right","rt":767.20000004768,"correct":false,"confidence":-1},{"trial_n":10,"n_dots":3.85,"target":"right","response":"right","rt":565.09999990463,"correct":true,"confidence":-1},{"trial_n":11,"n_dots":3.85,"target":"left","response":"left","rt":900,"correct":true,"confidence":-1},{"trial_n":12,"n_dots":3.65,"target":"right","response":"right","rt":919.89999985695,"correct":true,"confidence":-1},{"trial_n":13,"n_dots":3.65,"target":"right","response":"left","rt":476.30000019073,"correct":false,"confidence":-1},{"trial_n":14,"n_dots":3.75,"target":"left","response":"left","rt":339.70000004768,"correct":true,"confidence":-1},{"trial_n":15,"n_dots":3.75,"target":"left","response":"right","rt":493.20000004768,"correct":false,"confidence":-1},{"trial_n":16,"n_dots":3.85,"target":"right","response":"right","rt":512.70000004768,"correct":true,"confidence":-1},{"trial_n":17,"n_dots":3.85,"target":"right","response":"right","rt":428.40000009537,"correct":true,"confidence":-1},{"trial_n":18,"n_dots":3.75,"target":"left","response":"left","rt":402.40000009537,"correct":true,"confidence":-1},{"trial_n":19,"n_dots":3.75,"target":"right","response":"right","rt":509.69999980927,"correct":true,"confidence":-1},{"trial_n":20,"n_dots":3.65,"target":"left","response":"left","rt":486.20000004768,"correct":true,"confidence":-1},{"trial_n":21,"n_dots":3.65,"target":"left","response":"right","rt":572.79999995232,"correct":false,"confidence":4},{"trial_n":22,"n_dots":3.75,"target":"right","response":"right","rt":449.09999990463,"correct":true,"confidence":4},{"trial_n":23,"n_dots":3.75,"target":"left","response":"left","rt":532.59999990463,"correct":true,"confidence":4},{"trial_n":24,"n_dots":3.65,"target":"right","response":"right","rt":753.90000009537,"correct":true,"confidence":4},{"trial_n":25,"n_dots":3.65,"target":"left","response":"left","rt":675.89999985695,"correct":true,"confidence":4},{"trial_n":26,"n_dots":3.55,"target":"right","response":"right","rt":616.70000004768,"correct":true,"confidence":3},{"trial_n":27,"n_dots":3.55,"target":"right","response":"right","rt":856.29999995232,"correct":true,"confidence":2},{"trial_n":28,"n_dots":3.45,"target":"left","response":"left","rt":837.70000004768,"correct":true,"confidence":3},{"trial_n":29,"n_dots":3.45,"target":"left","response":"left","rt":1560.2999999523,"correct":true,"confidence":2},{"trial_n":30,"n_dots":3.35,"target":"left","response":"right","rt":1002.8000001907,"correct":false,"confidence":2},{"trial_n":31,"n_dots":3.45,"target":"right","response":"left","rt":645.70000004768,"correct":false,"confidence":3},{"trial_n":32,"n_dots":3.55,"target":"right","response":"right","rt":792.20000004768,"correct":true,"confidence":3},{"trial_n":33,"n_dots":3.55,"target":"right","response":"right","rt":1325.9000000954,"correct":true,"confidence":1},{"trial_n":34,"n_dots":3.45,"target":"right","response":"left","rt":1649.2000000477,"correct":false,"confidence":1},{"trial_n":35,"n_dots":3.55,"target":"left","response":"left","rt":798.79999995232,"correct":true,"confidence":3},{"trial_n":36,"n_dots":3.55,"target":"left","response":"left","rt":746.90000009537,"correct":true,"confidence":3},{"trial_n":37,"n_dots":3.45,"target":"right","response":"right","rt":575.70000004768,"correct":true,"confidence":3},{"trial_n":38,"n_dots":3.45,"target":"left","response":"left","rt":973.59999990463,"correct":true,"confidence":4},{"trial_n":39,"n_dots":3.35,"target":"left","response":"right","rt":634.5,"correct":false,"confidence":4},{"trial_n":40,"n_dots":3.45,"target":"right","response":"left","rt":898.20000004768,"correct":false,"confidence":1},{"trial_n":41,"n_dots":3.55,"target":"right","response":"right","rt":569,"correct":true,"confidence":5},{"trial_n":42,"n_dots":3.55,"target":"left","response":"left","rt":703.40000009537,"correct":true,"confidence":2},{"trial_n":43,"n_dots":3.45,"target":"left","response":"right","rt":948.19999980927,"correct":false,"confidence":3},{"trial_n":44,"n_dots":3.55,"target":"left","response":"left","rt":561.5,"correct":true,"confidence":4},{"trial_n":45,"n_dots":3.55,"target":"right","response":"right","rt":770.79999995232,"correct":true,"confidence":4},{"trial_n":46,"n_dots":3.45,"target":"right","response":"right","rt":786.20000004768,"correct":true,"confidence":4},{"trial_n":47,"n_dots":3.45,"target":"right","response":"right","rt":849.09999990463,"correct":true,"confidence":5},{"trial_n":48,"n_dots":3.35,"target":"right","response":"left","rt":951.29999995232,"correct":false,"confidence":2},{"trial_n":49,"n_dots":3.45,"target":"left","response":"left","rt":554,"correct":true,"confidence":5},{"trial_n":50,"n_dots":3.45,"target":"left","response":"left","rt":640.90000009537,"correct":true,"confidence":3},{"trial_n":51,"n_dots":3.35,"target":"right","response":"right","rt":579.79999995232,"correct":true,"confidence":4},{"trial_n":52,"n_dots":3.35,"target":"left","response":"left","rt":486.69999980927,"correct":true,"confidence":3},{"trial_n":53,"n_dots":3.25,"target":"left","response":"right","rt":885.5,"correct":false,"confidence":1},{"trial_n":54,"n_dots":3.35,"target":"right","response":"left","rt":952.70000004768,"correct":false,"confidence":3},{"trial_n":55,"n_dots":3.45,"target":"right","response":"right","rt":899.29999995232,"correct":true,"confidence":4},{"trial_n":56,"n_dots":3.45,"target":"right","response":"right","rt":757.20000004768,"correct":true,"confidence":2},{"trial_n":57,"n_dots":3.35,"target":"left","response":"left","rt":1219.6999998093,"correct":true,"confidence":2},{"trial_n":58,"n_dots":3.35,"target":"right","response":"right","rt":679.10000014305,"correct":true,"confidence":4},{"trial_n":59,"n_dots":3.25,"target":"left","response":"left","rt":650.5,"correct":true,"confidence":2},{"trial_n":60,"n_dots":3.25,"target":"left","response":"right","rt":789.20000004768,"correct":false,"confidence":2},{"trial_n":61,"n_dots":3.35,"target":"left","response":"left","rt":638.59999990463,"correct":true,"confidence":4},{"trial_n":62,"n_dots":3.35,"target":"left","response":"right","rt":691.80000019073,"correct":false,"confidence":2},{"trial_n":63,"n_dots":3.45,"target":"right","response":"right","rt":582.60000014305,"correct":true,"confidence":2},{"trial_n":64,"n_dots":3.45,"target":"left","response":"right","rt":717.30000019073,"correct":false,"confidence":4},{"trial_n":65,"n_dots":3.55,"target":"right","response":"right","rt":684,"correct":true,"confidence":4},{"trial_n":66,"n_dots":3.55,"target":"left","response":"left","rt":906,"correct":true,"confidence":4},{"trial_n":67,"n_dots":3.45,"target":"right","response":"right","rt":523.5,"correct":true,"confidence":2},{"trial_n":68,"n_dots":3.45,"target":"left","response":"left","rt":696.29999995232,"correct":true,"confidence":4},{"trial_n":69,"n_dots":3.35,"target":"right","response":"right","rt":704.29999995232,"correct":true,"confidence":4},{"trial_n":70,"n_dots":3.35,"target":"right","response":"left","rt":887.19999980927,"correct":false,"confidence":1},{"trial_n":71,"n_dots":3.45,"target":"right","response":"right","rt":819,"correct":true,"confidence":2},{"trial_n":72,"n_dots":3.45,"target":"right","response":"right","rt":697.20000004768,"correct":true,"confidence":2},{"trial_n":73,"n_dots":3.35,"target":"right","response":"right","rt":870.40000009537,"correct":true,"confidence":4},{"trial_n":74,"n_dots":3.35,"target":"right","response":"left","rt":950.10000014305,"correct":false,"confidence":3},{"trial_n":75,"n_dots":3.45,"target":"left","response":"right","rt":992.70000004768,"correct":false,"confidence":2},{"trial_n":76,"n_dots":3.55,"target":"left","response":"left","rt":599.90000009537,"correct":true,"confidence":4},{"trial_n":77,"n_dots":3.55,"target":"left","response":"left","rt":801.70000004768,"correct":true,"confidence":4},{"trial_n":78,"n_dots":3.45,"target":"left","response":"left","rt":965.70000004768,"correct":true,"confidence":3},{"trial_n":79,"n_dots":3.45,"target":"right","response":"right","rt":700.29999995232,"correct":true,"confidence":5},{"trial_n":80,"n_dots":3.35,"target":"right","response":"left","rt":763,"correct":false,"confidence":3},{"trial_n":81,"n_dots":3.45,"target":"left","response":"left","rt":556.79999995232,"correct":true,"confidence":5},{"trial_n":82,"n_dots":3.45,"target":"right","response":"right","rt":688.40000009537,"correct":true,"confidence":4},{"trial_n":83,"n_dots":3.35,"target":"left","response":"left","rt":642.79999995232,"correct":true,"confidence":5},{"trial_n":84,"n_dots":3.35,"target":"left","response":"left","rt":775.59999990463,"correct":true,"confidence":4},{"trial_n":85,"n_dots":3.25,"target":"right","response":"right","rt":1173.5,"correct":true,"confidence":3},{"trial_n":86,"n_dots":3.25,"target":"right","response":"right","rt":794,"correct":true,"confidence":4},{"trial_n":87,"n_dots":3.15,"target":"right","response":"right","rt":757.39999985695,"correct":true,"confidence":4},{"trial_n":88,"n_dots":3.15,"target":"left","response":"left","rt":650.5,"correct":true,"confidence":3},{"trial_n":89,"n_dots":3.05,"target":"left","response":"right","rt":736,"correct":false,"confidence":3},{"trial_n":90,"n_dots":3.15,"target":"right","response":"right","rt":768,"correct":true,"confidence":3},{"trial_n":91,"n_dots":3.15,"target":"right","response":"left","rt":861.09999990463,"correct":false,"confidence":1},{"trial_n":92,"n_dots":3.25,"target":"left","response":"left","rt":943.90000009537,"correct":true,"confidence":1},{"trial_n":93,"n_dots":3.25,"target":"right","response":"right","rt":810,"correct":true,"confidence":4},{"trial_n":94,"n_dots":3.15,"target":"left","response":"left","rt":642.40000009537,"correct":true,"confidence":3},{"trial_n":95,"n_dots":3.15,"target":"left","response":"left","rt":715.30000019073,"correct":true,"confidence":2},{"trial_n":96,"n_dots":3.05,"target":"right","response":"right","rt":819.20000004768,"correct":true,"confidence":3},{"trial_n":97,"n_dots":3.05,"target":"right","response":"right","rt":603.59999990463,"correct":true,"confidence":2},{"trial_n":98,"n_dots":2.95,"target":"left","response":"right","rt":639.39999985695,"correct":false,"confidence":3},{"trial_n":99,"n_dots":3.05,"target":"right","response":"left","rt":989.20000004768,"correct":false,"confidence":3},{"trial_n":100,"n_dots":3.15,"target":"right","response":"left","rt":726,"correct":false,"confidence":3},{"trial_n":101,"n_dots":3.25,"target":"left","response":"left","rt":592.89999985695,"correct":true,"confidence":5},{"trial_n":102,"n_dots":3.25,"target":"left","response":"left","rt":633,"correct":true,"confidence":3},{"trial_n":103,"n_dots":3.15,"target":"left","response":"right","rt":760,"correct":false,"confidence":2},{"trial_n":104,"n_dots":3.25,"target":"left","response":"left","rt":863.09999990463,"correct":true,"confidence":3},{"trial_n":105,"n_dots":3.25,"target":"right","response":"right","rt":628.40000009537,"correct":true,"confidence":3},{"trial_n":106,"n_dots":3.15,"target":"right","response":"left","rt":1122,"correct":false,"confidence":1},{"trial_n":107,"n_dots":3.25,"target":"left","response":"left","rt":798.59999990463,"correct":true,"confidence":5},{"trial_n":108,"n_dots":3.25,"target":"left","response":"right","rt":760.10000014305,"correct":false,"confidence":3},{"trial_n":109,"n_dots":3.35,"target":"right","response":"right","rt":675.39999985695,"correct":true,"confidence":4},{"trial_n":110,"n_dots":3.35,"target":"left","response":"left","rt":603.5,"correct":true,"confidence":5},{"trial_n":111,"n_dots":3.25,"target":"right","response":"right","rt":819,"correct":true,"confidence":3},{"trial_n":112,"n_dots":3.25,"target":"right","response":"right","rt":760.89999985695,"correct":true,"confidence":1},{"trial_n":113,"n_dots":3.15,"target":"left","response":"left","rt":1107.2999999523,"correct":true,"confidence":2},{"trial_n":114,"n_dots":3.15,"target":"left","response":"left","rt":535,"correct":true,"confidence":4},{"trial_n":115,"n_dots":3.05,"target":"left","response":"left","rt":639,"correct":true,"confidence":5},{"trial_n":116,"n_dots":3.05,"target":"right","response":"right","rt":558.20000004768,"correct":true,"confidence":3},{"trial_n":117,"n_dots":2.95,"target":"left","response":"left","rt":775.79999995232,"correct":true,"confidence":4},{"trial_n":118,"n_dots":2.95,"target":"left","response":"left","rt":755.59999990463,"correct":true,"confidence":3},{"trial_n":119,"n_dots":2.85,"target":"right","response":"left","rt":2025.6000001431,"correct":false,"confidence":5},{"trial_n":120,"n_dots":2.95,"target":"right","response":"right","rt":1201.7000000477,"correct":true,"confidence":3}]