[{"trial_n":1,"n_dots":4.25,"target":"right","response":"right","rt":5852.7000000477,"correct":true,"confidence":-1},{"trial_n":2,"n_dots":4.25,"target":"right","response":"left","rt":1327.9000000954,"correct":false,"confidence":-1},{"trial_n":3,"n_dots":4.65,"target":"right","response":"right","rt":1030.0999999046,"correct":true,"confidence":-1},{"trial_n":4,"n_dots":4.65,"target":"left","response":"left","rt":916.39999985695,"correct":true,"confidence":-1},{"trial_n":5,"n_dots":4.25,"target":"left","response":"left","rt":868.5,"correct":true,"confidence":-1},{"trial_n":6,"n_dots":4.25,"target":"right","response":"right","rt":863.70000004768,"correct":true,"confidence":-1},{"trial_n":7,"n_dots":3.85,"target":"right","response":"right","rt":718.59999990463,"correct":true,"confidence":-1},{"trial_n":8,"n_dots":3.85,"target":"right","response":"right","rt":948,"correct":true,"confidence":-1},{"trial_n":9,"n_dots":3.65,"target":"right","response":"left","rt":1034.2999999523,"correct":false,"confidence":-1},{"trial_n":10,"n_dots":3.85,"target":"left","response":"left","rt":629.70000004768,"correct":true,"confidence":-1},{"trial_n":11,"n_dots":3.85,"target":"right","response":"right","rt":1086.5,"correct":true,"confidence":-1},{"trial_n":12,"n_dots":3.65,"target":"right","response":"left","rt":897.70000004768,"correct":false,"confidence":-1},{"trial_n":13,"n_dots":3.75,"target":"left","response":"left","rt":896.90000009537,"correct":true,"confidence":-1},{"trial_n":14,"n_dots":3.75,"target":"left","response":"left","rt":1010.3999998569,"correct":true,"confidence":-1},{"trial_n":15,"n_dots":3.65,"target":"right","response":"right","rt":765,"correct":true,"confidence":-1},{"trial_n":16,"n_dots":3.65,"target":"right","response":"right","rt":717.30000019073,"correct":true,"confidence":-1},{"trial_n":17,"n_dots":3.55,"target":"right","response":"left","rt":476,"correct":false,"confidence":-1},{"trial_n":18,"n_dots":3.65,"target":"right","response":"right","rt":933.09999990463,"correct":true,"confidence":-1},{"trial_n":19,"n_dots":3.65,"target":"left","response":"left","rt":1494,"correct":true,"confidence":-1},{"trial_n":20,"n_dots":3.55,"target":"left","response":"left","rt":884.40000009537,"correct":true,"confidence":-1},{"trial_n":21,"n_dots":3.55,"target":"right","response":"right","rt":831.19999980927,"correct":true,"confidence":3},{"trial_n":22,"n_dots":3.45,"target":"right","response":"left","rt":881.40000009537,"correct":false,"confidence":3},{"trial_n":23,"n_dots":3.55,"target":"right","response":"left","rt":817.90000009537,"correct":false,"confidence":4},{"trial_n":24,"n_dots":3.65,"target":"left","response":"left","rt":853.5,"correct":true,"confidence":4},{"trial_n":25,"n_dots":3.65,"target":"right","response":"right","rt":885.59999990463,"correct":true,"confidence":2},{"trial_n":26,"n_dots":3.55,"target":"left","response":"left","rt":4777.8999998569,"correct":true,"confidence":2},{"trial_n":27,"n_dots":3.55,"target":"left","response":"left","rt":799.60000014305,"correct":true,"confidence":4},{"trial_n":28,"n_dots":3.45,"target":"left","response":"left","rt":1346.5999999046,"correct":true,"confidence":3},{"trial_n":29,"n_dots":3.45,"target":"right","response":"right","rt":3450.2999999523,"correct":true,"confidence":1},{"trial_n":30,"n_dots":3.35,"target":"left","response":"left","rt":919.40000009537,"correct":true,"confidence":3},{"trial_n":31,"n_dots":3.35,"target":"right","response":"right","rt":1401.2999999523,"correct":true,"confidence":2},{"trial_n":32,"n_dots":3.25,"target":"left","response":"left","rt":733.10000014305,"correct":true,"confidence":4},{"trial_n":33,"n_dots":3.25,"target":"right","response":"left","rt":843.80000019073,"correct":false,"confidence":2},{"trial_n":34,"n_dots":3.35,"target":"right","response":"right","rt":1133.8000001907,"correct":true,"confidence":2},{"trial_n":35,"n_dots":3.35,"target":"left","response":"left","rt":861.10000014305,"correct":true,"confidence":4},{"trial_n":36,"n_dots":3.25,"target":"right","response":"right","rt":833.90000009537,"correct":true,"confidence":4},{"trial_n":37,"n_dots":3.25,"target":"left","response":"left","rt":982.40000009537,"correct":true,"confidence":3},{"trial_n":38,"n_dots":3.15,"target":"right","response":"right","rt":834.29999995232,"correct":true,"confidence":2},{"trial_n":39,"n_dots":3.15,"target":"right","response":"left","rt":751.20000004768,"correct":false,"confidence":4},{"trial_n":40,"n_dots":3.25,"target":"right","response":"left","rt":982.70000004768,"correct":false,"confidence":3},{"trial_n":41,"n_dots":3.35,"target":"right","response":"left","rt":733.69999980927,"correct":false,"confidence":2},{"trial_n":42,"n_dots":3.45,"target":"right","response":"left","rt":1069.8999998569,"correct":false,"confidence":2},{"trial_n":43,"n_dots":3.55,"target":"left","response":"left","rt":666.29999995232,"correct":true,"confidence":3},{"trial_n":44,"n_dots":3.55,"target":"left","response":"left","rt":667.79999995232,"correct":true,"confidence":4},{"trial_n":45,"n_dots":3.45,"target":"left","response":"left","rt":867.70000004768,"correct":true,"confidence":4},{"trial_n":46,"n_dots":3.45,"target":"left","response":"left","rt":749.39999985695,"correct":true,"confidence":4},{"trial_n":47,"n_dots":3.35,"target":"left","response":"left","rt":819.29999995232,"correct":true,"confidence":1},{"trial_n":48,"n_dots":3.35,"target":"left","response":"left","rt":815.09999990463,"correct":true,"confidence":4},{"trial_n":49,"n_dots":3.25,"target":"left","response":"left","rt":1135.3000001907,"correct":true,"confidence":3},{"trial_n":50,"n_dots":3.25,"target":"right","response":"right","rt":13189.200000048,"correct":true,"confidence":2},{"trial_n":51,"n_dots":3.15,"target":"right","response":"right","rt":1871,"correct":true,"confidence":1},{"trial_n":52,"n_dots":3.15,"target":"left","response":"right","rt":812.90000009537,"correct":false,"confidence":3},{"trial_n":53,"n_dots":3.25,"target":"left","response":"left","rt":863.59999990463,"correct":true,"confidence":3},{"trial_n":54,"n_dots":3.25,"target":"left","response":"right","rt":2433.5999999046,"correct":false,"confidence":1},{"trial_n":55,"n_dots":3.35,"target":"left","response":"right","rt":2050.1000001431,"correct":false,"confidence":1},{"trial_n":56,"n_dots":3.45,"target":"left","response":"right","rt":2065.9000000954,"correct":false,"confidence":1},{"trial_n":57,"n_dots":3.55,"target":"right","response":"left","rt":1422.2999999523,"correct":false,"confidence":2},{"trial_n":58,"n_dots":3.65,"target":"left","response":"right","rt":1016.9000000954,"correct":false,"confidence":2},{"trial_n":59,"n_dots":3.75,"target":"left","response":"right","rt":749.79999995232,"correct":false,"confidence":2},{"trial_n":60,"n_dots":3.85,"target":"right","response":"right","rt":536.89999985695,"correct":true,"confidence":4},{"trial_n":61,"n_dots":3.85,"target":"right","response":"left","rt":809.29999995232,"correct":false,"confidence":2},{"trial_n":62,"n_dots":3.95,"target":"left","response":"right","rt":896.19999980927,"correct":false,"confidence":1},{"trial_n":63,"n_dots":4.05,"target":"right","response":"right","rt":835.60000014305,"correct":true,"confidence":3},{"trial_n":64,"n_dots":4.05,"target":"left","response":"left","rt":865.90000009537,"correct":true,"confidence":4},{"trial_n":65,"n_dots":3.95,"target":"left","response":"left","rt":1151.9000000954,"correct":true,"confidence":3},{"trial_n":66,"n_dots":3.95,"target":"right","response":"right","rt":950.69999980927,"correct":true,"confidence":2},{"trial_n":67,"n_dots":3.85,"target":"left","response":"left","rt":1131.0999999046,"correct":true,"confidence":2},{"trial_n":68,"n_dots":3.85,"target":"left","response":"left","rt":932.70000004768,"correct":true,"confidence":3},{"trial_n":69,"n_dots":3.75,"target":"right","response":"right","rt":681.70000004768,"correct":true,"confidence":3},{"trial_n":70,"n_dots":3.75,"target":"right","response":"right","rt":724.70000004768,"correct":true,"confidence":4},{"trial_n":71,"n_dots":3.65,"target":"left","response":"left","rt":915.30000019073,"correct":true,"confidence":1},{"trial_n":72,"n_dots":3.65,"target":"right","response":"right","rt":766.29999995232,"correct":true,"confidence":2},{"trial_n":73,"n_dots":3.55,"target":"left","response":"left","rt":967.29999995232,"correct":true,"confidence":3},{"trial_n":74,"n_dots":3.55,"target":"left","response":"right","rt":1646.6999998093,"correct":false,"confidence":1},{"trial_n":75,"n_dots":3.65,"target":"right","response":"right","rt":765.5,"correct":true,"confidence":3},{"trial_n":76,"n_dots":3.65,"target":"left","response":"left","rt":698.79999995232,"correct":true,"confidence":4},{"trial_n":77,"n_dots":3.55,"target":"left","response":"left","rt":1167.0999999046,"correct":true,"confidence":3},{"trial_n":78,"n_dots":3.55,"target":"right","response":"right","rt":1450.5,"correct":true,"confidence":2},{"trial_n":79,"n_dots":3.45,"target":"left","response":"left","rt":864.5,"correct":true,"confidence":2},{"trial_n":80,"n_dots":3.45,"target":"right","response":"right","rt":1166.2999999523,"correct":true,"confidence":2},{"trial_n":81,"n_dots":3.35,"target":"right","response":"right","rt":779.5,"correct":true,"confidence":3},{"trial_n":82,"n_dots":3.35,"target":"right","response":"left","rt":1016.7999999523,"correct":false,"confidence":2},{"trial_n":83,"n_dots":3.45,"target":"right","response":"right","rt":1063.5,"correct":true,"confidence":2},{"trial_n":84,"n_dots":3.45,"target":"right","response":"right","rt":917.70000004768,"correct":true,"confidence":2},{"trial_n":85,"n_dots":3.35,"target":"left","response":"left","rt":750.89999985695,"correct":true,"confidence":3},{"trial_n":86,"n_dots":3.35,"target":"right","response":"left","rt":768.10000014305,"correct":false,"confidence":3},{"trial_n":87,"n_dots":3.45,"target":"left","response":"right","rt":1100.7999999523,"correct":false,"confidence":1},{"trial_n":88,"n_dots":3.55,"target":"left","response":"left","rt":1034.5999999046,"correct":true,"confidence":3},{"trial_n":89,"n_dots":3.55,"target":"left","response":"right","rt":964.39999985695,"correct":false,"confidence":3},{"trial_n":90,"n_dots":3.65,"target":"left","response":"left","rt":1018.2999999523,"correct":true,"confidence":1},{"trial_n":91,"n_dots":3.65,"target":"right","response":"right","rt":702.20000004768,"correct":true,"confidence":3},{"trial_n":92,"n_dots":3.55,"target":"left","response":"right","rt":1084.1000001431,"correct":false,"confidence":1},{"trial_n":93,"n_dots":3.65,"target":"left","response":"left","rt":1113.2999999523,"correct":true,"confidence":1},{"trial_n":94,"n_dots":3.65,"target":"right","response":"right","rt":651.69999980927,"correct":true,"confidence":3},{"trial_n":95,"n_dots":3.55,"target":"left","response":"right","rt":717,"correct":false,"confidence":3},{"trial_n":96,"n_dots":3.65,"target":"left","response":"left","rt":7001.5,"correct":true,"confidence":2},{"trial_n":97,"n_dots":3.65,"target":"right","response":"right","rt":733,"correct":true,"confidence":2},{"trial_n":98,"n_dots":3.55,"target":"right","response":"right","rt":1100.2000000477,"correct":true,"confidence":3},{"trial_n":99,"n_dots":3.55,"target":"right","response":"left","rt":1517,"correct":false,"confidence":3},{"trial_n":100,"n_dots":3.65,"target":"left","response":"left","rt":999.79999995232,"correct":true,"confidence":3},{"trial_n":101,"n_dots":3.65,"target":"left","response":"left","rt":848.70000004768,"correct":true,"confidence":3},{"trial_n":102,"n_dots":3.55,"target":"left","response":"right","rt":766.80000019073,"correct":false,"confidence":1},{"trial_n":103,"n_dots":3.65,"target":"left","response":"left","rt":1750,"correct":true,"confidence":3},{"trial_n":104,"n_dots":3.65,"target":"right","response":"right","rt":748.79999995232,"correct":true,"confidence":3},{"trial_n":105,"n_dots":3.55,"target":"right","response":"right","rt":1017.5999999046,"correct":true,"confidence":2},{"trial_n":106,"n_dots":3.55,"target":"left","response":"left","rt":705.20000004768,"correct":true,"confidence":3},{"trial_n":107,"n_dots":3.45,"target":"right","response":"right","rt":1902.7000000477,"correct":true,"confidence":2},{"trial_n":108,"n_dots":3.45,"target":"left","response":"left","rt":649.39999985695,"correct":true,"confidence":3},{"trial_n":109,"n_dots":3.35,"target":"right","response":"right","rt":948,"correct":true,"confidence":1},{"trial_n":110,"n_dots":3.35,"target":"left","response":"left","rt":783.89999985695,"correct":true,"confidence":3},{"trial_n":111,"n_dots":3.25,"target":"left","response":"left","rt":1134.0999999046,"correct":true,"confidence":3},{"trial_n":112,"n_dots":3.25,"target":"left","response":"left","rt":3565.9000000954,"correct":true,"confidence":1},{"trial_n":113,"n_dots":3.15,"target":"left","response":"left","rt":1939.3000001907,"correct":true,"confidence":1},{"trial_n":114,"n_dots":3.15,"target":"right","response":"right","rt":935,"correct":true,"confidence":2},{"trial_n":115,"n_dots":3.05,"target":"right","response":"right","rt":868.60000014305,"correct":true,"confidence":3},{"trial_n":116,"n_dots":3.05,"target":"left","response":"left","rt":1380.5,"correct":true,"confidence":2},{"trial_n":117,"n_dots":2.95,"target":"right","response":"right","rt":703.39999985695,"correct":true,"confidence":3},{"trial_n":118,"n_dots":2.95,"target":"right","response":"right","rt":1065.5999999046,"correct":true,"confidence":1},{"trial_n":119,"n_dots":2.85,"target":"right","response":"right","rt":516.19999980927,"correct":true,"confidence":3},{"trial_n":120,"n_dots":2.85,"target":"right","response":"left","rt":4104.8999998569,"correct":false,"confidence":1}]