[{"trial_n":1,"min":25,"max":230,"target":"present","response":"absent","rt":10080.699999999,"correct":false,"confidence":-1},{"trial_n":2,"min":25,"max":230,"target":"present","response":"absent","rt":5871.5999999996,"correct":false,"confidence":-1},{"trial_n":3,"min":9,"max":246,"target":"absent","response":"present","rt":2246.0999999996,"correct":false,"confidence":-1},{"trial_n":4,"min":0,"max":255,"target":"absent","response":"absent","rt":1117.2999999989,"correct":true,"confidence":-1},{"trial_n":5,"min":0,"max":255,"target":"present","response":"present","rt":2279.6999999993,"correct":true,"confidence":-1},{"trial_n":6,"min":16,"max":239,"target":"present","response":"present","rt":293,"correct":true,"confidence":-1},{"trial_n":7,"min":16,"max":239,"target":"present","response":"present","rt":227.59999999963,"correct":true,"confidence":-1},{"trial_n":8,"min":32,"max":223,"target":"present","response":"present","rt":345.5,"correct":true,"confidence":-1},{"trial_n":9,"min":32,"max":223,"target":"absent","response":"absent","rt":393.30000000075,"correct":true,"confidence":-1},{"trial_n":10,"min":48,"max":207,"target":"present","response":"present","rt":383.40000000037,"correct":true,"confidence":-1},{"trial_n":11,"min":48,"max":207,"target":"absent","response":"absent","rt":425.30000000075,"correct":true,"confidence":-1},{"trial_n":12,"min":56,"max":199,"target":"present","response":"present","rt":460.79999999888,"correct":true,"confidence":-1},{"trial_n":13,"min":56,"max":199,"target":"present","response":"present","rt":344.09999999963,"correct":true,"confidence":-1},{"trial_n":14,"min":64,"max":191,"target":"present","response":"present","rt":268.19999999925,"correct":true,"confidence":-1},{"trial_n":15,"min":64,"max":191,"target":"absent","response":"absent","rt":310.09999999963,"correct":true,"confidence":-1},{"trial_n":16,"min":72,"max":183,"target":"absent","response":"absent","rt":266.19999999925,"correct":true,"confidence":-1},{"trial_n":17,"min":72,"max":183,"target":"absent","response":"absent","rt":133.09999999963,"correct":true,"confidence":-1},{"trial_n":18,"min":80,"max":175,"target":"absent","response":"absent","rt":256.40000000037,"correct":true,"confidence":-1},{"trial_n":19,"min":80,"max":175,"target":"present","response":"present","rt":402.90000000037,"correct":true,"confidence":-1},{"trial_n":20,"min":88,"max":167,"target":"absent","response":"absent","rt":117.79999999888,"correct":true,"confidence":-1},{"trial_n":21,"min":88,"max":167,"target":"present","response":"present","rt":446.79999999888,"correct":true,"confidence":5},{"trial_n":22,"min":92,"max":163,"target":"absent","response":"absent","rt":582.59999999963,"correct":true,"confidence":4},{"trial_n":23,"min":92,"max":163,"target":"present","response":"absent","rt":2166.7999999989,"correct":false,"confidence":3},{"trial_n":24,"min":88,"max":167,"target":"absent","response":"absent","rt":653.40000000037,"correct":true,"confidence":4},{"trial_n":25,"min":88,"max":167,"target":"present","response":"present","rt":634.09999999963,"correct":true,"confidence":4},{"trial_n":26,"min":92,"max":163,"target":"absent","response":"absent","rt":1150,"correct":true,"confidence":3},{"trial_n":27,"min":92,"max":163,"target":"absent","response":"absent","rt":649.5,"correct":true,"confidence":4},{"trial_n":28,"min":96,"max":159,"target":"present","response":"absent","rt":355.69999999925,"correct":false,"confidence":4},{"trial_n":29,"min":92,"max":163,"target":"present","response":"absent","rt":697.09999999963,"correct":false,"confidence":4},{"trial_n":30,"min":88,"max":167,"target":"present","response":"absent","rt":454.69999999925,"correct":false,"confidence":4},{"trial_n":31,"min":86,"max":169,"target":"present","response":"absent","rt":623.59999999963,"correct":false,"confidence":3},{"trial_n":32,"min":84,"max":171,"target":"absent","response":"absent","rt":2361.6999999993,"correct":true,"confidence":4},{"trial_n":33,"min":84,"max":171,"target":"present","response":"present","rt":692.09999999963,"correct":true,"confidence":3},{"trial_n":34,"min":86,"max":169,"target":"absent","response":"absent","rt":1198.5,"correct":true,"confidence":3},{"trial_n":35,"min":86,"max":169,"target":"present","response":"absent","rt":453.09999999963,"correct":false,"confidence":3},{"trial_n":36,"min":84,"max":171,"target":"absent","response":"absent","rt":371.89999999851,"correct":true,"confidence":3},{"trial_n":37,"min":84,"max":171,"target":"present","response":"present","rt":593,"correct":true,"confidence":3},{"trial_n":38,"min":86,"max":169,"target":"absent","response":"absent","rt":457.5,"correct":true,"confidence":3},{"trial_n":39,"min":86,"max":169,"target":"absent","response":"absent","rt":550.69999999925,"correct":true,"confidence":3},{"trial_n":40,"min":88,"max":167,"target":"absent","response":"absent","rt":438.59999999963,"correct":true,"confidence":3},{"trial_n":41,"min":88,"max":167,"target":"absent","response":"absent","rt":628.29999999888,"correct":true,"confidence":3},{"trial_n":42,"min":89,"max":166,"target":"present","response":"absent","rt":511.79999999888,"correct":false,"confidence":3},{"trial_n":43,"min":88,"max":167,"target":"absent","response":"absent","rt":322.90000000037,"correct":true,"confidence":3},{"trial_n":44,"min":88,"max":167,"target":"absent","response":"absent","rt":305.30000000075,"correct":true,"confidence":3},{"trial_n":45,"min":89,"max":166,"target":"absent","response":"absent","rt":790.69999999925,"correct":true,"confidence":3},{"trial_n":46,"min":89,"max":166,"target":"absent","response":"absent","rt":296.19999999925,"correct":true,"confidence":3},{"trial_n":47,"min":90,"max":165,"target":"absent","response":"absent","rt":328.59999999963,"correct":true,"confidence":3},{"trial_n":48,"min":90,"max":165,"target":"present","response":"absent","rt":334.19999999925,"correct":false,"confidence":3},{"trial_n":49,"min":89,"max":166,"target":"absent","response":"absent","rt":691.59999999963,"correct":true,"confidence":3},{"trial_n":50,"min":89,"max":166,"target":"absent","response":"absent","rt":535.40000000037,"correct":true,"confidence":3},{"trial_n":51,"min":90,"max":165,"target":"present","response":"absent","rt":441.5,"correct":false,"confidence":3},{"trial_n":52,"min":89,"max":166,"target":"absent","response":"absent","rt":553.90000000037,"correct":true,"confidence":3},{"trial_n":53,"min":89,"max":166,"target":"present","response":"present","rt":647.29999999888,"correct":true,"confidence":3},{"trial_n":54,"min":90,"max":165,"target":"present","response":"absent","rt":423.79999999888,"correct":false,"confidence":4},{"trial_n":55,"min":89,"max":166,"target":"present","response":"absent","rt":462.19999999925,"correct":false,"confidence":4},{"trial_n":56,"min":88,"max":167,"target":"present","response":"absent","rt":1169.3999999985,"correct":false,"confidence":4},{"trial_n":57,"min":87,"max":168,"target":"present","response":"present","rt":498.79999999888,"correct":true,"confidence":3},{"trial_n":58,"min":87,"max":168,"target":"present","response":"present","rt":418.30000000075,"correct":true,"confidence":3},{"trial_n":59,"min":88,"max":167,"target":"present","response":"present","rt":325.09999999963,"correct":true,"confidence":3},{"trial_n":60,"min":88,"max":167,"target":"absent","response":"present","rt":573.70000000112,"correct":false,"confidence":3},{"trial_n":61,"min":87,"max":168,"target":"present","response":"present","rt":333.09999999963,"correct":true,"confidence":3},{"trial_n":62,"min":87,"max":168,"target":"present","response":"present","rt":479,"correct":true,"confidence":4},{"trial_n":63,"min":88,"max":167,"target":"present","response":"present","rt":319.80000000075,"correct":true,"confidence":4},{"trial_n":64,"min":88,"max":167,"target":"absent","response":"absent","rt":897.5,"correct":true,"confidence":2},{"trial_n":65,"min":89,"max":166,"target":"present","response":"absent","rt":442.30000000075,"correct":false,"confidence":2},{"trial_n":66,"min":88,"max":167,"target":"present","response":"present","rt":802.79999999888,"correct":true,"confidence":3},{"trial_n":67,"min":88,"max":167,"target":"absent","response":"present","rt":1320.5,"correct":false,"confidence":2},{"trial_n":68,"min":87,"max":168,"target":"absent","response":"present","rt":600.69999999925,"correct":false,"confidence":2},{"trial_n":69,"min":86,"max":169,"target":"absent","response":"present","rt":522.19999999925,"correct":false,"confidence":2},{"trial_n":70,"min":85,"max":170,"target":"absent","response":"absent","rt":337.09999999963,"correct":true,"confidence":3},{"trial_n":71,"min":41,"max":214,"target":"present","response":"present","rt":8853.5999999996,"correct":true,"confidence":-1},{"trial_n":72,"min":41,"max":214,"target":"present","response":"present","rt":5676.1999999993,"correct":true,"confidence":-1},{"trial_n":73,"min":57,"max":198,"target":"absent","response":"absent","rt":851.19999999925,"correct":true,"confidence":-1},{"trial_n":74,"min":57,"max":198,"target":"absent","response":"absent","rt":365.69999999925,"correct":true,"confidence":-1},{"trial_n":75,"min":73,"max":182,"target":"present","response":"present","rt":460.19999999925,"correct":true,"confidence":-1},{"trial_n":76,"min":73,"max":182,"target":"absent","response":"absent","rt":542.69999999925,"correct":true,"confidence":-1},{"trial_n":77,"min":89,"max":166,"target":"present","response":"present","rt":338.60000000149,"correct":true,"confidence":-1},{"trial_n":78,"min":89,"max":166,"target":"present","response":"present","rt":466.89999999851,"correct":true,"confidence":-1},{"trial_n":79,"min":105,"max":150,"target":"present","response":"absent","rt":1109.0999999996,"correct":false,"confidence":-1},{"trial_n":80,"min":89,"max":166,"target":"present","response":"present","rt":582,"correct":true,"confidence":-1},{"trial_n":81,"min":89,"max":166,"target":"absent","response":"present","rt":340,"correct":false,"confidence":-1},{"trial_n":82,"min":81,"max":174,"target":"present","response":"present","rt":381.59999999963,"correct":true,"confidence":-1},{"trial_n":83,"min":81,"max":174,"target":"present","response":"present","rt":265.69999999925,"correct":true,"confidence":-1},{"trial_n":84,"min":89,"max":166,"target":"absent","response":"absent","rt":507.80000000075,"correct":true,"confidence":-1},{"trial_n":85,"min":89,"max":166,"target":"absent","response":"absent","rt":397.29999999888,"correct":true,"confidence":-1},{"trial_n":86,"min":97,"max":158,"target":"present","response":"absent","rt":297.69999999925,"correct":false,"confidence":-1},{"trial_n":87,"min":89,"max":166,"target":"absent","response":"absent","rt":681.90000000037,"correct":true,"confidence":-1},{"trial_n":88,"min":89,"max":166,"target":"present","response":"present","rt":322.5,"correct":true,"confidence":-1},{"trial_n":89,"min":97,"max":158,"target":"present","response":"absent","rt":357.20000000112,"correct":false,"confidence":-1},{"trial_n":90,"min":89,"max":166,"target":"absent","response":"absent","rt":501.30000000075,"correct":true,"confidence":-1},{"trial_n":91,"min":89,"max":166,"target":"present","response":"present","rt":546.90000000037,"correct":true,"confidence":3},{"trial_n":92,"min":93,"max":162,"target":"present","response":"present","rt":412.40000000037,"correct":true,"confidence":4},{"trial_n":93,"min":93,"max":162,"target":"present","response":"absent","rt":1728.6000000015,"correct":false,"confidence":2},{"trial_n":94,"min":89,"max":166,"target":"absent","response":"present","rt":497.5,"correct":false,"confidence":3},{"trial_n":95,"min":85,"max":170,"target":"absent","response":"present","rt":534.80000000075,"correct":false,"confidence":3},{"trial_n":96,"min":81,"max":174,"target":"absent","response":"absent","rt":490.19999999925,"correct":true,"confidence":3},{"trial_n":97,"min":81,"max":174,"target":"present","response":"present","rt":732.89999999851,"correct":true,"confidence":3},{"trial_n":98,"min":85,"max":170,"target":"present","response":"present","rt":548.09999999963,"correct":true,"confidence":4},{"trial_n":99,"min":85,"max":170,"target":"absent","response":"absent","rt":820.30000000075,"correct":true,"confidence":4},{"trial_n":100,"min":89,"max":166,"target":"present","response":"present","rt":565.90000000037,"correct":true,"confidence":4},{"trial_n":101,"min":89,"max":166,"target":"present","response":"present","rt":431.69999999925,"correct":true,"confidence":4},{"trial_n":102,"min":91,"max":164,"target":"absent","response":"absent","rt":716.09999999963,"correct":true,"confidence":2},{"trial_n":103,"min":91,"max":164,"target":"absent","response":"present","rt":741.89999999851,"correct":false,"confidence":2},{"trial_n":104,"min":89,"max":166,"target":"absent","response":"absent","rt":721,"correct":true,"confidence":2},{"trial_n":105,"min":89,"max":166,"target":"absent","response":"present","rt":1874.4000000004,"correct":false,"confidence":2},{"trial_n":106,"min":87,"max":168,"target":"present","response":"present","rt":379.30000000075,"correct":true,"confidence":4},{"trial_n":107,"min":87,"max":168,"target":"absent","response":"absent","rt":718.30000000075,"correct":true,"confidence":4},{"trial_n":108,"min":89,"max":166,"target":"absent","response":"absent","rt":485.30000000075,"correct":true,"confidence":4},{"trial_n":109,"min":89,"max":166,"target":"absent","response":"absent","rt":2072.4000000004,"correct":true,"confidence":2},{"trial_n":110,"min":91,"max":164,"target":"present","response":"present","rt":374.20000000112,"correct":true,"confidence":4},{"trial_n":111,"min":91,"max":164,"target":"present","response":"present","rt":389.70000000112,"correct":true,"confidence":4},{"trial_n":112,"min":92,"max":163,"target":"absent","response":"absent","rt":494.80000000075,"correct":true,"confidence":4},{"trial_n":113,"min":92,"max":163,"target":"absent","response":"present","rt":631.70000000112,"correct":false,"confidence":4},{"trial_n":114,"min":91,"max":164,"target":"present","response":"present","rt":417.70000000112,"correct":true,"confidence":4},{"trial_n":115,"min":91,"max":164,"target":"present","response":"present","rt":692.80000000075,"correct":true,"confidence":4},{"trial_n":116,"min":92,"max":163,"target":"absent","response":"present","rt":302.20000000112,"correct":false,"confidence":1},{"trial_n":117,"min":91,"max":164,"target":"present","response":"present","rt":474.70000000112,"correct":true,"confidence":4},{"trial_n":118,"min":91,"max":164,"target":"present","response":"present","rt":461.5,"correct":true,"confidence":4},{"trial_n":119,"min":92,"max":163,"target":"present","response":"present","rt":338.40000000037,"correct":true,"confidence":4},{"trial_n":120,"min":92,"max":163,"target":"absent","response":"absent","rt":959.30000000075,"correct":true,"confidence":4},{"trial_n":121,"min":93,"max":162,"target":"absent","response":"present","rt":1516,"correct":false,"confidence":2},{"trial_n":122,"min":92,"max":163,"target":"present","response":"present","rt":702.40000000037,"correct":true,"confidence":4},{"trial_n":123,"min":92,"max":163,"target":"absent","response":"absent","rt":666.70000000112,"correct":true,"confidence":4},{"trial_n":124,"min":93,"max":162,"target":"absent","response":"absent","rt":401.59999999963,"correct":true,"confidence":4},{"trial_n":125,"min":93,"max":162,"target":"absent","response":"absent","rt":382.60000000149,"correct":true,"confidence":4},{"trial_n":126,"min":94,"max":161,"target":"present","response":"present","rt":1023.5999999996,"correct":true,"confidence":3},{"trial_n":127,"min":94,"max":161,"target":"present","response":"present","rt":503.20000000112,"correct":true,"confidence":3},{"trial_n":128,"min":95,"max":160,"target":"absent","response":"absent","rt":650.30000000075,"correct":true,"confidence":3},{"trial_n":129,"min":95,"max":160,"target":"absent","response":"present","rt":589.5,"correct":false,"confidence":3},{"trial_n":130,"min":94,"max":161,"target":"absent","response":"present","rt":530,"correct":false,"confidence":3},{"trial_n":131,"min":93,"max":162,"target":"present","response":"present","rt":517.5,"correct":true,"confidence":3},{"trial_n":132,"min":93,"max":162,"target":"present","response":"present","rt":972.70000000112,"correct":true,"confidence":1},{"trial_n":133,"min":94,"max":161,"target":"present","response":"present","rt":1288.0999999996,"correct":true,"confidence":3},{"trial_n":134,"min":94,"max":161,"target":"absent","response":"present","rt":798.20000000112,"correct":false,"confidence":2},{"trial_n":135,"min":93,"max":162,"target":"absent","response":"present","rt":433.20000000112,"correct":false,"confidence":3},{"trial_n":136,"min":92,"max":163,"target":"present","response":"present","rt":536.09999999963,"correct":true,"confidence":3},{"trial_n":137,"min":92,"max":163,"target":"absent","response":"absent","rt":2558,"correct":true,"confidence":2},{"trial_n":138,"min":93,"max":162,"target":"present","response":"present","rt":673.40000000037,"correct":true,"confidence":2},{"trial_n":139,"min":93,"max":162,"target":"present","response":"present","rt":1963.0999999996,"correct":true,"confidence":1},{"trial_n":140,"min":94,"max":161,"target":"absent","response":"present","rt":1240.7000000011,"correct":false,"confidence":1}]