[{"trial_n":1,"n_dots":4.25,"target":"right","response":"left","rt":2238.6000000238,"correct":false,"confidence":-1},{"trial_n":2,"n_dots":4.25,"target":"right","response":"right","rt":1053,"correct":true,"confidence":-1},{"trial_n":3,"n_dots":4.25,"target":"right","response":"right","rt":456.69999992847,"correct":true,"confidence":-1},{"trial_n":4,"n_dots":3.85,"target":"right","response":"right","rt":554,"correct":true,"confidence":-1},{"trial_n":5,"n_dots":3.85,"target":"left","response":"left","rt":141.89999997616,"correct":true,"confidence":-1},{"trial_n":6,"n_dots":3.45,"target":"left","response":"left","rt":345.5,"correct":true,"confidence":-1},{"trial_n":7,"n_dots":3.45,"target":"right","response":"right","rt":299.70000004768,"correct":true,"confidence":-1},{"trial_n":8,"n_dots":3.25,"target":"right","response":"right","rt":239.90000009537,"correct":true,"confidence":-1},{"trial_n":9,"n_dots":3.25,"target":"left","response":"left","rt":420.59999990463,"correct":true,"confidence":-1},{"trial_n":10,"n_dots":3.05,"target":"right","response":"left","rt":930.5,"correct":false,"confidence":-1},{"trial_n":11,"n_dots":3.25,"target":"left","response":"left","rt":821.70000004768,"correct":true,"confidence":-1},{"trial_n":12,"n_dots":3.25,"target":"left","response":"right","rt":575.29999995232,"correct":false,"confidence":-1},{"trial_n":13,"n_dots":3.35,"target":"left","response":"right","rt":332.20000004768,"correct":false,"confidence":-1},{"trial_n":14,"n_dots":3.45,"target":"left","response":"left","rt":372,"correct":true,"confidence":-1},{"trial_n":15,"n_dots":3.45,"target":"left","response":"left","rt":491.29999995232,"correct":true,"confidence":-1},{"trial_n":16,"n_dots":3.35,"target":"left","response":"left","rt":322,"correct":true,"confidence":-1},{"trial_n":17,"n_dots":3.35,"target":"right","response":"right","rt":213.79999995232,"correct":true,"confidence":-1},{"trial_n":18,"n_dots":3.25,"target":"right","response":"right","rt":138.89999997616,"correct":true,"confidence":-1},{"trial_n":19,"n_dots":3.25,"target":"right","response":"right","rt":373.80000007153,"correct":true,"confidence":-1},{"trial_n":20,"n_dots":3.15,"target":"left","response":"right","rt":239.5,"correct":false,"confidence":-1},{"trial_n":21,"n_dots":3.25,"target":"left","response":"left","rt":518.5,"correct":true,"confidence":2},{"trial_n":22,"n_dots":3.25,"target":"right","response":"right","rt":3790.8000000715,"correct":true,"confidence":1},{"trial_n":23,"n_dots":3.15,"target":"left","response":"right","rt":895.5,"correct":false,"confidence":3},{"trial_n":24,"n_dots":3.25,"target":"left","response":"left","rt":186.69999992847,"correct":true,"confidence":2},{"trial_n":25,"n_dots":3.25,"target":"left","response":"right","rt":436.89999997616,"correct":false,"confidence":3},{"trial_n":26,"n_dots":3.35,"target":"right","response":"right","rt":275,"correct":true,"confidence":5},{"trial_n":27,"n_dots":3.35,"target":"left","response":"left","rt":118,"correct":true,"confidence":3},{"trial_n":28,"n_dots":3.25,"target":"right","response":"right","rt":370,"correct":true,"confidence":4},{"trial_n":29,"n_dots":3.25,"target":"left","response":"left","rt":730.20000004768,"correct":true,"confidence":2},{"trial_n":30,"n_dots":3.15,"target":"left","response":"left","rt":714,"correct":true,"confidence":3},{"trial_n":31,"n_dots":3.15,"target":"left","response":"left","rt":729.5,"correct":true,"confidence":3},{"trial_n":32,"n_dots":3.05,"target":"left","response":"left","rt":352.39999997616,"correct":true,"confidence":2},{"trial_n":33,"n_dots":3.05,"target":"right","response":"right","rt":522.10000002384,"correct":true,"confidence":2},{"trial_n":34,"n_dots":2.95,"target":"right","response":"right","rt":552.19999992847,"correct":true,"confidence":2},{"trial_n":35,"n_dots":2.95,"target":"left","response":"left","rt":1482.4000000954,"correct":true,"confidence":1},{"trial_n":36,"n_dots":2.85,"target":"right","response":"right","rt":189.20000004768,"correct":true,"confidence":3},{"trial_n":37,"n_dots":2.85,"target":"right","response":"left","rt":351.5,"correct":false,"confidence":2},{"trial_n":38,"n_dots":2.95,"target":"left","response":"right","rt":271.5,"correct":false,"confidence":3},{"trial_n":39,"n_dots":3.05,"target":"right","response":"right","rt":157.89999997616,"correct":true,"confidence":2},{"trial_n":40,"n_dots":3.05,"target":"left","response":"left","rt":226.40000009537,"correct":true,"confidence":2},{"trial_n":41,"n_dots":2.95,"target":"right","response":"right","rt":159.60000002384,"correct":true,"confidence":3},{"trial_n":42,"n_dots":2.95,"target":"left","response":"left","rt":288.80000007153,"correct":true,"confidence":2},{"trial_n":43,"n_dots":2.85,"target":"left","response":"right","rt":467.29999995232,"correct":false,"confidence":4},{"trial_n":44,"n_dots":2.95,"target":"right","response":"right","rt":394,"correct":true,"confidence":3},{"trial_n":45,"n_dots":2.95,"target":"left","response":"right","rt":71.399999976158,"correct":false,"confidence":5},{"trial_n":46,"n_dots":3.05,"target":"left","response":"left","rt":615.30000007153,"correct":true,"confidence":2},{"trial_n":47,"n_dots":3.05,"target":"left","response":"left","rt":286.30000007153,"correct":true,"confidence":4},{"trial_n":48,"n_dots":2.95,"target":"left","response":"left","rt":360.5,"correct":true,"confidence":2},{"trial_n":49,"n_dots":2.95,"target":"right","response":"right","rt":1232.3999999762,"correct":true,"confidence":4},{"trial_n":50,"n_dots":2.85,"target":"right","response":"right","rt":243,"correct":true,"confidence":3},{"trial_n":51,"n_dots":2.85,"target":"left","response":"left","rt":387.5,"correct":true,"confidence":3},{"trial_n":52,"n_dots":2.75,"target":"right","response":"right","rt":168.39999997616,"correct":true,"confidence":2},{"trial_n":53,"n_dots":2.75,"target":"left","response":"right","rt":482.5,"correct":false,"confidence":3},{"trial_n":54,"n_dots":2.85,"target":"right","response":"right","rt":1172.6999999285,"correct":true,"confidence":2},{"trial_n":55,"n_dots":2.85,"target":"left","response":"right","rt":424.5,"correct":false,"confidence":3},{"trial_n":56,"n_dots":2.95,"target":"left","response":"left","rt":222,"correct":true,"confidence":3},{"trial_n":57,"n_dots":2.95,"target":"right","response":"right","rt":472.89999997616,"correct":true,"confidence":4},{"trial_n":58,"n_dots":2.85,"target":"right","response":"right","rt":565.39999997616,"correct":true,"confidence":2},{"trial_n":59,"n_dots":2.85,"target":"left","response":"left","rt":257.89999997616,"correct":true,"confidence":1},{"trial_n":60,"n_dots":2.75,"target":"right","response":"right","rt":645.79999995232,"correct":true,"confidence":2},{"trial_n":61,"n_dots":2.75,"target":"right","response":"right","rt":1097,"correct":true,"confidence":4},{"trial_n":62,"n_dots":2.65,"target":"right","response":"right","rt":1350.7000000477,"correct":true,"confidence":3},{"trial_n":63,"n_dots":2.65,"target":"left","response":"left","rt":1159.2000000477,"correct":true,"confidence":2},{"trial_n":64,"n_dots":2.55,"target":"right","response":"right","rt":1270.6999999285,"correct":true,"confidence":4},{"trial_n":65,"n_dots":2.55,"target":"right","response":"left","rt":613.69999992847,"correct":false,"confidence":3},{"trial_n":66,"n_dots":2.65,"target":"right","response":"left","rt":338,"correct":false,"confidence":2},{"trial_n":67,"n_dots":2.75,"target":"right","response":"right","rt":524.70000004768,"correct":true,"confidence":5},{"trial_n":68,"n_dots":2.75,"target":"left","response":"left","rt":220.40000009537,"correct":true,"confidence":4},{"trial_n":69,"n_dots":2.65,"target":"left","response":"right","rt":558.69999992847,"correct":false,"confidence":3},{"trial_n":70,"n_dots":2.75,"target":"right","response":"left","rt":218.5,"correct":false,"confidence":4},{"trial_n":71,"n_dots":2.85,"target":"left","response":"left","rt":233.69999992847,"correct":true,"confidence":3},{"trial_n":72,"n_dots":2.85,"target":"left","response":"left","rt":1369.7999999523,"correct":true,"confidence":2},{"trial_n":73,"n_dots":2.75,"target":"right","response":"right","rt":117.20000004768,"correct":true,"confidence":4},{"trial_n":74,"n_dots":2.75,"target":"left","response":"left","rt":134.39999997616,"correct":true,"confidence":2},{"trial_n":75,"n_dots":2.65,"target":"left","response":"left","rt":383.10000002384,"correct":true,"confidence":3},{"trial_n":76,"n_dots":2.65,"target":"left","response":"right","rt":343.30000007153,"correct":false,"confidence":2},{"trial_n":77,"n_dots":2.75,"target":"right","response":"right","rt":84.800000071526,"correct":true,"confidence":2},{"trial_n":78,"n_dots":2.75,"target":"right","response":"right","rt":991.60000002384,"correct":true,"confidence":4},{"trial_n":79,"n_dots":2.65,"target":"right","response":"right","rt":13,"correct":true,"confidence":3},{"trial_n":80,"n_dots":2.65,"target":"right","response":"right","rt":475.5,"correct":true,"confidence":4},{"trial_n":81,"n_dots":2.55,"target":"right","response":"right","rt":301.90000009537,"correct":true,"confidence":4},{"trial_n":82,"n_dots":2.55,"target":"right","response":"right","rt":10.699999928474,"correct":true,"confidence":3},{"trial_n":83,"n_dots":2.45,"target":"right","response":"left","rt":240.10000002384,"correct":false,"confidence":3},{"trial_n":84,"n_dots":2.55,"target":"right","response":"right","rt":137.60000002384,"correct":true,"confidence":4},{"trial_n":85,"n_dots":2.55,"target":"right","response":"right","rt":265.89999997616,"correct":true,"confidence":3},{"trial_n":86,"n_dots":2.45,"target":"left","response":"right","rt":20.199999928474,"correct":false,"confidence":4},{"trial_n":87,"n_dots":2.55,"target":"left","response":"left","rt":878.39999997616,"correct":true,"confidence":3},{"trial_n":88,"n_dots":2.55,"target":"right","response":"right","rt":282.89999997616,"correct":true,"confidence":5},{"trial_n":89,"n_dots":2.45,"target":"left","response":"left","rt":29.100000023842,"correct":true,"confidence":3},{"trial_n":90,"n_dots":2.45,"target":"left","response":"left","rt":107,"correct":true,"confidence":4},{"trial_n":91,"n_dots":2.35,"target":"left","response":"left","rt":292.69999992847,"correct":true,"confidence":3},{"trial_n":92,"n_dots":2.35,"target":"left","response":"left","rt":581.19999992847,"correct":true,"confidence":2},{"trial_n":93,"n_dots":2.25,"target":"left","response":"left","rt":865,"correct":true,"confidence":4},{"trial_n":94,"n_dots":2.25,"target":"right","response":"left","rt":726.29999995232,"correct":false,"confidence":2},{"trial_n":95,"n_dots":2.35,"target":"right","response":"right","rt":834.79999995232,"correct":true,"confidence":3},{"trial_n":96,"n_dots":2.35,"target":"right","response":"right","rt":63,"correct":true,"confidence":3},{"trial_n":97,"n_dots":2.25,"target":"right","response":"left","rt":4430.2000000477,"correct":false,"confidence":2},{"trial_n":98,"n_dots":2.35,"target":"left","response":"left","rt":86.899999976158,"correct":true,"confidence":4},{"trial_n":99,"n_dots":2.35,"target":"left","response":"left","rt":880,"correct":true,"confidence":2},{"trial_n":100,"n_dots":2.25,"target":"left","response":"right","rt":849.69999992847,"correct":false,"confidence":4},{"trial_n":101,"n_dots":2.35,"target":"left","response":"left","rt":222.59999990463,"correct":true,"confidence":4},{"trial_n":102,"n_dots":2.35,"target":"left","response":"right","rt":388.10000002384,"correct":false,"confidence":3},{"trial_n":103,"n_dots":2.45,"target":"left","response":"right","rt":410.60000002384,"correct":false,"confidence":1},{"trial_n":104,"n_dots":2.55,"target":"right","response":"right","rt":428.10000002384,"correct":true,"confidence":4},{"trial_n":105,"n_dots":2.55,"target":"right","response":"left","rt":513.69999992847,"correct":false,"confidence":2},{"trial_n":106,"n_dots":2.65,"target":"right","response":"right","rt":424.30000007153,"correct":true,"confidence":4},{"trial_n":107,"n_dots":2.65,"target":"right","response":"left","rt":1401.1000000238,"correct":false,"confidence":2},{"trial_n":108,"n_dots":2.75,"target":"left","response":"left","rt":887.20000004768,"correct":true,"confidence":1},{"trial_n":109,"n_dots":2.75,"target":"right","response":"right","rt":828.39999997616,"correct":true,"confidence":4},{"trial_n":110,"n_dots":2.65,"target":"right","response":"left","rt":1063.8000000715,"correct":false,"confidence":2},{"trial_n":111,"n_dots":2.75,"target":"right","response":"right","rt":511.20000004768,"correct":true,"confidence":3},{"trial_n":112,"n_dots":2.75,"target":"left","response":"right","rt":783.29999995232,"correct":false,"confidence":3},{"trial_n":113,"n_dots":2.85,"target":"left","response":"left","rt":226.10000002384,"correct":true,"confidence":5},{"trial_n":114,"n_dots":2.85,"target":"right","response":"right","rt":369.90000009537,"correct":true,"confidence":1},{"trial_n":115,"n_dots":2.75,"target":"left","response":"left","rt":388.29999995232,"correct":true,"confidence":3},{"trial_n":116,"n_dots":2.75,"target":"right","response":"left","rt":351.10000002384,"correct":false,"confidence":2},{"trial_n":117,"n_dots":2.85,"target":"left","response":"left","rt":203.79999995232,"correct":true,"confidence":4},{"trial_n":118,"n_dots":2.85,"target":"left","response":"right","rt":47.199999928474,"correct":false,"confidence":2},{"trial_n":119,"n_dots":2.95,"target":"right","response":"left","rt":332.30000007153,"correct":false,"confidence":3},{"trial_n":120,"n_dots":3.05,"target":"right","response":"right","rt":937.30000007153,"correct":true,"confidence":4}]