[{"trial_n":1,"span":8,"encoder":"11535308","distractor":"11532308","target":"present","response":"present","rt":"2826.2999999523","correct":true,"confidence":-1},{"trial_n":2,"span":8,"encoder":"31077416","distractor":"31057416","target":"present","response":"present","rt":"1959","correct":true,"confidence":-1},{"trial_n":3,"span":10,"encoder":"9836500842","distractor":"6836500842","target":"absent","response":"present","rt":"1772.2000000477","correct":false,"confidence":-1},{"trial_n":4,"span":8,"encoder":"21288750","distractor":"29288750","target":"absent","response":"absent","rt":"3341.4000000954","correct":true,"confidence":-1},{"trial_n":5,"span":8,"encoder":"86209975","distractor":"86209925","target":"present","response":"present","rt":"2319.7000000477","correct":true,"confidence":-1},{"trial_n":6,"span":10,"encoder":"7243124575","distractor":"7243123575","target":"present","response":"present","rt":"1447","correct":true,"confidence":-1},{"trial_n":7,"span":10,"encoder":"4748948246","distractor":"4748941246","target":"present","response":"present","rt":"966.30000019073","correct":true,"confidence":-1},{"trial_n":8,"span":12,"encoder":"994612578172","distractor":"994612573172","target":"absent","response":"present","rt":"1291.5999999046","correct":false,"confidence":-1},{"trial_n":9,"span":10,"encoder":"8645305865","distractor":"8615305865","target":"absent","response":"present","rt":"1227.5","correct":false,"confidence":-1},{"trial_n":10,"span":8,"encoder":"40524260","distractor":"40524240","target":"absent","response":"absent","rt":"2450.2000000477","correct":true,"confidence":-1},{"trial_n":11,"span":8,"encoder":"98207099","distractor":"98607099","target":"absent","response":"present","rt":"1783.7999999523","correct":false,"confidence":-1},{"trial_n":12,"span":7,"encoder":"9623148","distractor":"9323148","target":"absent","response":"present","rt":"1249.2999999523","correct":false,"confidence":-1},{"trial_n":13,"span":6,"encoder":"710035","distractor":"110035","target":"absent","response":"present","rt":"1067.5999999046","correct":false,"confidence":-1},{"trial_n":14,"span":5,"encoder":"81874","distractor":"81864","target":"present","response":"present","rt":"1309.8999998569","correct":true,"confidence":-1},{"trial_n":15,"span":5,"encoder":"74633","distractor":"74673","target":"absent","response":"present","rt":"971.5","correct":false,"confidence":-1},{"trial_n":16,"span":4,"encoder":"3492","distractor":"3402","target":"absent","response":"present","rt":"942","correct":false,"confidence":-1},{"trial_n":17,"span":3,"encoder":"984","distractor":"904","target":"present","response":"present","rt":"1050.7000000477","correct":true,"confidence":-1},{"trial_n":18,"span":3,"encoder":"399","distractor":"799","target":"absent","response":"present","rt":"797.09999990463","correct":false,"confidence":-1},{"trial_n":19,"span":2,"encoder":"31","distractor":"36","target":"present","response":"present","rt":"955.29999995232","correct":true,"confidence":-1},{"trial_n":20,"span":2,"encoder":"32","distractor":"38","target":"present","response":"present","rt":"854.40000009537","correct":true,"confidence":-1},{"trial_n":21,"span":3,"encoder":"907","distractor":"947","target":"present","response":"present","rt":"1416.4000000954","correct":true,"confidence":5},{"trial_n":22,"span":3,"encoder":"352","distractor":"356","target":"present","response":"present","rt":"971.39999985695","correct":true,"confidence":5},{"trial_n":23,"span":4,"encoder":"2933","distractor":"0933","target":"absent","response":"absent","rt":"2377","correct":true,"confidence":5},{"trial_n":24,"span":4,"encoder":"2605","distractor":"2105","target":"absent","response":"absent","rt":"3779.1000001431","correct":true,"confidence":5},{"trial_n":25,"span":5,"encoder":"31992","distractor":"31998","target":"absent","response":"absent","rt":"1745.2000000477","correct":true,"confidence":5},{"trial_n":26,"span":5,"encoder":"66435","distractor":"66431","target":"absent","response":"absent","rt":"2080","correct":true,"confidence":5},{"trial_n":27,"span":6,"encoder":"009786","distractor":"009766","target":"absent","response":"absent","rt":"2654.5","correct":true,"confidence":4},{"trial_n":28,"span":6,"encoder":"173317","distractor":"173397","target":"present","response":"present","rt":"2913.5","correct":true,"confidence":3},{"trial_n":29,"span":7,"encoder":"5594473","distractor":"7594473","target":"present","response":"present","rt":"4176.1999998093","correct":true,"confidence":3},{"trial_n":30,"span":7,"encoder":"2264215","distractor":"2264715","target":"present","response":"present","rt":"2984.7999999523","correct":true,"confidence":4},{"trial_n":31,"span":8,"encoder":"35995050","distractor":"35995052","target":"absent","response":"absent","rt":"4444.7000000477","correct":true,"confidence":4},{"trial_n":32,"span":8,"encoder":"87784238","distractor":"87284238","target":"absent","response":"absent","rt":"3670.6000001431","correct":true,"confidence":3},{"trial_n":33,"span":9,"encoder":"894980242","distractor":"094980242","target":"absent","response":"present","rt":"3083.7000000477","correct":false,"confidence":2},{"trial_n":34,"span":8,"encoder":"79706240","distractor":"79709240","target":"absent","response":"absent","rt":"4928","correct":true,"confidence":3},{"trial_n":35,"span":8,"encoder":"94085111","distractor":"94085161","target":"present","response":"present","rt":"3162","correct":true,"confidence":2},{"trial_n":36,"span":9,"encoder":"165216242","distractor":"165236242","target":"absent","response":"absent","rt":"2626.2000000477","correct":true,"confidence":1},{"trial_n":37,"span":9,"encoder":"472352134","distractor":"972352134","target":"present","response":"present","rt":"3145.3999998569","correct":true,"confidence":3},{"trial_n":38,"span":10,"encoder":"1070453430","distractor":"1070450430","target":"present","response":"present","rt":"3071.6000001431","correct":true,"confidence":2},{"trial_n":39,"span":10,"encoder":"2063029532","distractor":"2063029232","target":"present","response":"present","rt":"7132.7000000477","correct":true,"confidence":3},{"trial_n":40,"span":11,"encoder":"01567743410","distractor":"03567743410","target":"present","response":"present","rt":"3865.7000000477","correct":true,"confidence":4},{"trial_n":41,"span":11,"encoder":"17657505433","distractor":"17657505493","target":"absent","response":"absent","rt":"2082.5","correct":true,"confidence":5},{"trial_n":42,"span":12,"encoder":"554061384603","distractor":"554061784603","target":"present","response":"present","rt":"2653","correct":true,"confidence":3},{"trial_n":43,"span":12,"encoder":"781307430407","distractor":"781307480407","target":"absent","response":"present","rt":"3759","correct":false,"confidence":4},{"trial_n":44,"span":11,"encoder":"20667415874","distractor":"20667415814","target":"present","response":"present","rt":"3869.9000000954","correct":true,"confidence":4},{"trial_n":45,"span":11,"encoder":"01880986152","distractor":"01080986152","target":"absent","response":"absent","rt":"3133.9000000954","correct":true,"confidence":3},{"trial_n":46,"span":12,"encoder":"381529605251","distractor":"381529605261","target":"absent","response":"absent","rt":"3376.0999999046","correct":true,"confidence":5},{"trial_n":47,"span":12,"encoder":"175413823498","distractor":"175413825498","target":"absent","response":"present","rt":"2798.2999999523","correct":false,"confidence":3},{"trial_n":48,"span":11,"encoder":"17433382173","distractor":"17433389173","target":"present","response":"present","rt":"3270.4000000954","correct":true,"confidence":3},{"trial_n":49,"span":11,"encoder":"56853076876","distractor":"56853076886","target":"absent","response":"present","rt":"3920","correct":false,"confidence":3},{"trial_n":50,"span":10,"encoder":"3319331032","distractor":"3319031032","target":"present","response":"present","rt":"2324.8999998569","correct":true,"confidence":3},{"trial_n":51,"span":10,"encoder":"2861916576","distractor":"2861916976","target":"absent","response":"present","rt":"4181.1000001431","correct":false,"confidence":1},{"trial_n":52,"span":9,"encoder":"092096938","distractor":"092096918","target":"absent","response":"absent","rt":"4488.7000000477","correct":true,"confidence":4},{"trial_n":53,"span":9,"encoder":"217390729","distractor":"517390729","target":"absent","response":"present","rt":"2845.1000001431","correct":false,"confidence":4},{"trial_n":54,"span":8,"encoder":"79063252","distractor":"79063262","target":"absent","response":"absent","rt":"4201.1000001431","correct":true,"confidence":5},{"trial_n":55,"span":8,"encoder":"55901347","distractor":"55904347","target":"present","response":"absent","rt":"6003.5","correct":false,"confidence":4},{"trial_n":56,"span":7,"encoder":"9682545","distractor":"9682645","target":"absent","response":"absent","rt":"4155.2000000477","correct":true,"confidence":5},{"trial_n":57,"span":7,"encoder":"4477350","distractor":"4577350","target":"present","response":"present","rt":"2833","correct":true,"confidence":5},{"trial_n":58,"span":8,"encoder":"48828511","distractor":"41828511","target":"absent","response":"absent","rt":"9741.0999999046","correct":true,"confidence":4},{"trial_n":59,"span":8,"encoder":"79786459","distractor":"78786459","target":"present","response":"absent","rt":"5899","correct":false,"confidence":3},{"trial_n":60,"span":7,"encoder":"2521226","distractor":"0521226","target":"present","response":"present","rt":"2761.8999998569","correct":true,"confidence":5},{"trial_n":61,"span":7,"encoder":"3056795","distractor":"3006795","target":"present","response":"present","rt":"5849.2000000477","correct":true,"confidence":4},{"trial_n":62,"span":8,"encoder":"03426259","distractor":"03426459","target":"present","response":"present","rt":"2930.4000000954","correct":true,"confidence":5},{"trial_n":63,"span":8,"encoder":"72321908","distractor":"72321988","target":"present","response":"present","rt":"3626.1000001431","correct":true,"confidence":3},{"trial_n":64,"span":9,"encoder":"252575722","distractor":"256575722","target":"present","response":"present","rt":"4274","correct":true,"confidence":4},{"trial_n":65,"span":9,"encoder":"730560742","distractor":"730560702","target":"present","response":"present","rt":"3204.1999998093","correct":true,"confidence":5},{"trial_n":66,"span":10,"encoder":"6859655013","distractor":"0859655013","target":"present","response":"absent","rt":"7852.5","correct":false,"confidence":3},{"trial_n":67,"span":9,"encoder":"011404110","distractor":"018404110","target":"present","response":"absent","rt":"4170.0999999046","correct":false,"confidence":5},{"trial_n":68,"span":8,"encoder":"69803879","distractor":"69807879","target":"present","response":"absent","rt":"5847.4000000954","correct":false,"confidence":3},{"trial_n":69,"span":7,"encoder":"2034132","distractor":"2014132","target":"present","response":"present","rt":"3517.8999998569","correct":true,"confidence":5},{"trial_n":70,"span":7,"encoder":"2084703","distractor":"2084706","target":"absent","response":"present","rt":"3248.5","correct":false,"confidence":4},{"trial_n":71,"span":8,"encoder":"16703175","distractor":"15703175","target":"present","response":"present","rt":"3400.2999999523","correct":true,"confidence":-1},{"trial_n":72,"span":8,"encoder":"77776143","distractor":"77776146","target":"present","response":"present","rt":"2375.2999999523","correct":true,"confidence":-1},{"trial_n":73,"span":9,"encoder":"716631744","distractor":"716631747","target":"absent","response":"absent","rt":"1554.1000001431","correct":true,"confidence":-1},{"trial_n":74,"span":9,"encoder":"036694280","distractor":"034694280","target":"absent","response":"absent","rt":"5958","correct":true,"confidence":-1},{"trial_n":75,"span":10,"encoder":"2193035916","distractor":"2193036916","target":"present","response":"absent","rt":"5422","correct":false,"confidence":-1},{"trial_n":76,"span":9,"encoder":"840708323","distractor":"840708923","target":"absent","response":"absent","rt":"3841.1000001431","correct":true,"confidence":-1},{"trial_n":77,"span":9,"encoder":"006088564","distractor":"000088564","target":"present","response":"present","rt":"2379.7000000477","correct":true,"confidence":-1},{"trial_n":78,"span":10,"encoder":"7434695378","distractor":"7434695338","target":"absent","response":"absent","rt":"381.10000014305","correct":true,"confidence":-1},{"trial_n":79,"span":10,"encoder":"1907512264","distractor":"8907512264","target":"absent","response":"absent","rt":"1703.2000000477","correct":true,"confidence":-1},{"trial_n":80,"span":11,"encoder":"78162696722","distractor":"78762696722","target":"absent","response":"present","rt":"833.29999995232","correct":false,"confidence":-1},{"trial_n":81,"span":10,"encoder":"3450419707","distractor":"3457419707","target":"present","response":"absent","rt":"1261.4000000954","correct":false,"confidence":-1},{"trial_n":82,"span":9,"encoder":"651706120","distractor":"651706125","target":"absent","response":"absent","rt":"7021.4000000954","correct":true,"confidence":-1},{"trial_n":83,"span":9,"encoder":"445955610","distractor":"445935610","target":"absent","response":"absent","rt":"3370.5","correct":true,"confidence":-1},{"trial_n":84,"span":10,"encoder":"4134289200","distractor":"4134287200","target":"absent","response":"absent","rt":"41603.299999952","correct":true,"confidence":-1},{"trial_n":85,"span":10,"encoder":"6411048543","distractor":"6411148543","target":"absent","response":"absent","rt":"1745.7999999523","correct":true,"confidence":-1},{"trial_n":86,"span":11,"encoder":"89327225166","distractor":"89327225766","target":"present","response":"absent","rt":"869.80000019073","correct":false,"confidence":-1},{"trial_n":87,"span":10,"encoder":"3425313622","distractor":"3421313622","target":"absent","response":"absent","rt":"531","correct":true,"confidence":-1},{"trial_n":88,"span":10,"encoder":"2751099601","distractor":"2751009601","target":"absent","response":"absent","rt":"495","correct":true,"confidence":-1},{"trial_n":89,"span":11,"encoder":"16036228453","distractor":"16036228353","target":"present","response":"present","rt":"2943.2000000477","correct":true,"confidence":-1},{"trial_n":90,"span":11,"encoder":"35752133856","distractor":"38752133856","target":"present","response":"present","rt":"4173.0999999046","correct":true,"confidence":-1},{"trial_n":91,"span":12,"encoder":"040208324657","distractor":"040208624657","target":"present","response":"absent","rt":"7751.5","correct":false,"confidence":2},{"trial_n":92,"span":11,"encoder":"80206859913","distractor":"80207859913","target":"present","response":"absent","rt":"5613","correct":false,"confidence":3},{"trial_n":93,"span":10,"encoder":"5661904172","distractor":"5651904172","target":"absent","response":"absent","rt":"3214.5999999046","correct":true,"confidence":4},{"trial_n":94,"span":10,"encoder":"8091872614","distractor":"8091872314","target":"present","response":"present","rt":"19962.299999952","correct":true,"confidence":3},{"trial_n":95,"span":11,"encoder":"76941136049","distractor":"76941136046","target":"present","response":"present","rt":"1564.0999999046","correct":true,"confidence":5},{"trial_n":96,"span":11,"encoder":"67858321829","distractor":"67850321829","target":"present","response":"present","rt":"13228.199999809","correct":true,"confidence":3},{"trial_n":97,"span":12,"encoder":"161026677870","distractor":"161326677870","target":"absent","response":"present","rt":"11821.5","correct":false,"confidence":4},{"trial_n":98,"span":11,"encoder":"09886028656","distractor":"09886038656","target":"present","response":"present","rt":"5880.5","correct":true,"confidence":1},{"trial_n":99,"span":11,"encoder":"24448861203","distractor":"24448865203","target":"absent","response":"present","rt":"8690.7999999523","correct":false,"confidence":3},{"trial_n":100,"span":10,"encoder":"9313808150","distractor":"9413808150","target":"absent","response":"present","rt":"8523.5","correct":false,"confidence":2},{"trial_n":101,"span":9,"encoder":"314368089","distractor":"314363089","target":"present","response":"present","rt":"4106.0999999046","correct":true,"confidence":4},{"trial_n":102,"span":9,"encoder":"055406278","distractor":"055106278","target":"absent","response":"absent","rt":"10706.700000048","correct":true,"confidence":3},{"trial_n":103,"span":10,"encoder":"1936068113","distractor":"1936168113","target":"present","response":"present","rt":"5799.2999999523","correct":true,"confidence":3},{"trial_n":104,"span":10,"encoder":"3737057996","distractor":"3735057996","target":"present","response":"present","rt":"6981.2999999523","correct":true,"confidence":3},{"trial_n":105,"span":11,"encoder":"71367437094","distractor":"71367434094","target":"absent","response":"present","rt":"5626.2999999523","correct":false,"confidence":1},{"trial_n":106,"span":10,"encoder":"5211347287","distractor":"5211047287","target":"present","response":"present","rt":"3126.5999999046","correct":true,"confidence":4},{"trial_n":107,"span":10,"encoder":"7593554195","distractor":"7593557195","target":"present","response":"present","rt":"3002.5999999046","correct":true,"confidence":5},{"trial_n":108,"span":11,"encoder":"71345136043","distractor":"75345136043","target":"present","response":"absent","rt":"8454.7999999523","correct":false,"confidence":4},{"trial_n":109,"span":10,"encoder":"0216124292","distractor":"0216924292","target":"absent","response":"absent","rt":"11611","correct":true,"confidence":4},{"trial_n":110,"span":10,"encoder":"5305981978","distractor":"5305981970","target":"absent","response":"absent","rt":"6605.5","correct":true,"confidence":3},{"trial_n":111,"span":11,"encoder":"83766494550","distractor":"83766494590","target":"present","response":"present","rt":"3435.2000000477","correct":true,"confidence":5},{"trial_n":112,"span":11,"encoder":"45514490415","distractor":"45514410415","target":"present","response":"present","rt":"10317.199999809","correct":true,"confidence":3},{"trial_n":113,"span":12,"encoder":"381530282201","distractor":"381530285201","target":"absent","response":"absent","rt":"2051.2999999523","correct":true,"confidence":5},{"trial_n":114,"span":12,"encoder":"439295327503","distractor":"439295327303","target":"present","response":"present","rt":"3245.7999999523","correct":true,"confidence":4},{"trial_n":115,"span":13,"encoder":"7445457029883","distractor":"7445457329883","target":"absent","response":"present","rt":"19293.200000048","correct":false,"confidence":4},{"trial_n":116,"span":12,"encoder":"362397175066","distractor":"362397175036","target":"present","response":"present","rt":"12007.799999952","correct":true,"confidence":1},{"trial_n":117,"span":12,"encoder":"364879450327","distractor":"364879440327","target":"absent","response":"present","rt":"6981.7000000477","correct":false,"confidence":1},{"trial_n":118,"span":11,"encoder":"35687772886","distractor":"25687772886","target":"present","response":"present","rt":"13401.200000048","correct":true,"confidence":4},{"trial_n":119,"span":11,"encoder":"43247096766","distractor":"43247094766","target":"absent","response":"absent","rt":"4402.5","correct":true,"confidence":5},{"trial_n":120,"span":12,"encoder":"602993416571","distractor":"602993316571","target":"absent","response":"absent","rt":"13097.200000048","correct":true,"confidence":4},{"trial_n":121,"span":12,"encoder":"036631735641","distractor":"036631935641","target":"absent","response":"present","rt":"21875.900000095","correct":false,"confidence":3},{"trial_n":122,"span":11,"encoder":"37191365697","distractor":"37191335697","target":"absent","response":"present","rt":"3060","correct":false,"confidence":1},{"trial_n":123,"span":10,"encoder":"4747092400","distractor":"4747092470","target":"absent","response":"present","rt":"10911.900000095","correct":false,"confidence":3},{"trial_n":124,"span":9,"encoder":"908066141","distractor":"908566141","target":"absent","response":"absent","rt":"4469.5999999046","correct":true,"confidence":1},{"trial_n":125,"span":9,"encoder":"284343167","distractor":"284343467","target":"absent","response":"absent","rt":"9754.2000000477","correct":true,"confidence":1},{"trial_n":126,"span":10,"encoder":"0959537870","distractor":"0659537870","target":"absent","response":"absent","rt":"2302.5999999046","correct":true,"confidence":5},{"trial_n":127,"span":10,"encoder":"5126512153","distractor":"5126512143","target":"present","response":"present","rt":"3103.1999998093","correct":true,"confidence":5},{"trial_n":128,"span":11,"encoder":"64125972032","distractor":"64125972932","target":"present","response":"present","rt":"3870.2000000477","correct":true,"confidence":4},{"trial_n":129,"span":11,"encoder":"07716880906","distractor":"07716820906","target":"absent","response":"present","rt":"3919.7999999523","correct":false,"confidence":4},{"trial_n":130,"span":10,"encoder":"2915010897","distractor":"2015010897","target":"absent","response":"absent","rt":"4462.7999999523","correct":true,"confidence":1},{"trial_n":131,"span":10,"encoder":"9723805385","distractor":"9723801385","target":"present","response":"absent","rt":"3387.7000000477","correct":false,"confidence":1},{"trial_n":132,"span":9,"encoder":"540705915","distractor":"540705115","target":"present","response":"present","rt":"2077.5999999046","correct":true,"confidence":5},{"trial_n":133,"span":9,"encoder":"204698211","distractor":"274698211","target":"present","response":"present","rt":"3341.1999998093","correct":true,"confidence":4},{"trial_n":134,"span":10,"encoder":"6395209448","distractor":"6395299448","target":"present","response":"absent","rt":"3343.3000001907","correct":false,"confidence":3},{"trial_n":135,"span":9,"encoder":"436628292","distractor":"436628492","target":"present","response":"present","rt":"1602.4000000954","correct":true,"confidence":5},{"trial_n":136,"span":9,"encoder":"419335651","distractor":"419335631","target":"present","response":"present","rt":"1662.7999999523","correct":true,"confidence":5},{"trial_n":137,"span":10,"encoder":"1607324540","distractor":"1107324540","target":"absent","response":"absent","rt":"8196.5999999046","correct":true,"confidence":2},{"trial_n":138,"span":10,"encoder":"2676372996","distractor":"2676372096","target":"present","response":"present","rt":"3127.8000001907","correct":true,"confidence":4},{"trial_n":139,"span":11,"encoder":"63915879674","distractor":"63415879674","target":"present","response":"absent","rt":"10278.700000048","correct":false,"confidence":1},{"trial_n":140,"span":10,"encoder":"1220185318","distractor":"1220185368","target":"present","response":"absent","rt":"7821.5","correct":false,"confidence":4}]