[{"trial_n":1,"span":8,"encoder":"49863210","distractor":"89863210","target":"present","response":"present","rt":"3563","correct":true,"confidence":-1},{"trial_n":2,"span":8,"encoder":"95372648","distractor":"95372644","target":"present","response":"present","rt":"3363.7999999523","correct":true,"confidence":-1},{"trial_n":3,"span":10,"encoder":"8147218559","distractor":"8147298559","target":"absent","response":"present","rt":"993.20000004768","correct":false,"confidence":-1},{"trial_n":4,"span":8,"encoder":"63866533","distractor":"63868533","target":"absent","response":"present","rt":"1191.9000000954","correct":false,"confidence":-1},{"trial_n":5,"span":6,"encoder":"294795","distractor":"298795","target":"present","response":"present","rt":"927.20000004768","correct":true,"confidence":-1},{"trial_n":6,"span":6,"encoder":"639691","distractor":"639791","target":"absent","response":"absent","rt":"1014.6999999285","correct":true,"confidence":-1},{"trial_n":7,"span":8,"encoder":"71945779","distractor":"71045779","target":"absent","response":"present","rt":"1625.0999999046","correct":false,"confidence":-1},{"trial_n":8,"span":6,"encoder":"429902","distractor":"420902","target":"absent","response":"present","rt":"6893.0999999046","correct":false,"confidence":-1},{"trial_n":9,"span":4,"encoder":"4846","distractor":"4886","target":"present","response":"present","rt":"901.80000007153","correct":true,"confidence":-1},{"trial_n":10,"span":4,"encoder":"0458","distractor":"0454","target":"present","response":"present","rt":"481.10000002384","correct":true,"confidence":-1},{"trial_n":11,"span":6,"encoder":"241512","distractor":"201512","target":"absent","response":"absent","rt":"1125.5999999046","correct":true,"confidence":-1},{"trial_n":12,"span":6,"encoder":"043799","distractor":"045799","target":"absent","response":"present","rt":"686.90000009537","correct":false,"confidence":-1},{"trial_n":13,"span":5,"encoder":"23900","distractor":"23909","target":"present","response":"present","rt":"868.59999990463","correct":true,"confidence":-1},{"trial_n":14,"span":5,"encoder":"81927","distractor":"81527","target":"absent","response":"absent","rt":"839.20000004768","correct":true,"confidence":-1},{"trial_n":15,"span":6,"encoder":"413288","distractor":"413278","target":"absent","response":"absent","rt":"928.29999995232","correct":true,"confidence":-1},{"trial_n":16,"span":6,"encoder":"229934","distractor":"229939","target":"present","response":"present","rt":"995.79999995232","correct":true,"confidence":-1},{"trial_n":17,"span":7,"encoder":"2656695","distractor":"2652695","target":"absent","response":"present","rt":"3102.1000000238","correct":false,"confidence":-1},{"trial_n":18,"span":6,"encoder":"666288","distractor":"666788","target":"present","response":"present","rt":"720.60000002384","correct":true,"confidence":-1},{"trial_n":19,"span":6,"encoder":"957449","distractor":"947449","target":"absent","response":"present","rt":"673.79999995232","correct":false,"confidence":-1},{"trial_n":20,"span":5,"encoder":"69215","distractor":"69915","target":"absent","response":"absent","rt":"802","correct":true,"confidence":-1},{"trial_n":21,"span":5,"encoder":"91606","distractor":"95606","target":"absent","response":"absent","rt":"2004.5","correct":true,"confidence":1},{"trial_n":22,"span":6,"encoder":"747163","distractor":"247163","target":"present","response":"present","rt":"12415.899999976","correct":true,"confidence":1},{"trial_n":23,"span":6,"encoder":"490640","distractor":"490670","target":"absent","response":"absent","rt":"910.60000002384","correct":true,"confidence":4},{"trial_n":24,"span":7,"encoder":"3807552","distractor":"3807562","target":"present","response":"absent","rt":"1804.8999999762","correct":false,"confidence":2},{"trial_n":25,"span":6,"encoder":"726982","distractor":"726282","target":"present","response":"absent","rt":"2185.6000000238","correct":false,"confidence":1},{"trial_n":26,"span":5,"encoder":"37528","distractor":"67528","target":"present","response":"absent","rt":"10700.700000048","correct":false,"confidence":1},{"trial_n":27,"span":4,"encoder":"7042","distractor":"7045","target":"present","response":"present","rt":"1727.2999999523","correct":true,"confidence":5},{"trial_n":28,"span":4,"encoder":"9791","distractor":"9792","target":"absent","response":"absent","rt":"963.10000002384","correct":true,"confidence":5},{"trial_n":29,"span":5,"encoder":"36225","distractor":"30225","target":"present","response":"present","rt":"1484.5","correct":true,"confidence":5},{"trial_n":30,"span":5,"encoder":"91659","distractor":"21659","target":"absent","response":"absent","rt":"2948.7999999523","correct":true,"confidence":1},{"trial_n":31,"span":6,"encoder":"526220","distractor":"526820","target":"present","response":"present","rt":"1547","correct":true,"confidence":3},{"trial_n":32,"span":6,"encoder":"843839","distractor":"849839","target":"present","response":"present","rt":"1508.3999999762","correct":true,"confidence":4},{"trial_n":33,"span":7,"encoder":"8170412","distractor":"8170432","target":"present","response":"present","rt":"2845.2999999523","correct":true,"confidence":5},{"trial_n":34,"span":7,"encoder":"4816524","distractor":"4816528","target":"absent","response":"absent","rt":"1663.5","correct":true,"confidence":5},{"trial_n":35,"span":8,"encoder":"68454980","distractor":"68454880","target":"present","response":"present","rt":"1810.7000000477","correct":true,"confidence":3},{"trial_n":36,"span":8,"encoder":"98302668","distractor":"98802668","target":"absent","response":"present","rt":"1084.8999999762","correct":false,"confidence":5},{"trial_n":37,"span":7,"encoder":"2477085","distractor":"6477085","target":"absent","response":"absent","rt":"1419.1000000238","correct":true,"confidence":3},{"trial_n":38,"span":7,"encoder":"5412848","distractor":"5412898","target":"present","response":"absent","rt":"1909.2999999523","correct":false,"confidence":4},{"trial_n":39,"span":6,"encoder":"645473","distractor":"645423","target":"absent","response":"absent","rt":"1256.3999999762","correct":true,"confidence":5},{"trial_n":40,"span":6,"encoder":"043119","distractor":"043519","target":"present","response":"present","rt":"2009.2000000477","correct":true,"confidence":4},{"trial_n":41,"span":7,"encoder":"2034282","distractor":"2034286","target":"absent","response":"absent","rt":"1479.6999999285","correct":true,"confidence":5},{"trial_n":42,"span":7,"encoder":"2522392","distractor":"2529392","target":"present","response":"present","rt":"2760.6999999285","correct":true,"confidence":5},{"trial_n":43,"span":8,"encoder":"09738170","distractor":"09731170","target":"present","response":"present","rt":"1577.8000000715","correct":true,"confidence":4},{"trial_n":44,"span":8,"encoder":"27545748","distractor":"26545748","target":"present","response":"absent","rt":"975.19999992847","correct":false,"confidence":2},{"trial_n":45,"span":7,"encoder":"2984219","distractor":"2584219","target":"absent","response":"present","rt":"781.60000002384","correct":false,"confidence":3},{"trial_n":46,"span":6,"encoder":"449107","distractor":"449607","target":"present","response":"present","rt":"1007.5","correct":true,"confidence":5},{"trial_n":47,"span":6,"encoder":"727043","distractor":"727243","target":"present","response":"present","rt":"2103.0999999046","correct":true,"confidence":5},{"trial_n":48,"span":7,"encoder":"0618120","distractor":"0618220","target":"present","response":"present","rt":"1802.2000000477","correct":true,"confidence":3},{"trial_n":49,"span":7,"encoder":"3509533","distractor":"3500533","target":"absent","response":"absent","rt":"1692.2999999523","correct":true,"confidence":4},{"trial_n":50,"span":8,"encoder":"19831469","distractor":"19830469","target":"present","response":"absent","rt":"2735.6000000238","correct":false,"confidence":2},{"trial_n":51,"span":7,"encoder":"8928669","distractor":"8925669","target":"absent","response":"absent","rt":"2241.1000000238","correct":true,"confidence":1},{"trial_n":52,"span":7,"encoder":"8167216","distractor":"8161216","target":"absent","response":"absent","rt":"1789.5","correct":true,"confidence":4},{"trial_n":53,"span":8,"encoder":"24653865","distractor":"24653863","target":"absent","response":"absent","rt":"2925.2999999523","correct":true,"confidence":2},{"trial_n":54,"span":8,"encoder":"15714782","distractor":"15214782","target":"present","response":"present","rt":"1297","correct":true,"confidence":5},{"trial_n":55,"span":9,"encoder":"707827872","distractor":"707837872","target":"absent","response":"present","rt":"1219.7999999523","correct":false,"confidence":5},{"trial_n":56,"span":8,"encoder":"36715581","distractor":"36715561","target":"absent","response":"absent","rt":"1638.2000000477","correct":true,"confidence":5},{"trial_n":57,"span":8,"encoder":"02219853","distractor":"02219053","target":"present","response":"absent","rt":"1324.3000000715","correct":false,"confidence":4},{"trial_n":58,"span":7,"encoder":"2397620","distractor":"2317620","target":"absent","response":"present","rt":"1473.2999999523","correct":false,"confidence":5},{"trial_n":59,"span":6,"encoder":"730481","distractor":"770481","target":"present","response":"absent","rt":"1309","correct":false,"confidence":5},{"trial_n":60,"span":5,"encoder":"44897","distractor":"44891","target":"present","response":"present","rt":"1365.7999999523","correct":true,"confidence":3},{"trial_n":61,"span":5,"encoder":"40091","distractor":"40491","target":"present","response":"present","rt":"1151.3000000715","correct":true,"confidence":5},{"trial_n":62,"span":6,"encoder":"637015","distractor":"697015","target":"present","response":"present","rt":"2589.1000000238","correct":true,"confidence":3},{"trial_n":63,"span":6,"encoder":"536598","distractor":"136598","target":"absent","response":"absent","rt":"1207.6000000238","correct":true,"confidence":5},{"trial_n":64,"span":7,"encoder":"1223144","distractor":"1223184","target":"present","response":"present","rt":"1651.5","correct":true,"confidence":5},{"trial_n":65,"span":7,"encoder":"4550638","distractor":"4550628","target":"present","response":"present","rt":"1569.1000000238","correct":true,"confidence":3},{"trial_n":66,"span":8,"encoder":"53695080","distractor":"53645080","target":"absent","response":"absent","rt":"1776.8999999762","correct":true,"confidence":1},{"trial_n":67,"span":8,"encoder":"95092331","distractor":"96092331","target":"absent","response":"absent","rt":"2270.3000000715","correct":true,"confidence":5},{"trial_n":68,"span":9,"encoder":"280095639","distractor":"280395639","target":"absent","response":"present","rt":"1568.1999999285","correct":false,"confidence":5},{"trial_n":69,"span":8,"encoder":"22128021","distractor":"22128121","target":"present","response":"present","rt":"1371.1999999285","correct":true,"confidence":5},{"trial_n":70,"span":8,"encoder":"89582018","distractor":"89586018","target":"absent","response":"absent","rt":"1263.2999999523","correct":true,"confidence":4},{"trial_n":71,"span":8,"encoder":"95842620","distractor":"90842620","target":"present","response":"absent","rt":"3660.3000000715","correct":false,"confidence":-1},{"trial_n":72,"span":7,"encoder":"8247133","distractor":"8240133","target":"present","response":"present","rt":"518.79999995232","correct":true,"confidence":-1},{"trial_n":73,"span":7,"encoder":"8893359","distractor":"8893353","target":"absent","response":"absent","rt":"389.29999995232","correct":true,"confidence":-1},{"trial_n":74,"span":8,"encoder":"45609164","distractor":"45609144","target":"absent","response":"present","rt":"578.30000007153","correct":false,"confidence":-1},{"trial_n":75,"span":7,"encoder":"9643774","distractor":"9603774","target":"present","response":"present","rt":"1926","correct":true,"confidence":-1},{"trial_n":76,"span":7,"encoder":"5967662","distractor":"5967665","target":"present","response":"present","rt":"970.89999997616","correct":true,"confidence":-1},{"trial_n":77,"span":8,"encoder":"29355711","distractor":"29355717","target":"absent","response":"present","rt":"605","correct":false,"confidence":-1},{"trial_n":78,"span":7,"encoder":"5515833","distractor":"5515533","target":"absent","response":"present","rt":"540.20000004768","correct":false,"confidence":-1},{"trial_n":79,"span":6,"encoder":"143114","distractor":"163114","target":"present","response":"absent","rt":"554.89999997616","correct":false,"confidence":-1},{"trial_n":80,"span":5,"encoder":"66117","distractor":"06117","target":"absent","response":"present","rt":"342.5","correct":false,"confidence":-1},{"trial_n":81,"span":4,"encoder":"2763","distractor":"7763","target":"present","response":"absent","rt":"24.800000071526","correct":false,"confidence":-1},{"trial_n":82,"span":3,"encoder":"554","distractor":"559","target":"absent","response":"absent","rt":"20485.200000048","correct":true,"confidence":-1},{"trial_n":83,"span":3,"encoder":"932","distractor":"732","target":"absent","response":"absent","rt":"1530.7999999523","correct":true,"confidence":-1},{"trial_n":84,"span":4,"encoder":"8489","distractor":"8482","target":"present","response":"present","rt":"1638","correct":true,"confidence":-1},{"trial_n":85,"span":4,"encoder":"1810","distractor":"1850","target":"absent","response":"absent","rt":"1481.6999999285","correct":true,"confidence":-1},{"trial_n":86,"span":5,"encoder":"89401","distractor":"89402","target":"present","response":"present","rt":"3183.2000000477","correct":true,"confidence":-1},{"trial_n":87,"span":5,"encoder":"66297","distractor":"16297","target":"present","response":"absent","rt":"373.19999992847","correct":false,"confidence":-1},{"trial_n":88,"span":4,"encoder":"9174","distractor":"9194","target":"absent","response":"absent","rt":"46.899999976158","correct":true,"confidence":-1},{"trial_n":89,"span":4,"encoder":"2334","distractor":"2337","target":"absent","response":"absent","rt":"239.80000007153","correct":true,"confidence":-1},{"trial_n":90,"span":5,"encoder":"92497","distractor":"92494","target":"absent","response":"present","rt":"88.399999976158","correct":false,"confidence":-1},{"trial_n":91,"span":4,"encoder":"4714","distractor":"4914","target":"absent","response":"absent","rt":"355.59999990463","correct":true,"confidence":5},{"trial_n":92,"span":4,"encoder":"3107","distractor":"3177","target":"absent","response":"present","rt":"689.60000002384","correct":false,"confidence":4},{"trial_n":93,"span":3,"encoder":"923","distractor":"623","target":"present","response":"present","rt":"479.29999995232","correct":true,"confidence":4},{"trial_n":94,"span":3,"encoder":"444","distractor":"744","target":"absent","response":"absent","rt":"686","correct":true,"confidence":2},{"trial_n":95,"span":4,"encoder":"0881","distractor":"0831","target":"absent","response":"present","rt":"209.29999995232","correct":false,"confidence":5},{"trial_n":96,"span":3,"encoder":"730","distractor":"720","target":"present","response":"present","rt":"402.79999995232","correct":true,"confidence":1},{"trial_n":97,"span":3,"encoder":"673","distractor":"675","target":"absent","response":"present","rt":"741.70000004768","correct":false,"confidence":1},{"trial_n":98,"span":2,"encoder":"90","distractor":"96","target":"present","response":"present","rt":"774.60000002384","correct":true,"confidence":4},{"trial_n":99,"span":2,"encoder":"84","distractor":"85","target":"present","response":"absent","rt":"346.09999990463","correct":false,"confidence":5},{"trial_n":100,"span":2,"encoder":"28","distractor":"88","target":"absent","response":"absent","rt":"489.5","correct":true,"confidence":3},{"trial_n":101,"span":2,"encoder":"26","distractor":"29","target":"present","response":"present","rt":"680.09999990463","correct":true,"confidence":3},{"trial_n":102,"span":3,"encoder":"039","distractor":"939","target":"present","response":"absent","rt":"241.5","correct":false,"confidence":5},{"trial_n":103,"span":2,"encoder":"06","distractor":"02","target":"absent","response":"absent","rt":"313.19999992847","correct":true,"confidence":4},{"trial_n":104,"span":2,"encoder":"42","distractor":"22","target":"present","response":"present","rt":"263.60000002384","correct":true,"confidence":3},{"trial_n":105,"span":3,"encoder":"018","distractor":"088","target":"present","response":"absent","rt":"33.700000047684","correct":false,"confidence":4},{"trial_n":106,"span":2,"encoder":"76","distractor":"16","target":"present","response":"absent","rt":"521.39999997616","correct":false,"confidence":5},{"trial_n":107,"span":2,"encoder":"34","distractor":"31","target":"present","response":"present","rt":"1167.2999999523","correct":true,"confidence":1},{"trial_n":108,"span":2,"encoder":"66","distractor":"61","target":"absent","response":"absent","rt":"553.89999997616","correct":true,"confidence":3},{"trial_n":109,"span":3,"encoder":"957","distractor":"937","target":"absent","response":"present","rt":"225.40000009537","correct":false,"confidence":2},{"trial_n":110,"span":2,"encoder":"23","distractor":"20","target":"absent","response":"absent","rt":"395.19999992847","correct":true,"confidence":4},{"trial_n":111,"span":2,"encoder":"75","distractor":"95","target":"absent","response":"absent","rt":"505.10000002384","correct":true,"confidence":1},{"trial_n":112,"span":3,"encoder":"633","distractor":"636","target":"present","response":"absent","rt":"336.69999992847","correct":false,"confidence":3},{"trial_n":113,"span":2,"encoder":"99","distractor":"39","target":"absent","response":"present","rt":"443.19999992847","correct":false,"confidence":3},{"trial_n":114,"span":2,"encoder":"57","distractor":"51","target":"present","response":"present","rt":"495.70000004768","correct":true,"confidence":3},{"trial_n":115,"span":2,"encoder":"58","distractor":"48","target":"present","response":"absent","rt":"1136.1999999285","correct":false,"confidence":1},{"trial_n":116,"span":2,"encoder":"70","distractor":"77","target":"present","response":"present","rt":"387.69999992847","correct":true,"confidence":1},{"trial_n":117,"span":2,"encoder":"60","distractor":"80","target":"present","response":"absent","rt":"3296.6000000238","correct":false,"confidence":1},{"trial_n":118,"span":2,"encoder":"20","distractor":"40","target":"present","response":"absent","rt":"541","correct":false,"confidence":3},{"trial_n":119,"span":2,"encoder":"58","distractor":"48","target":"present","response":"absent","rt":"406.10000002384","correct":false,"confidence":5},{"trial_n":120,"span":2,"encoder":"13","distractor":"23","target":"present","response":"present","rt":"297.19999992847","correct":true,"confidence":3},{"trial_n":121,"span":2,"encoder":"32","distractor":"12","target":"present","response":"present","rt":"373.39999997616","correct":true,"confidence":4},{"trial_n":122,"span":3,"encoder":"187","distractor":"167","target":"absent","response":"absent","rt":"253.10000002384","correct":true,"confidence":2},{"trial_n":123,"span":3,"encoder":"462","distractor":"402","target":"present","response":"absent","rt":"227.89999997616","correct":false,"confidence":3},{"trial_n":124,"span":2,"encoder":"69","distractor":"63","target":"absent","response":"absent","rt":"703.30000007153","correct":true,"confidence":5},{"trial_n":125,"span":2,"encoder":"65","distractor":"64","target":"present","response":"absent","rt":"303.79999995232","correct":false,"confidence":3},{"trial_n":126,"span":2,"encoder":"16","distractor":"06","target":"absent","response":"present","rt":"315.79999995232","correct":false,"confidence":2},{"trial_n":127,"span":2,"encoder":"75","distractor":"65","target":"present","response":"present","rt":"1329.8999999762","correct":true,"confidence":5},{"trial_n":128,"span":2,"encoder":"78","distractor":"58","target":"absent","response":"present","rt":"358.70000004768","correct":false,"confidence":4},{"trial_n":129,"span":2,"encoder":"92","distractor":"96","target":"present","response":"absent","rt":"522.30000007153","correct":false,"confidence":3},{"trial_n":130,"span":2,"encoder":"98","distractor":"08","target":"absent","response":"absent","rt":"2849.7999999523","correct":true,"confidence":4},{"trial_n":131,"span":2,"encoder":"05","distractor":"03","target":"absent","response":"absent","rt":"813.70000004768","correct":true,"confidence":4},{"trial_n":132,"span":3,"encoder":"634","distractor":"934","target":"present","response":"absent","rt":"2351.1999999285","correct":false,"confidence":3},{"trial_n":133,"span":2,"encoder":"70","distractor":"30","target":"absent","response":"present","rt":"756.80000007153","correct":false,"confidence":5},{"trial_n":134,"span":2,"encoder":"98","distractor":"78","target":"absent","response":"present","rt":"347.30000007153","correct":false,"confidence":3},{"trial_n":135,"span":2,"encoder":"59","distractor":"51","target":"absent","response":"absent","rt":"351.39999997616","correct":true,"confidence":2},{"trial_n":136,"span":2,"encoder":"60","distractor":"68","target":"absent","response":"present","rt":"529","correct":false,"confidence":5},{"trial_n":137,"span":2,"encoder":"08","distractor":"98","target":"present","response":"present","rt":"441.69999992847","correct":true,"confidence":4},{"trial_n":138,"span":2,"encoder":"96","distractor":"66","target":"present","response":"absent","rt":"482.59999990463","correct":false,"confidence":2},{"trial_n":139,"span":2,"encoder":"44","distractor":"49","target":"absent","response":"absent","rt":"437.79999995232","correct":true,"confidence":1},{"trial_n":140,"span":2,"encoder":"91","distractor":"81","target":"present","response":"present","rt":"691.89999997616","correct":true,"confidence":3}]