[{"trial_n":1,"min":25,"max":230,"target":"present","response":"absent","rt":7546.3999998569,"correct":false,"confidence":-1},{"trial_n":2,"min":25,"max":230,"target":"present","response":"absent","rt":856.40000009537,"correct":false,"confidence":-1},{"trial_n":3,"min":9,"max":246,"target":"absent","response":"absent","rt":490.89999985695,"correct":true,"confidence":-1},{"trial_n":4,"min":9,"max":246,"target":"absent","response":"absent","rt":452,"correct":true,"confidence":-1},{"trial_n":5,"min":25,"max":230,"target":"present","response":"present","rt":944.19999980927,"correct":true,"confidence":-1},{"trial_n":6,"min":25,"max":230,"target":"present","response":"present","rt":577.79999995232,"correct":true,"confidence":-1},{"trial_n":7,"min":41,"max":214,"target":"present","response":"present","rt":313.79999995232,"correct":true,"confidence":-1},{"trial_n":8,"min":41,"max":214,"target":"present","response":"present","rt":335.09999990463,"correct":true,"confidence":-1},{"trial_n":9,"min":57,"max":198,"target":"absent","response":"absent","rt":307.70000004768,"correct":true,"confidence":-1},{"trial_n":10,"min":57,"max":198,"target":"absent","response":"absent","rt":229.79999995232,"correct":true,"confidence":-1},{"trial_n":11,"min":65,"max":190,"target":"present","response":"present","rt":409.29999995232,"correct":true,"confidence":-1},{"trial_n":12,"min":65,"max":190,"target":"present","response":"present","rt":264.79999995232,"correct":true,"confidence":-1},{"trial_n":13,"min":73,"max":182,"target":"absent","response":"absent","rt":168.59999990463,"correct":true,"confidence":-1},{"trial_n":14,"min":73,"max":182,"target":"present","response":"absent","rt":266.70000004768,"correct":false,"confidence":-1},{"trial_n":15,"min":65,"max":190,"target":"absent","response":"absent","rt":599.20000004768,"correct":true,"confidence":-1},{"trial_n":16,"min":65,"max":190,"target":"present","response":"present","rt":358.10000014305,"correct":true,"confidence":-1},{"trial_n":17,"min":73,"max":182,"target":"absent","response":"absent","rt":439.79999995232,"correct":true,"confidence":-1},{"trial_n":18,"min":73,"max":182,"target":"absent","response":"absent","rt":473.29999995232,"correct":true,"confidence":-1},{"trial_n":19,"min":81,"max":174,"target":"absent","response":"absent","rt":295.29999995232,"correct":true,"confidence":-1},{"trial_n":20,"min":81,"max":174,"target":"absent","response":"absent","rt":221.79999995232,"correct":true,"confidence":-1},{"trial_n":21,"min":85,"max":170,"target":"present","response":"present","rt":480.60000014305,"correct":true,"confidence":3},{"trial_n":22,"min":85,"max":170,"target":"present","response":"absent","rt":770.59999990463,"correct":false,"confidence":4},{"trial_n":23,"min":81,"max":174,"target":"absent","response":"absent","rt":649.89999985695,"correct":true,"confidence":5},{"trial_n":24,"min":81,"max":174,"target":"absent","response":"absent","rt":807.09999990463,"correct":true,"confidence":5},{"trial_n":25,"min":85,"max":170,"target":"absent","response":"absent","rt":732.39999985695,"correct":true,"confidence":4},{"trial_n":26,"min":85,"max":170,"target":"present","response":"present","rt":921,"correct":true,"confidence":2},{"trial_n":27,"min":89,"max":166,"target":"present","response":"absent","rt":1413.8999998569,"correct":false,"confidence":1},{"trial_n":28,"min":85,"max":170,"target":"absent","response":"present","rt":534.10000014305,"correct":false,"confidence":1},{"trial_n":29,"min":81,"max":174,"target":"absent","response":"present","rt":1323.7999999523,"correct":false,"confidence":2},{"trial_n":30,"min":77,"max":178,"target":"present","response":"present","rt":836.79999995232,"correct":true,"confidence":5},{"trial_n":31,"min":77,"max":178,"target":"present","response":"present","rt":895,"correct":true,"confidence":4},{"trial_n":32,"min":79,"max":176,"target":"absent","response":"absent","rt":732.69999980927,"correct":true,"confidence":3},{"trial_n":33,"min":79,"max":176,"target":"present","response":"present","rt":686.90000009537,"correct":true,"confidence":4},{"trial_n":34,"min":81,"max":174,"target":"absent","response":"absent","rt":592.59999990463,"correct":true,"confidence":4},{"trial_n":35,"min":81,"max":174,"target":"present","response":"present","rt":980.59999990463,"correct":true,"confidence":5},{"trial_n":36,"min":83,"max":172,"target":"absent","response":"absent","rt":1530.9000000954,"correct":true,"confidence":3},{"trial_n":37,"min":83,"max":172,"target":"absent","response":"present","rt":738.90000009537,"correct":false,"confidence":4},{"trial_n":38,"min":81,"max":174,"target":"present","response":"present","rt":442.40000009537,"correct":true,"confidence":4},{"trial_n":39,"min":81,"max":174,"target":"present","response":"absent","rt":678.5,"correct":false,"confidence":4},{"trial_n":40,"min":79,"max":176,"target":"present","response":"present","rt":1036.2999999523,"correct":true,"confidence":5},{"trial_n":41,"min":79,"max":176,"target":"present","response":"present","rt":898.80000019073,"correct":true,"confidence":5},{"trial_n":42,"min":80,"max":175,"target":"present","response":"absent","rt":547.59999990463,"correct":false,"confidence":5},{"trial_n":43,"min":79,"max":176,"target":"present","response":"present","rt":671,"correct":true,"confidence":5},{"trial_n":44,"min":79,"max":176,"target":"absent","response":"absent","rt":963.70000004768,"correct":true,"confidence":4},{"trial_n":45,"min":80,"max":175,"target":"absent","response":"absent","rt":1512.2000000477,"correct":true,"confidence":4},{"trial_n":46,"min":80,"max":175,"target":"present","response":"present","rt":747.09999990463,"correct":true,"confidence":5},{"trial_n":47,"min":81,"max":174,"target":"absent","response":"absent","rt":1312.5999999046,"correct":true,"confidence":2},{"trial_n":48,"min":81,"max":174,"target":"absent","response":"absent","rt":817.30000019073,"correct":true,"confidence":4},{"trial_n":49,"min":82,"max":173,"target":"present","response":"present","rt":430.60000014305,"correct":true,"confidence":5},{"trial_n":50,"min":82,"max":173,"target":"absent","response":"absent","rt":1008.2000000477,"correct":true,"confidence":5},{"trial_n":51,"min":83,"max":172,"target":"present","response":"present","rt":699.09999990463,"correct":true,"confidence":5},{"trial_n":52,"min":83,"max":172,"target":"present","response":"absent","rt":800.59999990463,"correct":false,"confidence":3},{"trial_n":53,"min":82,"max":173,"target":"absent","response":"absent","rt":623.5,"correct":true,"confidence":4},{"trial_n":54,"min":82,"max":173,"target":"absent","response":"absent","rt":585.29999995232,"correct":true,"confidence":4},{"trial_n":55,"min":83,"max":172,"target":"absent","response":"absent","rt":992.20000004768,"correct":true,"confidence":4},{"trial_n":56,"min":83,"max":172,"target":"absent","response":"absent","rt":695.70000004768,"correct":true,"confidence":4},{"trial_n":57,"min":84,"max":171,"target":"present","response":"present","rt":1124.8000001907,"correct":true,"confidence":5},{"trial_n":58,"min":84,"max":171,"target":"absent","response":"absent","rt":835.70000004768,"correct":true,"confidence":5},{"trial_n":59,"min":85,"max":170,"target":"absent","response":"absent","rt":802,"correct":true,"confidence":5},{"trial_n":60,"min":85,"max":170,"target":"absent","response":"absent","rt":893.09999990463,"correct":true,"confidence":4},{"trial_n":61,"min":86,"max":169,"target":"present","response":"absent","rt":968.29999995232,"correct":false,"confidence":1},{"trial_n":62,"min":85,"max":170,"target":"present","response":"present","rt":1186.7999999523,"correct":true,"confidence":5},{"trial_n":63,"min":85,"max":170,"target":"absent","response":"absent","rt":714.5,"correct":true,"confidence":4},{"trial_n":64,"min":86,"max":169,"target":"present","response":"present","rt":687.5,"correct":true,"confidence":5},{"trial_n":65,"min":86,"max":169,"target":"present","response":"present","rt":841.89999985695,"correct":true,"confidence":5},{"trial_n":66,"min":87,"max":168,"target":"present","response":"present","rt":804.09999990463,"correct":true,"confidence":5},{"trial_n":67,"min":87,"max":168,"target":"present","response":"present","rt":638.70000004768,"correct":true,"confidence":5},{"trial_n":68,"min":88,"max":167,"target":"absent","response":"absent","rt":784.09999990463,"correct":true,"confidence":5},{"trial_n":69,"min":88,"max":167,"target":"absent","response":"absent","rt":602.5,"correct":true,"confidence":5},{"trial_n":70,"min":89,"max":166,"target":"present","response":"present","rt":840.89999985695,"correct":true,"confidence":4},{"trial_n":71,"min":41,"max":214,"target":"present","response":"present","rt":6016.3999998569,"correct":true,"confidence":-1},{"trial_n":72,"min":41,"max":214,"target":"present","response":"absent","rt":989,"correct":false,"confidence":-1},{"trial_n":73,"min":25,"max":230,"target":"absent","response":"present","rt":845.89999985695,"correct":false,"confidence":-1},{"trial_n":74,"min":9,"max":246,"target":"absent","response":"absent","rt":2249.7000000477,"correct":true,"confidence":-1},{"trial_n":75,"min":9,"max":246,"target":"present","response":"absent","rt":796.5,"correct":false,"confidence":-1},{"trial_n":76,"min":0,"max":255,"target":"present","response":"present","rt":363.79999995232,"correct":true,"confidence":-1},{"trial_n":77,"min":0,"max":255,"target":"absent","response":"absent","rt":419.70000004768,"correct":true,"confidence":-1},{"trial_n":78,"min":16,"max":239,"target":"present","response":"present","rt":461.70000004768,"correct":true,"confidence":-1},{"trial_n":79,"min":16,"max":239,"target":"absent","response":"absent","rt":378.69999980927,"correct":true,"confidence":-1},{"trial_n":80,"min":32,"max":223,"target":"present","response":"present","rt":450.09999990463,"correct":true,"confidence":-1},{"trial_n":81,"min":32,"max":223,"target":"present","response":"present","rt":392.70000004768,"correct":true,"confidence":-1},{"trial_n":82,"min":40,"max":215,"target":"present","response":"present","rt":334.19999980927,"correct":true,"confidence":-1},{"trial_n":83,"min":40,"max":215,"target":"present","response":"present","rt":611.29999995232,"correct":true,"confidence":-1},{"trial_n":84,"min":48,"max":207,"target":"present","response":"present","rt":331.59999990463,"correct":true,"confidence":-1},{"trial_n":85,"min":48,"max":207,"target":"present","response":"present","rt":483.89999985695,"correct":true,"confidence":-1},{"trial_n":86,"min":56,"max":199,"target":"absent","response":"absent","rt":347.30000019073,"correct":true,"confidence":-1},{"trial_n":87,"min":56,"max":199,"target":"present","response":"present","rt":343.5,"correct":true,"confidence":-1},{"trial_n":88,"min":64,"max":191,"target":"present","response":"present","rt":601.09999990463,"correct":true,"confidence":-1},{"trial_n":89,"min":64,"max":191,"target":"present","response":"present","rt":557,"correct":true,"confidence":-1},{"trial_n":90,"min":72,"max":183,"target":"absent","response":"absent","rt":384.5,"correct":true,"confidence":-1},{"trial_n":91,"min":72,"max":183,"target":"absent","response":"absent","rt":292.60000014305,"correct":true,"confidence":5},{"trial_n":92,"min":76,"max":179,"target":"present","response":"present","rt":573.20000004768,"correct":true,"confidence":5},{"trial_n":93,"min":76,"max":179,"target":"absent","response":"absent","rt":579.39999985695,"correct":true,"confidence":4},{"trial_n":94,"min":80,"max":175,"target":"absent","response":"absent","rt":424.29999995232,"correct":true,"confidence":4},{"trial_n":95,"min":80,"max":175,"target":"present","response":"present","rt":809.19999980927,"correct":true,"confidence":5},{"trial_n":96,"min":84,"max":171,"target":"present","response":"present","rt":447.20000004768,"correct":true,"confidence":5},{"trial_n":97,"min":84,"max":171,"target":"absent","response":"absent","rt":819.90000009537,"correct":true,"confidence":4},{"trial_n":98,"min":88,"max":167,"target":"present","response":"present","rt":499.80000019073,"correct":true,"confidence":5},{"trial_n":99,"min":88,"max":167,"target":"present","response":"absent","rt":1802.7999999523,"correct":false,"confidence":1},{"trial_n":100,"min":84,"max":171,"target":"present","response":"present","rt":466.29999995232,"correct":true,"confidence":4},{"trial_n":101,"min":84,"max":171,"target":"absent","response":"absent","rt":635.89999985695,"correct":true,"confidence":5},{"trial_n":102,"min":86,"max":169,"target":"absent","response":"absent","rt":821.40000009537,"correct":true,"confidence":5},{"trial_n":103,"min":86,"max":169,"target":"present","response":"present","rt":301.79999995232,"correct":true,"confidence":5},{"trial_n":104,"min":88,"max":167,"target":"present","response":"present","rt":472.79999995232,"correct":true,"confidence":5},{"trial_n":105,"min":88,"max":167,"target":"present","response":"present","rt":514.90000009537,"correct":true,"confidence":2},{"trial_n":106,"min":90,"max":165,"target":"absent","response":"absent","rt":737.90000009537,"correct":true,"confidence":2},{"trial_n":107,"min":90,"max":165,"target":"absent","response":"present","rt":566.89999985695,"correct":false,"confidence":2},{"trial_n":108,"min":88,"max":167,"target":"absent","response":"present","rt":1498,"correct":false,"confidence":1},{"trial_n":109,"min":86,"max":169,"target":"present","response":"present","rt":482.80000019073,"correct":true,"confidence":3},{"trial_n":110,"min":86,"max":169,"target":"present","response":"present","rt":523.89999985695,"correct":true,"confidence":4},{"trial_n":111,"min":87,"max":168,"target":"present","response":"present","rt":768.70000004768,"correct":true,"confidence":2},{"trial_n":112,"min":87,"max":168,"target":"present","response":"present","rt":577.39999985695,"correct":true,"confidence":3},{"trial_n":113,"min":88,"max":167,"target":"absent","response":"present","rt":776.09999990463,"correct":false,"confidence":2},{"trial_n":114,"min":87,"max":168,"target":"present","response":"present","rt":576.40000009537,"correct":true,"confidence":3},{"trial_n":115,"min":87,"max":168,"target":"present","response":"present","rt":1442.4000000954,"correct":true,"confidence":4},{"trial_n":116,"min":88,"max":167,"target":"absent","response":"absent","rt":1112.2999999523,"correct":true,"confidence":1},{"trial_n":117,"min":88,"max":167,"target":"absent","response":"absent","rt":2547.0999999046,"correct":true,"confidence":1},{"trial_n":118,"min":89,"max":166,"target":"present","response":"present","rt":314.20000004768,"correct":true,"confidence":3},{"trial_n":119,"min":89,"max":166,"target":"absent","response":"absent","rt":1144.5,"correct":true,"confidence":3},{"trial_n":120,"min":90,"max":165,"target":"absent","response":"absent","rt":1303.6000001431,"correct":true,"confidence":3},{"trial_n":121,"min":90,"max":165,"target":"absent","response":"present","rt":1836.8999998569,"correct":false,"confidence":1},{"trial_n":122,"min":89,"max":166,"target":"present","response":"absent","rt":571.20000004768,"correct":false,"confidence":4},{"trial_n":123,"min":88,"max":167,"target":"absent","response":"present","rt":922.09999990463,"correct":false,"confidence":5},{"trial_n":124,"min":87,"max":168,"target":"absent","response":"present","rt":791.59999990463,"correct":false,"confidence":1},{"trial_n":125,"min":86,"max":169,"target":"absent","response":"absent","rt":710.79999995232,"correct":true,"confidence":4},{"trial_n":126,"min":86,"max":169,"target":"absent","response":"present","rt":723.40000009537,"correct":false,"confidence":3},{"trial_n":127,"min":85,"max":170,"target":"absent","response":"absent","rt":642.5,"correct":true,"confidence":4},{"trial_n":128,"min":85,"max":170,"target":"absent","response":"present","rt":763,"correct":false,"confidence":1},{"trial_n":129,"min":84,"max":171,"target":"absent","response":"present","rt":1516.9000000954,"correct":false,"confidence":1},{"trial_n":130,"min":83,"max":172,"target":"absent","response":"present","rt":865.29999995232,"correct":false,"confidence":1},{"trial_n":131,"min":82,"max":173,"target":"absent","response":"absent","rt":2209.7000000477,"correct":true,"confidence":2},{"trial_n":132,"min":82,"max":173,"target":"absent","response":"absent","rt":1267.7999999523,"correct":true,"confidence":2},{"trial_n":133,"min":83,"max":172,"target":"present","response":"present","rt":246.89999985695,"correct":true,"confidence":5},{"trial_n":134,"min":83,"max":172,"target":"present","response":"present","rt":633.89999985695,"correct":true,"confidence":5},{"trial_n":135,"min":84,"max":171,"target":"absent","response":"absent","rt":1485.3999998569,"correct":true,"confidence":3},{"trial_n":136,"min":84,"max":171,"target":"absent","response":"absent","rt":986.70000004768,"correct":true,"confidence":4},{"trial_n":137,"min":85,"max":170,"target":"present","response":"present","rt":895.79999995232,"correct":true,"confidence":3},{"trial_n":138,"min":85,"max":170,"target":"present","response":"present","rt":935.09999990463,"correct":true,"confidence":5},{"trial_n":139,"min":86,"max":169,"target":"absent","response":"absent","rt":2130.9000000954,"correct":true,"confidence":3},{"trial_n":140,"min":86,"max":169,"target":"present","response":"present","rt":928.40000009537,"correct":true,"confidence":5}]