[{"trial_n":1,"min":25,"max":230,"target":"present","response":"present","rt":9298,"correct":true,"confidence":-1},{"trial_n":2,"min":25,"max":230,"target":"present","response":"present","rt":1136,"correct":true,"confidence":-1},{"trial_n":3,"min":41,"max":214,"target":"absent","response":"absent","rt":1331,"correct":true,"confidence":-1},{"trial_n":4,"min":41,"max":214,"target":"absent","response":"absent","rt":1297,"correct":true,"confidence":-1},{"trial_n":5,"min":57,"max":198,"target":"present","response":"present","rt":1090,"correct":true,"confidence":-1},{"trial_n":6,"min":57,"max":198,"target":"present","response":"present","rt":973,"correct":true,"confidence":-1},{"trial_n":7,"min":73,"max":182,"target":"absent","response":"absent","rt":1866,"correct":true,"confidence":-1},{"trial_n":8,"min":73,"max":182,"target":"present","response":"present","rt":1141,"correct":true,"confidence":-1},{"trial_n":9,"min":89,"max":166,"target":"present","response":"present","rt":1074,"correct":true,"confidence":-1},{"trial_n":10,"min":89,"max":166,"target":"absent","response":"present","rt":1115,"correct":false,"confidence":-1},{"trial_n":11,"min":81,"max":174,"target":"absent","response":"absent","rt":1098,"correct":true,"confidence":-1},{"trial_n":12,"min":81,"max":174,"target":"absent","response":"absent","rt":747.99999999999,"correct":true,"confidence":-1},{"trial_n":13,"min":89,"max":166,"target":"present","response":"absent","rt":740,"correct":false,"confidence":-1},{"trial_n":14,"min":81,"max":174,"target":"absent","response":"present","rt":1298,"correct":false,"confidence":-1},{"trial_n":15,"min":73,"max":182,"target":"absent","response":"absent","rt":1165,"correct":true,"confidence":-1},{"trial_n":16,"min":73,"max":182,"target":"present","response":"present","rt":957,"correct":true,"confidence":-1},{"trial_n":17,"min":81,"max":174,"target":"absent","response":"absent","rt":1566,"correct":true,"confidence":-1},{"trial_n":18,"min":81,"max":174,"target":"absent","response":"absent","rt":1681,"correct":true,"confidence":-1},{"trial_n":19,"min":89,"max":166,"target":"present","response":"present","rt":1058,"correct":true,"confidence":-1},{"trial_n":20,"min":89,"max":166,"target":"absent","response":"absent","rt":1167,"correct":true,"confidence":-1},{"trial_n":21,"min":93,"max":162,"target":"present","response":"present","rt":1226,"correct":true,"confidence":2},{"trial_n":22,"min":93,"max":162,"target":"absent","response":"present","rt":1218,"correct":false,"confidence":3},{"trial_n":23,"min":89,"max":166,"target":"absent","response":"present","rt":1635,"correct":false,"confidence":3},{"trial_n":24,"min":85,"max":170,"target":"present","response":"present","rt":838,"correct":true,"confidence":4},{"trial_n":25,"min":85,"max":170,"target":"absent","response":"present","rt":1617,"correct":false,"confidence":3},{"trial_n":26,"min":81,"max":174,"target":"present","response":"absent","rt":1475,"correct":false,"confidence":2},{"trial_n":27,"min":77,"max":178,"target":"present","response":"present","rt":824.00000000003,"correct":true,"confidence":5},{"trial_n":28,"min":77,"max":178,"target":"present","response":"present","rt":1088,"correct":true,"confidence":4},{"trial_n":29,"min":81,"max":174,"target":"absent","response":"present","rt":1143,"correct":false,"confidence":3},{"trial_n":30,"min":77,"max":178,"target":"present","response":"present","rt":967,"correct":true,"confidence":5},{"trial_n":31,"min":77,"max":178,"target":"present","response":"present","rt":1129,"correct":true,"confidence":5},{"trial_n":32,"min":79,"max":176,"target":"present","response":"present","rt":929,"correct":true,"confidence":5},{"trial_n":33,"min":79,"max":176,"target":"absent","response":"present","rt":1071,"correct":false,"confidence":3},{"trial_n":34,"min":77,"max":178,"target":"absent","response":"absent","rt":971,"correct":true,"confidence":4},{"trial_n":35,"min":77,"max":178,"target":"present","response":"present","rt":946,"correct":true,"confidence":5},{"trial_n":36,"min":79,"max":176,"target":"present","response":"present","rt":913.00000000003,"correct":true,"confidence":5},{"trial_n":37,"min":79,"max":176,"target":"present","response":"present","rt":1797,"correct":true,"confidence":3},{"trial_n":38,"min":81,"max":174,"target":"absent","response":"absent","rt":1438,"correct":true,"confidence":3},{"trial_n":39,"min":81,"max":174,"target":"absent","response":"absent","rt":1087,"correct":true,"confidence":3},{"trial_n":40,"min":83,"max":172,"target":"absent","response":"absent","rt":1653,"correct":true,"confidence":2},{"trial_n":41,"min":83,"max":172,"target":"absent","response":"present","rt":2604,"correct":false,"confidence":2},{"trial_n":42,"min":82,"max":173,"target":"present","response":"present","rt":4925,"correct":true,"confidence":2},{"trial_n":43,"min":82,"max":173,"target":"absent","response":"present","rt":1005,"correct":false,"confidence":3},{"trial_n":44,"min":81,"max":174,"target":"present","response":"present","rt":830,"correct":true,"confidence":4},{"trial_n":45,"min":81,"max":174,"target":"present","response":"present","rt":848,"correct":true,"confidence":5},{"trial_n":46,"min":82,"max":173,"target":"absent","response":"absent","rt":1171,"correct":true,"confidence":3},{"trial_n":47,"min":82,"max":173,"target":"present","response":"present","rt":808,"correct":true,"confidence":5},{"trial_n":48,"min":83,"max":172,"target":"present","response":"present","rt":864,"correct":true,"confidence":4},{"trial_n":49,"min":83,"max":172,"target":"absent","response":"present","rt":1522,"correct":false,"confidence":3},{"trial_n":50,"min":82,"max":173,"target":"present","response":"present","rt":916,"correct":true,"confidence":3},{"trial_n":51,"min":82,"max":173,"target":"absent","response":"absent","rt":1658,"correct":true,"confidence":3},{"trial_n":52,"min":83,"max":172,"target":"absent","response":"absent","rt":1140,"correct":true,"confidence":4},{"trial_n":53,"min":83,"max":172,"target":"absent","response":"absent","rt":1190,"correct":true,"confidence":3},{"trial_n":54,"min":84,"max":171,"target":"present","response":"present","rt":827,"correct":true,"confidence":5},{"trial_n":55,"min":84,"max":171,"target":"absent","response":"present","rt":1589,"correct":false,"confidence":3},{"trial_n":56,"min":83,"max":172,"target":"present","response":"present","rt":767,"correct":true,"confidence":5},{"trial_n":57,"min":83,"max":172,"target":"absent","response":"present","rt":3875,"correct":false,"confidence":2},{"trial_n":58,"min":82,"max":173,"target":"present","response":"present","rt":817,"correct":true,"confidence":5},{"trial_n":59,"min":82,"max":173,"target":"absent","response":"absent","rt":1375,"correct":true,"confidence":3},{"trial_n":60,"min":83,"max":172,"target":"present","response":"present","rt":867,"correct":true,"confidence":4},{"trial_n":61,"min":83,"max":172,"target":"absent","response":"absent","rt":1793,"correct":true,"confidence":2},{"trial_n":62,"min":84,"max":171,"target":"present","response":"present","rt":752,"correct":true,"confidence":4},{"trial_n":63,"min":84,"max":171,"target":"absent","response":"absent","rt":1358.0000000001,"correct":true,"confidence":3},{"trial_n":64,"min":85,"max":170,"target":"absent","response":"absent","rt":1059,"correct":true,"confidence":4},{"trial_n":65,"min":85,"max":170,"target":"present","response":"present","rt":1467,"correct":true,"confidence":3},{"trial_n":66,"min":86,"max":169,"target":"present","response":"absent","rt":1785,"correct":false,"confidence":2},{"trial_n":67,"min":85,"max":170,"target":"present","response":"present","rt":886,"correct":true,"confidence":3},{"trial_n":68,"min":85,"max":170,"target":"present","response":"absent","rt":1604,"correct":false,"confidence":2},{"trial_n":69,"min":84,"max":171,"target":"absent","response":"absent","rt":1390.9999999999,"correct":true,"confidence":3},{"trial_n":70,"min":84,"max":171,"target":"present","response":"present","rt":1453,"correct":true,"confidence":4},{"trial_n":71,"min":41,"max":214,"target":"present","response":"present","rt":1298,"correct":true,"confidence":-1},{"trial_n":72,"min":41,"max":214,"target":"present","response":"present","rt":1581,"correct":true,"confidence":-1},{"trial_n":73,"min":57,"max":198,"target":"absent","response":"absent","rt":983,"correct":true,"confidence":-1},{"trial_n":74,"min":57,"max":198,"target":"absent","response":"absent","rt":1117,"correct":true,"confidence":-1},{"trial_n":75,"min":73,"max":182,"target":"present","response":"present","rt":835.99999999994,"correct":true,"confidence":-1},{"trial_n":76,"min":73,"max":182,"target":"present","response":"present","rt":934,"correct":true,"confidence":-1},{"trial_n":77,"min":89,"max":166,"target":"absent","response":"absent","rt":1601,"correct":true,"confidence":-1},{"trial_n":78,"min":89,"max":166,"target":"absent","response":"absent","rt":951,"correct":true,"confidence":-1},{"trial_n":79,"min":105,"max":150,"target":"absent","response":"present","rt":1284,"correct":false,"confidence":-1},{"trial_n":80,"min":89,"max":166,"target":"present","response":"present","rt":1702,"correct":true,"confidence":-1},{"trial_n":81,"min":89,"max":166,"target":"present","response":"present","rt":1450,"correct":true,"confidence":-1},{"trial_n":82,"min":97,"max":158,"target":"present","response":"present","rt":1429,"correct":true,"confidence":-1},{"trial_n":83,"min":97,"max":158,"target":"present","response":"present","rt":1049,"correct":true,"confidence":-1},{"trial_n":84,"min":105,"max":150,"target":"present","response":"present","rt":985.00000000006,"correct":true,"confidence":-1},{"trial_n":85,"min":105,"max":150,"target":"absent","response":"present","rt":849,"correct":false,"confidence":-1},{"trial_n":86,"min":97,"max":158,"target":"absent","response":"present","rt":1183,"correct":false,"confidence":-1},{"trial_n":87,"min":89,"max":166,"target":"present","response":"present","rt":868,"correct":true,"confidence":-1},{"trial_n":88,"min":89,"max":166,"target":"present","response":"present","rt":1150,"correct":true,"confidence":-1},{"trial_n":89,"min":97,"max":158,"target":"present","response":"present","rt":1019,"correct":true,"confidence":-1},{"trial_n":90,"min":97,"max":158,"target":"present","response":"present","rt":1051,"correct":true,"confidence":-1},{"trial_n":91,"min":101,"max":154,"target":"present","response":"present","rt":900,"correct":true,"confidence":3},{"trial_n":92,"min":101,"max":154,"target":"present","response":"present","rt":852,"correct":true,"confidence":4},{"trial_n":93,"min":105,"max":150,"target":"present","response":"present","rt":1069,"correct":true,"confidence":2},{"trial_n":94,"min":105,"max":150,"target":"absent","response":"absent","rt":2070,"correct":true,"confidence":2},{"trial_n":95,"min":109,"max":146,"target":"present","response":"present","rt":885,"correct":true,"confidence":3},{"trial_n":96,"min":109,"max":146,"target":"absent","response":"present","rt":2186.0000000001,"correct":false,"confidence":2},{"trial_n":97,"min":105,"max":150,"target":"absent","response":"present","rt":872.00000000006,"correct":false,"confidence":3},{"trial_n":98,"min":101,"max":154,"target":"absent","response":"present","rt":1020,"correct":false,"confidence":3},{"trial_n":99,"min":97,"max":158,"target":"present","response":"present","rt":1338,"correct":true,"confidence":2},{"trial_n":100,"min":97,"max":158,"target":"present","response":"present","rt":1070,"correct":true,"confidence":3},{"trial_n":101,"min":99,"max":156,"target":"absent","response":"present","rt":1103,"correct":false,"confidence":3},{"trial_n":102,"min":97,"max":158,"target":"present","response":"absent","rt":2005,"correct":false,"confidence":2},{"trial_n":103,"min":95,"max":160,"target":"present","response":"present","rt":1471,"correct":true,"confidence":2},{"trial_n":104,"min":95,"max":160,"target":"present","response":"present","rt":988,"correct":true,"confidence":2},{"trial_n":105,"min":97,"max":158,"target":"absent","response":"present","rt":1623,"correct":false,"confidence":3},{"trial_n":106,"min":95,"max":160,"target":"absent","response":"present","rt":1072,"correct":false,"confidence":2},{"trial_n":107,"min":93,"max":162,"target":"absent","response":"absent","rt":1402,"correct":true,"confidence":2},{"trial_n":108,"min":93,"max":162,"target":"present","response":"present","rt":2237,"correct":true,"confidence":2},{"trial_n":109,"min":95,"max":160,"target":"absent","response":"present","rt":1222.9999999999,"correct":false,"confidence":3},{"trial_n":110,"min":93,"max":162,"target":"present","response":"present","rt":1005,"correct":true,"confidence":3},{"trial_n":111,"min":93,"max":162,"target":"present","response":"present","rt":888,"correct":true,"confidence":4},{"trial_n":112,"min":94,"max":161,"target":"absent","response":"present","rt":1288,"correct":false,"confidence":4},{"trial_n":113,"min":93,"max":162,"target":"present","response":"present","rt":872,"correct":true,"confidence":4},{"trial_n":114,"min":93,"max":162,"target":"absent","response":"present","rt":940,"correct":false,"confidence":4},{"trial_n":115,"min":92,"max":163,"target":"present","response":"present","rt":1305,"correct":true,"confidence":4},{"trial_n":116,"min":92,"max":163,"target":"present","response":"present","rt":906,"correct":true,"confidence":5},{"trial_n":117,"min":93,"max":162,"target":"present","response":"present","rt":1273,"correct":true,"confidence":3},{"trial_n":118,"min":93,"max":162,"target":"absent","response":"absent","rt":1375,"correct":true,"confidence":3},{"trial_n":119,"min":94,"max":161,"target":"absent","response":"absent","rt":2255,"correct":true,"confidence":3},{"trial_n":120,"min":94,"max":161,"target":"absent","response":"absent","rt":1857,"correct":true,"confidence":3},{"trial_n":121,"min":95,"max":160,"target":"absent","response":"present","rt":1012,"correct":false,"confidence":3},{"trial_n":122,"min":94,"max":161,"target":"absent","response":"absent","rt":975,"correct":true,"confidence":3},{"trial_n":123,"min":94,"max":161,"target":"present","response":"present","rt":943,"correct":true,"confidence":3},{"trial_n":124,"min":95,"max":160,"target":"present","response":"present","rt":1126,"correct":true,"confidence":4},{"trial_n":125,"min":95,"max":160,"target":"absent","response":"present","rt":1092,"correct":false,"confidence":4},{"trial_n":126,"min":94,"max":161,"target":"absent","response":"present","rt":1306.9999999999,"correct":false,"confidence":3},{"trial_n":127,"min":93,"max":162,"target":"absent","response":"present","rt":1358,"correct":false,"confidence":4},{"trial_n":128,"min":92,"max":163,"target":"absent","response":"present","rt":1024,"correct":false,"confidence":4},{"trial_n":129,"min":91,"max":164,"target":"present","response":"present","rt":1444,"correct":true,"confidence":2},{"trial_n":130,"min":91,"max":164,"target":"absent","response":"absent","rt":1424.9999999999,"correct":true,"confidence":3},{"trial_n":131,"min":92,"max":163,"target":"absent","response":"present","rt":1326,"correct":false,"confidence":2},{"trial_n":132,"min":91,"max":164,"target":"absent","response":"present","rt":1159.9999999999,"correct":false,"confidence":2},{"trial_n":133,"min":90,"max":165,"target":"present","response":"present","rt":826,"correct":true,"confidence":4},{"trial_n":134,"min":90,"max":165,"target":"present","response":"present","rt":927,"correct":true,"confidence":5},{"trial_n":135,"min":91,"max":164,"target":"present","response":"present","rt":1411.9999999999,"correct":true,"confidence":4},{"trial_n":136,"min":91,"max":164,"target":"absent","response":"absent","rt":1328,"correct":true,"confidence":3},{"trial_n":137,"min":92,"max":163,"target":"absent","response":"absent","rt":910.99999999988,"correct":true,"confidence":4},{"trial_n":138,"min":92,"max":163,"target":"absent","response":"present","rt":2377,"correct":false,"confidence":2},{"trial_n":139,"min":91,"max":164,"target":"present","response":"present","rt":862,"correct":true,"confidence":3},{"trial_n":140,"min":91,"max":164,"target":"absent","response":"present","rt":1361,"correct":false,"confidence":3}]