[{"trial_n":1,"span":8,"encoder":"52972234","distractor":"52972634","target":"present","response":"present","rt":"5760","correct":true,"confidence":-1},{"trial_n":2,"span":8,"encoder":"96757332","distractor":"96757232","target":"present","response":"present","rt":"3986","correct":true,"confidence":-1},{"trial_n":3,"span":10,"encoder":"0202715813","distractor":"6202715813","target":"absent","response":"absent","rt":"4974","correct":true,"confidence":-1},{"trial_n":4,"span":10,"encoder":"2865808689","distractor":"2865808289","target":"absent","response":"absent","rt":"4941","correct":true,"confidence":-1},{"trial_n":5,"span":12,"encoder":"257857702981","distractor":"297857702981","target":"present","response":"present","rt":"3622","correct":true,"confidence":-1},{"trial_n":6,"span":12,"encoder":"775884916344","distractor":"775894916344","target":"absent","response":"absent","rt":"3534","correct":true,"confidence":-1},{"trial_n":7,"span":14,"encoder":"58749625044361","distractor":"58759625044361","target":"absent","response":"absent","rt":"4047","correct":true,"confidence":-1},{"trial_n":8,"span":14,"encoder":"11949553073729","distractor":"11949553043729","target":"present","response":"present","rt":"4281","correct":true,"confidence":-1},{"trial_n":9,"span":16,"encoder":"4573619843979934","distractor":"4553619843979934","target":"absent","response":"present","rt":"3857","correct":false,"confidence":-1},{"trial_n":10,"span":14,"encoder":"52050260886992","distractor":"52050230886992","target":"present","response":"present","rt":"3569","correct":true,"confidence":-1},{"trial_n":11,"span":14,"encoder":"69133286018848","distractor":"69133286018858","target":"present","response":"present","rt":"4996","correct":true,"confidence":-1},{"trial_n":12,"span":15,"encoder":"992561245632678","distractor":"992562245632678","target":"present","response":"present","rt":"4568","correct":true,"confidence":-1},{"trial_n":13,"span":15,"encoder":"125206567846342","distractor":"125706567846342","target":"present","response":"present","rt":"2902","correct":true,"confidence":-1},{"trial_n":14,"span":16,"encoder":"3669539030506140","distractor":"3669639030506140","target":"present","response":"present","rt":"3213","correct":true,"confidence":-1},{"trial_n":15,"span":16,"encoder":"3956595221198828","distractor":"3956595021198828","target":"absent","response":"present","rt":"4511","correct":false,"confidence":-1},{"trial_n":16,"span":15,"encoder":"679922125434081","distractor":"679922125434011","target":"absent","response":"absent","rt":"2918","correct":true,"confidence":-1},{"trial_n":17,"span":15,"encoder":"441181797132714","distractor":"441181796132714","target":"present","response":"present","rt":"4937","correct":true,"confidence":-1},{"trial_n":18,"span":16,"encoder":"5885899812683806","distractor":"5885899812623806","target":"absent","response":"present","rt":"3411","correct":false,"confidence":-1},{"trial_n":19,"span":15,"encoder":"784807386461279","distractor":"794807386461279","target":"present","response":"present","rt":"3406","correct":true,"confidence":-1},{"trial_n":20,"span":15,"encoder":"476346192849704","distractor":"476346492849704","target":"present","response":"present","rt":"3103","correct":true,"confidence":-1},{"trial_n":21,"span":16,"encoder":"5619421516112668","distractor":"5619421516112628","target":"present","response":"absent","rt":"11415","correct":false,"confidence":3},{"trial_n":22,"span":15,"encoder":"796097982087704","distractor":"896097982087704","target":"absent","response":"absent","rt":"9188","correct":true,"confidence":2},{"trial_n":23,"span":15,"encoder":"067179422655114","distractor":"067179422655014","target":"present","response":"present","rt":"3258.0000000001","correct":true,"confidence":3},{"trial_n":24,"span":16,"encoder":"0116723520801220","distractor":"0116723520801420","target":"present","response":"present","rt":"5513.0000000001","correct":true,"confidence":3},{"trial_n":25,"span":16,"encoder":"7972529951877265","distractor":"7972529951477265","target":"absent","response":"absent","rt":"4135","correct":true,"confidence":3},{"trial_n":26,"span":17,"encoder":"24264860174761268","distractor":"24264860174741268","target":"absent","response":"present","rt":"9021.0000000001","correct":false,"confidence":2},{"trial_n":27,"span":16,"encoder":"0268318983232377","distractor":"0268318283232377","target":"absent","response":"present","rt":"8767","correct":false,"confidence":3},{"trial_n":28,"span":15,"encoder":"883360041558559","distractor":"883360047558559","target":"absent","response":"present","rt":"5784","correct":false,"confidence":3},{"trial_n":29,"span":14,"encoder":"39294211166034","distractor":"39254211166034","target":"present","response":"present","rt":"4576.0000000001","correct":true,"confidence":4},{"trial_n":30,"span":14,"encoder":"96646502431274","distractor":"96646602431274","target":"absent","response":"absent","rt":"6760.9999999999","correct":true,"confidence":3},{"trial_n":31,"span":15,"encoder":"169967489819161","distractor":"169927489819161","target":"present","response":"present","rt":"6713","correct":true,"confidence":4},{"trial_n":32,"span":15,"encoder":"590188212779271","distractor":"560188212779271","target":"absent","response":"present","rt":"4902","correct":false,"confidence":5},{"trial_n":33,"span":14,"encoder":"93289713630801","distractor":"93289313630801","target":"present","response":"present","rt":"5980.9999999999","correct":true,"confidence":3},{"trial_n":34,"span":14,"encoder":"88228682140703","distractor":"88228682100703","target":"absent","response":"present","rt":"5766.0000000001","correct":false,"confidence":3},{"trial_n":35,"span":13,"encoder":"2194015718746","distractor":"2104015718746","target":"absent","response":"present","rt":"5330","correct":false,"confidence":3},{"trial_n":36,"span":12,"encoder":"684500622105","distractor":"684500622905","target":"present","response":"absent","rt":"4925","correct":false,"confidence":4},{"trial_n":37,"span":11,"encoder":"42999162963","distractor":"12999162963","target":"present","response":"absent","rt":"5635","correct":false,"confidence":4},{"trial_n":38,"span":10,"encoder":"7243867462","distractor":"0243867462","target":"absent","response":"absent","rt":"6401","correct":true,"confidence":5},{"trial_n":39,"span":10,"encoder":"7253152805","distractor":"2253152805","target":"absent","response":"absent","rt":"4215.0000000001","correct":true,"confidence":5},{"trial_n":40,"span":11,"encoder":"53497852996","distractor":"53427852996","target":"absent","response":"absent","rt":"3357.0000000001","correct":true,"confidence":3},{"trial_n":41,"span":11,"encoder":"28266027396","distractor":"88266027396","target":"absent","response":"present","rt":"5202","correct":false,"confidence":5},{"trial_n":42,"span":10,"encoder":"9319217955","distractor":"9319217255","target":"absent","response":"absent","rt":"5586","correct":true,"confidence":3},{"trial_n":43,"span":10,"encoder":"0775690513","distractor":"0774690513","target":"present","response":"present","rt":"4457","correct":true,"confidence":3},{"trial_n":44,"span":11,"encoder":"25406978923","distractor":"25906978923","target":"absent","response":"absent","rt":"2461.0000000001","correct":true,"confidence":3},{"trial_n":45,"span":11,"encoder":"11585794926","distractor":"11585704926","target":"present","response":"absent","rt":"4257","correct":false,"confidence":3},{"trial_n":46,"span":10,"encoder":"0350423982","distractor":"0350443982","target":"absent","response":"present","rt":"4137","correct":false,"confidence":3},{"trial_n":47,"span":9,"encoder":"459400135","distractor":"459400136","target":"absent","response":"absent","rt":"2399","correct":true,"confidence":5},{"trial_n":48,"span":9,"encoder":"204484730","distractor":"204484750","target":"present","response":"absent","rt":"2951","correct":false,"confidence":2},{"trial_n":49,"span":8,"encoder":"32045626","distractor":"32145626","target":"present","response":"absent","rt":"6647","correct":false,"confidence":2},{"trial_n":50,"span":7,"encoder":"1156195","distractor":"1156595","target":"present","response":"present","rt":"2757","correct":true,"confidence":5},{"trial_n":51,"span":7,"encoder":"1054372","distractor":"1054392","target":"absent","response":"absent","rt":"3472","correct":true,"confidence":5},{"trial_n":52,"span":8,"encoder":"74405484","distractor":"74405584","target":"present","response":"present","rt":"3494","correct":true,"confidence":3},{"trial_n":53,"span":8,"encoder":"68449661","distractor":"68249661","target":"absent","response":"absent","rt":"4262","correct":true,"confidence":4},{"trial_n":54,"span":9,"encoder":"330213201","distractor":"230213201","target":"present","response":"present","rt":"3053","correct":true,"confidence":3},{"trial_n":55,"span":9,"encoder":"324239725","distractor":"324236725","target":"present","response":"present","rt":"2553","correct":true,"confidence":3},{"trial_n":56,"span":10,"encoder":"0710737303","distractor":"3710737303","target":"absent","response":"present","rt":"5162","correct":false,"confidence":4},{"trial_n":57,"span":9,"encoder":"759453551","distractor":"759253551","target":"absent","response":"absent","rt":"5438","correct":true,"confidence":2},{"trial_n":58,"span":9,"encoder":"561469045","distractor":"561469035","target":"absent","response":"absent","rt":"3003.9999999998","correct":true,"confidence":5},{"trial_n":59,"span":10,"encoder":"2192245608","distractor":"6192245608","target":"absent","response":"present","rt":"3347","correct":false,"confidence":3},{"trial_n":60,"span":9,"encoder":"568635623","distractor":"563635623","target":"present","response":"absent","rt":"3171","correct":false,"confidence":1},{"trial_n":61,"span":8,"encoder":"11584858","distractor":"11580858","target":"present","response":"present","rt":"3030","correct":true,"confidence":5},{"trial_n":62,"span":8,"encoder":"55213099","distractor":"55210099","target":"present","response":"present","rt":"4608.0000000002","correct":true,"confidence":3},{"trial_n":63,"span":9,"encoder":"786452472","distractor":"787452472","target":"present","response":"present","rt":"3763","correct":true,"confidence":4},{"trial_n":64,"span":9,"encoder":"261310370","distractor":"264310370","target":"absent","response":"absent","rt":"2445","correct":true,"confidence":5},{"trial_n":65,"span":10,"encoder":"4229932324","distractor":"4239932324","target":"present","response":"present","rt":"3753","correct":true,"confidence":3},{"trial_n":66,"span":10,"encoder":"7123882992","distractor":"7123182992","target":"present","response":"present","rt":"3768","correct":true,"confidence":4},{"trial_n":67,"span":11,"encoder":"62297848791","distractor":"64297848791","target":"absent","response":"present","rt":"6057.9999999998","correct":false,"confidence":3},{"trial_n":68,"span":10,"encoder":"5000411631","distractor":"5000511631","target":"present","response":"present","rt":"3433","correct":true,"confidence":5},{"trial_n":69,"span":10,"encoder":"5161363350","distractor":"3161363350","target":"present","response":"present","rt":"3851","correct":true,"confidence":3},{"trial_n":70,"span":11,"encoder":"16263086668","distractor":"16263086768","target":"absent","response":"absent","rt":"1940","correct":true,"confidence":5},{"trial_n":71,"span":8,"encoder":"58547194","distractor":"58547694","target":"present","response":"present","rt":"3127","correct":true,"confidence":-1},{"trial_n":72,"span":8,"encoder":"89333865","distractor":"89333265","target":"present","response":"present","rt":"4294","correct":true,"confidence":-1},{"trial_n":73,"span":9,"encoder":"854581721","distractor":"454581721","target":"absent","response":"absent","rt":"3594","correct":true,"confidence":-1},{"trial_n":74,"span":9,"encoder":"034283791","distractor":"034285791","target":"absent","response":"present","rt":"4761.9999999998","correct":false,"confidence":-1},{"trial_n":75,"span":8,"encoder":"11302081","distractor":"11302080","target":"present","response":"present","rt":"3456","correct":true,"confidence":-1},{"trial_n":76,"span":8,"encoder":"15128574","distractor":"15128074","target":"present","response":"present","rt":"4407","correct":true,"confidence":-1},{"trial_n":77,"span":9,"encoder":"171829295","distractor":"171529295","target":"present","response":"present","rt":"3511.9999999998","correct":true,"confidence":-1},{"trial_n":78,"span":9,"encoder":"290518617","distractor":"490518617","target":"present","response":"present","rt":"3415","correct":true,"confidence":-1},{"trial_n":79,"span":10,"encoder":"5103784007","distractor":"5103784027","target":"present","response":"present","rt":"1720","correct":true,"confidence":-1},{"trial_n":80,"span":10,"encoder":"7409450149","distractor":"7409650149","target":"absent","response":"present","rt":"4220","correct":false,"confidence":-1},{"trial_n":81,"span":9,"encoder":"132409799","distractor":"132407799","target":"absent","response":"absent","rt":"6092","correct":true,"confidence":-1},{"trial_n":82,"span":9,"encoder":"996301168","distractor":"396301168","target":"absent","response":"absent","rt":"2732","correct":true,"confidence":-1},{"trial_n":83,"span":10,"encoder":"8203955530","distractor":"8203955539","target":"absent","response":"absent","rt":"3002.0000000002","correct":true,"confidence":-1},{"trial_n":84,"span":10,"encoder":"9610389151","distractor":"9610385151","target":"present","response":"present","rt":"4102","correct":true,"confidence":-1},{"trial_n":85,"span":11,"encoder":"69950591452","distractor":"69950595452","target":"present","response":"present","rt":"2686","correct":true,"confidence":-1},{"trial_n":86,"span":11,"encoder":"10134553127","distractor":"10134563127","target":"absent","response":"absent","rt":"3021","correct":true,"confidence":-1},{"trial_n":87,"span":12,"encoder":"784287917744","distractor":"783287917744","target":"present","response":"absent","rt":"3391.9999999998","correct":false,"confidence":-1},{"trial_n":88,"span":11,"encoder":"58461055643","distractor":"58161055643","target":"absent","response":"present","rt":"5213","correct":false,"confidence":-1},{"trial_n":89,"span":10,"encoder":"4917435119","distractor":"4917835119","target":"present","response":"present","rt":"4725","correct":true,"confidence":-1},{"trial_n":90,"span":10,"encoder":"6136071041","distractor":"6116071041","target":"present","response":"present","rt":"2805.0000000002","correct":true,"confidence":-1},{"trial_n":91,"span":11,"encoder":"46522781152","distractor":"46522381152","target":"absent","response":"absent","rt":"3543","correct":true,"confidence":3},{"trial_n":92,"span":11,"encoder":"43363854804","distractor":"43363854704","target":"absent","response":"absent","rt":"3862","correct":true,"confidence":5},{"trial_n":93,"span":12,"encoder":"611948176008","distractor":"611948976008","target":"absent","response":"absent","rt":"7370","correct":true,"confidence":3},{"trial_n":94,"span":12,"encoder":"458995196010","distractor":"458995192010","target":"present","response":"present","rt":"2718","correct":true,"confidence":5},{"trial_n":95,"span":13,"encoder":"8705442094757","distractor":"8705422094757","target":"absent","response":"present","rt":"8360","correct":false,"confidence":3},{"trial_n":96,"span":12,"encoder":"698356343599","distractor":"698356353599","target":"absent","response":"absent","rt":"4436","correct":true,"confidence":4},{"trial_n":97,"span":12,"encoder":"672789566599","distractor":"672789568599","target":"present","response":"absent","rt":"8454.9999999998","correct":false,"confidence":2},{"trial_n":98,"span":11,"encoder":"75442139753","distractor":"75442199753","target":"present","response":"present","rt":"8814.0000000002","correct":true,"confidence":3},{"trial_n":99,"span":11,"encoder":"43232011072","distractor":"43532011072","target":"present","response":"present","rt":"4447","correct":true,"confidence":5},{"trial_n":100,"span":12,"encoder":"471871709986","distractor":"471871709981","target":"present","response":"present","rt":"4336","correct":true,"confidence":5},{"trial_n":101,"span":12,"encoder":"523990602072","distractor":"523990632072","target":"absent","response":"present","rt":"7125","correct":false,"confidence":2},{"trial_n":102,"span":11,"encoder":"42576473345","distractor":"42576273345","target":"present","response":"present","rt":"7335","correct":true,"confidence":3},{"trial_n":103,"span":11,"encoder":"54859182889","distractor":"54859282889","target":"absent","response":"present","rt":"7150.9999999998","correct":false,"confidence":4},{"trial_n":104,"span":10,"encoder":"4833584972","distractor":"4813584972","target":"present","response":"present","rt":"7715","correct":true,"confidence":2},{"trial_n":105,"span":10,"encoder":"0858335746","distractor":"0858330746","target":"present","response":"present","rt":"2647","correct":true,"confidence":4},{"trial_n":106,"span":11,"encoder":"12325882239","distractor":"12327882239","target":"present","response":"absent","rt":"7119","correct":false,"confidence":3},{"trial_n":107,"span":10,"encoder":"1751988592","distractor":"1751888592","target":"present","response":"present","rt":"6934","correct":true,"confidence":5},{"trial_n":108,"span":10,"encoder":"7239893714","distractor":"7439893714","target":"absent","response":"absent","rt":"5786.9999999998","correct":true,"confidence":2},{"trial_n":109,"span":11,"encoder":"17747929502","distractor":"17047929502","target":"present","response":"present","rt":"2154","correct":true,"confidence":5},{"trial_n":110,"span":11,"encoder":"89460616116","distractor":"89464616116","target":"absent","response":"absent","rt":"8173.9999999998","correct":true,"confidence":2},{"trial_n":111,"span":12,"encoder":"822422031782","distractor":"823422031782","target":"present","response":"present","rt":"7220","correct":true,"confidence":2},{"trial_n":112,"span":12,"encoder":"160386175391","distractor":"120386175391","target":"present","response":"absent","rt":"5084","correct":false,"confidence":2},{"trial_n":113,"span":11,"encoder":"34710762259","distractor":"34760762259","target":"absent","response":"present","rt":"5962","correct":false,"confidence":1},{"trial_n":114,"span":10,"encoder":"3848811002","distractor":"3848871002","target":"present","response":"absent","rt":"3539","correct":false,"confidence":4},{"trial_n":115,"span":9,"encoder":"723322401","distractor":"723320401","target":"present","response":"present","rt":"3537","correct":true,"confidence":4},{"trial_n":116,"span":9,"encoder":"139601972","distractor":"139901972","target":"absent","response":"absent","rt":"5135","correct":true,"confidence":2},{"trial_n":117,"span":10,"encoder":"1109123570","distractor":"1109133570","target":"present","response":"present","rt":"5585","correct":true,"confidence":3},{"trial_n":118,"span":10,"encoder":"8873854315","distractor":"3873854315","target":"absent","response":"absent","rt":"3657","correct":true,"confidence":3},{"trial_n":119,"span":11,"encoder":"40508001810","distractor":"40508001818","target":"absent","response":"absent","rt":"2360.0000000005","correct":true,"confidence":5},{"trial_n":120,"span":11,"encoder":"07565689097","distractor":"07565089097","target":"absent","response":"present","rt":"9035","correct":false,"confidence":2},{"trial_n":121,"span":10,"encoder":"6453585523","distractor":"6453585323","target":"absent","response":"absent","rt":"2943","correct":true,"confidence":5},{"trial_n":122,"span":10,"encoder":"8174740418","distractor":"2174740418","target":"present","response":"absent","rt":"4895","correct":false,"confidence":2},{"trial_n":123,"span":9,"encoder":"287199699","distractor":"687199699","target":"absent","response":"absent","rt":"1889.0000000005","correct":true,"confidence":5},{"trial_n":124,"span":9,"encoder":"241463195","distractor":"241463191","target":"present","response":"present","rt":"1641.9999999995","correct":true,"confidence":5},{"trial_n":125,"span":10,"encoder":"6746806851","distractor":"6746805851","target":"present","response":"absent","rt":"5394.9999999995","correct":false,"confidence":2},{"trial_n":126,"span":9,"encoder":"705195023","distractor":"735195023","target":"absent","response":"present","rt":"4156","correct":false,"confidence":2},{"trial_n":127,"span":8,"encoder":"91305931","distractor":"91005931","target":"present","response":"present","rt":"3404","correct":true,"confidence":3},{"trial_n":128,"span":8,"encoder":"31013358","distractor":"31013356","target":"present","response":"present","rt":"1773.0000000005","correct":true,"confidence":5},{"trial_n":129,"span":9,"encoder":"849218243","distractor":"849216243","target":"absent","response":"present","rt":"3545","correct":false,"confidence":1},{"trial_n":130,"span":8,"encoder":"83385534","distractor":"83385532","target":"present","response":"present","rt":"1722","correct":true,"confidence":5},{"trial_n":131,"span":8,"encoder":"51281693","distractor":"51281653","target":"absent","response":"absent","rt":"2198.9999999995","correct":true,"confidence":5},{"trial_n":132,"span":9,"encoder":"844995243","distractor":"844965243","target":"absent","response":"absent","rt":"4561","correct":true,"confidence":3},{"trial_n":133,"span":9,"encoder":"133585656","distractor":"133885656","target":"absent","response":"absent","rt":"6762","correct":true,"confidence":2},{"trial_n":134,"span":10,"encoder":"6532463001","distractor":"6532464001","target":"absent","response":"absent","rt":"3351.0000000005","correct":true,"confidence":2},{"trial_n":135,"span":10,"encoder":"0604244332","distractor":"0904244332","target":"absent","response":"absent","rt":"4734","correct":true,"confidence":3},{"trial_n":136,"span":11,"encoder":"59865918202","distractor":"59865918502","target":"present","response":"present","rt":"2520","correct":true,"confidence":5},{"trial_n":137,"span":11,"encoder":"93745274551","distractor":"93845274551","target":"absent","response":"absent","rt":"7705.9999999995","correct":true,"confidence":1},{"trial_n":138,"span":12,"encoder":"957434303512","distractor":"957834303512","target":"present","response":"present","rt":"7528","correct":true,"confidence":1},{"trial_n":139,"span":12,"encoder":"949758053210","distractor":"949758013210","target":"absent","response":"absent","rt":"3211","correct":true,"confidence":2},{"trial_n":140,"span":13,"encoder":"5950195380696","distractor":"5850195380696","target":"absent","response":"absent","rt":"5745.9999999995","correct":true,"confidence":3}]