[{"trial_n":1,"n_dots":4.25,"target":"right","response":"right","rt":3543.7000000477,"correct":true,"confidence":-1},{"trial_n":2,"n_dots":4.25,"target":"right","response":"left","rt":1294.4000000954,"correct":false,"confidence":-1},{"trial_n":3,"n_dots":4.65,"target":"right","response":"right","rt":561.70000004768,"correct":true,"confidence":-1},{"trial_n":4,"n_dots":4.65,"target":"right","response":"right","rt":321.80000019073,"correct":true,"confidence":-1},{"trial_n":5,"n_dots":4.25,"target":"right","response":"right","rt":436.59999990463,"correct":true,"confidence":-1},{"trial_n":6,"n_dots":4.25,"target":"right","response":"right","rt":437.79999995232,"correct":true,"confidence":-1},{"trial_n":7,"n_dots":3.85,"target":"right","response":"left","rt":700.89999985695,"correct":false,"confidence":-1},{"trial_n":8,"n_dots":4.05,"target":"right","response":"right","rt":710.90000009537,"correct":true,"confidence":-1},{"trial_n":9,"n_dots":4.05,"target":"right","response":"right","rt":513,"correct":true,"confidence":-1},{"trial_n":10,"n_dots":3.85,"target":"left","response":"right","rt":1677.5999999046,"correct":false,"confidence":-1},{"trial_n":11,"n_dots":4.05,"target":"right","response":"right","rt":273.89999985695,"correct":true,"confidence":-1},{"trial_n":12,"n_dots":4.05,"target":"right","response":"right","rt":356.89999985695,"correct":true,"confidence":-1},{"trial_n":13,"n_dots":3.95,"target":"right","response":"right","rt":303,"correct":true,"confidence":-1},{"trial_n":14,"n_dots":3.95,"target":"left","response":"left","rt":604.29999995232,"correct":true,"confidence":-1},{"trial_n":15,"n_dots":3.85,"target":"left","response":"left","rt":675.79999995232,"correct":true,"confidence":-1},{"trial_n":16,"n_dots":3.85,"target":"right","response":"right","rt":202.60000014305,"correct":true,"confidence":-1},{"trial_n":17,"n_dots":3.75,"target":"left","response":"right","rt":591.79999995232,"correct":false,"confidence":-1},{"trial_n":18,"n_dots":3.85,"target":"right","response":"left","rt":526.5,"correct":false,"confidence":-1},{"trial_n":19,"n_dots":3.95,"target":"right","response":"right","rt":2805.4000000954,"correct":true,"confidence":-1},{"trial_n":20,"n_dots":3.95,"target":"right","response":"right","rt":589.5,"correct":true,"confidence":-1},{"trial_n":21,"n_dots":3.85,"target":"right","response":"right","rt":286.40000009537,"correct":true,"confidence":2},{"trial_n":22,"n_dots":3.85,"target":"right","response":"left","rt":329.20000004768,"correct":false,"confidence":3},{"trial_n":23,"n_dots":3.95,"target":"left","response":"left","rt":498,"correct":true,"confidence":3},{"trial_n":24,"n_dots":3.95,"target":"right","response":"right","rt":764.29999995232,"correct":true,"confidence":4},{"trial_n":25,"n_dots":3.85,"target":"left","response":"left","rt":1147.3999998569,"correct":true,"confidence":2},{"trial_n":26,"n_dots":3.85,"target":"left","response":"right","rt":690.59999990463,"correct":false,"confidence":1},{"trial_n":27,"n_dots":3.95,"target":"left","response":"left","rt":2595.9000000954,"correct":true,"confidence":4},{"trial_n":28,"n_dots":3.95,"target":"left","response":"right","rt":1185.2000000477,"correct":false,"confidence":1},{"trial_n":29,"n_dots":4.05,"target":"left","response":"left","rt":488.30000019073,"correct":true,"confidence":3},{"trial_n":30,"n_dots":4.05,"target":"left","response":"left","rt":761.5,"correct":true,"confidence":4},{"trial_n":31,"n_dots":3.95,"target":"right","response":"right","rt":682.10000014305,"correct":true,"confidence":5},{"trial_n":32,"n_dots":3.95,"target":"left","response":"left","rt":668.30000019073,"correct":true,"confidence":2},{"trial_n":33,"n_dots":3.85,"target":"left","response":"left","rt":748,"correct":true,"confidence":4},{"trial_n":34,"n_dots":3.85,"target":"right","response":"right","rt":899.29999995232,"correct":true,"confidence":1},{"trial_n":35,"n_dots":3.75,"target":"right","response":"right","rt":969,"correct":true,"confidence":1},{"trial_n":36,"n_dots":3.75,"target":"left","response":"left","rt":593.69999980927,"correct":true,"confidence":4},{"trial_n":37,"n_dots":3.65,"target":"left","response":"right","rt":824.5,"correct":false,"confidence":3},{"trial_n":38,"n_dots":3.75,"target":"left","response":"left","rt":778.79999995232,"correct":true,"confidence":2},{"trial_n":39,"n_dots":3.75,"target":"right","response":"right","rt":464.5,"correct":true,"confidence":2},{"trial_n":40,"n_dots":3.65,"target":"right","response":"right","rt":570,"correct":true,"confidence":4},{"trial_n":41,"n_dots":3.65,"target":"right","response":"right","rt":5657.1000001431,"correct":true,"confidence":1},{"trial_n":42,"n_dots":3.55,"target":"right","response":"left","rt":1393.7000000477,"correct":false,"confidence":3},{"trial_n":43,"n_dots":3.65,"target":"right","response":"right","rt":556.5,"correct":true,"confidence":4},{"trial_n":44,"n_dots":3.65,"target":"left","response":"left","rt":1026,"correct":true,"confidence":2},{"trial_n":45,"n_dots":3.55,"target":"right","response":"left","rt":848,"correct":false,"confidence":1},{"trial_n":46,"n_dots":3.65,"target":"left","response":"left","rt":620.59999990463,"correct":true,"confidence":3},{"trial_n":47,"n_dots":3.65,"target":"left","response":"left","rt":575.79999995232,"correct":true,"confidence":4},{"trial_n":48,"n_dots":3.55,"target":"left","response":"left","rt":423,"correct":true,"confidence":4},{"trial_n":49,"n_dots":3.55,"target":"left","response":"left","rt":405.5,"correct":true,"confidence":3},{"trial_n":50,"n_dots":3.45,"target":"right","response":"right","rt":711.09999990463,"correct":true,"confidence":2},{"trial_n":51,"n_dots":3.45,"target":"left","response":"left","rt":516,"correct":true,"confidence":3},{"trial_n":52,"n_dots":3.35,"target":"left","response":"left","rt":4535.3000001907,"correct":true,"confidence":2},{"trial_n":53,"n_dots":3.35,"target":"left","response":"right","rt":711.39999985695,"correct":false,"confidence":1},{"trial_n":54,"n_dots":3.45,"target":"right","response":"right","rt":526.39999985695,"correct":true,"confidence":3},{"trial_n":55,"n_dots":3.45,"target":"left","response":"left","rt":724.90000009537,"correct":true,"confidence":2},{"trial_n":56,"n_dots":3.35,"target":"right","response":"right","rt":937.29999995232,"correct":true,"confidence":3},{"trial_n":57,"n_dots":3.35,"target":"left","response":"left","rt":424,"correct":true,"confidence":1},{"trial_n":58,"n_dots":3.25,"target":"right","response":"right","rt":685.69999980927,"correct":true,"confidence":4},{"trial_n":59,"n_dots":3.25,"target":"left","response":"left","rt":784.59999990463,"correct":true,"confidence":1},{"trial_n":60,"n_dots":3.15,"target":"left","response":"right","rt":1065.7000000477,"correct":false,"confidence":2},{"trial_n":61,"n_dots":3.25,"target":"left","response":"right","rt":575.5,"correct":false,"confidence":2},{"trial_n":62,"n_dots":3.35,"target":"left","response":"left","rt":581.09999990463,"correct":true,"confidence":4},{"trial_n":63,"n_dots":3.35,"target":"right","response":"right","rt":1062.3000001907,"correct":true,"confidence":3},{"trial_n":64,"n_dots":3.25,"target":"left","response":"left","rt":621.40000009537,"correct":true,"confidence":3},{"trial_n":65,"n_dots":3.25,"target":"right","response":"right","rt":636.20000004768,"correct":true,"confidence":1},{"trial_n":66,"n_dots":3.15,"target":"right","response":"left","rt":1029,"correct":false,"confidence":3},{"trial_n":67,"n_dots":3.25,"target":"left","response":"left","rt":430.30000019073,"correct":true,"confidence":4},{"trial_n":68,"n_dots":3.25,"target":"left","response":"right","rt":519,"correct":false,"confidence":4},{"trial_n":69,"n_dots":3.35,"target":"right","response":"left","rt":682.89999985695,"correct":false,"confidence":3},{"trial_n":70,"n_dots":3.45,"target":"left","response":"left","rt":480.09999990463,"correct":true,"confidence":2},{"trial_n":71,"n_dots":3.45,"target":"right","response":"right","rt":369,"correct":true,"confidence":5},{"trial_n":72,"n_dots":3.35,"target":"right","response":"left","rt":1241.5,"correct":false,"confidence":3},{"trial_n":73,"n_dots":3.45,"target":"right","response":"right","rt":1783.1000001431,"correct":true,"confidence":1},{"trial_n":74,"n_dots":3.45,"target":"left","response":"left","rt":688,"correct":true,"confidence":4},{"trial_n":75,"n_dots":3.35,"target":"right","response":"right","rt":547.60000014305,"correct":true,"confidence":4},{"trial_n":76,"n_dots":3.35,"target":"right","response":"right","rt":4536.4000000954,"correct":true,"confidence":3},{"trial_n":77,"n_dots":3.25,"target":"left","response":"left","rt":263.5,"correct":true,"confidence":2},{"trial_n":78,"n_dots":3.25,"target":"left","response":"right","rt":383.70000004768,"correct":false,"confidence":4},{"trial_n":79,"n_dots":3.35,"target":"left","response":"left","rt":1832.5,"correct":true,"confidence":2},{"trial_n":80,"n_dots":3.35,"target":"right","response":"right","rt":478.80000019073,"correct":true,"confidence":3},{"trial_n":81,"n_dots":3.25,"target":"left","response":"left","rt":551.39999985695,"correct":true,"confidence":3},{"trial_n":82,"n_dots":3.25,"target":"left","response":"left","rt":1155.1000001431,"correct":true,"confidence":2},{"trial_n":83,"n_dots":3.15,"target":"right","response":"right","rt":9074.9000000954,"correct":true,"confidence":1},{"trial_n":84,"n_dots":3.15,"target":"right","response":"left","rt":663.09999990463,"correct":false,"confidence":3},{"trial_n":85,"n_dots":3.25,"target":"left","response":"right","rt":1418.1000001431,"correct":false,"confidence":2},{"trial_n":86,"n_dots":3.35,"target":"right","response":"right","rt":512.5,"correct":true,"confidence":2},{"trial_n":87,"n_dots":3.35,"target":"left","response":"left","rt":859.20000004768,"correct":true,"confidence":1},{"trial_n":88,"n_dots":3.25,"target":"right","response":"right","rt":761.40000009537,"correct":true,"confidence":3},{"trial_n":89,"n_dots":3.25,"target":"left","response":"left","rt":753.90000009537,"correct":true,"confidence":4},{"trial_n":90,"n_dots":3.15,"target":"right","response":"right","rt":828.89999985695,"correct":true,"confidence":1},{"trial_n":91,"n_dots":3.15,"target":"right","response":"left","rt":1014.5,"correct":false,"confidence":2},{"trial_n":92,"n_dots":3.25,"target":"right","response":"left","rt":4505.8000001907,"correct":false,"confidence":2},{"trial_n":93,"n_dots":3.35,"target":"left","response":"left","rt":2728.2999999523,"correct":true,"confidence":3},{"trial_n":94,"n_dots":3.35,"target":"left","response":"right","rt":718,"correct":false,"confidence":1},{"trial_n":95,"n_dots":3.45,"target":"right","response":"left","rt":1082.7999999523,"correct":false,"confidence":2},{"trial_n":96,"n_dots":3.55,"target":"left","response":"right","rt":859.39999985695,"correct":false,"confidence":1},{"trial_n":97,"n_dots":3.65,"target":"right","response":"left","rt":651.79999995232,"correct":false,"confidence":1},{"trial_n":98,"n_dots":3.75,"target":"left","response":"left","rt":438.90000009537,"correct":true,"confidence":4},{"trial_n":99,"n_dots":3.75,"target":"left","response":"left","rt":1102,"correct":true,"confidence":3},{"trial_n":100,"n_dots":3.65,"target":"right","response":"right","rt":580,"correct":true,"confidence":3},{"trial_n":101,"n_dots":3.65,"target":"left","response":"left","rt":620.5,"correct":true,"confidence":4},{"trial_n":102,"n_dots":3.55,"target":"right","response":"right","rt":1258.5999999046,"correct":true,"confidence":2},{"trial_n":103,"n_dots":3.55,"target":"left","response":"right","rt":701.79999995232,"correct":false,"confidence":4},{"trial_n":104,"n_dots":3.65,"target":"right","response":"right","rt":363.70000004768,"correct":true,"confidence":3},{"trial_n":105,"n_dots":3.65,"target":"left","response":"left","rt":486.5,"correct":true,"confidence":4},{"trial_n":106,"n_dots":3.55,"target":"left","response":"left","rt":226.59999990463,"correct":true,"confidence":4},{"trial_n":107,"n_dots":3.55,"target":"right","response":"right","rt":1026.4000000954,"correct":true,"confidence":1},{"trial_n":108,"n_dots":3.45,"target":"right","response":"left","rt":916.20000004768,"correct":false,"confidence":2},{"trial_n":109,"n_dots":3.55,"target":"left","response":"left","rt":377.40000009537,"correct":true,"confidence":3},{"trial_n":110,"n_dots":3.55,"target":"right","response":"right","rt":376.29999995232,"correct":true,"confidence":3},{"trial_n":111,"n_dots":3.45,"target":"left","response":"left","rt":366.70000004768,"correct":true,"confidence":4},{"trial_n":112,"n_dots":3.45,"target":"left","response":"left","rt":367.09999990463,"correct":true,"confidence":2},{"trial_n":113,"n_dots":3.35,"target":"left","response":"left","rt":137.90000009537,"correct":true,"confidence":3},{"trial_n":114,"n_dots":3.35,"target":"left","response":"left","rt":469.5,"correct":true,"confidence":4},{"trial_n":115,"n_dots":3.25,"target":"right","response":"right","rt":697.5,"correct":true,"confidence":2},{"trial_n":116,"n_dots":3.25,"target":"left","response":"right","rt":3040,"correct":false,"confidence":2},{"trial_n":117,"n_dots":3.35,"target":"left","response":"left","rt":896.09999990463,"correct":true,"confidence":4},{"trial_n":118,"n_dots":3.35,"target":"right","response":"right","rt":459.20000004768,"correct":true,"confidence":3},{"trial_n":119,"n_dots":3.25,"target":"right","response":"right","rt":798,"correct":true,"confidence":4},{"trial_n":120,"n_dots":3.25,"target":"left","response":"left","rt":539.70000004768,"correct":true,"confidence":5}]