[{"trial_n":1,"span":8,"encoder":"58414194","distractor":"38414194","target":"present","response":"present","rt":"2296","correct":true,"confidence":-1},{"trial_n":2,"span":8,"encoder":"02023503","distractor":"02023603","target":"present","response":"present","rt":"1864","correct":true,"confidence":-1},{"trial_n":3,"span":10,"encoder":"8742007638","distractor":"8742000638","target":"absent","response":"absent","rt":"3040","correct":true,"confidence":-1},{"trial_n":4,"span":10,"encoder":"4907134026","distractor":"4907134226","target":"absent","response":"absent","rt":"1642","correct":true,"confidence":-1},{"trial_n":5,"span":12,"encoder":"073333568835","distractor":"073332568835","target":"present","response":"present","rt":"1765","correct":true,"confidence":-1},{"trial_n":6,"span":12,"encoder":"127344165043","distractor":"127344145043","target":"present","response":"present","rt":"1360","correct":true,"confidence":-1},{"trial_n":7,"span":14,"encoder":"06930528639477","distractor":"06930828639477","target":"present","response":"present","rt":"1397","correct":true,"confidence":-1},{"trial_n":8,"span":14,"encoder":"37580275402074","distractor":"37580275422074","target":"absent","response":"absent","rt":"1208","correct":true,"confidence":-1},{"trial_n":9,"span":16,"encoder":"8043530017007739","distractor":"8043530017407739","target":"absent","response":"absent","rt":"1807","correct":true,"confidence":-1},{"trial_n":10,"span":16,"encoder":"2232487077041497","distractor":"2232487077141497","target":"absent","response":"absent","rt":"6179","correct":true,"confidence":-1},{"trial_n":11,"span":18,"encoder":"374131951555175279","distractor":"374111951555175279","target":"absent","response":"absent","rt":"2130","correct":true,"confidence":-1},{"trial_n":12,"span":18,"encoder":"384116393046298160","distractor":"380116393046298160","target":"absent","response":"present","rt":"1339","correct":false,"confidence":-1},{"trial_n":13,"span":17,"encoder":"16472304225001644","distractor":"16472324225001644","target":"absent","response":"present","rt":"2610","correct":false,"confidence":-1},{"trial_n":14,"span":16,"encoder":"0627785500071706","distractor":"0622785500071706","target":"present","response":"present","rt":"481","correct":true,"confidence":-1},{"trial_n":15,"span":16,"encoder":"0072101531888086","distractor":"0072191531888086","target":"absent","response":"present","rt":"1240","correct":false,"confidence":-1},{"trial_n":16,"span":15,"encoder":"790021574631852","distractor":"790021274631852","target":"present","response":"present","rt":"1269","correct":true,"confidence":-1},{"trial_n":17,"span":15,"encoder":"466649011117494","distractor":"466649011112494","target":"present","response":"absent","rt":"1487","correct":false,"confidence":-1},{"trial_n":18,"span":14,"encoder":"56628069581391","distractor":"56628069581381","target":"absent","response":"present","rt":"706","correct":false,"confidence":-1},{"trial_n":19,"span":13,"encoder":"5683115759826","distractor":"5683115749826","target":"present","response":"absent","rt":"1975","correct":false,"confidence":-1},{"trial_n":20,"span":12,"encoder":"277603232072","distractor":"077603232072","target":"present","response":"present","rt":"1388","correct":true,"confidence":-1},{"trial_n":21,"span":12,"encoder":"244564030523","distractor":"244564030525","target":"present","response":"present","rt":"2625","correct":true,"confidence":3},{"trial_n":22,"span":13,"encoder":"7674336868983","distractor":"7674336668983","target":"present","response":"present","rt":"3571","correct":true,"confidence":4},{"trial_n":23,"span":13,"encoder":"6102518569455","distractor":"6102518561455","target":"present","response":"absent","rt":"1960","correct":false,"confidence":3},{"trial_n":24,"span":12,"encoder":"604658448872","distractor":"634658448872","target":"present","response":"present","rt":"1255","correct":true,"confidence":2},{"trial_n":25,"span":12,"encoder":"514311512026","distractor":"544311512026","target":"absent","response":"present","rt":"2296","correct":false,"confidence":4},{"trial_n":26,"span":11,"encoder":"47562313662","distractor":"47562313660","target":"absent","response":"absent","rt":"4547","correct":true,"confidence":5},{"trial_n":27,"span":11,"encoder":"21591567952","distractor":"91591567952","target":"absent","response":"present","rt":"3532.9999999999","correct":false,"confidence":3},{"trial_n":28,"span":10,"encoder":"7375163779","distractor":"7375663779","target":"present","response":"absent","rt":"2737","correct":false,"confidence":1},{"trial_n":29,"span":9,"encoder":"307601292","distractor":"307601592","target":"present","response":"present","rt":"1351","correct":true,"confidence":3},{"trial_n":30,"span":9,"encoder":"586150327","distractor":"586150317","target":"absent","response":"present","rt":"3301","correct":false,"confidence":2},{"trial_n":31,"span":8,"encoder":"14292384","distractor":"17292384","target":"present","response":"absent","rt":"2806","correct":false,"confidence":2},{"trial_n":32,"span":7,"encoder":"5424147","distractor":"5424117","target":"absent","response":"absent","rt":"2016","correct":true,"confidence":3},{"trial_n":33,"span":7,"encoder":"2371164","distractor":"2373164","target":"present","response":"present","rt":"1844","correct":true,"confidence":4},{"trial_n":34,"span":8,"encoder":"80602489","distractor":"80602479","target":"absent","response":"present","rt":"2653","correct":false,"confidence":4},{"trial_n":35,"span":7,"encoder":"1430694","distractor":"1430697","target":"present","response":"present","rt":"2476","correct":true,"confidence":3},{"trial_n":36,"span":7,"encoder":"5622732","distractor":"5622762","target":"absent","response":"absent","rt":"2341","correct":true,"confidence":4},{"trial_n":37,"span":8,"encoder":"44495580","distractor":"47495580","target":"absent","response":"present","rt":"2547","correct":false,"confidence":2},{"trial_n":38,"span":7,"encoder":"6398952","distractor":"6397952","target":"absent","response":"present","rt":"2260","correct":false,"confidence":4},{"trial_n":39,"span":6,"encoder":"455224","distractor":"455294","target":"present","response":"present","rt":"1692","correct":true,"confidence":5},{"trial_n":40,"span":6,"encoder":"948152","distractor":"048152","target":"absent","response":"present","rt":"2718","correct":false,"confidence":3},{"trial_n":41,"span":5,"encoder":"15976","distractor":"17976","target":"absent","response":"present","rt":"2316","correct":false,"confidence":3},{"trial_n":42,"span":4,"encoder":"5773","distractor":"4773","target":"absent","response":"present","rt":"2011","correct":false,"confidence":4},{"trial_n":43,"span":3,"encoder":"297","distractor":"797","target":"absent","response":"absent","rt":"1621.9999999999","correct":true,"confidence":5},{"trial_n":44,"span":3,"encoder":"523","distractor":"573","target":"present","response":"present","rt":"1071","correct":true,"confidence":5},{"trial_n":45,"span":4,"encoder":"5268","distractor":"5208","target":"absent","response":"absent","rt":"1219","correct":true,"confidence":5},{"trial_n":46,"span":4,"encoder":"4116","distractor":"4316","target":"present","response":"present","rt":"843","correct":true,"confidence":5},{"trial_n":47,"span":5,"encoder":"43092","distractor":"43096","target":"absent","response":"absent","rt":"1982","correct":true,"confidence":5},{"trial_n":48,"span":5,"encoder":"72483","distractor":"72453","target":"absent","response":"absent","rt":"1464","correct":true,"confidence":5},{"trial_n":49,"span":6,"encoder":"246301","distractor":"246001","target":"present","response":"present","rt":"1216","correct":true,"confidence":5},{"trial_n":50,"span":6,"encoder":"556429","distractor":"056429","target":"absent","response":"present","rt":"1721","correct":false,"confidence":3},{"trial_n":51,"span":5,"encoder":"19752","distractor":"19712","target":"present","response":"present","rt":"1226","correct":true,"confidence":5},{"trial_n":52,"span":5,"encoder":"51457","distractor":"51057","target":"present","response":"present","rt":"1092","correct":true,"confidence":5},{"trial_n":53,"span":6,"encoder":"396975","distractor":"394975","target":"absent","response":"absent","rt":"1751","correct":true,"confidence":5},{"trial_n":54,"span":6,"encoder":"343370","distractor":"143370","target":"present","response":"present","rt":"2640","correct":true,"confidence":4},{"trial_n":55,"span":7,"encoder":"6357041","distractor":"6327041","target":"present","response":"absent","rt":"3502","correct":false,"confidence":3},{"trial_n":56,"span":6,"encoder":"973032","distractor":"972032","target":"absent","response":"absent","rt":"1929","correct":true,"confidence":4},{"trial_n":57,"span":6,"encoder":"786894","distractor":"784894","target":"absent","response":"absent","rt":"1903","correct":true,"confidence":5},{"trial_n":58,"span":7,"encoder":"9323256","distractor":"9322256","target":"present","response":"present","rt":"1550","correct":true,"confidence":4},{"trial_n":59,"span":7,"encoder":"4481071","distractor":"4781071","target":"present","response":"present","rt":"1875","correct":true,"confidence":5},{"trial_n":60,"span":8,"encoder":"83908555","distractor":"87908555","target":"present","response":"present","rt":"2955","correct":true,"confidence":5},{"trial_n":61,"span":8,"encoder":"22966980","distractor":"22956980","target":"present","response":"present","rt":"1348","correct":true,"confidence":4},{"trial_n":62,"span":9,"encoder":"911387047","distractor":"911387007","target":"present","response":"present","rt":"1773.0000000001","correct":true,"confidence":3},{"trial_n":63,"span":9,"encoder":"378641272","distractor":"378641252","target":"present","response":"present","rt":"2593.0000000001","correct":true,"confidence":4},{"trial_n":64,"span":10,"encoder":"1864146091","distractor":"1874146091","target":"present","response":"present","rt":"1294","correct":true,"confidence":3},{"trial_n":65,"span":10,"encoder":"3715158435","distractor":"3711158435","target":"absent","response":"absent","rt":"1816.0000000001","correct":true,"confidence":5},{"trial_n":66,"span":11,"encoder":"25973341999","distractor":"25973341996","target":"absent","response":"absent","rt":"1483","correct":true,"confidence":5},{"trial_n":67,"span":11,"encoder":"16608148659","distractor":"16608148653","target":"present","response":"present","rt":"1510","correct":true,"confidence":4},{"trial_n":68,"span":12,"encoder":"060224936697","distractor":"060224936657","target":"absent","response":"absent","rt":"3376.9999999999","correct":true,"confidence":3},{"trial_n":69,"span":12,"encoder":"826005012967","distractor":"826505012967","target":"absent","response":"present","rt":"2108","correct":false,"confidence":4},{"trial_n":70,"span":11,"encoder":"52875485216","distractor":"92875485216","target":"present","response":"present","rt":"1416","correct":true,"confidence":4},{"trial_n":71,"span":8,"encoder":"99278192","distractor":"99178192","target":"present","response":"absent","rt":"8206","correct":false,"confidence":-1},{"trial_n":72,"span":7,"encoder":"9467290","distractor":"9463290","target":"present","response":"present","rt":"1765","correct":true,"confidence":-1},{"trial_n":73,"span":7,"encoder":"6612097","distractor":"6692097","target":"absent","response":"absent","rt":"1681","correct":true,"confidence":-1},{"trial_n":74,"span":8,"encoder":"13380563","distractor":"13386563","target":"absent","response":"present","rt":"3470","correct":false,"confidence":-1},{"trial_n":75,"span":7,"encoder":"6230804","distractor":"6230004","target":"present","response":"present","rt":"2341","correct":true,"confidence":-1},{"trial_n":76,"span":7,"encoder":"0538973","distractor":"0538975","target":"absent","response":"absent","rt":"1999","correct":true,"confidence":-1},{"trial_n":77,"span":8,"encoder":"70814395","distractor":"70114395","target":"present","response":"absent","rt":"4248","correct":false,"confidence":-1},{"trial_n":78,"span":7,"encoder":"7368758","distractor":"7268758","target":"present","response":"present","rt":"5888","correct":true,"confidence":-1},{"trial_n":79,"span":7,"encoder":"1446581","distractor":"1466581","target":"present","response":"absent","rt":"1706","correct":false,"confidence":-1},{"trial_n":80,"span":6,"encoder":"442590","distractor":"442580","target":"present","response":"present","rt":"2479","correct":true,"confidence":-1},{"trial_n":81,"span":6,"encoder":"293993","distractor":"293293","target":"present","response":"present","rt":"3577","correct":true,"confidence":-1},{"trial_n":82,"span":7,"encoder":"4300478","distractor":"4300438","target":"absent","response":"absent","rt":"1140","correct":true,"confidence":-1},{"trial_n":83,"span":7,"encoder":"3008424","distractor":"3008474","target":"present","response":"present","rt":"1199","correct":true,"confidence":-1},{"trial_n":84,"span":8,"encoder":"12255132","distractor":"12255032","target":"absent","response":"absent","rt":"1454","correct":true,"confidence":-1},{"trial_n":85,"span":8,"encoder":"14935914","distractor":"14915914","target":"absent","response":"present","rt":"3011","correct":false,"confidence":-1},{"trial_n":86,"span":7,"encoder":"7740903","distractor":"7742903","target":"absent","response":"absent","rt":"1115","correct":true,"confidence":-1},{"trial_n":87,"span":7,"encoder":"9254249","distractor":"9254240","target":"present","response":"present","rt":"2491","correct":true,"confidence":-1},{"trial_n":88,"span":8,"encoder":"41269959","distractor":"91269959","target":"present","response":"absent","rt":"2837.9999999999","correct":false,"confidence":-1},{"trial_n":89,"span":7,"encoder":"5603031","distractor":"5603051","target":"present","response":"present","rt":"1756","correct":true,"confidence":-1},{"trial_n":90,"span":7,"encoder":"4085523","distractor":"4085223","target":"present","response":"absent","rt":"1292","correct":false,"confidence":-1},{"trial_n":91,"span":6,"encoder":"417289","distractor":"117289","target":"present","response":"present","rt":"2963.0000000001","correct":true,"confidence":5},{"trial_n":92,"span":6,"encoder":"959961","distractor":"559961","target":"absent","response":"absent","rt":"1464","correct":true,"confidence":5},{"trial_n":93,"span":7,"encoder":"9984307","distractor":"9984607","target":"absent","response":"absent","rt":"2379","correct":true,"confidence":5},{"trial_n":94,"span":7,"encoder":"4207638","distractor":"4207608","target":"absent","response":"absent","rt":"2556","correct":true,"confidence":4},{"trial_n":95,"span":8,"encoder":"99196710","distractor":"99596710","target":"absent","response":"absent","rt":"2753","correct":true,"confidence":5},{"trial_n":96,"span":8,"encoder":"29622246","distractor":"89622246","target":"absent","response":"absent","rt":"3230.0000000001","correct":true,"confidence":5},{"trial_n":97,"span":9,"encoder":"632782545","distractor":"632786545","target":"absent","response":"present","rt":"7392","correct":false,"confidence":1},{"trial_n":98,"span":8,"encoder":"17431558","distractor":"17439558","target":"absent","response":"absent","rt":"3337","correct":true,"confidence":4},{"trial_n":99,"span":8,"encoder":"96853604","distractor":"96853694","target":"absent","response":"present","rt":"5687","correct":false,"confidence":2},{"trial_n":100,"span":7,"encoder":"3022877","distractor":"3020877","target":"present","response":"absent","rt":"3607.9999999999","correct":false,"confidence":1},{"trial_n":101,"span":6,"encoder":"541253","distractor":"591253","target":"present","response":"present","rt":"2821","correct":true,"confidence":4},{"trial_n":102,"span":6,"encoder":"925382","distractor":"925383","target":"absent","response":"absent","rt":"4118","correct":true,"confidence":2},{"trial_n":103,"span":7,"encoder":"1445802","distractor":"1440802","target":"present","response":"present","rt":"1907.0000000001","correct":true,"confidence":5},{"trial_n":104,"span":7,"encoder":"7542697","distractor":"7542677","target":"absent","response":"present","rt":"3349","correct":false,"confidence":1},{"trial_n":105,"span":6,"encoder":"716039","distractor":"916039","target":"present","response":"present","rt":"2336.0000000001","correct":true,"confidence":5},{"trial_n":106,"span":6,"encoder":"915338","distractor":"915358","target":"absent","response":"present","rt":"3654.9999999999","correct":false,"confidence":2},{"trial_n":107,"span":5,"encoder":"11993","distractor":"16993","target":"present","response":"present","rt":"2105","correct":true,"confidence":5},{"trial_n":108,"span":5,"encoder":"63920","distractor":"63926","target":"absent","response":"absent","rt":"2366","correct":true,"confidence":5},{"trial_n":109,"span":6,"encoder":"379175","distractor":"377175","target":"absent","response":"absent","rt":"1798","correct":true,"confidence":4},{"trial_n":110,"span":6,"encoder":"669538","distractor":"669338","target":"absent","response":"absent","rt":"1660.0000000001","correct":true,"confidence":5},{"trial_n":111,"span":7,"encoder":"6474721","distractor":"6434721","target":"present","response":"present","rt":"1803.9999999999","correct":true,"confidence":1},{"trial_n":112,"span":7,"encoder":"2458687","distractor":"2858687","target":"absent","response":"absent","rt":"1567","correct":true,"confidence":5},{"trial_n":113,"span":8,"encoder":"79617760","distractor":"79615760","target":"present","response":"present","rt":"2412","correct":true,"confidence":5},{"trial_n":114,"span":8,"encoder":"84054071","distractor":"83054071","target":"absent","response":"absent","rt":"1415","correct":true,"confidence":5},{"trial_n":115,"span":9,"encoder":"719184423","distractor":"519184423","target":"present","response":"present","rt":"1307","correct":true,"confidence":5},{"trial_n":116,"span":9,"encoder":"443908247","distractor":"443908287","target":"present","response":"present","rt":"6474","correct":true,"confidence":1},{"trial_n":117,"span":10,"encoder":"9385218359","distractor":"9485218359","target":"absent","response":"absent","rt":"2757.0000000001","correct":true,"confidence":3},{"trial_n":118,"span":10,"encoder":"7242310096","distractor":"0242310096","target":"absent","response":"absent","rt":"1528.0000000001","correct":true,"confidence":5},{"trial_n":119,"span":11,"encoder":"84615323240","distractor":"84615353240","target":"present","response":"present","rt":"2168","correct":true,"confidence":3},{"trial_n":120,"span":11,"encoder":"80062206959","distractor":"80062206949","target":"present","response":"present","rt":"4270","correct":true,"confidence":1},{"trial_n":121,"span":12,"encoder":"255467657901","distractor":"295467657901","target":"absent","response":"absent","rt":"2090.0000000002","correct":true,"confidence":3},{"trial_n":122,"span":12,"encoder":"710760740064","distractor":"710760746064","target":"absent","response":"present","rt":"6089.9999999998","correct":false,"confidence":1},{"trial_n":123,"span":11,"encoder":"41579660954","distractor":"41579660964","target":"absent","response":"absent","rt":"1772","correct":true,"confidence":5},{"trial_n":124,"span":11,"encoder":"34655235850","distractor":"34655285850","target":"present","response":"absent","rt":"5758","correct":false,"confidence":2},{"trial_n":125,"span":10,"encoder":"7291102709","distractor":"2291102709","target":"absent","response":"absent","rt":"1660","correct":true,"confidence":3},{"trial_n":126,"span":10,"encoder":"7116225548","distractor":"7116226548","target":"present","response":"present","rt":"5729","correct":true,"confidence":2},{"trial_n":127,"span":11,"encoder":"16716631948","distractor":"16716031948","target":"present","response":"absent","rt":"5223","correct":false,"confidence":2},{"trial_n":128,"span":10,"encoder":"2052500609","distractor":"2072500609","target":"absent","response":"present","rt":"2002","correct":false,"confidence":1},{"trial_n":129,"span":9,"encoder":"723548886","distractor":"723578886","target":"present","response":"present","rt":"1684","correct":true,"confidence":1},{"trial_n":130,"span":9,"encoder":"883114627","distractor":"883114626","target":"present","response":"present","rt":"1534.0000000002","correct":true,"confidence":5},{"trial_n":131,"span":10,"encoder":"9163876235","distractor":"9163846235","target":"absent","response":"present","rt":"4273","correct":false,"confidence":2},{"trial_n":132,"span":9,"encoder":"768143479","distractor":"768143379","target":"present","response":"present","rt":"1986","correct":true,"confidence":3},{"trial_n":133,"span":9,"encoder":"696520330","distractor":"699520330","target":"present","response":"present","rt":"3175","correct":true,"confidence":1},{"trial_n":134,"span":10,"encoder":"4511621653","distractor":"6511621653","target":"absent","response":"present","rt":"2331","correct":false,"confidence":1},{"trial_n":135,"span":9,"encoder":"414453097","distractor":"444453097","target":"absent","response":"absent","rt":"2620","correct":true,"confidence":3},{"trial_n":136,"span":9,"encoder":"385984867","distractor":"385984860","target":"present","response":"present","rt":"1533.0000000002","correct":true,"confidence":4},{"trial_n":137,"span":10,"encoder":"7274230156","distractor":"1274230156","target":"present","response":"present","rt":"1363.9999999998","correct":true,"confidence":5},{"trial_n":138,"span":10,"encoder":"8309065766","distractor":"8309065266","target":"present","response":"absent","rt":"5285.9999999998","correct":false,"confidence":2},{"trial_n":139,"span":9,"encoder":"565662540","distractor":"555662540","target":"present","response":"present","rt":"2893.0000000002","correct":true,"confidence":2},{"trial_n":140,"span":9,"encoder":"536912632","distractor":"636912632","target":"absent","response":"present","rt":"2801","correct":false,"confidence":2}]