[{"trial_n":1,"min":25,"max":230,"target":"present","response":"present","rt":7205.8000000119,"correct":true,"confidence":-1},{"trial_n":2,"min":25,"max":230,"target":"present","response":"present","rt":4414.6999999881,"correct":true,"confidence":-1},{"trial_n":3,"min":41,"max":214,"target":"absent","response":"absent","rt":1582.3000000119,"correct":true,"confidence":-1},{"trial_n":4,"min":41,"max":214,"target":"absent","response":"absent","rt":637.19999998808,"correct":true,"confidence":-1},{"trial_n":5,"min":57,"max":198,"target":"present","response":"present","rt":1167.8000000119,"correct":true,"confidence":-1},{"trial_n":6,"min":57,"max":198,"target":"present","response":"present","rt":1820.5,"correct":true,"confidence":-1},{"trial_n":7,"min":73,"max":182,"target":"present","response":"absent","rt":1504.599999994,"correct":false,"confidence":-1},{"trial_n":8,"min":57,"max":198,"target":"present","response":"present","rt":1428.5,"correct":true,"confidence":-1},{"trial_n":9,"min":57,"max":198,"target":"present","response":"present","rt":1055.7000000179,"correct":true,"confidence":-1},{"trial_n":10,"min":73,"max":182,"target":"absent","response":"absent","rt":1052.1999999881,"correct":true,"confidence":-1},{"trial_n":11,"min":73,"max":182,"target":"absent","response":"absent","rt":1130.1999999881,"correct":true,"confidence":-1},{"trial_n":12,"min":81,"max":174,"target":"absent","response":"absent","rt":1129.400000006,"correct":true,"confidence":-1},{"trial_n":13,"min":81,"max":174,"target":"present","response":"present","rt":1532.900000006,"correct":true,"confidence":-1},{"trial_n":14,"min":89,"max":166,"target":"present","response":"present","rt":1396.7000000179,"correct":true,"confidence":-1},{"trial_n":15,"min":89,"max":166,"target":"present","response":"absent","rt":1086.7000000179,"correct":false,"confidence":-1},{"trial_n":16,"min":81,"max":174,"target":"present","response":"present","rt":1181.8999999762,"correct":true,"confidence":-1},{"trial_n":17,"min":81,"max":174,"target":"absent","response":"absent","rt":1741.5,"correct":true,"confidence":-1},{"trial_n":18,"min":89,"max":166,"target":"present","response":"present","rt":2268.5,"correct":true,"confidence":-1},{"trial_n":19,"min":89,"max":166,"target":"absent","response":"absent","rt":3071,"correct":true,"confidence":-1},{"trial_n":20,"min":97,"max":158,"target":"present","response":"present","rt":1400.900000006,"correct":true,"confidence":-1},{"trial_n":21,"min":97,"max":158,"target":"absent","response":"absent","rt":1342.7000000179,"correct":true,"confidence":4},{"trial_n":22,"min":101,"max":154,"target":"absent","response":"present","rt":3665.1000000238,"correct":false,"confidence":2},{"trial_n":23,"min":97,"max":158,"target":"absent","response":"present","rt":3789.400000006,"correct":false,"confidence":2},{"trial_n":24,"min":93,"max":162,"target":"absent","response":"present","rt":2584.6999999881,"correct":false,"confidence":3},{"trial_n":25,"min":89,"max":166,"target":"present","response":"absent","rt":1174,"correct":false,"confidence":5},{"trial_n":26,"min":85,"max":170,"target":"absent","response":"absent","rt":1115.8999999762,"correct":true,"confidence":4},{"trial_n":27,"min":85,"max":170,"target":"present","response":"absent","rt":1250.1000000238,"correct":false,"confidence":4},{"trial_n":28,"min":81,"max":174,"target":"present","response":"absent","rt":1204.900000006,"correct":false,"confidence":4},{"trial_n":29,"min":77,"max":178,"target":"present","response":"present","rt":1064.7000000179,"correct":true,"confidence":4},{"trial_n":30,"min":77,"max":178,"target":"present","response":"present","rt":983.79999998212,"correct":true,"confidence":5},{"trial_n":31,"min":79,"max":176,"target":"absent","response":"present","rt":2721.5,"correct":false,"confidence":2},{"trial_n":32,"min":77,"max":178,"target":"absent","response":"present","rt":2071.5,"correct":false,"confidence":2},{"trial_n":33,"min":75,"max":180,"target":"absent","response":"absent","rt":925,"correct":true,"confidence":5},{"trial_n":34,"min":75,"max":180,"target":"absent","response":"absent","rt":738.5,"correct":true,"confidence":5},{"trial_n":35,"min":77,"max":178,"target":"present","response":"present","rt":3944.099999994,"correct":true,"confidence":2},{"trial_n":36,"min":77,"max":178,"target":"absent","response":"absent","rt":829,"correct":true,"confidence":5},{"trial_n":37,"min":79,"max":176,"target":"absent","response":"absent","rt":796.19999998808,"correct":true,"confidence":5},{"trial_n":38,"min":79,"max":176,"target":"present","response":"absent","rt":765.90000000596,"correct":false,"confidence":5},{"trial_n":39,"min":77,"max":178,"target":"absent","response":"absent","rt":609.90000000596,"correct":true,"confidence":5},{"trial_n":40,"min":77,"max":178,"target":"absent","response":"absent","rt":493.19999998808,"correct":true,"confidence":5},{"trial_n":41,"min":78,"max":177,"target":"absent","response":"absent","rt":689.19999998808,"correct":true,"confidence":5},{"trial_n":42,"min":78,"max":177,"target":"absent","response":"absent","rt":599.90000000596,"correct":true,"confidence":5},{"trial_n":43,"min":79,"max":176,"target":"present","response":"absent","rt":496.19999998808,"correct":false,"confidence":5},{"trial_n":44,"min":78,"max":177,"target":"absent","response":"absent","rt":354.40000000596,"correct":true,"confidence":5},{"trial_n":45,"min":78,"max":177,"target":"absent","response":"absent","rt":382.90000000596,"correct":true,"confidence":5},{"trial_n":46,"min":79,"max":176,"target":"present","response":"present","rt":787.20000001788,"correct":true,"confidence":5},{"trial_n":47,"min":79,"max":176,"target":"present","response":"absent","rt":628.09999999404,"correct":false,"confidence":5},{"trial_n":48,"min":78,"max":177,"target":"absent","response":"absent","rt":566.30000001192,"correct":true,"confidence":5},{"trial_n":49,"min":78,"max":177,"target":"present","response":"present","rt":801.69999998808,"correct":true,"confidence":5},{"trial_n":50,"min":79,"max":176,"target":"present","response":"present","rt":1489.400000006,"correct":true,"confidence":3},{"trial_n":51,"min":79,"max":176,"target":"present","response":"absent","rt":631.5,"correct":false,"confidence":5},{"trial_n":52,"min":78,"max":177,"target":"present","response":"absent","rt":1778.400000006,"correct":false,"confidence":2},{"trial_n":53,"min":77,"max":178,"target":"absent","response":"absent","rt":427.5,"correct":true,"confidence":5},{"trial_n":54,"min":77,"max":178,"target":"absent","response":"absent","rt":337.69999998808,"correct":true,"confidence":5},{"trial_n":55,"min":78,"max":177,"target":"absent","response":"absent","rt":374.20000001788,"correct":true,"confidence":5},{"trial_n":56,"min":78,"max":177,"target":"present","response":"absent","rt":398.29999998212,"correct":false,"confidence":4},{"trial_n":57,"min":77,"max":178,"target":"absent","response":"absent","rt":417.59999999404,"correct":true,"confidence":5},{"trial_n":58,"min":77,"max":178,"target":"absent","response":"absent","rt":303.90000000596,"correct":true,"confidence":5},{"trial_n":59,"min":78,"max":177,"target":"present","response":"present","rt":2287.099999994,"correct":true,"confidence":2},{"trial_n":60,"min":78,"max":177,"target":"present","response":"absent","rt":1243.1999999881,"correct":false,"confidence":5},{"trial_n":61,"min":77,"max":178,"target":"absent","response":"absent","rt":350.59999999404,"correct":true,"confidence":5},{"trial_n":62,"min":77,"max":178,"target":"present","response":"present","rt":1665.900000006,"correct":true,"confidence":2},{"trial_n":63,"min":78,"max":177,"target":"absent","response":"absent","rt":768.79999998212,"correct":true,"confidence":5},{"trial_n":64,"min":78,"max":177,"target":"present","response":"present","rt":926.09999999404,"correct":true,"confidence":2},{"trial_n":65,"min":79,"max":176,"target":"absent","response":"absent","rt":656.30000001192,"correct":true,"confidence":5},{"trial_n":66,"min":79,"max":176,"target":"present","response":"present","rt":773,"correct":true,"confidence":5},{"trial_n":67,"min":80,"max":175,"target":"present","response":"present","rt":733.59999999404,"correct":true,"confidence":5},{"trial_n":68,"min":80,"max":175,"target":"absent","response":"absent","rt":610.29999998212,"correct":true,"confidence":5},{"trial_n":69,"min":81,"max":174,"target":"present","response":"absent","rt":2921.6999999881,"correct":false,"confidence":3},{"trial_n":70,"min":80,"max":175,"target":"present","response":"present","rt":580.40000000596,"correct":true,"confidence":5},{"trial_n":71,"min":41,"max":214,"target":"present","response":"present","rt":1590.2999999821,"correct":true,"confidence":-1},{"trial_n":72,"min":41,"max":214,"target":"present","response":"present","rt":799.20000001788,"correct":true,"confidence":-1},{"trial_n":73,"min":57,"max":198,"target":"absent","response":"absent","rt":568.80000001192,"correct":true,"confidence":-1},{"trial_n":74,"min":57,"max":198,"target":"absent","response":"absent","rt":502.59999999404,"correct":true,"confidence":-1},{"trial_n":75,"min":73,"max":182,"target":"present","response":"present","rt":1359,"correct":true,"confidence":-1},{"trial_n":76,"min":73,"max":182,"target":"present","response":"present","rt":1983,"correct":true,"confidence":-1},{"trial_n":77,"min":89,"max":166,"target":"present","response":"present","rt":442.69999998808,"correct":true,"confidence":-1},{"trial_n":78,"min":89,"max":166,"target":"present","response":"present","rt":772.5,"correct":true,"confidence":-1},{"trial_n":79,"min":105,"max":150,"target":"present","response":"present","rt":438.69999998808,"correct":true,"confidence":-1},{"trial_n":80,"min":105,"max":150,"target":"present","response":"present","rt":748.5,"correct":true,"confidence":-1},{"trial_n":81,"min":113,"max":142,"target":"absent","response":"present","rt":952.79999998212,"correct":false,"confidence":-1},{"trial_n":82,"min":105,"max":150,"target":"present","response":"present","rt":393.5,"correct":true,"confidence":-1},{"trial_n":83,"min":105,"max":150,"target":"present","response":"absent","rt":752.60000002384,"correct":false,"confidence":-1},{"trial_n":84,"min":97,"max":158,"target":"absent","response":"absent","rt":849.5,"correct":true,"confidence":-1},{"trial_n":85,"min":97,"max":158,"target":"present","response":"present","rt":963.69999998808,"correct":true,"confidence":-1},{"trial_n":86,"min":105,"max":150,"target":"absent","response":"present","rt":678.59999999404,"correct":false,"confidence":-1},{"trial_n":87,"min":97,"max":158,"target":"present","response":"absent","rt":1412.6999999881,"correct":false,"confidence":-1},{"trial_n":88,"min":89,"max":166,"target":"present","response":"present","rt":373.19999998808,"correct":true,"confidence":-1},{"trial_n":89,"min":89,"max":166,"target":"present","response":"present","rt":345.29999998212,"correct":true,"confidence":-1},{"trial_n":90,"min":97,"max":158,"target":"present","response":"present","rt":1041.400000006,"correct":true,"confidence":-1},{"trial_n":91,"min":97,"max":158,"target":"present","response":"present","rt":3135.3999999762,"correct":true,"confidence":2},{"trial_n":92,"min":101,"max":154,"target":"absent","response":"present","rt":999.59999999404,"correct":false,"confidence":2},{"trial_n":93,"min":97,"max":158,"target":"present","response":"present","rt":543.80000001192,"correct":true,"confidence":5},{"trial_n":94,"min":97,"max":158,"target":"absent","response":"present","rt":578.40000000596,"correct":false,"confidence":4},{"trial_n":95,"min":93,"max":162,"target":"present","response":"present","rt":733.90000000596,"correct":true,"confidence":2},{"trial_n":96,"min":93,"max":162,"target":"absent","response":"present","rt":570.60000002384,"correct":false,"confidence":3},{"trial_n":97,"min":89,"max":166,"target":"present","response":"present","rt":1665.400000006,"correct":true,"confidence":1},{"trial_n":98,"min":89,"max":166,"target":"present","response":"present","rt":1470.2999999821,"correct":true,"confidence":1},{"trial_n":99,"min":93,"max":162,"target":"absent","response":"present","rt":919.80000001192,"correct":false,"confidence":1},{"trial_n":100,"min":89,"max":166,"target":"present","response":"absent","rt":1013.099999994,"correct":false,"confidence":1},{"trial_n":101,"min":87,"max":168,"target":"present","response":"present","rt":502.90000000596,"correct":true,"confidence":5},{"trial_n":102,"min":87,"max":168,"target":"absent","response":"present","rt":661.19999998808,"correct":false,"confidence":4},{"trial_n":103,"min":85,"max":170,"target":"absent","response":"absent","rt":1039.3000000119,"correct":true,"confidence":5},{"trial_n":104,"min":85,"max":170,"target":"absent","response":"absent","rt":1426.5,"correct":true,"confidence":3},{"trial_n":105,"min":87,"max":168,"target":"absent","response":"present","rt":898,"correct":false,"confidence":2},{"trial_n":106,"min":85,"max":170,"target":"absent","response":"present","rt":1018.8000000119,"correct":false,"confidence":2},{"trial_n":107,"min":83,"max":172,"target":"absent","response":"absent","rt":760.70000001788,"correct":true,"confidence":5},{"trial_n":108,"min":83,"max":172,"target":"absent","response":"absent","rt":1298.099999994,"correct":true,"confidence":2},{"trial_n":109,"min":85,"max":170,"target":"absent","response":"absent","rt":908.70000001788,"correct":true,"confidence":5},{"trial_n":110,"min":85,"max":170,"target":"absent","response":"present","rt":1697.900000006,"correct":false,"confidence":1},{"trial_n":111,"min":84,"max":171,"target":"present","response":"present","rt":590.5,"correct":true,"confidence":5},{"trial_n":112,"min":84,"max":171,"target":"present","response":"present","rt":2304.3000000119,"correct":true,"confidence":5},{"trial_n":113,"min":85,"max":170,"target":"absent","response":"absent","rt":1710.900000006,"correct":true,"confidence":3},{"trial_n":114,"min":85,"max":170,"target":"absent","response":"absent","rt":1299.900000006,"correct":true,"confidence":1},{"trial_n":115,"min":86,"max":169,"target":"absent","response":"present","rt":445.39999997616,"correct":false,"confidence":4},{"trial_n":116,"min":85,"max":170,"target":"absent","response":"absent","rt":898.39999997616,"correct":true,"confidence":4},{"trial_n":117,"min":85,"max":170,"target":"present","response":"present","rt":926.79999998212,"correct":true,"confidence":5},{"trial_n":118,"min":86,"max":169,"target":"present","response":"present","rt":781.70000001788,"correct":true,"confidence":5},{"trial_n":119,"min":86,"max":169,"target":"absent","response":"absent","rt":2995.6999999881,"correct":true,"confidence":3},{"trial_n":120,"min":87,"max":168,"target":"present","response":"present","rt":1184.5,"correct":true,"confidence":3},{"trial_n":121,"min":87,"max":168,"target":"absent","response":"absent","rt":1568.7999999821,"correct":true,"confidence":4},{"trial_n":122,"min":88,"max":167,"target":"present","response":"absent","rt":928.20000001788,"correct":false,"confidence":1},{"trial_n":123,"min":87,"max":168,"target":"present","response":"present","rt":1391.099999994,"correct":true,"confidence":2},{"trial_n":124,"min":87,"max":168,"target":"absent","response":"absent","rt":892.79999998212,"correct":true,"confidence":3},{"trial_n":125,"min":88,"max":167,"target":"absent","response":"absent","rt":1085.5,"correct":true,"confidence":2},{"trial_n":126,"min":88,"max":167,"target":"present","response":"present","rt":538,"correct":true,"confidence":3},{"trial_n":127,"min":89,"max":166,"target":"present","response":"present","rt":612,"correct":true,"confidence":4},{"trial_n":128,"min":89,"max":166,"target":"absent","response":"present","rt":685,"correct":false,"confidence":4},{"trial_n":129,"min":88,"max":167,"target":"absent","response":"present","rt":743.19999998808,"correct":false,"confidence":4},{"trial_n":130,"min":87,"max":168,"target":"absent","response":"present","rt":1018.3999999762,"correct":false,"confidence":1},{"trial_n":131,"min":86,"max":169,"target":"present","response":"present","rt":1013.3999999762,"correct":true,"confidence":1},{"trial_n":132,"min":86,"max":169,"target":"present","response":"present","rt":655.59999999404,"correct":true,"confidence":4},{"trial_n":133,"min":87,"max":168,"target":"absent","response":"present","rt":1479.599999994,"correct":false,"confidence":1},{"trial_n":134,"min":86,"max":169,"target":"absent","response":"absent","rt":1461.1999999881,"correct":true,"confidence":2},{"trial_n":135,"min":86,"max":169,"target":"present","response":"present","rt":841.40000000596,"correct":true,"confidence":4},{"trial_n":136,"min":87,"max":168,"target":"absent","response":"present","rt":708.59999999404,"correct":false,"confidence":4},{"trial_n":137,"min":86,"max":169,"target":"present","response":"present","rt":769.5,"correct":true,"confidence":1},{"trial_n":138,"min":86,"max":169,"target":"absent","response":"present","rt":785.90000000596,"correct":false,"confidence":1},{"trial_n":139,"min":85,"max":170,"target":"present","response":"present","rt":577.40000000596,"correct":true,"confidence":5},{"trial_n":140,"min":85,"max":170,"target":"absent","response":"absent","rt":994.59999999404,"correct":true,"confidence":2}]