[{"trial_n":1,"min":25,"max":230,"target":"present","response":"absent","rt":4226.7999999821,"correct":false,"confidence":-1},{"trial_n":2,"min":25,"max":230,"target":"present","response":"present","rt":4990.8000000119,"correct":true,"confidence":-1},{"trial_n":3,"min":25,"max":230,"target":"absent","response":"absent","rt":2409.2999999821,"correct":true,"confidence":-1},{"trial_n":4,"min":41,"max":214,"target":"absent","response":"absent","rt":732.09999999404,"correct":true,"confidence":-1},{"trial_n":5,"min":41,"max":214,"target":"present","response":"absent","rt":940,"correct":false,"confidence":-1},{"trial_n":6,"min":25,"max":230,"target":"absent","response":"absent","rt":1388,"correct":true,"confidence":-1},{"trial_n":7,"min":25,"max":230,"target":"absent","response":"present","rt":1610.3000000119,"correct":false,"confidence":-1},{"trial_n":8,"min":9,"max":246,"target":"absent","response":"absent","rt":2072,"correct":true,"confidence":-1},{"trial_n":9,"min":9,"max":246,"target":"absent","response":"absent","rt":662.5,"correct":true,"confidence":-1},{"trial_n":10,"min":25,"max":230,"target":"absent","response":"present","rt":1358.400000006,"correct":false,"confidence":-1},{"trial_n":11,"min":17,"max":238,"target":"present","response":"present","rt":1156.099999994,"correct":true,"confidence":-1},{"trial_n":12,"min":17,"max":238,"target":"present","response":"present","rt":676.89999997616,"correct":true,"confidence":-1},{"trial_n":13,"min":25,"max":230,"target":"absent","response":"present","rt":907.09999999404,"correct":false,"confidence":-1},{"trial_n":14,"min":17,"max":238,"target":"absent","response":"absent","rt":1216.6999999881,"correct":true,"confidence":-1},{"trial_n":15,"min":17,"max":238,"target":"absent","response":"absent","rt":607.29999998212,"correct":true,"confidence":-1},{"trial_n":16,"min":25,"max":230,"target":"present","response":"present","rt":756.19999998808,"correct":true,"confidence":-1},{"trial_n":17,"min":25,"max":230,"target":"absent","response":"absent","rt":540.79999998212,"correct":true,"confidence":-1},{"trial_n":18,"min":33,"max":222,"target":"absent","response":"absent","rt":302.70000001788,"correct":true,"confidence":-1},{"trial_n":19,"min":33,"max":222,"target":"absent","response":"absent","rt":274.5,"correct":true,"confidence":-1},{"trial_n":20,"min":41,"max":214,"target":"present","response":"present","rt":690.30000001192,"correct":true,"confidence":-1},{"trial_n":21,"min":41,"max":214,"target":"absent","response":"absent","rt":926.70000001788,"correct":true,"confidence":4},{"trial_n":22,"min":45,"max":210,"target":"absent","response":"absent","rt":963.30000001192,"correct":true,"confidence":4},{"trial_n":23,"min":45,"max":210,"target":"absent","response":"absent","rt":829,"correct":true,"confidence":4},{"trial_n":24,"min":49,"max":206,"target":"present","response":"present","rt":1127.8000000119,"correct":true,"confidence":5},{"trial_n":25,"min":49,"max":206,"target":"present","response":"present","rt":921.60000002384,"correct":true,"confidence":5},{"trial_n":26,"min":53,"max":202,"target":"present","response":"present","rt":1132.400000006,"correct":true,"confidence":5},{"trial_n":27,"min":53,"max":202,"target":"present","response":"present","rt":774.5,"correct":true,"confidence":5},{"trial_n":28,"min":57,"max":198,"target":"absent","response":"absent","rt":1383.1999999881,"correct":true,"confidence":4},{"trial_n":29,"min":57,"max":198,"target":"absent","response":"absent","rt":791.59999999404,"correct":true,"confidence":4},{"trial_n":30,"min":61,"max":194,"target":"present","response":"present","rt":745.40000000596,"correct":true,"confidence":5},{"trial_n":31,"min":61,"max":194,"target":"present","response":"present","rt":931.59999999404,"correct":true,"confidence":5},{"trial_n":32,"min":63,"max":192,"target":"present","response":"present","rt":708.90000000596,"correct":true,"confidence":5},{"trial_n":33,"min":63,"max":192,"target":"present","response":"present","rt":748.80000001192,"correct":true,"confidence":5},{"trial_n":34,"min":65,"max":190,"target":"present","response":"present","rt":593.59999999404,"correct":true,"confidence":5},{"trial_n":35,"min":65,"max":190,"target":"present","response":"present","rt":1035.2000000179,"correct":true,"confidence":5},{"trial_n":36,"min":67,"max":188,"target":"present","response":"absent","rt":671.5,"correct":false,"confidence":4},{"trial_n":37,"min":65,"max":190,"target":"absent","response":"absent","rt":862.20000001788,"correct":true,"confidence":5},{"trial_n":38,"min":65,"max":190,"target":"absent","response":"present","rt":864.79999998212,"correct":false,"confidence":3},{"trial_n":39,"min":63,"max":192,"target":"absent","response":"present","rt":976.40000000596,"correct":false,"confidence":4},{"trial_n":40,"min":61,"max":194,"target":"present","response":"present","rt":817.90000000596,"correct":true,"confidence":3},{"trial_n":41,"min":61,"max":194,"target":"absent","response":"absent","rt":720.89999997616,"correct":true,"confidence":5},{"trial_n":42,"min":62,"max":193,"target":"absent","response":"absent","rt":485.70000001788,"correct":true,"confidence":5},{"trial_n":43,"min":62,"max":193,"target":"absent","response":"present","rt":937.59999999404,"correct":false,"confidence":3},{"trial_n":44,"min":61,"max":194,"target":"absent","response":"absent","rt":509.5,"correct":true,"confidence":5},{"trial_n":45,"min":61,"max":194,"target":"absent","response":"present","rt":724.39999997616,"correct":false,"confidence":3},{"trial_n":46,"min":60,"max":195,"target":"present","response":"present","rt":985.29999998212,"correct":true,"confidence":5},{"trial_n":47,"min":60,"max":195,"target":"absent","response":"absent","rt":728.5,"correct":true,"confidence":5},{"trial_n":48,"min":61,"max":194,"target":"present","response":"present","rt":847.69999998808,"correct":true,"confidence":5},{"trial_n":49,"min":61,"max":194,"target":"present","response":"absent","rt":816.70000001788,"correct":false,"confidence":4},{"trial_n":50,"min":60,"max":195,"target":"present","response":"present","rt":1346,"correct":true,"confidence":5},{"trial_n":51,"min":60,"max":195,"target":"absent","response":"absent","rt":1210.099999994,"correct":true,"confidence":5},{"trial_n":52,"min":61,"max":194,"target":"absent","response":"absent","rt":454.90000000596,"correct":true,"confidence":5},{"trial_n":53,"min":61,"max":194,"target":"absent","response":"absent","rt":429.5,"correct":true,"confidence":5},{"trial_n":54,"min":62,"max":193,"target":"present","response":"present","rt":768.39999997616,"correct":true,"confidence":5},{"trial_n":55,"min":62,"max":193,"target":"absent","response":"absent","rt":682.90000000596,"correct":true,"confidence":5},{"trial_n":56,"min":63,"max":192,"target":"present","response":"present","rt":899.80000001192,"correct":true,"confidence":5},{"trial_n":57,"min":63,"max":192,"target":"absent","response":"absent","rt":1484.099999994,"correct":true,"confidence":5},{"trial_n":58,"min":64,"max":191,"target":"absent","response":"absent","rt":553.90000000596,"correct":true,"confidence":5},{"trial_n":59,"min":64,"max":191,"target":"present","response":"present","rt":638.69999998808,"correct":true,"confidence":5},{"trial_n":60,"min":65,"max":190,"target":"present","response":"present","rt":1537.6999999881,"correct":true,"confidence":5},{"trial_n":61,"min":65,"max":190,"target":"present","response":"present","rt":685.39999997616,"correct":true,"confidence":5},{"trial_n":62,"min":66,"max":189,"target":"present","response":"present","rt":1185.8999999762,"correct":true,"confidence":5},{"trial_n":63,"min":66,"max":189,"target":"present","response":"present","rt":1185.900000006,"correct":true,"confidence":5},{"trial_n":64,"min":67,"max":188,"target":"present","response":"absent","rt":622.89999997616,"correct":false,"confidence":5},{"trial_n":65,"min":66,"max":189,"target":"present","response":"present","rt":647,"correct":true,"confidence":5},{"trial_n":66,"min":66,"max":189,"target":"absent","response":"absent","rt":653.90000000596,"correct":true,"confidence":5},{"trial_n":67,"min":67,"max":188,"target":"present","response":"present","rt":728.20000001788,"correct":true,"confidence":5},{"trial_n":68,"min":67,"max":188,"target":"present","response":"absent","rt":505.29999998212,"correct":false,"confidence":5},{"trial_n":69,"min":66,"max":189,"target":"present","response":"present","rt":747.90000000596,"correct":true,"confidence":5},{"trial_n":70,"min":66,"max":189,"target":"present","response":"present","rt":829.80000001192,"correct":true,"confidence":4},{"trial_n":71,"min":41,"max":214,"target":"present","response":"present","rt":5185.599999994,"correct":true,"confidence":-1},{"trial_n":72,"min":41,"max":214,"target":"present","response":"present","rt":541.5,"correct":true,"confidence":-1},{"trial_n":73,"min":57,"max":198,"target":"absent","response":"absent","rt":839.69999998808,"correct":true,"confidence":-1},{"trial_n":74,"min":57,"max":198,"target":"absent","response":"absent","rt":600.30000001192,"correct":true,"confidence":-1},{"trial_n":75,"min":73,"max":182,"target":"present","response":"present","rt":356.09999999404,"correct":true,"confidence":-1},{"trial_n":76,"min":73,"max":182,"target":"absent","response":"present","rt":1478.5,"correct":false,"confidence":-1},{"trial_n":77,"min":57,"max":198,"target":"absent","response":"absent","rt":839.80000001192,"correct":true,"confidence":-1},{"trial_n":78,"min":57,"max":198,"target":"present","response":"present","rt":381.19999998808,"correct":true,"confidence":-1},{"trial_n":79,"min":73,"max":182,"target":"present","response":"present","rt":669.29999998212,"correct":true,"confidence":-1},{"trial_n":80,"min":73,"max":182,"target":"absent","response":"present","rt":427.09999999404,"correct":false,"confidence":-1},{"trial_n":81,"min":65,"max":190,"target":"absent","response":"absent","rt":331.40000000596,"correct":true,"confidence":-1},{"trial_n":82,"min":65,"max":190,"target":"absent","response":"absent","rt":558.39999997616,"correct":true,"confidence":-1},{"trial_n":83,"min":73,"max":182,"target":"absent","response":"present","rt":436.10000002384,"correct":false,"confidence":-1},{"trial_n":84,"min":65,"max":190,"target":"absent","response":"absent","rt":329.30000001192,"correct":true,"confidence":-1},{"trial_n":85,"min":65,"max":190,"target":"absent","response":"absent","rt":404.59999999404,"correct":true,"confidence":-1},{"trial_n":86,"min":73,"max":182,"target":"present","response":"absent","rt":368.39999997616,"correct":false,"confidence":-1},{"trial_n":87,"min":65,"max":190,"target":"absent","response":"present","rt":510.20000001788,"correct":false,"confidence":-1},{"trial_n":88,"min":57,"max":198,"target":"absent","response":"absent","rt":520.40000000596,"correct":true,"confidence":-1},{"trial_n":89,"min":57,"max":198,"target":"absent","response":"absent","rt":619.20000001788,"correct":true,"confidence":-1},{"trial_n":90,"min":65,"max":190,"target":"absent","response":"present","rt":332.09999999404,"correct":false,"confidence":-1},{"trial_n":91,"min":61,"max":194,"target":"present","response":"present","rt":1208.7000000179,"correct":true,"confidence":5},{"trial_n":92,"min":61,"max":194,"target":"present","response":"present","rt":674.80000001192,"correct":true,"confidence":5},{"trial_n":93,"min":65,"max":190,"target":"absent","response":"absent","rt":1835.8999999762,"correct":true,"confidence":5},{"trial_n":94,"min":65,"max":190,"target":"absent","response":"absent","rt":714.79999998212,"correct":true,"confidence":5},{"trial_n":95,"min":69,"max":186,"target":"present","response":"absent","rt":646.60000002384,"correct":false,"confidence":5},{"trial_n":96,"min":65,"max":190,"target":"absent","response":"absent","rt":714.20000001788,"correct":true,"confidence":5},{"trial_n":97,"min":65,"max":190,"target":"present","response":"present","rt":699.19999998808,"correct":true,"confidence":5},{"trial_n":98,"min":69,"max":186,"target":"present","response":"present","rt":782.90000000596,"correct":true,"confidence":5},{"trial_n":99,"min":69,"max":186,"target":"present","response":"present","rt":718.5,"correct":true,"confidence":4},{"trial_n":100,"min":73,"max":182,"target":"absent","response":"absent","rt":1324,"correct":true,"confidence":4},{"trial_n":101,"min":73,"max":182,"target":"present","response":"present","rt":1269,"correct":true,"confidence":4},{"trial_n":102,"min":75,"max":180,"target":"absent","response":"absent","rt":976,"correct":true,"confidence":3},{"trial_n":103,"min":75,"max":180,"target":"present","response":"absent","rt":3201.5,"correct":false,"confidence":4},{"trial_n":104,"min":73,"max":182,"target":"present","response":"present","rt":704,"correct":true,"confidence":5},{"trial_n":105,"min":73,"max":182,"target":"absent","response":"absent","rt":2287.900000006,"correct":true,"confidence":3},{"trial_n":106,"min":75,"max":180,"target":"absent","response":"absent","rt":5767.099999994,"correct":true,"confidence":4},{"trial_n":107,"min":75,"max":180,"target":"present","response":"present","rt":684.5,"correct":true,"confidence":5},{"trial_n":108,"min":77,"max":178,"target":"absent","response":"absent","rt":717.19999998808,"correct":true,"confidence":5},{"trial_n":109,"min":77,"max":178,"target":"present","response":"present","rt":670.80000001192,"correct":true,"confidence":5},{"trial_n":110,"min":79,"max":176,"target":"absent","response":"absent","rt":509.5,"correct":true,"confidence":3},{"trial_n":111,"min":79,"max":176,"target":"present","response":"present","rt":612.59999999404,"correct":true,"confidence":5},{"trial_n":112,"min":80,"max":175,"target":"present","response":"present","rt":450,"correct":true,"confidence":5},{"trial_n":113,"min":80,"max":175,"target":"absent","response":"absent","rt":1240.5,"correct":true,"confidence":5},{"trial_n":114,"min":81,"max":174,"target":"absent","response":"present","rt":685.59999999404,"correct":false,"confidence":5},{"trial_n":115,"min":80,"max":175,"target":"present","response":"absent","rt":1561,"correct":false,"confidence":3},{"trial_n":116,"min":79,"max":176,"target":"absent","response":"present","rt":670.40000000596,"correct":false,"confidence":5},{"trial_n":117,"min":78,"max":177,"target":"present","response":"present","rt":1354.7000000179,"correct":true,"confidence":3},{"trial_n":118,"min":78,"max":177,"target":"absent","response":"absent","rt":1515.2000000179,"correct":true,"confidence":4},{"trial_n":119,"min":79,"max":176,"target":"present","response":"absent","rt":624.90000000596,"correct":false,"confidence":5},{"trial_n":120,"min":78,"max":177,"target":"present","response":"present","rt":5855.3999999762,"correct":true,"confidence":5},{"trial_n":121,"min":78,"max":177,"target":"present","response":"present","rt":911.5,"correct":true,"confidence":4},{"trial_n":122,"min":79,"max":176,"target":"absent","response":"present","rt":751.90000000596,"correct":false,"confidence":4},{"trial_n":123,"min":78,"max":177,"target":"present","response":"present","rt":626.20000001788,"correct":true,"confidence":4},{"trial_n":124,"min":78,"max":177,"target":"absent","response":"present","rt":736.5,"correct":false,"confidence":4},{"trial_n":125,"min":77,"max":178,"target":"present","response":"absent","rt":869.59999999404,"correct":false,"confidence":3},{"trial_n":126,"min":76,"max":179,"target":"present","response":"present","rt":513.90000000596,"correct":true,"confidence":4},{"trial_n":127,"min":76,"max":179,"target":"present","response":"absent","rt":432.20000001788,"correct":false,"confidence":4},{"trial_n":128,"min":75,"max":180,"target":"present","response":"absent","rt":1056.5,"correct":false,"confidence":4},{"trial_n":129,"min":74,"max":181,"target":"present","response":"present","rt":530.69999998808,"correct":true,"confidence":4},{"trial_n":130,"min":74,"max":181,"target":"absent","response":"present","rt":968.30000001192,"correct":false,"confidence":4},{"trial_n":131,"min":73,"max":182,"target":"present","response":"present","rt":518,"correct":true,"confidence":4},{"trial_n":132,"min":73,"max":182,"target":"absent","response":"absent","rt":682.79999998212,"correct":true,"confidence":4},{"trial_n":133,"min":74,"max":181,"target":"present","response":"present","rt":693.30000001192,"correct":true,"confidence":4},{"trial_n":134,"min":74,"max":181,"target":"present","response":"present","rt":648.29999998212,"correct":true,"confidence":5},{"trial_n":135,"min":75,"max":180,"target":"absent","response":"absent","rt":667.59999999404,"correct":true,"confidence":5},{"trial_n":136,"min":75,"max":180,"target":"absent","response":"absent","rt":2532.7999999821,"correct":true,"confidence":5},{"trial_n":137,"min":76,"max":179,"target":"present","response":"absent","rt":630.70000001788,"correct":false,"confidence":4},{"trial_n":138,"min":75,"max":180,"target":"present","response":"present","rt":949.69999998808,"correct":true,"confidence":4},{"trial_n":139,"min":75,"max":180,"target":"present","response":"present","rt":9535.7999999821,"correct":true,"confidence":3},{"trial_n":140,"min":76,"max":179,"target":"absent","response":"absent","rt":558.79999998212,"correct":true,"confidence":4}]