[{"trial_n":1,"n_dots":4.25,"target":"left","response":"left","rt":6776.6999999881,"correct":true,"confidence":-1},{"trial_n":2,"n_dots":4.25,"target":"right","response":"left","rt":1099,"correct":false,"confidence":-1},{"trial_n":3,"n_dots":4.65,"target":"left","response":"right","rt":1168.400000006,"correct":false,"confidence":-1},{"trial_n":4,"n_dots":5.05,"target":"right","response":"right","rt":814.59999999404,"correct":true,"confidence":-1},{"trial_n":5,"n_dots":5.05,"target":"left","response":"left","rt":1142.5,"correct":true,"confidence":-1},{"trial_n":6,"n_dots":4.65,"target":"right","response":"right","rt":897.40000000596,"correct":true,"confidence":-1},{"trial_n":7,"n_dots":4.65,"target":"left","response":"left","rt":962.30000001192,"correct":true,"confidence":-1},{"trial_n":8,"n_dots":4.45,"target":"left","response":"left","rt":963.90000000596,"correct":true,"confidence":-1},{"trial_n":9,"n_dots":4.45,"target":"right","response":"right","rt":935.10000002384,"correct":true,"confidence":-1},{"trial_n":10,"n_dots":4.25,"target":"right","response":"right","rt":931.30000001192,"correct":true,"confidence":-1},{"trial_n":11,"n_dots":4.25,"target":"right","response":"right","rt":1157.2999999821,"correct":true,"confidence":-1},{"trial_n":12,"n_dots":4.05,"target":"right","response":"right","rt":557.09999999404,"correct":true,"confidence":-1},{"trial_n":13,"n_dots":4.05,"target":"right","response":"right","rt":801.10000002384,"correct":true,"confidence":-1},{"trial_n":14,"n_dots":3.95,"target":"left","response":"left","rt":803,"correct":true,"confidence":-1},{"trial_n":15,"n_dots":3.95,"target":"left","response":"right","rt":1512.5,"correct":false,"confidence":-1},{"trial_n":16,"n_dots":4.05,"target":"right","response":"right","rt":773.59999999404,"correct":true,"confidence":-1},{"trial_n":17,"n_dots":4.05,"target":"right","response":"right","rt":723.69999998808,"correct":true,"confidence":-1},{"trial_n":18,"n_dots":3.95,"target":"left","response":"left","rt":989.40000000596,"correct":true,"confidence":-1},{"trial_n":19,"n_dots":3.95,"target":"right","response":"right","rt":1000,"correct":true,"confidence":-1},{"trial_n":20,"n_dots":3.85,"target":"left","response":"right","rt":1274.6999999881,"correct":false,"confidence":-1},{"trial_n":21,"n_dots":3.95,"target":"right","response":"right","rt":925.19999998808,"correct":true,"confidence":5},{"trial_n":22,"n_dots":3.95,"target":"right","response":"right","rt":3725.3000000119,"correct":true,"confidence":4},{"trial_n":23,"n_dots":3.85,"target":"left","response":"left","rt":1645.6000000238,"correct":true,"confidence":3},{"trial_n":24,"n_dots":3.85,"target":"right","response":"left","rt":3654.400000006,"correct":false,"confidence":1},{"trial_n":25,"n_dots":3.95,"target":"left","response":"left","rt":1649.6999999881,"correct":true,"confidence":4},{"trial_n":26,"n_dots":3.95,"target":"left","response":"left","rt":1367.1999999881,"correct":true,"confidence":3},{"trial_n":27,"n_dots":3.85,"target":"left","response":"right","rt":2140.2999999821,"correct":false,"confidence":1},{"trial_n":28,"n_dots":3.95,"target":"right","response":"right","rt":1420,"correct":true,"confidence":2},{"trial_n":29,"n_dots":3.95,"target":"right","response":"left","rt":2200.900000006,"correct":false,"confidence":4},{"trial_n":30,"n_dots":4.05,"target":"left","response":"left","rt":1427.6000000238,"correct":true,"confidence":4},{"trial_n":31,"n_dots":4.05,"target":"right","response":"right","rt":1677.1999999881,"correct":true,"confidence":2},{"trial_n":32,"n_dots":3.95,"target":"right","response":"left","rt":1655.8000000119,"correct":false,"confidence":3},{"trial_n":33,"n_dots":4.05,"target":"left","response":"left","rt":1503.8000000119,"correct":true,"confidence":5},{"trial_n":34,"n_dots":4.05,"target":"left","response":"left","rt":1680.8000000119,"correct":true,"confidence":5},{"trial_n":35,"n_dots":3.95,"target":"left","response":"left","rt":2363.3000000119,"correct":true,"confidence":5},{"trial_n":36,"n_dots":3.95,"target":"right","response":"right","rt":1303.6000000238,"correct":true,"confidence":5},{"trial_n":37,"n_dots":3.85,"target":"left","response":"left","rt":2126.8000000119,"correct":true,"confidence":5},{"trial_n":38,"n_dots":3.85,"target":"left","response":"left","rt":2835.8000000119,"correct":true,"confidence":5},{"trial_n":39,"n_dots":3.75,"target":"left","response":"left","rt":611.30000001192,"correct":true,"confidence":5},{"trial_n":40,"n_dots":3.75,"target":"left","response":"left","rt":884.10000002384,"correct":true,"confidence":5},{"trial_n":41,"n_dots":3.65,"target":"left","response":"left","rt":929.29999998212,"correct":true,"confidence":5},{"trial_n":42,"n_dots":3.65,"target":"left","response":"right","rt":1201.400000006,"correct":false,"confidence":1},{"trial_n":43,"n_dots":3.75,"target":"right","response":"left","rt":4759.3999999762,"correct":false,"confidence":2},{"trial_n":44,"n_dots":3.85,"target":"left","response":"right","rt":1292.2999999821,"correct":false,"confidence":4},{"trial_n":45,"n_dots":3.95,"target":"right","response":"right","rt":1134.1000000238,"correct":true,"confidence":5},{"trial_n":46,"n_dots":3.95,"target":"right","response":"right","rt":1663,"correct":true,"confidence":2},{"trial_n":47,"n_dots":3.85,"target":"right","response":"right","rt":1089.900000006,"correct":true,"confidence":5},{"trial_n":48,"n_dots":3.85,"target":"left","response":"left","rt":1069.599999994,"correct":true,"confidence":5},{"trial_n":49,"n_dots":3.75,"target":"left","response":"left","rt":3313.3000000119,"correct":true,"confidence":1},{"trial_n":50,"n_dots":3.75,"target":"right","response":"left","rt":1251.599999994,"correct":false,"confidence":2},{"trial_n":51,"n_dots":3.85,"target":"right","response":"right","rt":1079,"correct":true,"confidence":1},{"trial_n":52,"n_dots":3.85,"target":"right","response":"left","rt":1123.8000000119,"correct":false,"confidence":3},{"trial_n":53,"n_dots":3.95,"target":"left","response":"left","rt":1023.599999994,"correct":true,"confidence":3},{"trial_n":54,"n_dots":3.95,"target":"left","response":"left","rt":1037.1999999881,"correct":true,"confidence":1},{"trial_n":55,"n_dots":3.85,"target":"right","response":"right","rt":1129.900000006,"correct":true,"confidence":4},{"trial_n":56,"n_dots":3.85,"target":"left","response":"left","rt":1072.2000000179,"correct":true,"confidence":4},{"trial_n":57,"n_dots":3.75,"target":"right","response":"right","rt":1025.900000006,"correct":true,"confidence":5},{"trial_n":58,"n_dots":3.75,"target":"right","response":"left","rt":979.60000002384,"correct":false,"confidence":5},{"trial_n":59,"n_dots":3.85,"target":"right","response":"left","rt":2293.1999999881,"correct":false,"confidence":1},{"trial_n":60,"n_dots":3.95,"target":"right","response":"right","rt":948.80000001192,"correct":true,"confidence":3},{"trial_n":61,"n_dots":3.95,"target":"left","response":"left","rt":1144.900000006,"correct":true,"confidence":5},{"trial_n":62,"n_dots":3.85,"target":"left","response":"left","rt":1336.5,"correct":true,"confidence":5},{"trial_n":63,"n_dots":3.85,"target":"right","response":"right","rt":828,"correct":true,"confidence":5},{"trial_n":64,"n_dots":3.75,"target":"right","response":"right","rt":824.90000000596,"correct":true,"confidence":4},{"trial_n":65,"n_dots":3.75,"target":"left","response":"left","rt":900.5,"correct":true,"confidence":5},{"trial_n":66,"n_dots":3.65,"target":"left","response":"left","rt":741.90000000596,"correct":true,"confidence":4},{"trial_n":67,"n_dots":3.65,"target":"right","response":"left","rt":1152.6999999881,"correct":false,"confidence":1},{"trial_n":68,"n_dots":3.75,"target":"left","response":"left","rt":727.90000000596,"correct":true,"confidence":5},{"trial_n":69,"n_dots":3.75,"target":"right","response":"left","rt":933.5,"correct":false,"confidence":2},{"trial_n":70,"n_dots":3.85,"target":"right","response":"right","rt":683.5,"correct":true,"confidence":5},{"trial_n":71,"n_dots":3.85,"target":"left","response":"left","rt":652.29999998212,"correct":true,"confidence":5},{"trial_n":72,"n_dots":3.75,"target":"right","response":"right","rt":1260.5,"correct":true,"confidence":2},{"trial_n":73,"n_dots":3.75,"target":"left","response":"left","rt":732.40000000596,"correct":true,"confidence":5},{"trial_n":74,"n_dots":3.65,"target":"right","response":"right","rt":1710.3999999762,"correct":true,"confidence":1},{"trial_n":75,"n_dots":3.65,"target":"left","response":"left","rt":711.80000001192,"correct":true,"confidence":5},{"trial_n":76,"n_dots":3.55,"target":"right","response":"left","rt":975.10000002384,"correct":false,"confidence":1},{"trial_n":77,"n_dots":3.65,"target":"left","response":"left","rt":822.19999998808,"correct":true,"confidence":2},{"trial_n":78,"n_dots":3.65,"target":"right","response":"left","rt":970.10000002384,"correct":false,"confidence":2},{"trial_n":79,"n_dots":3.75,"target":"left","response":"left","rt":934.30000001192,"correct":true,"confidence":1},{"trial_n":80,"n_dots":3.75,"target":"right","response":"left","rt":1190,"correct":false,"confidence":1},{"trial_n":81,"n_dots":3.85,"target":"left","response":"left","rt":783.30000001192,"correct":true,"confidence":3},{"trial_n":82,"n_dots":3.85,"target":"left","response":"left","rt":734.30000001192,"correct":true,"confidence":5},{"trial_n":83,"n_dots":3.75,"target":"right","response":"left","rt":805.29999998212,"correct":false,"confidence":4},{"trial_n":84,"n_dots":3.85,"target":"right","response":"right","rt":1364.3999999762,"correct":true,"confidence":1},{"trial_n":85,"n_dots":3.85,"target":"left","response":"left","rt":742.90000000596,"correct":true,"confidence":5},{"trial_n":86,"n_dots":3.75,"target":"right","response":"right","rt":678.69999998808,"correct":true,"confidence":5},{"trial_n":87,"n_dots":3.75,"target":"left","response":"right","rt":3642.7999999821,"correct":false,"confidence":1},{"trial_n":88,"n_dots":3.85,"target":"left","response":"left","rt":791.09999999404,"correct":true,"confidence":5},{"trial_n":89,"n_dots":3.85,"target":"left","response":"left","rt":643.70000001788,"correct":true,"confidence":5},{"trial_n":90,"n_dots":3.75,"target":"left","response":"left","rt":1703.1999999881,"correct":true,"confidence":5},{"trial_n":91,"n_dots":3.75,"target":"left","response":"left","rt":900.59999999404,"correct":true,"confidence":5},{"trial_n":92,"n_dots":3.65,"target":"right","response":"left","rt":889.39999997616,"correct":false,"confidence":1},{"trial_n":93,"n_dots":3.75,"target":"right","response":"right","rt":1237.7000000179,"correct":true,"confidence":2},{"trial_n":94,"n_dots":3.75,"target":"left","response":"left","rt":847.59999999404,"correct":true,"confidence":5},{"trial_n":95,"n_dots":3.65,"target":"left","response":"left","rt":1958.3999999762,"correct":true,"confidence":5},{"trial_n":96,"n_dots":3.65,"target":"left","response":"left","rt":2122.900000006,"correct":true,"confidence":5},{"trial_n":97,"n_dots":3.55,"target":"right","response":"right","rt":922.90000000596,"correct":true,"confidence":1},{"trial_n":98,"n_dots":3.55,"target":"left","response":"left","rt":708.29999998212,"correct":true,"confidence":2},{"trial_n":99,"n_dots":3.45,"target":"left","response":"left","rt":950.80000001192,"correct":true,"confidence":5},{"trial_n":100,"n_dots":3.45,"target":"right","response":"left","rt":968.19999998808,"correct":false,"confidence":2},{"trial_n":101,"n_dots":3.55,"target":"right","response":"left","rt":2537.8000000119,"correct":false,"confidence":1},{"trial_n":102,"n_dots":3.65,"target":"right","response":"left","rt":993.40000000596,"correct":false,"confidence":1},{"trial_n":103,"n_dots":3.75,"target":"left","response":"left","rt":688.19999998808,"correct":true,"confidence":4},{"trial_n":104,"n_dots":3.75,"target":"left","response":"left","rt":932.90000000596,"correct":true,"confidence":1},{"trial_n":105,"n_dots":3.65,"target":"right","response":"right","rt":1240.7999999821,"correct":true,"confidence":3},{"trial_n":106,"n_dots":3.65,"target":"left","response":"left","rt":853.70000001788,"correct":true,"confidence":5},{"trial_n":107,"n_dots":3.55,"target":"right","response":"right","rt":1197.7000000179,"correct":true,"confidence":4},{"trial_n":108,"n_dots":3.55,"target":"left","response":"left","rt":1089.5,"correct":true,"confidence":4},{"trial_n":109,"n_dots":3.45,"target":"left","response":"left","rt":779.30000001192,"correct":true,"confidence":5},{"trial_n":110,"n_dots":3.45,"target":"left","response":"left","rt":813.10000002384,"correct":true,"confidence":4},{"trial_n":111,"n_dots":3.35,"target":"left","response":"left","rt":1459.400000006,"correct":true,"confidence":2},{"trial_n":112,"n_dots":3.35,"target":"right","response":"left","rt":1005.7999999821,"correct":false,"confidence":1},{"trial_n":113,"n_dots":3.45,"target":"right","response":"left","rt":792.39999997616,"correct":false,"confidence":2},{"trial_n":114,"n_dots":3.55,"target":"right","response":"left","rt":838.60000002384,"correct":false,"confidence":2},{"trial_n":115,"n_dots":3.65,"target":"right","response":"left","rt":715.79999998212,"correct":false,"confidence":1},{"trial_n":116,"n_dots":3.75,"target":"right","response":"right","rt":1416.400000006,"correct":true,"confidence":1},{"trial_n":117,"n_dots":3.75,"target":"right","response":"left","rt":780.09999999404,"correct":false,"confidence":3},{"trial_n":118,"n_dots":3.85,"target":"right","response":"left","rt":767.89999997616,"correct":false,"confidence":3},{"trial_n":119,"n_dots":3.95,"target":"left","response":"left","rt":663.69999998808,"correct":true,"confidence":4},{"trial_n":120,"n_dots":3.95,"target":"right","response":"left","rt":742,"correct":false,"confidence":4}]