[{"trial_n":1,"span":8,"encoder":"35562354","distractor":"35512354","target":"present","response":"present","rt":"4790.900000006","correct":true,"confidence":-1},{"trial_n":2,"span":8,"encoder":"20527411","distractor":"20627411","target":"present","response":"present","rt":"2524.400000006","correct":true,"confidence":-1},{"trial_n":3,"span":10,"encoder":"3824949622","distractor":"3824949642","target":"absent","response":"absent","rt":"1997.099999994","correct":true,"confidence":-1},{"trial_n":4,"span":10,"encoder":"6681778911","distractor":"6681775911","target":"absent","response":"present","rt":"1923.099999994","correct":false,"confidence":-1},{"trial_n":5,"span":8,"encoder":"28234982","distractor":"28234182","target":"present","response":"present","rt":"1687.900000006","correct":true,"confidence":-1},{"trial_n":6,"span":8,"encoder":"89554565","distractor":"89054565","target":"present","response":"present","rt":"2022.1999999881","correct":true,"confidence":-1},{"trial_n":7,"span":10,"encoder":"2066309315","distractor":"6066309315","target":"absent","response":"present","rt":"2087.3000000119","correct":false,"confidence":-1},{"trial_n":8,"span":8,"encoder":"54682449","distractor":"54680449","target":"present","response":"present","rt":"2213.099999994","correct":true,"confidence":-1},{"trial_n":9,"span":8,"encoder":"09388526","distractor":"09388226","target":"present","response":"present","rt":"1635.3000000119","correct":true,"confidence":-1},{"trial_n":10,"span":10,"encoder":"4585657084","distractor":"3585657084","target":"present","response":"present","rt":"1383.2000000179","correct":true,"confidence":-1},{"trial_n":11,"span":10,"encoder":"5549841902","distractor":"5569841902","target":"present","response":"present","rt":"1230.599999994","correct":true,"confidence":-1},{"trial_n":12,"span":11,"encoder":"95648323588","distractor":"95648723588","target":"present","response":"present","rt":"1205","correct":true,"confidence":-1},{"trial_n":13,"span":11,"encoder":"29223160100","distractor":"29223169100","target":"present","response":"present","rt":"1672.2000000179","correct":true,"confidence":-1},{"trial_n":14,"span":12,"encoder":"656671215692","distractor":"656571215692","target":"present","response":"present","rt":"1414.099999994","correct":true,"confidence":-1},{"trial_n":15,"span":12,"encoder":"888490774726","distractor":"887490774726","target":"absent","response":"present","rt":"1728.099999994","correct":false,"confidence":-1},{"trial_n":16,"span":11,"encoder":"86932858455","distractor":"86932858458","target":"present","response":"present","rt":"1989.5","correct":true,"confidence":-1},{"trial_n":17,"span":11,"encoder":"25132816067","distractor":"25132814067","target":"present","response":"present","rt":"1707.3000000119","correct":true,"confidence":-1},{"trial_n":18,"span":12,"encoder":"014987177752","distractor":"014987175752","target":"absent","response":"absent","rt":"2492.2999999821","correct":true,"confidence":-1},{"trial_n":19,"span":12,"encoder":"453759756823","distractor":"453759856823","target":"present","response":"present","rt":"1892.2999999821","correct":true,"confidence":-1},{"trial_n":20,"span":13,"encoder":"0099230391735","distractor":"0199230391735","target":"absent","response":"absent","rt":"2704","correct":true,"confidence":-1},{"trial_n":21,"span":13,"encoder":"7877942428900","distractor":"0877942428900","target":"present","response":"present","rt":"2014.2000000179","correct":true,"confidence":3},{"trial_n":22,"span":14,"encoder":"05798059062604","distractor":"05788059062604","target":"absent","response":"present","rt":"2242.2000000179","correct":false,"confidence":3},{"trial_n":23,"span":13,"encoder":"1182819658261","distractor":"1182819688261","target":"absent","response":"present","rt":"1693.6000000238","correct":false,"confidence":4},{"trial_n":24,"span":12,"encoder":"436077594307","distractor":"936077594307","target":"present","response":"present","rt":"1845.5","correct":true,"confidence":4},{"trial_n":25,"span":12,"encoder":"327918088617","distractor":"317918088617","target":"absent","response":"absent","rt":"2079.2999999821","correct":true,"confidence":3},{"trial_n":26,"span":13,"encoder":"5167328830002","distractor":"5167328830902","target":"absent","response":"absent","rt":"2219.5","correct":true,"confidence":4},{"trial_n":27,"span":13,"encoder":"4124104375294","distractor":"4124104373294","target":"absent","response":"present","rt":"4014.3999999762","correct":false,"confidence":3},{"trial_n":28,"span":12,"encoder":"171065784789","distractor":"179065784789","target":"absent","response":"present","rt":"6545.5","correct":false,"confidence":3},{"trial_n":29,"span":11,"encoder":"72164991368","distractor":"72164991388","target":"absent","response":"present","rt":"2103.8000000119","correct":false,"confidence":4},{"trial_n":30,"span":10,"encoder":"7203542685","distractor":"7208542685","target":"absent","response":"present","rt":"1792.5","correct":false,"confidence":3},{"trial_n":31,"span":9,"encoder":"103445624","distractor":"103045624","target":"present","response":"present","rt":"1962.6999999881","correct":true,"confidence":3},{"trial_n":32,"span":9,"encoder":"304305656","distractor":"307305656","target":"absent","response":"present","rt":"2044.1000000238","correct":false,"confidence":4},{"trial_n":33,"span":8,"encoder":"45139958","distractor":"45239958","target":"present","response":"present","rt":"1832.7999999821","correct":true,"confidence":4},{"trial_n":34,"span":8,"encoder":"94969199","distractor":"95969199","target":"present","response":"present","rt":"1376.6000000238","correct":true,"confidence":4},{"trial_n":35,"span":9,"encoder":"691133225","distractor":"691333225","target":"present","response":"present","rt":"1703.599999994","correct":true,"confidence":4},{"trial_n":36,"span":9,"encoder":"123751314","distractor":"163751314","target":"present","response":"present","rt":"2258.599999994","correct":true,"confidence":4},{"trial_n":37,"span":10,"encoder":"6566721491","distractor":"6566721591","target":"absent","response":"present","rt":"1651.7999999821","correct":false,"confidence":4},{"trial_n":38,"span":9,"encoder":"108235336","distractor":"108235936","target":"absent","response":"absent","rt":"2019.2999999821","correct":true,"confidence":4},{"trial_n":39,"span":9,"encoder":"808144249","distractor":"808146249","target":"present","response":"present","rt":"4523.5","correct":true,"confidence":4},{"trial_n":40,"span":10,"encoder":"0067853068","distractor":"0067853088","target":"present","response":"present","rt":"2414.3000000119","correct":true,"confidence":4},{"trial_n":41,"span":10,"encoder":"4836842483","distractor":"4836042483","target":"absent","response":"present","rt":"1967.7999999821","correct":false,"confidence":4},{"trial_n":42,"span":9,"encoder":"981031153","distractor":"981031173","target":"absent","response":"present","rt":"2976.900000006","correct":false,"confidence":3},{"trial_n":43,"span":8,"encoder":"77438325","distractor":"77438323","target":"absent","response":"present","rt":"1824.6999999881","correct":false,"confidence":3},{"trial_n":44,"span":7,"encoder":"5100692","distractor":"5800692","target":"present","response":"present","rt":"2290.3000000119","correct":true,"confidence":3},{"trial_n":45,"span":7,"encoder":"5983325","distractor":"5983335","target":"absent","response":"present","rt":"2121.2999999821","correct":false,"confidence":4},{"trial_n":46,"span":6,"encoder":"750623","distractor":"050623","target":"present","response":"absent","rt":"3177.8000000119","correct":false,"confidence":4},{"trial_n":47,"span":5,"encoder":"58141","distractor":"58144","target":"absent","response":"present","rt":"1685.900000006","correct":false,"confidence":3},{"trial_n":48,"span":4,"encoder":"3166","distractor":"9166","target":"present","response":"present","rt":"1545.5","correct":true,"confidence":3},{"trial_n":49,"span":4,"encoder":"5799","distractor":"6799","target":"absent","response":"present","rt":"1559.400000006","correct":false,"confidence":4},{"trial_n":50,"span":3,"encoder":"035","distractor":"935","target":"absent","response":"absent","rt":"1864.8000000119","correct":true,"confidence":4},{"trial_n":51,"span":3,"encoder":"989","distractor":"909","target":"absent","response":"absent","rt":"2452.6000000238","correct":true,"confidence":4},{"trial_n":52,"span":4,"encoder":"5393","distractor":"1393","target":"absent","response":"present","rt":"2180.3000000119","correct":false,"confidence":4},{"trial_n":53,"span":3,"encoder":"187","distractor":"197","target":"absent","response":"absent","rt":"1477.8999999762","correct":true,"confidence":5},{"trial_n":54,"span":3,"encoder":"962","distractor":"762","target":"absent","response":"absent","rt":"1422.8000000119","correct":true,"confidence":5},{"trial_n":55,"span":4,"encoder":"0337","distractor":"0338","target":"present","response":"present","rt":"1945.2000000179","correct":true,"confidence":5},{"trial_n":56,"span":4,"encoder":"9903","distractor":"9103","target":"present","response":"present","rt":"1835.2000000179","correct":true,"confidence":5},{"trial_n":57,"span":5,"encoder":"51953","distractor":"01953","target":"present","response":"present","rt":"2134.5","correct":true,"confidence":5},{"trial_n":58,"span":5,"encoder":"85083","distractor":"15083","target":"absent","response":"absent","rt":"1728.1999999881","correct":true,"confidence":5},{"trial_n":59,"span":6,"encoder":"206129","distractor":"406129","target":"present","response":"present","rt":"1873.2000000179","correct":true,"confidence":5},{"trial_n":60,"span":6,"encoder":"594064","distractor":"594264","target":"present","response":"present","rt":"1691.900000006","correct":true,"confidence":5},{"trial_n":61,"span":7,"encoder":"9757028","distractor":"9457028","target":"absent","response":"absent","rt":"2967","correct":true,"confidence":5},{"trial_n":62,"span":7,"encoder":"0364308","distractor":"2364308","target":"absent","response":"absent","rt":"2922.2000000179","correct":true,"confidence":4},{"trial_n":63,"span":8,"encoder":"06762197","distractor":"04762197","target":"present","response":"present","rt":"1859.599999994","correct":true,"confidence":5},{"trial_n":64,"span":8,"encoder":"99954591","distractor":"99959591","target":"present","response":"present","rt":"1702.400000006","correct":true,"confidence":3},{"trial_n":65,"span":9,"encoder":"733364825","distractor":"730364825","target":"present","response":"present","rt":"1265.3000000119","correct":true,"confidence":3},{"trial_n":66,"span":9,"encoder":"793815481","distractor":"792815481","target":"present","response":"present","rt":"5340.900000006","correct":true,"confidence":3},{"trial_n":67,"span":10,"encoder":"9529818934","distractor":"9629818934","target":"absent","response":"present","rt":"2262","correct":false,"confidence":4},{"trial_n":68,"span":9,"encoder":"194066746","distractor":"194066744","target":"absent","response":"absent","rt":"3014.400000006","correct":true,"confidence":4},{"trial_n":69,"span":9,"encoder":"441059930","distractor":"441059920","target":"absent","response":"present","rt":"10108.599999994","correct":false,"confidence":4},{"trial_n":70,"span":8,"encoder":"23684736","distractor":"23694736","target":"present","response":"present","rt":"2509.6999999881","correct":true,"confidence":3},{"trial_n":71,"span":8,"encoder":"13567688","distractor":"83567688","target":"present","response":"present","rt":"3482.7000000179","correct":true,"confidence":-1},{"trial_n":72,"span":8,"encoder":"03429849","distractor":"05429849","target":"present","response":"present","rt":"5792.3999999762","correct":true,"confidence":-1},{"trial_n":73,"span":9,"encoder":"080812456","distractor":"080812426","target":"absent","response":"present","rt":"4373.2000000179","correct":false,"confidence":-1},{"trial_n":74,"span":8,"encoder":"50294532","distractor":"50204532","target":"absent","response":"present","rt":"5079.5","correct":false,"confidence":-1},{"trial_n":75,"span":7,"encoder":"8551078","distractor":"8551978","target":"present","response":"present","rt":"2535.5","correct":true,"confidence":-1},{"trial_n":76,"span":7,"encoder":"9077010","distractor":"9070010","target":"absent","response":"absent","rt":"3383.5","correct":true,"confidence":-1},{"trial_n":77,"span":8,"encoder":"85012141","distractor":"85012191","target":"absent","response":"absent","rt":"3372.3000000119","correct":true,"confidence":-1},{"trial_n":78,"span":8,"encoder":"77991019","distractor":"77995019","target":"absent","response":"absent","rt":"2561","correct":true,"confidence":-1},{"trial_n":79,"span":9,"encoder":"670021551","distractor":"670021559","target":"present","response":"absent","rt":"6176.6999999881","correct":false,"confidence":-1},{"trial_n":80,"span":8,"encoder":"08814182","distractor":"68814182","target":"absent","response":"absent","rt":"1117.5","correct":true,"confidence":-1},{"trial_n":81,"span":8,"encoder":"47342981","distractor":"47542981","target":"absent","response":"present","rt":"5281.8999999762","correct":false,"confidence":-1},{"trial_n":82,"span":7,"encoder":"2068749","distractor":"2068744","target":"present","response":"present","rt":"3908.3000000119","correct":true,"confidence":-1},{"trial_n":83,"span":7,"encoder":"4305507","distractor":"4305527","target":"present","response":"present","rt":"3262.900000006","correct":true,"confidence":-1},{"trial_n":84,"span":8,"encoder":"02746949","distractor":"02146949","target":"present","response":"present","rt":"4372.6999999881","correct":true,"confidence":-1},{"trial_n":85,"span":8,"encoder":"33577076","distractor":"33547076","target":"absent","response":"absent","rt":"4320.599999994","correct":true,"confidence":-1},{"trial_n":86,"span":9,"encoder":"568852229","distractor":"568852219","target":"present","response":"absent","rt":"7877.8000000119","correct":false,"confidence":-1},{"trial_n":87,"span":8,"encoder":"91697375","distractor":"91695375","target":"absent","response":"present","rt":"13299.199999988","correct":false,"confidence":-1},{"trial_n":88,"span":7,"encoder":"8688958","distractor":"8088958","target":"absent","response":"present","rt":"5618.7000000179","correct":false,"confidence":-1},{"trial_n":89,"span":6,"encoder":"981672","distractor":"984672","target":"present","response":"present","rt":"4247.7000000179","correct":true,"confidence":-1},{"trial_n":90,"span":6,"encoder":"425536","distractor":"428536","target":"absent","response":"absent","rt":"2500.7000000179","correct":true,"confidence":-1},{"trial_n":91,"span":7,"encoder":"5964707","distractor":"5960707","target":"present","response":"present","rt":"4725.400000006","correct":true,"confidence":3},{"trial_n":92,"span":7,"encoder":"7789098","distractor":"7739098","target":"present","response":"present","rt":"2885.400000006","correct":true,"confidence":4},{"trial_n":93,"span":8,"encoder":"07471549","distractor":"07476549","target":"present","response":"present","rt":"4046.8000000119","correct":true,"confidence":3},{"trial_n":94,"span":8,"encoder":"42685642","distractor":"49685642","target":"present","response":"present","rt":"2112","correct":true,"confidence":4},{"trial_n":95,"span":9,"encoder":"411472133","distractor":"211472133","target":"present","response":"present","rt":"1693","correct":true,"confidence":1},{"trial_n":96,"span":9,"encoder":"998147079","distractor":"998145079","target":"absent","response":"absent","rt":"1104","correct":true,"confidence":3},{"trial_n":97,"span":10,"encoder":"2973680054","distractor":"2973780054","target":"present","response":"present","rt":"2376.2999999821","correct":true,"confidence":4},{"trial_n":98,"span":10,"encoder":"6845886289","distractor":"6045886289","target":"present","response":"present","rt":"13904.900000006","correct":true,"confidence":3},{"trial_n":99,"span":11,"encoder":"34982658647","distractor":"34582658647","target":"present","response":"present","rt":"3877.099999994","correct":true,"confidence":4},{"trial_n":100,"span":11,"encoder":"48252893950","distractor":"48242893950","target":"present","response":"present","rt":"5233.400000006","correct":true,"confidence":5},{"trial_n":101,"span":12,"encoder":"128058844944","distractor":"158058844944","target":"present","response":"present","rt":"3599.599999994","correct":true,"confidence":3},{"trial_n":102,"span":12,"encoder":"531178830980","distractor":"536178830980","target":"present","response":"absent","rt":"1637","correct":false,"confidence":3},{"trial_n":103,"span":11,"encoder":"96422389972","distractor":"96422389572","target":"present","response":"present","rt":"4065.900000006","correct":true,"confidence":4},{"trial_n":104,"span":11,"encoder":"44657310231","distractor":"44657410231","target":"present","response":"present","rt":"2673.8000000119","correct":true,"confidence":3},{"trial_n":105,"span":12,"encoder":"360896995128","distractor":"360796995128","target":"absent","response":"present","rt":"24214.799999982","correct":false,"confidence":3},{"trial_n":106,"span":11,"encoder":"24666356027","distractor":"24666356067","target":"absent","response":"absent","rt":"1520.400000006","correct":true,"confidence":4},{"trial_n":107,"span":11,"encoder":"30632369917","distractor":"00632369917","target":"present","response":"present","rt":"2262","correct":true,"confidence":4},{"trial_n":108,"span":12,"encoder":"907142916940","distractor":"907142916943","target":"absent","response":"present","rt":"4130.8000000119","correct":false,"confidence":3},{"trial_n":109,"span":11,"encoder":"01516151452","distractor":"01512151452","target":"present","response":"absent","rt":"2858.900000006","correct":false,"confidence":3},{"trial_n":110,"span":10,"encoder":"9936091475","distractor":"4936091475","target":"present","response":"present","rt":"4743","correct":true,"confidence":4},{"trial_n":111,"span":10,"encoder":"9332811342","distractor":"9332811332","target":"absent","response":"present","rt":"3540.3999999762","correct":false,"confidence":3},{"trial_n":112,"span":9,"encoder":"784724901","distractor":"784728901","target":"absent","response":"present","rt":"3398.400000006","correct":false,"confidence":3},{"trial_n":113,"span":8,"encoder":"83953961","distractor":"83953968","target":"absent","response":"absent","rt":"2750.599999994","correct":true,"confidence":4},{"trial_n":114,"span":8,"encoder":"29340222","distractor":"29340223","target":"present","response":"present","rt":"1701.6999999881","correct":true,"confidence":4},{"trial_n":115,"span":9,"encoder":"441721415","distractor":"441728415","target":"present","response":"present","rt":"5224.099999994","correct":true,"confidence":3},{"trial_n":116,"span":9,"encoder":"073064762","distractor":"073064766","target":"present","response":"present","rt":"4936.5","correct":true,"confidence":3},{"trial_n":117,"span":10,"encoder":"3772259261","distractor":"3772255261","target":"present","response":"present","rt":"2755.900000006","correct":true,"confidence":3},{"trial_n":118,"span":10,"encoder":"7806933735","distractor":"7806938735","target":"present","response":"present","rt":"2059.2999999821","correct":true,"confidence":5},{"trial_n":119,"span":11,"encoder":"51929816089","distractor":"51979816089","target":"absent","response":"absent","rt":"7629.7999999821","correct":true,"confidence":3},{"trial_n":120,"span":11,"encoder":"51484415949","distractor":"61484415949","target":"present","response":"present","rt":"2932.8000000119","correct":true,"confidence":5},{"trial_n":121,"span":12,"encoder":"501197438773","distractor":"601197438773","target":"absent","response":"absent","rt":"1888.400000006","correct":true,"confidence":5},{"trial_n":122,"span":12,"encoder":"332880516064","distractor":"332880519064","target":"absent","response":"present","rt":"7912.900000006","correct":false,"confidence":3},{"trial_n":123,"span":11,"encoder":"18650139074","distractor":"18650139064","target":"absent","response":"absent","rt":"4483.6999999881","correct":true,"confidence":2},{"trial_n":124,"span":11,"encoder":"69093798808","distractor":"69095798808","target":"present","response":"present","rt":"3597.3000000119","correct":true,"confidence":5},{"trial_n":125,"span":12,"encoder":"523977509284","distractor":"523777509284","target":"absent","response":"absent","rt":"13592.599999994","correct":true,"confidence":2},{"trial_n":126,"span":12,"encoder":"688991985213","distractor":"688891985213","target":"absent","response":"present","rt":"8450.8000000119","correct":false,"confidence":3},{"trial_n":127,"span":11,"encoder":"74390510613","distractor":"34390510613","target":"absent","response":"absent","rt":"1116.900000006","correct":true,"confidence":2},{"trial_n":128,"span":11,"encoder":"84875047941","distractor":"84875041941","target":"absent","response":"absent","rt":"1955.7999999821","correct":true,"confidence":3},{"trial_n":129,"span":12,"encoder":"243091085575","distractor":"243791085575","target":"absent","response":"absent","rt":"3720.599999994","correct":true,"confidence":3},{"trial_n":130,"span":12,"encoder":"502411905279","distractor":"502411605279","target":"absent","response":"present","rt":"2377.2999999821","correct":false,"confidence":4},{"trial_n":131,"span":11,"encoder":"97967882825","distractor":"97968882825","target":"absent","response":"absent","rt":"3172","correct":true,"confidence":3},{"trial_n":132,"span":11,"encoder":"07066572919","distractor":"07066562919","target":"present","response":"absent","rt":"2871.7000000179","correct":false,"confidence":3},{"trial_n":133,"span":10,"encoder":"6638800339","distractor":"6638800349","target":"present","response":"present","rt":"16421.400000006","correct":true,"confidence":4},{"trial_n":134,"span":10,"encoder":"8668235454","distractor":"8678235454","target":"present","response":"absent","rt":"1558.900000006","correct":false,"confidence":2},{"trial_n":135,"span":9,"encoder":"740605399","distractor":"740605391","target":"absent","response":"present","rt":"2290","correct":false,"confidence":3},{"trial_n":136,"span":8,"encoder":"75094613","distractor":"70094613","target":"absent","response":"absent","rt":"4126.400000006","correct":true,"confidence":4},{"trial_n":137,"span":8,"encoder":"07838804","distractor":"02838804","target":"absent","response":"absent","rt":"1845","correct":true,"confidence":4},{"trial_n":138,"span":9,"encoder":"363717093","distractor":"363217093","target":"absent","response":"absent","rt":"2581.6000000238","correct":true,"confidence":4},{"trial_n":139,"span":9,"encoder":"250264011","distractor":"250274011","target":"present","response":"present","rt":"1754.7999999821","correct":true,"confidence":3},{"trial_n":140,"span":10,"encoder":"2707733551","distractor":"2707793551","target":"absent","response":"absent","rt":"1223.900000006","correct":true,"confidence":4}]