[{"trial_n":1,"span":8,"encoder":"64397301","distractor":"64397331","target":"present","response":"present","rt":"9744","correct":true,"confidence":-1},{"trial_n":2,"span":8,"encoder":"98669495","distractor":"98689495","target":"present","response":"present","rt":"5811.1999969482","correct":true,"confidence":-1},{"trial_n":3,"span":10,"encoder":"2094052227","distractor":"6094052227","target":"absent","response":"present","rt":"3930.8000030518","correct":false,"confidence":-1},{"trial_n":4,"span":8,"encoder":"30828012","distractor":"30828011","target":"absent","response":"present","rt":"3441.8999977112","correct":false,"confidence":-1},{"trial_n":5,"span":6,"encoder":"161299","distractor":"161295","target":"present","response":"absent","rt":"4544.8999977112","correct":false,"confidence":-1},{"trial_n":6,"span":4,"encoder":"4295","distractor":"4495","target":"present","response":"present","rt":"2145.6999969482","correct":true,"confidence":-1},{"trial_n":7,"span":4,"encoder":"9373","distractor":"9353","target":"present","response":"present","rt":"2149.7999992371","correct":true,"confidence":-1},{"trial_n":8,"span":6,"encoder":"858499","distractor":"858459","target":"absent","response":"absent","rt":"3110.7999992371","correct":true,"confidence":-1},{"trial_n":9,"span":6,"encoder":"466053","distractor":"496053","target":"present","response":"absent","rt":"6048.2999992371","correct":false,"confidence":-1},{"trial_n":10,"span":4,"encoder":"7110","distractor":"7010","target":"present","response":"present","rt":"1534","correct":true,"confidence":-1},{"trial_n":11,"span":4,"encoder":"1690","distractor":"4690","target":"present","response":"present","rt":"1714.1000022888","correct":true,"confidence":-1},{"trial_n":12,"span":5,"encoder":"29817","distractor":"26817","target":"present","response":"present","rt":"2526","correct":true,"confidence":-1},{"trial_n":13,"span":5,"encoder":"08946","distractor":"98946","target":"present","response":"present","rt":"2416.3999977112","correct":true,"confidence":-1},{"trial_n":14,"span":6,"encoder":"513794","distractor":"516794","target":"present","response":"present","rt":"2044.6000022888","correct":true,"confidence":-1},{"trial_n":15,"span":6,"encoder":"669678","distractor":"669978","target":"absent","response":"absent","rt":"2427.5","correct":true,"confidence":-1},{"trial_n":16,"span":7,"encoder":"2205006","distractor":"2205096","target":"absent","response":"present","rt":"2754.0999984741","correct":false,"confidence":-1},{"trial_n":17,"span":6,"encoder":"377593","distractor":"377592","target":"absent","response":"present","rt":"2570.4000015259","correct":false,"confidence":-1},{"trial_n":18,"span":5,"encoder":"19086","distractor":"19046","target":"present","response":"present","rt":"1789.5","correct":true,"confidence":-1},{"trial_n":19,"span":5,"encoder":"85058","distractor":"86058","target":"absent","response":"absent","rt":"2158.5999984741","correct":true,"confidence":-1},{"trial_n":20,"span":6,"encoder":"338710","distractor":"338110","target":"present","response":"present","rt":"2023.5","correct":true,"confidence":-1},{"trial_n":21,"span":6,"encoder":"985764","distractor":"185764","target":"present","response":"present","rt":"5609","correct":true,"confidence":4},{"trial_n":22,"span":7,"encoder":"7504125","distractor":"7506125","target":"absent","response":"absent","rt":"3391.7000007629","correct":true,"confidence":5},{"trial_n":23,"span":7,"encoder":"1059299","distractor":"1059296","target":"absent","response":"absent","rt":"4779.7000007629","correct":true,"confidence":5},{"trial_n":24,"span":8,"encoder":"91580967","distractor":"91580167","target":"absent","response":"present","rt":"9659.5","correct":false,"confidence":3},{"trial_n":25,"span":7,"encoder":"8822612","distractor":"8832612","target":"absent","response":"absent","rt":"3896","correct":true,"confidence":4},{"trial_n":26,"span":7,"encoder":"1450998","distractor":"1455998","target":"absent","response":"absent","rt":"2982.5","correct":true,"confidence":3},{"trial_n":27,"span":8,"encoder":"30314299","distractor":"30304299","target":"absent","response":"present","rt":"2742.5","correct":false,"confidence":5},{"trial_n":28,"span":7,"encoder":"4568163","distractor":"4567163","target":"absent","response":"present","rt":"4057.8999977112","correct":false,"confidence":3},{"trial_n":29,"span":6,"encoder":"195462","distractor":"195442","target":"present","response":"present","rt":"2319.5999984741","correct":true,"confidence":5},{"trial_n":30,"span":6,"encoder":"558158","distractor":"558148","target":"present","response":"present","rt":"4641.7999992371","correct":true,"confidence":5},{"trial_n":31,"span":7,"encoder":"8119370","distractor":"8119390","target":"present","response":"present","rt":"4870.2999992371","correct":true,"confidence":4},{"trial_n":32,"span":7,"encoder":"3193902","distractor":"3193912","target":"absent","response":"present","rt":"2558.5","correct":false,"confidence":5},{"trial_n":33,"span":6,"encoder":"775911","distractor":"975911","target":"absent","response":"present","rt":"3374.1000022888","correct":false,"confidence":4},{"trial_n":34,"span":5,"encoder":"27698","distractor":"27618","target":"present","response":"present","rt":"2646.2000007629","correct":true,"confidence":5},{"trial_n":35,"span":5,"encoder":"85361","distractor":"85367","target":"absent","response":"absent","rt":"2271.3999977112","correct":true,"confidence":5},{"trial_n":36,"span":6,"encoder":"385407","distractor":"388407","target":"present","response":"present","rt":"2262.7999992371","correct":true,"confidence":5},{"trial_n":37,"span":6,"encoder":"968735","distractor":"968535","target":"present","response":"present","rt":"2066.6000022888","correct":true,"confidence":5},{"trial_n":38,"span":7,"encoder":"9063620","distractor":"9063610","target":"absent","response":"absent","rt":"3349","correct":true,"confidence":5},{"trial_n":39,"span":7,"encoder":"1360174","distractor":"1360170","target":"absent","response":"absent","rt":"1548.1999969482","correct":true,"confidence":5},{"trial_n":40,"span":8,"encoder":"08235248","distractor":"88235248","target":"present","response":"present","rt":"3046.2999992371","correct":true,"confidence":5},{"trial_n":41,"span":8,"encoder":"71241510","distractor":"71241519","target":"absent","response":"absent","rt":"1390.5","correct":true,"confidence":5},{"trial_n":42,"span":9,"encoder":"735368849","distractor":"735868849","target":"absent","response":"absent","rt":"4673.2999992371","correct":true,"confidence":4},{"trial_n":43,"span":9,"encoder":"839258037","distractor":"839228037","target":"absent","response":"absent","rt":"6372.7999992371","correct":true,"confidence":4},{"trial_n":44,"span":10,"encoder":"0516305778","distractor":"0516306778","target":"absent","response":"absent","rt":"5291.6999969482","correct":true,"confidence":3},{"trial_n":45,"span":10,"encoder":"4821287317","distractor":"4821287315","target":"present","response":"present","rt":"5832.7999992371","correct":true,"confidence":3},{"trial_n":46,"span":11,"encoder":"31041820502","distractor":"31041820500","target":"absent","response":"absent","rt":"2909.5","correct":true,"confidence":3},{"trial_n":47,"span":11,"encoder":"19361678066","distractor":"19381678066","target":"present","response":"present","rt":"2808.2000007629","correct":true,"confidence":3},{"trial_n":48,"span":12,"encoder":"114691578343","distractor":"614691578343","target":"absent","response":"present","rt":"9683.2999992371","correct":false,"confidence":2},{"trial_n":49,"span":11,"encoder":"98216664732","distractor":"98218664732","target":"absent","response":"present","rt":"3657.7999992371","correct":false,"confidence":2},{"trial_n":50,"span":10,"encoder":"8801403049","distractor":"8801403089","target":"present","response":"present","rt":"5780.2000007629","correct":true,"confidence":3},{"trial_n":51,"span":10,"encoder":"8114467862","distractor":"8154467862","target":"absent","response":"absent","rt":"3720.7000007629","correct":true,"confidence":5},{"trial_n":52,"span":11,"encoder":"68952349105","distractor":"68959349105","target":"absent","response":"absent","rt":"6353.8999977112","correct":true,"confidence":3},{"trial_n":53,"span":11,"encoder":"07378856706","distractor":"07378806706","target":"present","response":"present","rt":"6223.5999984741","correct":true,"confidence":3},{"trial_n":54,"span":12,"encoder":"752131698051","distractor":"752131648051","target":"present","response":"present","rt":"3664.2999992371","correct":true,"confidence":2},{"trial_n":55,"span":12,"encoder":"952566059756","distractor":"952566559756","target":"present","response":"present","rt":"2855.3999977112","correct":true,"confidence":2},{"trial_n":56,"span":13,"encoder":"3323996634262","distractor":"3363996634262","target":"present","response":"present","rt":"4338.6000022888","correct":true,"confidence":3},{"trial_n":57,"span":13,"encoder":"3176368075737","distractor":"3176368075837","target":"present","response":"present","rt":"6005.2000007629","correct":true,"confidence":3},{"trial_n":58,"span":14,"encoder":"59236788319704","distractor":"59236788919704","target":"absent","response":"present","rt":"6805.1000022888","correct":false,"confidence":1},{"trial_n":59,"span":13,"encoder":"0462777020933","distractor":"0462777020963","target":"present","response":"absent","rt":"3634.5","correct":false,"confidence":3},{"trial_n":60,"span":12,"encoder":"151405679246","distractor":"351405679246","target":"absent","response":"absent","rt":"6981.5","correct":true,"confidence":5},{"trial_n":61,"span":12,"encoder":"059759192514","distractor":"059756192514","target":"present","response":"present","rt":"7124.7999992371","correct":true,"confidence":2},{"trial_n":62,"span":13,"encoder":"8431243588199","distractor":"8451243588199","target":"present","response":"absent","rt":"5042.0999984741","correct":false,"confidence":3},{"trial_n":63,"span":12,"encoder":"657126117527","distractor":"657126117557","target":"absent","response":"absent","rt":"1837.2000007629","correct":true,"confidence":5},{"trial_n":64,"span":12,"encoder":"817949402563","distractor":"817979402563","target":"present","response":"present","rt":"3531","correct":true,"confidence":3},{"trial_n":65,"span":13,"encoder":"6319219315425","distractor":"6369219315425","target":"present","response":"present","rt":"2429.9000015259","correct":true,"confidence":2},{"trial_n":66,"span":13,"encoder":"1277198766212","distractor":"1277198786212","target":"absent","response":"absent","rt":"4025.7999992371","correct":true,"confidence":3},{"trial_n":67,"span":14,"encoder":"44983657164709","distractor":"44984657164709","target":"absent","response":"present","rt":"3112.7999992371","correct":false,"confidence":2},{"trial_n":68,"span":13,"encoder":"9863972961665","distractor":"9863972967665","target":"present","response":"present","rt":"3194.8999977112","correct":true,"confidence":3},{"trial_n":69,"span":13,"encoder":"6825533820973","distractor":"6825133820973","target":"present","response":"present","rt":"2614.2999992371","correct":true,"confidence":3},{"trial_n":70,"span":14,"encoder":"26791901797338","distractor":"26791901797332","target":"absent","response":"absent","rt":"3738.0999984741","correct":true,"confidence":4},{"trial_n":71,"span":8,"encoder":"17664911","distractor":"17364911","target":"present","response":"present","rt":"9614.7999992371","correct":true,"confidence":-1},{"trial_n":72,"span":8,"encoder":"09194951","distractor":"03194951","target":"present","response":"present","rt":"7618.6000022888","correct":true,"confidence":-1},{"trial_n":73,"span":9,"encoder":"873593231","distractor":"876593231","target":"absent","response":"absent","rt":"7042.8999977112","correct":true,"confidence":-1},{"trial_n":74,"span":9,"encoder":"365581722","distractor":"360581722","target":"absent","response":"absent","rt":"6699.3999977112","correct":true,"confidence":-1},{"trial_n":75,"span":10,"encoder":"8213811905","distractor":"8213811925","target":"present","response":"present","rt":"4285.2000007629","correct":true,"confidence":-1},{"trial_n":76,"span":10,"encoder":"7585709352","distractor":"7585909352","target":"present","response":"present","rt":"12939.5","correct":true,"confidence":-1},{"trial_n":77,"span":11,"encoder":"06214356350","distractor":"06216356350","target":"present","response":"present","rt":"16115.799999237","correct":true,"confidence":-1},{"trial_n":78,"span":11,"encoder":"38655683859","distractor":"08655683859","target":"present","response":"absent","rt":"10776.800003052","correct":false,"confidence":-1},{"trial_n":79,"span":10,"encoder":"6101317374","distractor":"6101317372","target":"absent","response":"present","rt":"17537.799999237","correct":false,"confidence":-1},{"trial_n":80,"span":9,"encoder":"126506592","distractor":"126506292","target":"present","response":"present","rt":"11790.799999237","correct":true,"confidence":-1},{"trial_n":81,"span":9,"encoder":"112278265","distractor":"172278265","target":"present","response":"present","rt":"6116.2999992371","correct":true,"confidence":-1},{"trial_n":82,"span":10,"encoder":"9433947274","distractor":"9433347274","target":"absent","response":"absent","rt":"5964.7999992371","correct":true,"confidence":-1},{"trial_n":83,"span":10,"encoder":"5642004678","distractor":"5642007678","target":"absent","response":"present","rt":"8017.7999992371","correct":false,"confidence":-1},{"trial_n":84,"span":9,"encoder":"498956163","distractor":"498056163","target":"absent","response":"present","rt":"8865.2000007629","correct":false,"confidence":-1},{"trial_n":85,"span":8,"encoder":"13119528","distractor":"19119528","target":"absent","response":"present","rt":"3894.5999984741","correct":false,"confidence":-1},{"trial_n":86,"span":7,"encoder":"1506204","distractor":"1546204","target":"present","response":"absent","rt":"9633.4000015259","correct":false,"confidence":-1},{"trial_n":87,"span":6,"encoder":"548504","distractor":"540504","target":"absent","response":"absent","rt":"4056.6999969482","correct":true,"confidence":-1},{"trial_n":88,"span":6,"encoder":"091953","distractor":"021953","target":"absent","response":"absent","rt":"2465.2999992371","correct":true,"confidence":-1},{"trial_n":89,"span":7,"encoder":"3081739","distractor":"3031739","target":"absent","response":"absent","rt":"5618.5999984741","correct":true,"confidence":-1},{"trial_n":90,"span":7,"encoder":"4366787","distractor":"4366786","target":"absent","response":"absent","rt":"3549.7999992371","correct":true,"confidence":-1},{"trial_n":91,"span":8,"encoder":"27188242","distractor":"27188243","target":"present","response":"present","rt":"3082.3999977112","correct":true,"confidence":5},{"trial_n":92,"span":8,"encoder":"46383524","distractor":"86383524","target":"absent","response":"present","rt":"6910.7999992371","correct":false,"confidence":4},{"trial_n":93,"span":7,"encoder":"6675493","distractor":"6975493","target":"absent","response":"absent","rt":"6646.5","correct":true,"confidence":5},{"trial_n":94,"span":7,"encoder":"8194629","distractor":"8894629","target":"present","response":"present","rt":"4751.8000030518","correct":true,"confidence":5},{"trial_n":95,"span":8,"encoder":"61333491","distractor":"61303491","target":"absent","response":"absent","rt":"1863.7999992371","correct":true,"confidence":5},{"trial_n":96,"span":8,"encoder":"92451349","distractor":"92451348","target":"absent","response":"absent","rt":"2111.0999984741","correct":true,"confidence":5},{"trial_n":97,"span":9,"encoder":"297179524","distractor":"297179528","target":"present","response":"present","rt":"8083","correct":true,"confidence":5},{"trial_n":98,"span":9,"encoder":"886847038","distractor":"876847038","target":"present","response":"present","rt":"8812.2999992371","correct":true,"confidence":4},{"trial_n":99,"span":10,"encoder":"3086240442","distractor":"3086240842","target":"present","response":"present","rt":"2983.7999992371","correct":true,"confidence":4},{"trial_n":100,"span":10,"encoder":"4624426932","distractor":"4624420932","target":"absent","response":"absent","rt":"13275.299999237","correct":true,"confidence":3},{"trial_n":101,"span":11,"encoder":"29936366286","distractor":"09936366286","target":"absent","response":"absent","rt":"3735.1000022888","correct":true,"confidence":4},{"trial_n":102,"span":11,"encoder":"17268856615","distractor":"17298856615","target":"absent","response":"absent","rt":"8580.6999969482","correct":true,"confidence":4},{"trial_n":103,"span":12,"encoder":"271041528238","distractor":"271041128238","target":"present","response":"present","rt":"4936.6000022888","correct":true,"confidence":5},{"trial_n":104,"span":12,"encoder":"658767898181","distractor":"658767898184","target":"present","response":"present","rt":"3062.5","correct":true,"confidence":5},{"trial_n":105,"span":13,"encoder":"6411827452997","distractor":"6111827452997","target":"absent","response":"absent","rt":"3457.8999977112","correct":true,"confidence":4},{"trial_n":106,"span":13,"encoder":"7890716384990","distractor":"7893716384990","target":"present","response":"present","rt":"19012.799999237","correct":true,"confidence":2},{"trial_n":107,"span":14,"encoder":"92788938127761","distractor":"92788958127761","target":"absent","response":"absent","rt":"11436.200000763","correct":true,"confidence":1},{"trial_n":108,"span":14,"encoder":"89783765365942","distractor":"89783765365992","target":"absent","response":"absent","rt":"5915.2000007629","correct":true,"confidence":4},{"trial_n":109,"span":15,"encoder":"686946955541837","distractor":"686946995541837","target":"present","response":"present","rt":"3186.2000007629","correct":true,"confidence":4},{"trial_n":110,"span":15,"encoder":"692472003617630","distractor":"692472003607630","target":"absent","response":"absent","rt":"4158.7000007629","correct":true,"confidence":3},{"trial_n":111,"span":16,"encoder":"7438169816080493","distractor":"7435169816080493","target":"present","response":"present","rt":"14875.699996948","correct":true,"confidence":1},{"trial_n":112,"span":16,"encoder":"9064562661386206","distractor":"9064562661586206","target":"present","response":"absent","rt":"7077.8999977112","correct":false,"confidence":1},{"trial_n":113,"span":15,"encoder":"802719228861425","distractor":"802719228861465","target":"present","response":"present","rt":"3359","correct":true,"confidence":4},{"trial_n":114,"span":15,"encoder":"811336104000698","distractor":"811336104000699","target":"present","response":"present","rt":"4089.8999977112","correct":true,"confidence":4},{"trial_n":115,"span":16,"encoder":"4724433481241827","distractor":"4724433481291827","target":"present","response":"present","rt":"2845.2000007629","correct":true,"confidence":4},{"trial_n":116,"span":16,"encoder":"0191687160542429","distractor":"0191687560542429","target":"absent","response":"present","rt":"5183","correct":false,"confidence":2},{"trial_n":117,"span":15,"encoder":"221158629764682","distractor":"221158627764682","target":"present","response":"present","rt":"5643.5","correct":true,"confidence":4},{"trial_n":118,"span":15,"encoder":"435459348422440","distractor":"435459345422440","target":"present","response":"absent","rt":"11371.299999237","correct":false,"confidence":2},{"trial_n":119,"span":14,"encoder":"08168532959255","distractor":"02168532959255","target":"present","response":"present","rt":"6764.7999992371","correct":true,"confidence":1},{"trial_n":120,"span":14,"encoder":"10731973108591","distractor":"10731973148591","target":"absent","response":"absent","rt":"4373.5","correct":true,"confidence":1},{"trial_n":121,"span":15,"encoder":"926225218315776","distractor":"926225218315276","target":"absent","response":"absent","rt":"3667","correct":true,"confidence":4},{"trial_n":122,"span":15,"encoder":"357561076666012","distractor":"357561076666032","target":"present","response":"absent","rt":"7616.2000007629","correct":false,"confidence":1},{"trial_n":123,"span":14,"encoder":"70437974535451","distractor":"70437974535441","target":"present","response":"present","rt":"1937.8999977112","correct":true,"confidence":4},{"trial_n":124,"span":14,"encoder":"94459166375838","distractor":"94459166305838","target":"present","response":"present","rt":"5467.4000015259","correct":true,"confidence":3},{"trial_n":125,"span":15,"encoder":"678296161928769","distractor":"678296161528769","target":"present","response":"present","rt":"8467.0999984741","correct":true,"confidence":1},{"trial_n":126,"span":15,"encoder":"184496614969050","distractor":"180496614969050","target":"absent","response":"absent","rt":"8566.5","correct":true,"confidence":2},{"trial_n":127,"span":16,"encoder":"8907132769636458","distractor":"8607132769636458","target":"present","response":"absent","rt":"7167.9000015259","correct":false,"confidence":1},{"trial_n":128,"span":15,"encoder":"388000321915346","distractor":"888000321915346","target":"absent","response":"absent","rt":"4909.2000007629","correct":true,"confidence":4},{"trial_n":129,"span":15,"encoder":"874749260897980","distractor":"874749230897980","target":"absent","response":"present","rt":"7437.5","correct":false,"confidence":3},{"trial_n":130,"span":14,"encoder":"27953799525998","distractor":"27953799525398","target":"present","response":"present","rt":"2732.5999984741","correct":true,"confidence":4},{"trial_n":131,"span":14,"encoder":"52089369641714","distractor":"52089369641711","target":"absent","response":"absent","rt":"3044.7000007629","correct":true,"confidence":5},{"trial_n":132,"span":15,"encoder":"635079798031898","distractor":"635099798031898","target":"present","response":"present","rt":"8255.8999977112","correct":true,"confidence":3},{"trial_n":133,"span":15,"encoder":"720665192132944","distractor":"720665192132044","target":"present","response":"present","rt":"6104.1000022888","correct":true,"confidence":4},{"trial_n":134,"span":16,"encoder":"3541348552057008","distractor":"3541348552057508","target":"absent","response":"absent","rt":"3461.1000022888","correct":true,"confidence":3},{"trial_n":135,"span":16,"encoder":"7112039379385640","distractor":"7112039379375640","target":"absent","response":"absent","rt":"8501.0999984741","correct":true,"confidence":2},{"trial_n":136,"span":17,"encoder":"85324445900043265","distractor":"85324415900043265","target":"present","response":"absent","rt":"9704.6000022888","correct":false,"confidence":3},{"trial_n":137,"span":16,"encoder":"4719722184575930","distractor":"4719722124575930","target":"absent","response":"present","rt":"2763.4000015259","correct":false,"confidence":1},{"trial_n":138,"span":15,"encoder":"352273025576703","distractor":"352273085576703","target":"present","response":"present","rt":"12705.700000763","correct":true,"confidence":3},{"trial_n":139,"span":15,"encoder":"163498589351928","distractor":"163498589651928","target":"absent","response":"absent","rt":"24281.5","correct":true,"confidence":2},{"trial_n":140,"span":16,"encoder":"9089275950229744","distractor":"9089215950229744","target":"absent","response":"absent","rt":"4960","correct":true,"confidence":1}]