[{"trial_n":1,"n_dots":4.25,"target":"right","response":"left","rt":4584.5,"correct":false,"confidence":-1},{"trial_n":2,"n_dots":4.25,"target":"left","response":"left","rt":728.60000228882,"correct":true,"confidence":-1},{"trial_n":3,"n_dots":4.25,"target":"right","response":"right","rt":648.89999771118,"correct":true,"confidence":-1},{"trial_n":4,"n_dots":3.85,"target":"left","response":"left","rt":1246.2000007629,"correct":true,"confidence":-1},{"trial_n":5,"n_dots":3.85,"target":"right","response":"right","rt":503.59999847412,"correct":true,"confidence":-1},{"trial_n":6,"n_dots":3.45,"target":"left","response":"left","rt":330.80000305176,"correct":true,"confidence":-1},{"trial_n":7,"n_dots":3.45,"target":"left","response":"left","rt":353.40000152588,"correct":true,"confidence":-1},{"trial_n":8,"n_dots":3.25,"target":"right","response":"left","rt":368.5,"correct":false,"confidence":-1},{"trial_n":9,"n_dots":3.45,"target":"left","response":"left","rt":277.70000076294,"correct":true,"confidence":-1},{"trial_n":10,"n_dots":3.45,"target":"left","response":"left","rt":259.79999923706,"correct":true,"confidence":-1},{"trial_n":11,"n_dots":3.25,"target":"left","response":"left","rt":36.299999237061,"correct":true,"confidence":-1},{"trial_n":12,"n_dots":3.25,"target":"left","response":"left","rt":432.70000076294,"correct":true,"confidence":-1},{"trial_n":13,"n_dots":3.15,"target":"left","response":"left","rt":303.5,"correct":true,"confidence":-1},{"trial_n":14,"n_dots":3.15,"target":"left","response":"left","rt":386.70000076294,"correct":true,"confidence":-1},{"trial_n":15,"n_dots":3.05,"target":"right","response":"right","rt":775.5,"correct":true,"confidence":-1},{"trial_n":16,"n_dots":3.05,"target":"left","response":"left","rt":325,"correct":true,"confidence":-1},{"trial_n":17,"n_dots":2.95,"target":"right","response":"left","rt":275.80000305176,"correct":false,"confidence":-1},{"trial_n":18,"n_dots":3.05,"target":"right","response":"right","rt":674.5,"correct":true,"confidence":-1},{"trial_n":19,"n_dots":3.05,"target":"left","response":"left","rt":228.59999847412,"correct":true,"confidence":-1},{"trial_n":20,"n_dots":2.95,"target":"left","response":"left","rt":1289.7999992371,"correct":true,"confidence":-1},{"trial_n":21,"n_dots":2.95,"target":"left","response":"left","rt":300.30000305176,"correct":true,"confidence":4},{"trial_n":22,"n_dots":2.85,"target":"left","response":"left","rt":714.59999847412,"correct":true,"confidence":5},{"trial_n":23,"n_dots":2.85,"target":"left","response":"left","rt":608.89999771118,"correct":true,"confidence":4},{"trial_n":24,"n_dots":2.75,"target":"right","response":"right","rt":1635.8000030518,"correct":true,"confidence":3},{"trial_n":25,"n_dots":2.75,"target":"left","response":"left","rt":594.59999847412,"correct":true,"confidence":5},{"trial_n":26,"n_dots":2.65,"target":"right","response":"left","rt":820.10000228882,"correct":false,"confidence":4},{"trial_n":27,"n_dots":2.75,"target":"left","response":"left","rt":602,"correct":true,"confidence":5},{"trial_n":28,"n_dots":2.75,"target":"left","response":"left","rt":651.5,"correct":true,"confidence":4},{"trial_n":29,"n_dots":2.65,"target":"left","response":"left","rt":920.20000076294,"correct":true,"confidence":5},{"trial_n":30,"n_dots":2.65,"target":"left","response":"left","rt":886.79999923706,"correct":true,"confidence":4},{"trial_n":31,"n_dots":2.55,"target":"left","response":"left","rt":997,"correct":true,"confidence":3},{"trial_n":32,"n_dots":2.55,"target":"left","response":"left","rt":829.20000076294,"correct":true,"confidence":3},{"trial_n":33,"n_dots":2.45,"target":"right","response":"right","rt":872.90000152588,"correct":true,"confidence":4},{"trial_n":34,"n_dots":2.45,"target":"left","response":"right","rt":706.39999771118,"correct":false,"confidence":4},{"trial_n":35,"n_dots":2.55,"target":"right","response":"right","rt":831.59999847412,"correct":true,"confidence":4},{"trial_n":36,"n_dots":2.55,"target":"left","response":"left","rt":2013.5,"correct":true,"confidence":3},{"trial_n":37,"n_dots":2.45,"target":"right","response":"left","rt":2225.7000007629,"correct":false,"confidence":2},{"trial_n":38,"n_dots":2.55,"target":"right","response":"right","rt":1005.7999992371,"correct":true,"confidence":3},{"trial_n":39,"n_dots":2.55,"target":"right","response":"left","rt":2079.1000022888,"correct":false,"confidence":2},{"trial_n":40,"n_dots":2.65,"target":"right","response":"right","rt":1277.4000015259,"correct":true,"confidence":3},{"trial_n":41,"n_dots":2.65,"target":"left","response":"left","rt":624.40000152588,"correct":true,"confidence":3},{"trial_n":42,"n_dots":2.55,"target":"right","response":"left","rt":447.5,"correct":false,"confidence":3},{"trial_n":43,"n_dots":2.65,"target":"left","response":"left","rt":670.70000076294,"correct":true,"confidence":3},{"trial_n":44,"n_dots":2.65,"target":"right","response":"right","rt":639.59999847412,"correct":true,"confidence":2},{"trial_n":45,"n_dots":2.55,"target":"left","response":"left","rt":576.70000076294,"correct":true,"confidence":4},{"trial_n":46,"n_dots":2.55,"target":"left","response":"left","rt":621.79999923706,"correct":true,"confidence":4},{"trial_n":47,"n_dots":2.45,"target":"right","response":"left","rt":675.70000076294,"correct":false,"confidence":4},{"trial_n":48,"n_dots":2.55,"target":"left","response":"left","rt":637.60000228882,"correct":true,"confidence":3},{"trial_n":49,"n_dots":2.55,"target":"left","response":"left","rt":479.60000228882,"correct":true,"confidence":5},{"trial_n":50,"n_dots":2.45,"target":"left","response":"left","rt":614.89999771118,"correct":true,"confidence":4},{"trial_n":51,"n_dots":2.45,"target":"right","response":"right","rt":1245.9000015259,"correct":true,"confidence":3},{"trial_n":52,"n_dots":2.35,"target":"right","response":"left","rt":1257.9000015259,"correct":false,"confidence":3},{"trial_n":53,"n_dots":2.45,"target":"right","response":"right","rt":1274.1000022888,"correct":true,"confidence":4},{"trial_n":54,"n_dots":2.45,"target":"right","response":"left","rt":636.29999923706,"correct":false,"confidence":2},{"trial_n":55,"n_dots":2.55,"target":"left","response":"left","rt":861.39999771118,"correct":true,"confidence":3},{"trial_n":56,"n_dots":2.55,"target":"right","response":"right","rt":621.60000228882,"correct":true,"confidence":3},{"trial_n":57,"n_dots":2.45,"target":"left","response":"left","rt":264.79999923706,"correct":true,"confidence":3},{"trial_n":58,"n_dots":2.45,"target":"left","response":"left","rt":283.39999771118,"correct":true,"confidence":3},{"trial_n":59,"n_dots":2.35,"target":"right","response":"right","rt":412.09999847412,"correct":true,"confidence":4},{"trial_n":60,"n_dots":2.35,"target":"left","response":"left","rt":326,"correct":true,"confidence":4},{"trial_n":61,"n_dots":2.25,"target":"left","response":"right","rt":243.70000076294,"correct":false,"confidence":3},{"trial_n":62,"n_dots":2.35,"target":"right","response":"left","rt":298.09999847412,"correct":false,"confidence":2},{"trial_n":63,"n_dots":2.45,"target":"right","response":"right","rt":703.79999923706,"correct":true,"confidence":4},{"trial_n":64,"n_dots":2.45,"target":"left","response":"right","rt":517.10000228882,"correct":false,"confidence":4},{"trial_n":65,"n_dots":2.55,"target":"right","response":"right","rt":729.19999694824,"correct":true,"confidence":4},{"trial_n":66,"n_dots":2.55,"target":"right","response":"left","rt":449.5,"correct":false,"confidence":2},{"trial_n":67,"n_dots":2.65,"target":"right","response":"right","rt":376.40000152588,"correct":true,"confidence":4},{"trial_n":68,"n_dots":2.65,"target":"right","response":"left","rt":709.10000228882,"correct":false,"confidence":3},{"trial_n":69,"n_dots":2.75,"target":"left","response":"right","rt":514.09999847412,"correct":false,"confidence":2},{"trial_n":70,"n_dots":2.85,"target":"left","response":"left","rt":381.20000076294,"correct":true,"confidence":4},{"trial_n":71,"n_dots":2.85,"target":"right","response":"right","rt":637.90000152588,"correct":true,"confidence":2},{"trial_n":72,"n_dots":2.75,"target":"right","response":"right","rt":226.5,"correct":true,"confidence":4},{"trial_n":73,"n_dots":2.75,"target":"left","response":"left","rt":1001.4000015259,"correct":true,"confidence":4},{"trial_n":74,"n_dots":2.65,"target":"left","response":"left","rt":411.79999923706,"correct":true,"confidence":4},{"trial_n":75,"n_dots":2.65,"target":"right","response":"left","rt":367.29999923706,"correct":false,"confidence":3},{"trial_n":76,"n_dots":2.75,"target":"left","response":"left","rt":323.70000076294,"correct":true,"confidence":3},{"trial_n":77,"n_dots":2.75,"target":"right","response":"right","rt":193.70000076294,"correct":true,"confidence":3},{"trial_n":78,"n_dots":2.65,"target":"right","response":"right","rt":697.70000076294,"correct":true,"confidence":3},{"trial_n":79,"n_dots":2.65,"target":"left","response":"left","rt":333.20000076294,"correct":true,"confidence":4},{"trial_n":80,"n_dots":2.55,"target":"left","response":"left","rt":353.60000228882,"correct":true,"confidence":3},{"trial_n":81,"n_dots":2.55,"target":"left","response":"right","rt":643.60000228882,"correct":false,"confidence":3},{"trial_n":82,"n_dots":2.65,"target":"right","response":"left","rt":1652.6000022888,"correct":false,"confidence":2},{"trial_n":83,"n_dots":2.75,"target":"right","response":"right","rt":156.79999923706,"correct":true,"confidence":3},{"trial_n":84,"n_dots":2.75,"target":"left","response":"left","rt":310.09999847412,"correct":true,"confidence":4},{"trial_n":85,"n_dots":2.65,"target":"right","response":"right","rt":1505.9000015259,"correct":true,"confidence":1},{"trial_n":86,"n_dots":2.65,"target":"right","response":"right","rt":868.79999923706,"correct":true,"confidence":2},{"trial_n":87,"n_dots":2.55,"target":"right","response":"right","rt":566,"correct":true,"confidence":2},{"trial_n":88,"n_dots":2.55,"target":"right","response":"left","rt":798.39999771118,"correct":false,"confidence":2},{"trial_n":89,"n_dots":2.65,"target":"left","response":"left","rt":470.60000228882,"correct":true,"confidence":3},{"trial_n":90,"n_dots":2.65,"target":"right","response":"left","rt":504.79999923706,"correct":false,"confidence":3},{"trial_n":91,"n_dots":2.75,"target":"right","response":"right","rt":580.59999847412,"correct":true,"confidence":3},{"trial_n":92,"n_dots":2.75,"target":"left","response":"right","rt":1599.6000022888,"correct":false,"confidence":1},{"trial_n":93,"n_dots":2.85,"target":"right","response":"left","rt":983.80000305176,"correct":false,"confidence":2},{"trial_n":94,"n_dots":2.95,"target":"right","response":"right","rt":426.29999923706,"correct":true,"confidence":2},{"trial_n":95,"n_dots":2.95,"target":"right","response":"left","rt":537.79999923706,"correct":false,"confidence":2},{"trial_n":96,"n_dots":3.05,"target":"right","response":"right","rt":314.40000152588,"correct":true,"confidence":3},{"trial_n":97,"n_dots":3.05,"target":"left","response":"left","rt":532.5,"correct":true,"confidence":1},{"trial_n":98,"n_dots":2.95,"target":"right","response":"right","rt":520.79999923706,"correct":true,"confidence":3},{"trial_n":99,"n_dots":2.95,"target":"left","response":"left","rt":1200.7000007629,"correct":true,"confidence":2},{"trial_n":100,"n_dots":2.85,"target":"left","response":"right","rt":357.29999923706,"correct":false,"confidence":2},{"trial_n":101,"n_dots":2.95,"target":"left","response":"right","rt":1411.2999992371,"correct":false,"confidence":1},{"trial_n":102,"n_dots":3.05,"target":"right","response":"right","rt":1015.6000022888,"correct":true,"confidence":2},{"trial_n":103,"n_dots":3.05,"target":"right","response":"right","rt":652.40000152588,"correct":true,"confidence":2},{"trial_n":104,"n_dots":2.95,"target":"left","response":"right","rt":488.69999694824,"correct":false,"confidence":2},{"trial_n":105,"n_dots":3.05,"target":"left","response":"left","rt":963.39999771118,"correct":true,"confidence":2},{"trial_n":106,"n_dots":3.05,"target":"left","response":"left","rt":345.79999923706,"correct":true,"confidence":3},{"trial_n":107,"n_dots":2.95,"target":"right","response":"left","rt":1026.7999992371,"correct":false,"confidence":3},{"trial_n":108,"n_dots":3.05,"target":"right","response":"right","rt":2674.7000007629,"correct":true,"confidence":1},{"trial_n":109,"n_dots":3.05,"target":"left","response":"right","rt":1993.2000007629,"correct":false,"confidence":1},{"trial_n":110,"n_dots":3.15,"target":"right","response":"left","rt":511,"correct":false,"confidence":3},{"trial_n":111,"n_dots":3.25,"target":"right","response":"left","rt":1531.2999992371,"correct":false,"confidence":1},{"trial_n":112,"n_dots":3.35,"target":"right","response":"left","rt":1361.7000007629,"correct":false,"confidence":1},{"trial_n":113,"n_dots":3.45,"target":"left","response":"right","rt":1068.1000022888,"correct":false,"confidence":1},{"trial_n":114,"n_dots":3.55,"target":"right","response":"left","rt":1420.9000015259,"correct":false,"confidence":2},{"trial_n":115,"n_dots":3.65,"target":"right","response":"right","rt":844.70000076294,"correct":true,"confidence":2},{"trial_n":116,"n_dots":3.65,"target":"right","response":"right","rt":654.79999923706,"correct":true,"confidence":2},{"trial_n":117,"n_dots":3.55,"target":"right","response":"right","rt":1691,"correct":true,"confidence":1},{"trial_n":118,"n_dots":3.55,"target":"left","response":"left","rt":674.29999923706,"correct":true,"confidence":3},{"trial_n":119,"n_dots":3.45,"target":"left","response":"right","rt":598.20000076294,"correct":false,"confidence":1},{"trial_n":120,"n_dots":3.55,"target":"right","response":"right","rt":1179.7999992371,"correct":true,"confidence":1}]