[{"trial_n":1,"span":8,"encoder":"52861861","distractor":"52863861","target":"present","response":"present","rt":"3904.900000006","correct":true,"confidence":-1},{"trial_n":2,"span":8,"encoder":"90080042","distractor":"90081042","target":"present","response":"present","rt":"2613.5","correct":true,"confidence":-1},{"trial_n":3,"span":10,"encoder":"4440988803","distractor":"4440980803","target":"absent","response":"present","rt":"3345","correct":false,"confidence":-1},{"trial_n":4,"span":8,"encoder":"10849151","distractor":"60849151","target":"absent","response":"absent","rt":"3045.1999999881","correct":true,"confidence":-1},{"trial_n":5,"span":8,"encoder":"66727302","distractor":"66727308","target":"present","response":"present","rt":"3656","correct":true,"confidence":-1},{"trial_n":6,"span":10,"encoder":"7660138188","distractor":"7664138188","target":"present","response":"present","rt":"5413.3000000119","correct":true,"confidence":-1},{"trial_n":7,"span":10,"encoder":"3896957008","distractor":"3896927008","target":"present","response":"absent","rt":"4057.8999999762","correct":false,"confidence":-1},{"trial_n":8,"span":8,"encoder":"49418247","distractor":"59418247","target":"present","response":"present","rt":"3754.7999999821","correct":true,"confidence":-1},{"trial_n":9,"span":8,"encoder":"94219977","distractor":"94214977","target":"absent","response":"absent","rt":"3396.7000000179","correct":true,"confidence":-1},{"trial_n":10,"span":10,"encoder":"2248723974","distractor":"2248743974","target":"absent","response":"absent","rt":"3056.099999994","correct":true,"confidence":-1},{"trial_n":11,"span":10,"encoder":"0533370994","distractor":"0523370994","target":"absent","response":"present","rt":"2755.8000000119","correct":false,"confidence":-1},{"trial_n":12,"span":9,"encoder":"866795650","distractor":"866195650","target":"absent","response":"present","rt":"2184.599999994","correct":false,"confidence":-1},{"trial_n":13,"span":8,"encoder":"99310763","distractor":"99300763","target":"absent","response":"absent","rt":"3575.3999999762","correct":true,"confidence":-1},{"trial_n":14,"span":8,"encoder":"11626615","distractor":"11626655","target":"present","response":"present","rt":"3187.900000006","correct":true,"confidence":-1},{"trial_n":15,"span":9,"encoder":"968640732","distractor":"963640732","target":"absent","response":"present","rt":"4597.7000000179","correct":false,"confidence":-1},{"trial_n":16,"span":8,"encoder":"21578546","distractor":"21577546","target":"absent","response":"present","rt":"2561.3000000119","correct":false,"confidence":-1},{"trial_n":17,"span":7,"encoder":"6585417","distractor":"7585417","target":"present","response":"present","rt":"3067.5","correct":true,"confidence":-1},{"trial_n":18,"span":7,"encoder":"8244432","distractor":"8248432","target":"present","response":"present","rt":"1557.099999994","correct":true,"confidence":-1},{"trial_n":19,"span":8,"encoder":"37467340","distractor":"37467320","target":"absent","response":"absent","rt":"3605.099999994","correct":true,"confidence":-1},{"trial_n":20,"span":8,"encoder":"44233036","distractor":"44236036","target":"absent","response":"absent","rt":"3556.099999994","correct":true,"confidence":-1},{"trial_n":21,"span":9,"encoder":"591727000","distractor":"591728000","target":"present","response":"absent","rt":"10615.400000006","correct":false,"confidence":4},{"trial_n":22,"span":8,"encoder":"66984428","distractor":"16984428","target":"absent","response":"absent","rt":"2297.2999999821","correct":true,"confidence":5},{"trial_n":23,"span":8,"encoder":"30501368","distractor":"30501318","target":"absent","response":"present","rt":"10081","correct":false,"confidence":2},{"trial_n":24,"span":7,"encoder":"9272996","distractor":"9672996","target":"absent","response":"present","rt":"2486.7999999821","correct":false,"confidence":5},{"trial_n":25,"span":6,"encoder":"787599","distractor":"787592","target":"present","response":"present","rt":"3285.1999999881","correct":true,"confidence":5},{"trial_n":26,"span":6,"encoder":"054718","distractor":"054712","target":"absent","response":"absent","rt":"1917.5","correct":true,"confidence":5},{"trial_n":27,"span":7,"encoder":"0081047","distractor":"0081048","target":"present","response":"absent","rt":"10289.400000006","correct":false,"confidence":3},{"trial_n":28,"span":6,"encoder":"070319","distractor":"070310","target":"absent","response":"absent","rt":"1667.1000000238","correct":true,"confidence":5},{"trial_n":29,"span":6,"encoder":"822444","distractor":"822944","target":"absent","response":"absent","rt":"2951.6999999881","correct":true,"confidence":5},{"trial_n":30,"span":7,"encoder":"1770096","distractor":"1779096","target":"absent","response":"present","rt":"4184.3000000119","correct":false,"confidence":4},{"trial_n":31,"span":6,"encoder":"607544","distractor":"607244","target":"absent","response":"absent","rt":"4254.099999994","correct":true,"confidence":5},{"trial_n":32,"span":6,"encoder":"586617","distractor":"586613","target":"present","response":"present","rt":"2327.5","correct":true,"confidence":5},{"trial_n":33,"span":7,"encoder":"4636515","distractor":"4686515","target":"present","response":"absent","rt":"5035.5","correct":false,"confidence":3},{"trial_n":34,"span":6,"encoder":"916720","distractor":"916780","target":"absent","response":"absent","rt":"2971.8000000119","correct":true,"confidence":5},{"trial_n":35,"span":6,"encoder":"035386","distractor":"035384","target":"present","response":"absent","rt":"4998.900000006","correct":false,"confidence":5},{"trial_n":36,"span":5,"encoder":"19573","distractor":"19563","target":"present","response":"present","rt":"2363.900000006","correct":true,"confidence":5},{"trial_n":37,"span":5,"encoder":"26152","distractor":"26154","target":"absent","response":"absent","rt":"4648.1999999881","correct":true,"confidence":5},{"trial_n":38,"span":6,"encoder":"444193","distractor":"447193","target":"present","response":"present","rt":"1838.6000000238","correct":true,"confidence":5},{"trial_n":39,"span":6,"encoder":"640316","distractor":"640376","target":"absent","response":"absent","rt":"2796.400000006","correct":true,"confidence":5},{"trial_n":40,"span":7,"encoder":"6223983","distractor":"6223963","target":"present","response":"present","rt":"3078","correct":true,"confidence":5},{"trial_n":41,"span":7,"encoder":"5427304","distractor":"5427301","target":"absent","response":"absent","rt":"3235.599999994","correct":true,"confidence":5},{"trial_n":42,"span":8,"encoder":"70507242","distractor":"50507242","target":"present","response":"present","rt":"4177.900000006","correct":true,"confidence":5},{"trial_n":43,"span":8,"encoder":"96060292","distractor":"96060290","target":"absent","response":"absent","rt":"7356.8000000119","correct":true,"confidence":4},{"trial_n":44,"span":9,"encoder":"171123489","distractor":"171127489","target":"present","response":"absent","rt":"5722.2000000179","correct":false,"confidence":2},{"trial_n":45,"span":8,"encoder":"99553157","distractor":"99953157","target":"absent","response":"absent","rt":"4527.5","correct":true,"confidence":4},{"trial_n":46,"span":8,"encoder":"18592293","distractor":"18502293","target":"present","response":"absent","rt":"5856.1999999881","correct":false,"confidence":4},{"trial_n":47,"span":7,"encoder":"5855326","distractor":"5855226","target":"present","response":"present","rt":"2790.3000000119","correct":true,"confidence":5},{"trial_n":48,"span":7,"encoder":"8471917","distractor":"8471911","target":"present","response":"present","rt":"3866.7000000179","correct":true,"confidence":5},{"trial_n":49,"span":8,"encoder":"81708476","distractor":"81708376","target":"absent","response":"absent","rt":"8750.599999994","correct":true,"confidence":2},{"trial_n":50,"span":8,"encoder":"15583733","distractor":"85583733","target":"present","response":"present","rt":"4045.6000000238","correct":true,"confidence":4},{"trial_n":51,"span":9,"encoder":"671602514","distractor":"671502514","target":"present","response":"present","rt":"3526.2000000179","correct":true,"confidence":5},{"trial_n":52,"span":9,"encoder":"668474105","distractor":"368474105","target":"absent","response":"present","rt":"4598.400000006","correct":false,"confidence":3},{"trial_n":53,"span":8,"encoder":"94262833","distractor":"98262833","target":"present","response":"absent","rt":"5586.400000006","correct":false,"confidence":3},{"trial_n":54,"span":7,"encoder":"0542117","distractor":"0532117","target":"absent","response":"absent","rt":"6778.2999999821","correct":true,"confidence":3},{"trial_n":55,"span":7,"encoder":"8674266","distractor":"8274266","target":"present","response":"absent","rt":"4754.400000006","correct":false,"confidence":4},{"trial_n":56,"span":6,"encoder":"975386","distractor":"575386","target":"present","response":"present","rt":"2631.6999999881","correct":true,"confidence":5},{"trial_n":57,"span":6,"encoder":"319207","distractor":"319287","target":"present","response":"present","rt":"2661.5","correct":true,"confidence":5},{"trial_n":58,"span":7,"encoder":"2974881","distractor":"6974881","target":"present","response":"absent","rt":"3970.099999994","correct":false,"confidence":5},{"trial_n":59,"span":6,"encoder":"498949","distractor":"498969","target":"present","response":"present","rt":"11327.5","correct":true,"confidence":2},{"trial_n":60,"span":6,"encoder":"370822","distractor":"970822","target":"present","response":"present","rt":"5871.1000000238","correct":true,"confidence":5},{"trial_n":61,"span":7,"encoder":"8017715","distractor":"8067715","target":"absent","response":"absent","rt":"7470.7999999821","correct":true,"confidence":2},{"trial_n":62,"span":7,"encoder":"0378119","distractor":"0378109","target":"absent","response":"absent","rt":"3999","correct":true,"confidence":5},{"trial_n":63,"span":8,"encoder":"32979700","distractor":"32929700","target":"present","response":"present","rt":"4406.2999999821","correct":true,"confidence":3},{"trial_n":64,"span":8,"encoder":"01950667","distractor":"01950668","target":"present","response":"present","rt":"3507.7999999821","correct":true,"confidence":2},{"trial_n":65,"span":9,"encoder":"645328303","distractor":"645328308","target":"absent","response":"absent","rt":"2706.5","correct":true,"confidence":5},{"trial_n":66,"span":9,"encoder":"847733570","distractor":"847733970","target":"absent","response":"absent","rt":"4315.099999994","correct":true,"confidence":5},{"trial_n":67,"span":10,"encoder":"7610731883","distractor":"7610731583","target":"present","response":"present","rt":"7841.400000006","correct":true,"confidence":3},{"trial_n":68,"span":10,"encoder":"9002371833","distractor":"9002311833","target":"absent","response":"absent","rt":"4256.5","correct":true,"confidence":3},{"trial_n":69,"span":11,"encoder":"38459998743","distractor":"38459098743","target":"absent","response":"absent","rt":"2360.099999994","correct":true,"confidence":5},{"trial_n":70,"span":11,"encoder":"54946452145","distractor":"54946452155","target":"present","response":"present","rt":"6197.1999999881","correct":true,"confidence":5},{"trial_n":71,"span":8,"encoder":"77030934","distractor":"77030334","target":"present","response":"present","rt":"5899.599999994","correct":true,"confidence":-1},{"trial_n":72,"span":8,"encoder":"12232445","distractor":"12232495","target":"present","response":"present","rt":"5683.900000006","correct":true,"confidence":-1},{"trial_n":73,"span":9,"encoder":"455532000","distractor":"455532700","target":"absent","response":"absent","rt":"8157.2999999821","correct":true,"confidence":-1},{"trial_n":74,"span":9,"encoder":"150509449","distractor":"150409449","target":"absent","response":"absent","rt":"6007.3999999762","correct":true,"confidence":-1},{"trial_n":75,"span":10,"encoder":"2741721586","distractor":"2741727586","target":"present","response":"absent","rt":"7279.099999994","correct":false,"confidence":-1},{"trial_n":76,"span":9,"encoder":"361458939","distractor":"361358939","target":"absent","response":"absent","rt":"6613.900000006","correct":true,"confidence":-1},{"trial_n":77,"span":9,"encoder":"932280095","distractor":"932280695","target":"absent","response":"present","rt":"3944.900000006","correct":false,"confidence":-1},{"trial_n":78,"span":8,"encoder":"96928381","distractor":"92928381","target":"absent","response":"present","rt":"3686.7999999821","correct":false,"confidence":-1},{"trial_n":79,"span":7,"encoder":"9464890","distractor":"9466890","target":"absent","response":"absent","rt":"5688.6000000238","correct":true,"confidence":-1},{"trial_n":80,"span":7,"encoder":"5473536","distractor":"5483536","target":"present","response":"present","rt":"4724.1000000238","correct":true,"confidence":-1},{"trial_n":81,"span":8,"encoder":"96489093","distractor":"96189093","target":"absent","response":"absent","rt":"4059.400000006","correct":true,"confidence":-1},{"trial_n":82,"span":8,"encoder":"33515886","distractor":"33505886","target":"absent","response":"absent","rt":"7266.1999999881","correct":true,"confidence":-1},{"trial_n":83,"span":9,"encoder":"733435599","distractor":"733435199","target":"present","response":"absent","rt":"9175.3000000119","correct":false,"confidence":-1},{"trial_n":84,"span":8,"encoder":"76105371","distractor":"76195371","target":"present","response":"absent","rt":"1378.1000000238","correct":false,"confidence":-1},{"trial_n":85,"span":7,"encoder":"2129730","distractor":"2119730","target":"present","response":"present","rt":"5225.900000006","correct":true,"confidence":-1},{"trial_n":86,"span":7,"encoder":"2460767","distractor":"2480767","target":"present","response":"absent","rt":"11842.900000006","correct":false,"confidence":-1},{"trial_n":87,"span":6,"encoder":"785783","distractor":"785283","target":"present","response":"present","rt":"4104","correct":true,"confidence":-1},{"trial_n":88,"span":6,"encoder":"503730","distractor":"503736","target":"absent","response":"absent","rt":"3075.599999994","correct":true,"confidence":-1},{"trial_n":89,"span":7,"encoder":"3544497","distractor":"8544497","target":"present","response":"present","rt":"3173.5","correct":true,"confidence":-1},{"trial_n":90,"span":7,"encoder":"8041173","distractor":"8041673","target":"absent","response":"absent","rt":"4498.900000006","correct":true,"confidence":-1},{"trial_n":91,"span":8,"encoder":"40756674","distractor":"40751674","target":"absent","response":"present","rt":"6292.8999999762","correct":false,"confidence":3},{"trial_n":92,"span":7,"encoder":"3352804","distractor":"3352304","target":"present","response":"present","rt":"3642.099999994","correct":true,"confidence":5},{"trial_n":93,"span":7,"encoder":"1805857","distractor":"1800857","target":"present","response":"present","rt":"5275.5","correct":true,"confidence":4},{"trial_n":94,"span":8,"encoder":"90297370","distractor":"90297350","target":"present","response":"absent","rt":"6300.599999994","correct":false,"confidence":2},{"trial_n":95,"span":7,"encoder":"4317834","distractor":"4317839","target":"present","response":"present","rt":"2966.2000000179","correct":true,"confidence":5},{"trial_n":96,"span":7,"encoder":"8915215","distractor":"8315215","target":"absent","response":"absent","rt":"2543.1999999881","correct":true,"confidence":5},{"trial_n":97,"span":8,"encoder":"41428174","distractor":"41425174","target":"absent","response":"absent","rt":"5072.400000006","correct":true,"confidence":4},{"trial_n":98,"span":8,"encoder":"95622863","distractor":"95672863","target":"present","response":"present","rt":"3179","correct":true,"confidence":5},{"trial_n":99,"span":9,"encoder":"564160047","distractor":"564960047","target":"present","response":"present","rt":"7276","correct":true,"confidence":2},{"trial_n":100,"span":9,"encoder":"626625297","distractor":"626624297","target":"present","response":"present","rt":"5083.099999994","correct":true,"confidence":5},{"trial_n":101,"span":10,"encoder":"4984062449","distractor":"4934062449","target":"present","response":"present","rt":"5374.7999999821","correct":true,"confidence":3},{"trial_n":102,"span":10,"encoder":"6127309330","distractor":"6127309335","target":"present","response":"present","rt":"4051.7000000179","correct":true,"confidence":5},{"trial_n":103,"span":11,"encoder":"04294385246","distractor":"04294385296","target":"present","response":"absent","rt":"7709.7999999821","correct":false,"confidence":4},{"trial_n":104,"span":10,"encoder":"5980354582","distractor":"7980354582","target":"present","response":"present","rt":"4479.1000000238","correct":true,"confidence":5},{"trial_n":105,"span":10,"encoder":"1945044474","distractor":"1945046474","target":"present","response":"present","rt":"3676.5","correct":true,"confidence":5},{"trial_n":106,"span":11,"encoder":"12699925604","distractor":"12629925604","target":"present","response":"absent","rt":"16943","correct":false,"confidence":5},{"trial_n":107,"span":10,"encoder":"4071424102","distractor":"4071424122","target":"absent","response":"absent","rt":"5233","correct":true,"confidence":4},{"trial_n":108,"span":10,"encoder":"2341391669","distractor":"2346391669","target":"absent","response":"absent","rt":"7875.900000006","correct":true,"confidence":4},{"trial_n":109,"span":11,"encoder":"79305568165","distractor":"79105568165","target":"present","response":"present","rt":"7735.2999999821","correct":true,"confidence":2},{"trial_n":110,"span":11,"encoder":"28942144700","distractor":"28942146700","target":"present","response":"absent","rt":"4633.5","correct":false,"confidence":5},{"trial_n":111,"span":10,"encoder":"9035498196","distractor":"9035498996","target":"present","response":"present","rt":"3731.8000000119","correct":true,"confidence":5},{"trial_n":112,"span":10,"encoder":"9110725077","distractor":"9160725077","target":"absent","response":"present","rt":"9989.1999999881","correct":false,"confidence":1},{"trial_n":113,"span":9,"encoder":"971961521","distractor":"671961521","target":"absent","response":"absent","rt":"4771.5","correct":true,"confidence":5},{"trial_n":114,"span":9,"encoder":"246570752","distractor":"246570732","target":"absent","response":"present","rt":"4883.3999999762","correct":false,"confidence":2},{"trial_n":115,"span":8,"encoder":"39346047","distractor":"34346047","target":"present","response":"present","rt":"10099.099999994","correct":true,"confidence":5},{"trial_n":116,"span":8,"encoder":"00807983","distractor":"00807083","target":"absent","response":"absent","rt":"4314.1999999881","correct":true,"confidence":5},{"trial_n":117,"span":9,"encoder":"743369260","distractor":"743361260","target":"absent","response":"absent","rt":"5854.599999994","correct":true,"confidence":5},{"trial_n":118,"span":9,"encoder":"915206805","distractor":"915606805","target":"present","response":"absent","rt":"3618.7000000179","correct":false,"confidence":4},{"trial_n":119,"span":8,"encoder":"89866458","distractor":"89866658","target":"present","response":"present","rt":"4708.400000006","correct":true,"confidence":4},{"trial_n":120,"span":8,"encoder":"19557806","distractor":"19657806","target":"absent","response":"absent","rt":"6870.599999994","correct":true,"confidence":5},{"trial_n":121,"span":9,"encoder":"993002548","distractor":"993602548","target":"absent","response":"absent","rt":"5046.3000000119","correct":true,"confidence":4},{"trial_n":122,"span":9,"encoder":"657489297","distractor":"657789297","target":"present","response":"present","rt":"4400.6999999881","correct":true,"confidence":5},{"trial_n":123,"span":10,"encoder":"9547764835","distractor":"0547764835","target":"absent","response":"absent","rt":"2642.8000000119","correct":true,"confidence":5},{"trial_n":124,"span":10,"encoder":"7026572974","distractor":"7026512974","target":"absent","response":"absent","rt":"6684.400000006","correct":true,"confidence":2},{"trial_n":125,"span":11,"encoder":"13771552120","distractor":"13775552120","target":"present","response":"present","rt":"3149.599999994","correct":true,"confidence":5},{"trial_n":126,"span":11,"encoder":"58382509153","distractor":"58382509150","target":"absent","response":"absent","rt":"9699.1999999881","correct":true,"confidence":1},{"trial_n":127,"span":12,"encoder":"182219282670","distractor":"189219282670","target":"present","response":"absent","rt":"7511.400000006","correct":false,"confidence":2},{"trial_n":128,"span":11,"encoder":"54913766047","distractor":"52913766047","target":"absent","response":"absent","rt":"5135","correct":true,"confidence":3},{"trial_n":129,"span":11,"encoder":"74002724893","distractor":"74002724896","target":"present","response":"present","rt":"3966.7999999821","correct":true,"confidence":5},{"trial_n":130,"span":12,"encoder":"271787155852","distractor":"270787155852","target":"present","response":"present","rt":"7241.3000000119","correct":true,"confidence":3},{"trial_n":131,"span":12,"encoder":"242327989595","distractor":"248327989595","target":"absent","response":"present","rt":"10755.899999976","correct":false,"confidence":2},{"trial_n":132,"span":11,"encoder":"48129785109","distractor":"78129785109","target":"absent","response":"absent","rt":"5119.8000000119","correct":true,"confidence":4},{"trial_n":133,"span":11,"encoder":"58265023391","distractor":"58265023395","target":"absent","response":"absent","rt":"7326.7000000179","correct":true,"confidence":5},{"trial_n":134,"span":12,"encoder":"280050809339","distractor":"281050809339","target":"present","response":"absent","rt":"4434.900000006","correct":false,"confidence":4},{"trial_n":135,"span":11,"encoder":"21753317294","distractor":"21753017294","target":"absent","response":"absent","rt":"5649.5","correct":true,"confidence":4},{"trial_n":136,"span":11,"encoder":"33578643278","distractor":"33578649278","target":"absent","response":"absent","rt":"4084.3000000119","correct":true,"confidence":5},{"trial_n":137,"span":12,"encoder":"366130644482","distractor":"368130644482","target":"absent","response":"present","rt":"5010.900000006","correct":false,"confidence":4},{"trial_n":138,"span":11,"encoder":"51693757051","distractor":"41693757051","target":"absent","response":"absent","rt":"4852.1999999881","correct":true,"confidence":2},{"trial_n":139,"span":11,"encoder":"39860027447","distractor":"39860027487","target":"present","response":"absent","rt":"6256.6999999881","correct":false,"confidence":4},{"trial_n":140,"span":10,"encoder":"8399446729","distractor":"6399446729","target":"absent","response":"absent","rt":"3762.900000006","correct":true,"confidence":5}]