[{"trial_n":1,"n_dots":4.25,"target":"left","response":"left","rt":2964,"correct":true,"confidence":-1},{"trial_n":2,"n_dots":4.25,"target":"left","response":"left","rt":1223.400000006,"correct":true,"confidence":-1},{"trial_n":3,"n_dots":3.85,"target":"left","response":"right","rt":1119.400000006,"correct":false,"confidence":-1},{"trial_n":4,"n_dots":4.25,"target":"right","response":"right","rt":781.30000001192,"correct":true,"confidence":-1},{"trial_n":5,"n_dots":4.25,"target":"left","response":"left","rt":1449.3999999762,"correct":true,"confidence":-1},{"trial_n":6,"n_dots":3.85,"target":"right","response":"right","rt":793.80000001192,"correct":true,"confidence":-1},{"trial_n":7,"n_dots":3.85,"target":"right","response":"right","rt":769.29999998212,"correct":true,"confidence":-1},{"trial_n":8,"n_dots":3.65,"target":"right","response":"right","rt":687,"correct":true,"confidence":-1},{"trial_n":9,"n_dots":3.65,"target":"left","response":"left","rt":974.10000002384,"correct":true,"confidence":-1},{"trial_n":10,"n_dots":3.45,"target":"left","response":"right","rt":955.90000000596,"correct":false,"confidence":-1},{"trial_n":11,"n_dots":3.65,"target":"left","response":"left","rt":763.19999998808,"correct":true,"confidence":-1},{"trial_n":12,"n_dots":3.65,"target":"left","response":"left","rt":640.90000000596,"correct":true,"confidence":-1},{"trial_n":13,"n_dots":3.55,"target":"left","response":"right","rt":715.89999997616,"correct":false,"confidence":-1},{"trial_n":14,"n_dots":3.65,"target":"left","response":"left","rt":765.19999998808,"correct":true,"confidence":-1},{"trial_n":15,"n_dots":3.65,"target":"right","response":"right","rt":715.69999998808,"correct":true,"confidence":-1},{"trial_n":16,"n_dots":3.55,"target":"right","response":"right","rt":381.69999998808,"correct":true,"confidence":-1},{"trial_n":17,"n_dots":3.55,"target":"left","response":"right","rt":703.80000001192,"correct":false,"confidence":-1},{"trial_n":18,"n_dots":3.65,"target":"left","response":"left","rt":626.5,"correct":true,"confidence":-1},{"trial_n":19,"n_dots":3.65,"target":"left","response":"left","rt":3580.2000000179,"correct":true,"confidence":-1},{"trial_n":20,"n_dots":3.55,"target":"right","response":"right","rt":603.80000001192,"correct":true,"confidence":-1},{"trial_n":21,"n_dots":3.55,"target":"left","response":"left","rt":856.69999998808,"correct":true,"confidence":4},{"trial_n":22,"n_dots":3.45,"target":"left","response":"left","rt":1657.8000000119,"correct":true,"confidence":3},{"trial_n":23,"n_dots":3.45,"target":"right","response":"right","rt":818.90000000596,"correct":true,"confidence":3},{"trial_n":24,"n_dots":3.35,"target":"right","response":"right","rt":797,"correct":true,"confidence":4},{"trial_n":25,"n_dots":3.35,"target":"right","response":"left","rt":1057.400000006,"correct":false,"confidence":3},{"trial_n":26,"n_dots":3.45,"target":"right","response":"right","rt":581.69999998808,"correct":true,"confidence":3},{"trial_n":27,"n_dots":3.45,"target":"left","response":"right","rt":726.80000001192,"correct":false,"confidence":3},{"trial_n":28,"n_dots":3.55,"target":"right","response":"right","rt":917.80000001192,"correct":true,"confidence":4},{"trial_n":29,"n_dots":3.55,"target":"right","response":"right","rt":1005.599999994,"correct":true,"confidence":4},{"trial_n":30,"n_dots":3.45,"target":"right","response":"right","rt":1687.1999999881,"correct":true,"confidence":4},{"trial_n":31,"n_dots":3.45,"target":"right","response":"left","rt":982.29999998212,"correct":false,"confidence":3},{"trial_n":32,"n_dots":3.55,"target":"left","response":"left","rt":834.19999998808,"correct":true,"confidence":3},{"trial_n":33,"n_dots":3.55,"target":"right","response":"right","rt":746.20000001788,"correct":true,"confidence":3},{"trial_n":34,"n_dots":3.45,"target":"right","response":"right","rt":539.79999998212,"correct":true,"confidence":3},{"trial_n":35,"n_dots":3.45,"target":"right","response":"left","rt":939.59999999404,"correct":false,"confidence":3},{"trial_n":36,"n_dots":3.55,"target":"left","response":"right","rt":733,"correct":false,"confidence":4},{"trial_n":37,"n_dots":3.65,"target":"right","response":"right","rt":952.80000001192,"correct":true,"confidence":4},{"trial_n":38,"n_dots":3.65,"target":"right","response":"left","rt":610.90000000596,"correct":false,"confidence":4},{"trial_n":39,"n_dots":3.75,"target":"left","response":"left","rt":1346.3000000119,"correct":true,"confidence":3},{"trial_n":40,"n_dots":3.75,"target":"right","response":"right","rt":710.20000001788,"correct":true,"confidence":4},{"trial_n":41,"n_dots":3.65,"target":"left","response":"right","rt":645.59999999404,"correct":false,"confidence":5},{"trial_n":42,"n_dots":3.75,"target":"left","response":"right","rt":486.40000000596,"correct":false,"confidence":5},{"trial_n":43,"n_dots":3.85,"target":"left","response":"left","rt":510.79999998212,"correct":true,"confidence":3},{"trial_n":44,"n_dots":3.85,"target":"right","response":"right","rt":248.20000001788,"correct":true,"confidence":4},{"trial_n":45,"n_dots":3.75,"target":"left","response":"left","rt":309,"correct":true,"confidence":5},{"trial_n":46,"n_dots":3.75,"target":"right","response":"right","rt":1770.6000000238,"correct":true,"confidence":4},{"trial_n":47,"n_dots":3.65,"target":"right","response":"left","rt":151.09999999404,"correct":false,"confidence":3},{"trial_n":48,"n_dots":3.75,"target":"right","response":"right","rt":1225.3000000119,"correct":true,"confidence":5},{"trial_n":49,"n_dots":3.75,"target":"right","response":"left","rt":151.70000001788,"correct":false,"confidence":3},{"trial_n":50,"n_dots":3.85,"target":"left","response":"right","rt":272.90000000596,"correct":false,"confidence":3},{"trial_n":51,"n_dots":3.95,"target":"right","response":"right","rt":364.89999997616,"correct":true,"confidence":4},{"trial_n":52,"n_dots":3.95,"target":"right","response":"right","rt":17.40000000596,"correct":true,"confidence":4},{"trial_n":53,"n_dots":3.85,"target":"right","response":"right","rt":263,"correct":true,"confidence":4},{"trial_n":54,"n_dots":3.85,"target":"right","response":"right","rt":735.39999997616,"correct":true,"confidence":4},{"trial_n":55,"n_dots":3.75,"target":"right","response":"right","rt":534.59999999404,"correct":true,"confidence":5},{"trial_n":56,"n_dots":3.75,"target":"left","response":"right","rt":280.19999998808,"correct":false,"confidence":3},{"trial_n":57,"n_dots":3.85,"target":"left","response":"right","rt":611.20000001788,"correct":false,"confidence":3},{"trial_n":58,"n_dots":3.95,"target":"right","response":"left","rt":584.09999999404,"correct":false,"confidence":3},{"trial_n":59,"n_dots":4.05,"target":"right","response":"right","rt":670.90000000596,"correct":true,"confidence":4},{"trial_n":60,"n_dots":4.05,"target":"left","response":"left","rt":363,"correct":true,"confidence":3},{"trial_n":61,"n_dots":3.95,"target":"left","response":"left","rt":607.69999998808,"correct":true,"confidence":3},{"trial_n":62,"n_dots":3.95,"target":"right","response":"right","rt":708.30000001192,"correct":true,"confidence":4},{"trial_n":63,"n_dots":3.85,"target":"left","response":"left","rt":320.59999999404,"correct":true,"confidence":3},{"trial_n":64,"n_dots":3.85,"target":"right","response":"right","rt":656,"correct":true,"confidence":4},{"trial_n":65,"n_dots":3.75,"target":"left","response":"right","rt":609.5,"correct":false,"confidence":4},{"trial_n":66,"n_dots":3.85,"target":"right","response":"left","rt":692.69999998808,"correct":false,"confidence":3},{"trial_n":67,"n_dots":3.95,"target":"left","response":"right","rt":2194.6999999881,"correct":false,"confidence":4},{"trial_n":68,"n_dots":4.05,"target":"right","response":"left","rt":768.20000001788,"correct":false,"confidence":3},{"trial_n":69,"n_dots":4.15,"target":"right","response":"right","rt":461.10000002384,"correct":true,"confidence":4},{"trial_n":70,"n_dots":4.15,"target":"right","response":"right","rt":602.79999998212,"correct":true,"confidence":3},{"trial_n":71,"n_dots":4.05,"target":"left","response":"right","rt":51.09999999404,"correct":false,"confidence":3},{"trial_n":72,"n_dots":4.15,"target":"left","response":"right","rt":687.30000001192,"correct":false,"confidence":3},{"trial_n":73,"n_dots":4.25,"target":"left","response":"left","rt":293.30000001192,"correct":true,"confidence":3},{"trial_n":74,"n_dots":4.25,"target":"left","response":"right","rt":801.5,"correct":false,"confidence":3},{"trial_n":75,"n_dots":4.35,"target":"right","response":"right","rt":697.30000001192,"correct":true,"confidence":4},{"trial_n":76,"n_dots":4.35,"target":"left","response":"left","rt":111.30000001192,"correct":true,"confidence":4},{"trial_n":77,"n_dots":4.25,"target":"right","response":"right","rt":600.5,"correct":true,"confidence":3},{"trial_n":78,"n_dots":4.25,"target":"right","response":"right","rt":360.09999999404,"correct":true,"confidence":4},{"trial_n":79,"n_dots":4.15,"target":"right","response":"right","rt":407.80000001192,"correct":true,"confidence":4},{"trial_n":80,"n_dots":4.15,"target":"left","response":"left","rt":451.09999999404,"correct":true,"confidence":5},{"trial_n":81,"n_dots":4.05,"target":"right","response":"right","rt":648.90000000596,"correct":true,"confidence":3},{"trial_n":82,"n_dots":4.05,"target":"right","response":"left","rt":349.40000000596,"correct":false,"confidence":3},{"trial_n":83,"n_dots":4.15,"target":"right","response":"right","rt":348.70000001788,"correct":true,"confidence":4},{"trial_n":84,"n_dots":4.15,"target":"left","response":"left","rt":667.90000000596,"correct":true,"confidence":4},{"trial_n":85,"n_dots":4.05,"target":"left","response":"left","rt":852.5,"correct":true,"confidence":3},{"trial_n":86,"n_dots":4.05,"target":"left","response":"right","rt":613.5,"correct":false,"confidence":4},{"trial_n":87,"n_dots":4.15,"target":"right","response":"right","rt":281.80000001192,"correct":true,"confidence":4},{"trial_n":88,"n_dots":4.15,"target":"left","response":"left","rt":496.09999999404,"correct":true,"confidence":3},{"trial_n":89,"n_dots":4.05,"target":"right","response":"right","rt":885.40000000596,"correct":true,"confidence":4},{"trial_n":90,"n_dots":4.05,"target":"right","response":"left","rt":549.59999999404,"correct":false,"confidence":1},{"trial_n":91,"n_dots":4.15,"target":"left","response":"left","rt":408.09999999404,"correct":true,"confidence":4},{"trial_n":92,"n_dots":4.15,"target":"left","response":"left","rt":407.29999998212,"correct":true,"confidence":4},{"trial_n":93,"n_dots":4.05,"target":"left","response":"left","rt":274.5,"correct":true,"confidence":4},{"trial_n":94,"n_dots":4.05,"target":"left","response":"left","rt":422.19999998808,"correct":true,"confidence":4},{"trial_n":95,"n_dots":3.95,"target":"left","response":"left","rt":361.09999999404,"correct":true,"confidence":3},{"trial_n":96,"n_dots":3.95,"target":"left","response":"right","rt":4132.2000000179,"correct":false,"confidence":2},{"trial_n":97,"n_dots":4.05,"target":"right","response":"right","rt":983.80000001192,"correct":true,"confidence":4},{"trial_n":98,"n_dots":4.05,"target":"right","response":"right","rt":485.39999997616,"correct":true,"confidence":4},{"trial_n":99,"n_dots":3.95,"target":"left","response":"right","rt":1640.400000006,"correct":false,"confidence":3},{"trial_n":100,"n_dots":4.05,"target":"right","response":"right","rt":501,"correct":true,"confidence":4},{"trial_n":101,"n_dots":4.05,"target":"left","response":"left","rt":540.90000000596,"correct":true,"confidence":4},{"trial_n":102,"n_dots":3.95,"target":"left","response":"right","rt":493.69999998808,"correct":false,"confidence":3},{"trial_n":103,"n_dots":4.05,"target":"right","response":"right","rt":508.5,"correct":true,"confidence":4},{"trial_n":104,"n_dots":4.05,"target":"left","response":"left","rt":242.19999998808,"correct":true,"confidence":3},{"trial_n":105,"n_dots":3.95,"target":"left","response":"right","rt":92.200000017881,"correct":false,"confidence":4},{"trial_n":106,"n_dots":4.05,"target":"right","response":"right","rt":398.90000000596,"correct":true,"confidence":4},{"trial_n":107,"n_dots":4.05,"target":"left","response":"left","rt":469.90000000596,"correct":true,"confidence":4},{"trial_n":108,"n_dots":3.95,"target":"right","response":"left","rt":777,"correct":false,"confidence":4},{"trial_n":109,"n_dots":4.05,"target":"left","response":"left","rt":915.5,"correct":true,"confidence":4},{"trial_n":110,"n_dots":4.05,"target":"right","response":"right","rt":704,"correct":true,"confidence":4},{"trial_n":111,"n_dots":3.95,"target":"right","response":"right","rt":845.30000001192,"correct":true,"confidence":3},{"trial_n":112,"n_dots":3.95,"target":"left","response":"left","rt":857.30000001192,"correct":true,"confidence":4},{"trial_n":113,"n_dots":3.85,"target":"left","response":"right","rt":2037.900000006,"correct":false,"confidence":3},{"trial_n":114,"n_dots":3.95,"target":"left","response":"left","rt":877.79999998212,"correct":true,"confidence":4},{"trial_n":115,"n_dots":3.95,"target":"right","response":"right","rt":1104.7999999821,"correct":true,"confidence":4},{"trial_n":116,"n_dots":3.85,"target":"left","response":"left","rt":2044.3000000119,"correct":true,"confidence":4},{"trial_n":117,"n_dots":3.85,"target":"right","response":"right","rt":1676,"correct":true,"confidence":4},{"trial_n":118,"n_dots":3.75,"target":"right","response":"right","rt":756.59999999404,"correct":true,"confidence":3},{"trial_n":119,"n_dots":3.75,"target":"left","response":"left","rt":302,"correct":true,"confidence":3},{"trial_n":120,"n_dots":3.65,"target":"left","response":"right","rt":664.59999999404,"correct":false,"confidence":3}]