[{"trial_n":1,"min":25,"max":230,"target":"present","response":"present","rt":7568.2000007629,"correct":true,"confidence":-1},{"trial_n":2,"min":25,"max":230,"target":"present","response":"present","rt":4423.4000015259,"correct":true,"confidence":-1},{"trial_n":3,"min":41,"max":214,"target":"absent","response":"absent","rt":3207.5999984741,"correct":true,"confidence":-1},{"trial_n":4,"min":41,"max":214,"target":"absent","response":"absent","rt":476.90000152588,"correct":true,"confidence":-1},{"trial_n":5,"min":57,"max":198,"target":"present","response":"present","rt":374.60000228882,"correct":true,"confidence":-1},{"trial_n":6,"min":57,"max":198,"target":"absent","response":"absent","rt":364.5,"correct":true,"confidence":-1},{"trial_n":7,"min":73,"max":182,"target":"absent","response":"absent","rt":334.39999771118,"correct":true,"confidence":-1},{"trial_n":8,"min":73,"max":182,"target":"absent","response":"absent","rt":402.70000076294,"correct":true,"confidence":-1},{"trial_n":9,"min":89,"max":166,"target":"present","response":"present","rt":410.40000152588,"correct":true,"confidence":-1},{"trial_n":10,"min":89,"max":166,"target":"present","response":"absent","rt":356.39999771118,"correct":false,"confidence":-1},{"trial_n":11,"min":81,"max":174,"target":"present","response":"present","rt":595.20000076294,"correct":true,"confidence":-1},{"trial_n":12,"min":81,"max":174,"target":"absent","response":"absent","rt":519.5,"correct":true,"confidence":-1},{"trial_n":13,"min":89,"max":166,"target":"absent","response":"absent","rt":1063.5,"correct":true,"confidence":-1},{"trial_n":14,"min":89,"max":166,"target":"absent","response":"absent","rt":600.5,"correct":true,"confidence":-1},{"trial_n":15,"min":97,"max":158,"target":"present","response":"absent","rt":565.90000152588,"correct":false,"confidence":-1},{"trial_n":16,"min":89,"max":166,"target":"absent","response":"absent","rt":1031.2000007629,"correct":true,"confidence":-1},{"trial_n":17,"min":89,"max":166,"target":"present","response":"present","rt":1657.2999992371,"correct":true,"confidence":-1},{"trial_n":18,"min":97,"max":158,"target":"absent","response":"present","rt":734.29999923706,"correct":false,"confidence":-1},{"trial_n":19,"min":89,"max":166,"target":"absent","response":"present","rt":978.90000152588,"correct":false,"confidence":-1},{"trial_n":20,"min":81,"max":174,"target":"present","response":"present","rt":453,"correct":true,"confidence":-1},{"trial_n":21,"min":81,"max":174,"target":"present","response":"present","rt":506.5,"correct":true,"confidence":3},{"trial_n":22,"min":85,"max":170,"target":"present","response":"present","rt":1911.3999977112,"correct":true,"confidence":5},{"trial_n":23,"min":85,"max":170,"target":"absent","response":"present","rt":793.89999771118,"correct":false,"confidence":5},{"trial_n":24,"min":81,"max":174,"target":"present","response":"present","rt":774.09999847412,"correct":true,"confidence":5},{"trial_n":25,"min":81,"max":174,"target":"present","response":"present","rt":691.39999771118,"correct":true,"confidence":5},{"trial_n":26,"min":85,"max":170,"target":"absent","response":"present","rt":1184,"correct":false,"confidence":4},{"trial_n":27,"min":81,"max":174,"target":"absent","response":"present","rt":1307,"correct":false,"confidence":3},{"trial_n":28,"min":77,"max":178,"target":"absent","response":"present","rt":870.60000228882,"correct":false,"confidence":3},{"trial_n":29,"min":73,"max":182,"target":"present","response":"present","rt":600.39999771118,"correct":true,"confidence":5},{"trial_n":30,"min":73,"max":182,"target":"present","response":"present","rt":621.39999771118,"correct":true,"confidence":5},{"trial_n":31,"min":75,"max":180,"target":"absent","response":"absent","rt":4558.0999984741,"correct":true,"confidence":3},{"trial_n":32,"min":75,"max":180,"target":"absent","response":"absent","rt":2596.7999992371,"correct":true,"confidence":3},{"trial_n":33,"min":77,"max":178,"target":"absent","response":"absent","rt":766.70000076294,"correct":true,"confidence":3},{"trial_n":34,"min":77,"max":178,"target":"present","response":"present","rt":659.59999847412,"correct":true,"confidence":5},{"trial_n":35,"min":79,"max":176,"target":"present","response":"absent","rt":715.89999771118,"correct":false,"confidence":3},{"trial_n":36,"min":77,"max":178,"target":"present","response":"present","rt":605.79999923706,"correct":true,"confidence":5},{"trial_n":37,"min":77,"max":178,"target":"present","response":"present","rt":652,"correct":true,"confidence":5},{"trial_n":38,"min":79,"max":176,"target":"absent","response":"absent","rt":658.39999771118,"correct":true,"confidence":4},{"trial_n":39,"min":79,"max":176,"target":"absent","response":"absent","rt":787,"correct":true,"confidence":4},{"trial_n":40,"min":81,"max":174,"target":"absent","response":"absent","rt":557.19999694824,"correct":true,"confidence":4},{"trial_n":41,"min":81,"max":174,"target":"absent","response":"absent","rt":854.59999847412,"correct":true,"confidence":5},{"trial_n":42,"min":82,"max":173,"target":"absent","response":"absent","rt":742.09999847412,"correct":true,"confidence":3},{"trial_n":43,"min":82,"max":173,"target":"absent","response":"present","rt":874.89999771118,"correct":false,"confidence":3},{"trial_n":44,"min":81,"max":174,"target":"present","response":"present","rt":544.29999923706,"correct":true,"confidence":5},{"trial_n":45,"min":81,"max":174,"target":"absent","response":"absent","rt":641.10000228882,"correct":true,"confidence":4},{"trial_n":46,"min":82,"max":173,"target":"absent","response":"absent","rt":1110.2000007629,"correct":true,"confidence":3},{"trial_n":47,"min":82,"max":173,"target":"absent","response":"absent","rt":741.60000228882,"correct":true,"confidence":5},{"trial_n":48,"min":83,"max":172,"target":"present","response":"present","rt":707.20000076294,"correct":true,"confidence":5},{"trial_n":49,"min":83,"max":172,"target":"present","response":"present","rt":495,"correct":true,"confidence":5},{"trial_n":50,"min":84,"max":171,"target":"present","response":"present","rt":1372.5,"correct":true,"confidence":5},{"trial_n":51,"min":84,"max":171,"target":"present","response":"present","rt":492,"correct":true,"confidence":5},{"trial_n":52,"min":85,"max":170,"target":"present","response":"absent","rt":660.60000228882,"correct":false,"confidence":5},{"trial_n":53,"min":84,"max":171,"target":"present","response":"absent","rt":744.5,"correct":false,"confidence":5},{"trial_n":54,"min":83,"max":172,"target":"absent","response":"present","rt":1975,"correct":false,"confidence":3},{"trial_n":55,"min":82,"max":173,"target":"absent","response":"absent","rt":530,"correct":true,"confidence":4},{"trial_n":56,"min":82,"max":173,"target":"present","response":"present","rt":635.79999923706,"correct":true,"confidence":5},{"trial_n":57,"min":83,"max":172,"target":"present","response":"present","rt":765.5,"correct":true,"confidence":5},{"trial_n":58,"min":83,"max":172,"target":"present","response":"absent","rt":787,"correct":false,"confidence":3},{"trial_n":59,"min":82,"max":173,"target":"absent","response":"absent","rt":709.5,"correct":true,"confidence":4},{"trial_n":60,"min":82,"max":173,"target":"present","response":"absent","rt":658.40000152588,"correct":false,"confidence":5},{"trial_n":61,"min":81,"max":174,"target":"present","response":"absent","rt":910.79999923706,"correct":false,"confidence":3},{"trial_n":62,"min":80,"max":175,"target":"absent","response":"absent","rt":4178,"correct":true,"confidence":2},{"trial_n":63,"min":80,"max":175,"target":"absent","response":"absent","rt":628.59999847412,"correct":true,"confidence":5},{"trial_n":64,"min":81,"max":174,"target":"present","response":"present","rt":810.70000076294,"correct":true,"confidence":3},{"trial_n":65,"min":81,"max":174,"target":"present","response":"present","rt":567.69999694824,"correct":true,"confidence":5},{"trial_n":66,"min":82,"max":173,"target":"present","response":"present","rt":703,"correct":true,"confidence":4},{"trial_n":67,"min":82,"max":173,"target":"present","response":"present","rt":679.79999923706,"correct":true,"confidence":3},{"trial_n":68,"min":83,"max":172,"target":"present","response":"present","rt":587.20000076294,"correct":true,"confidence":3},{"trial_n":69,"min":83,"max":172,"target":"absent","response":"absent","rt":675.70000076294,"correct":true,"confidence":4},{"trial_n":70,"min":84,"max":171,"target":"absent","response":"absent","rt":596.39999771118,"correct":true,"confidence":5},{"trial_n":71,"min":41,"max":214,"target":"present","response":"present","rt":4541.4000015259,"correct":true,"confidence":-1},{"trial_n":72,"min":41,"max":214,"target":"present","response":"present","rt":484.20000076294,"correct":true,"confidence":-1},{"trial_n":73,"min":57,"max":198,"target":"absent","response":"absent","rt":589.79999923706,"correct":true,"confidence":-1},{"trial_n":74,"min":57,"max":198,"target":"absent","response":"present","rt":570.60000228882,"correct":false,"confidence":-1},{"trial_n":75,"min":41,"max":214,"target":"present","response":"present","rt":324.29999923706,"correct":true,"confidence":-1},{"trial_n":76,"min":41,"max":214,"target":"absent","response":"absent","rt":462.90000152588,"correct":true,"confidence":-1},{"trial_n":77,"min":57,"max":198,"target":"absent","response":"absent","rt":392.79999923706,"correct":true,"confidence":-1},{"trial_n":78,"min":57,"max":198,"target":"absent","response":"absent","rt":453,"correct":true,"confidence":-1},{"trial_n":79,"min":73,"max":182,"target":"present","response":"present","rt":411.30000305176,"correct":true,"confidence":-1},{"trial_n":80,"min":73,"max":182,"target":"present","response":"present","rt":413.40000152588,"correct":true,"confidence":-1},{"trial_n":81,"min":81,"max":174,"target":"present","response":"present","rt":1773.2000007629,"correct":true,"confidence":-1},{"trial_n":82,"min":81,"max":174,"target":"absent","response":"absent","rt":396,"correct":true,"confidence":-1},{"trial_n":83,"min":89,"max":166,"target":"present","response":"present","rt":655.29999923706,"correct":true,"confidence":-1},{"trial_n":84,"min":89,"max":166,"target":"present","response":"present","rt":954.10000228882,"correct":true,"confidence":-1},{"trial_n":85,"min":97,"max":158,"target":"present","response":"absent","rt":1723.0999984741,"correct":false,"confidence":-1},{"trial_n":86,"min":89,"max":166,"target":"present","response":"present","rt":319.5,"correct":true,"confidence":-1},{"trial_n":87,"min":89,"max":166,"target":"absent","response":"present","rt":590.90000152588,"correct":false,"confidence":-1},{"trial_n":88,"min":81,"max":174,"target":"absent","response":"absent","rt":4725.2000007629,"correct":true,"confidence":-1},{"trial_n":89,"min":81,"max":174,"target":"absent","response":"absent","rt":589,"correct":true,"confidence":-1},{"trial_n":90,"min":89,"max":166,"target":"present","response":"absent","rt":581.90000152588,"correct":false,"confidence":-1},{"trial_n":91,"min":85,"max":170,"target":"absent","response":"absent","rt":916,"correct":true,"confidence":1},{"trial_n":92,"min":85,"max":170,"target":"present","response":"present","rt":332.40000152588,"correct":true,"confidence":4},{"trial_n":93,"min":89,"max":166,"target":"present","response":"present","rt":442.20000076294,"correct":true,"confidence":5},{"trial_n":94,"min":89,"max":166,"target":"absent","response":"absent","rt":820.40000152588,"correct":true,"confidence":2},{"trial_n":95,"min":93,"max":162,"target":"present","response":"present","rt":1324.6999969482,"correct":true,"confidence":1},{"trial_n":96,"min":93,"max":162,"target":"present","response":"present","rt":928.89999771118,"correct":true,"confidence":1},{"trial_n":97,"min":97,"max":158,"target":"absent","response":"present","rt":5362.4000015259,"correct":false,"confidence":1},{"trial_n":98,"min":93,"max":162,"target":"absent","response":"present","rt":2039.9000015259,"correct":false,"confidence":3},{"trial_n":99,"min":89,"max":166,"target":"absent","response":"present","rt":1362.9000015259,"correct":false,"confidence":1},{"trial_n":100,"min":85,"max":170,"target":"absent","response":"present","rt":723.29999923706,"correct":false,"confidence":3},{"trial_n":101,"min":83,"max":172,"target":"absent","response":"present","rt":692.10000228882,"correct":false,"confidence":1},{"trial_n":102,"min":81,"max":174,"target":"absent","response":"present","rt":863.70000076294,"correct":false,"confidence":3},{"trial_n":103,"min":79,"max":176,"target":"absent","response":"present","rt":711.5,"correct":false,"confidence":1},{"trial_n":104,"min":77,"max":178,"target":"present","response":"present","rt":395.70000076294,"correct":true,"confidence":5},{"trial_n":105,"min":77,"max":178,"target":"present","response":"present","rt":321.5,"correct":true,"confidence":5},{"trial_n":106,"min":79,"max":176,"target":"present","response":"present","rt":344.79999923706,"correct":true,"confidence":5},{"trial_n":107,"min":79,"max":176,"target":"absent","response":"absent","rt":749.5,"correct":true,"confidence":4},{"trial_n":108,"min":81,"max":174,"target":"absent","response":"present","rt":644.29999923706,"correct":false,"confidence":1},{"trial_n":109,"min":79,"max":176,"target":"present","response":"present","rt":365.40000152588,"correct":true,"confidence":1},{"trial_n":110,"min":79,"max":176,"target":"present","response":"absent","rt":54548,"correct":false,"confidence":1},{"trial_n":111,"min":78,"max":177,"target":"absent","response":"absent","rt":1703.2000007629,"correct":true,"confidence":1},{"trial_n":112,"min":78,"max":177,"target":"absent","response":"absent","rt":872,"correct":true,"confidence":1},{"trial_n":113,"min":79,"max":176,"target":"present","response":"present","rt":567,"correct":true,"confidence":3},{"trial_n":114,"min":79,"max":176,"target":"present","response":"present","rt":714.40000152588,"correct":true,"confidence":5},{"trial_n":115,"min":80,"max":175,"target":"present","response":"present","rt":1161.7999992371,"correct":true,"confidence":5},{"trial_n":116,"min":80,"max":175,"target":"present","response":"present","rt":731.20000076294,"correct":true,"confidence":4},{"trial_n":117,"min":81,"max":174,"target":"present","response":"present","rt":759.09999847412,"correct":true,"confidence":5},{"trial_n":118,"min":81,"max":174,"target":"absent","response":"absent","rt":933.59999847412,"correct":true,"confidence":5},{"trial_n":119,"min":82,"max":173,"target":"present","response":"present","rt":937.80000305176,"correct":true,"confidence":2},{"trial_n":120,"min":82,"max":173,"target":"present","response":"absent","rt":596.79999923706,"correct":false,"confidence":4},{"trial_n":121,"min":81,"max":174,"target":"absent","response":"present","rt":938.5,"correct":false,"confidence":3},{"trial_n":122,"min":80,"max":175,"target":"absent","response":"absent","rt":794.90000152588,"correct":true,"confidence":3},{"trial_n":123,"min":80,"max":175,"target":"present","response":"present","rt":539.5,"correct":true,"confidence":4},{"trial_n":124,"min":81,"max":174,"target":"present","response":"present","rt":514,"correct":true,"confidence":5},{"trial_n":125,"min":81,"max":174,"target":"present","response":"present","rt":532.90000152588,"correct":true,"confidence":5},{"trial_n":126,"min":82,"max":173,"target":"absent","response":"absent","rt":680.19999694824,"correct":true,"confidence":5},{"trial_n":127,"min":82,"max":173,"target":"present","response":"present","rt":559.09999847412,"correct":true,"confidence":5},{"trial_n":128,"min":83,"max":172,"target":"absent","response":"absent","rt":651.70000076294,"correct":true,"confidence":4},{"trial_n":129,"min":83,"max":172,"target":"present","response":"present","rt":673.20000076294,"correct":true,"confidence":5},{"trial_n":130,"min":84,"max":171,"target":"present","response":"present","rt":737.40000152588,"correct":true,"confidence":3},{"trial_n":131,"min":84,"max":171,"target":"absent","response":"present","rt":686.89999771118,"correct":false,"confidence":1},{"trial_n":132,"min":83,"max":172,"target":"present","response":"present","rt":542.79999923706,"correct":true,"confidence":4},{"trial_n":133,"min":83,"max":172,"target":"absent","response":"absent","rt":721.39999771118,"correct":true,"confidence":3},{"trial_n":134,"min":84,"max":171,"target":"present","response":"present","rt":524,"correct":true,"confidence":4},{"trial_n":135,"min":84,"max":171,"target":"absent","response":"absent","rt":710.40000152588,"correct":true,"confidence":4},{"trial_n":136,"min":85,"max":170,"target":"absent","response":"absent","rt":959.89999771118,"correct":true,"confidence":2},{"trial_n":137,"min":85,"max":170,"target":"absent","response":"present","rt":960.20000076294,"correct":false,"confidence":1},{"trial_n":138,"min":84,"max":171,"target":"present","response":"present","rt":529.59999847412,"correct":true,"confidence":5},{"trial_n":139,"min":84,"max":171,"target":"absent","response":"absent","rt":675,"correct":true,"confidence":4},{"trial_n":140,"min":85,"max":170,"target":"absent","response":"absent","rt":688.5,"correct":true,"confidence":3}]