[{"trial_n":1,"n_dots":4.25,"target":"left","response":"left","rt":1528,"correct":true,"confidence":-1},{"trial_n":2,"n_dots":4.25,"target":"right","response":"right","rt":393,"correct":true,"confidence":-1},{"trial_n":3,"n_dots":3.85,"target":"left","response":"left","rt":493,"correct":true,"confidence":-1},{"trial_n":4,"n_dots":3.85,"target":"right","response":"right","rt":109,"correct":true,"confidence":-1},{"trial_n":5,"n_dots":3.45,"target":"right","response":"left","rt":627,"correct":false,"confidence":-1},{"trial_n":6,"n_dots":3.85,"target":"right","response":"right","rt":416,"correct":true,"confidence":-1},{"trial_n":7,"n_dots":3.85,"target":"right","response":"right","rt":272,"correct":true,"confidence":-1},{"trial_n":8,"n_dots":3.65,"target":"left","response":"left","rt":177,"correct":true,"confidence":-1},{"trial_n":9,"n_dots":3.65,"target":"right","response":"right","rt":454.00000000001,"correct":true,"confidence":-1},{"trial_n":10,"n_dots":3.45,"target":"right","response":"right","rt":208.99999999999,"correct":true,"confidence":-1},{"trial_n":11,"n_dots":3.45,"target":"left","response":"left","rt":428,"correct":true,"confidence":-1},{"trial_n":12,"n_dots":3.25,"target":"right","response":"left","rt":218,"correct":false,"confidence":-1},{"trial_n":13,"n_dots":3.35,"target":"left","response":"left","rt":159,"correct":true,"confidence":-1},{"trial_n":14,"n_dots":3.35,"target":"right","response":"right","rt":44,"correct":true,"confidence":-1},{"trial_n":15,"n_dots":3.25,"target":"left","response":"left","rt":50.000000000007,"correct":true,"confidence":-1},{"trial_n":16,"n_dots":3.25,"target":"right","response":"left","rt":176,"correct":false,"confidence":-1},{"trial_n":17,"n_dots":3.35,"target":"right","response":"left","rt":263,"correct":false,"confidence":-1},{"trial_n":18,"n_dots":3.45,"target":"right","response":"right","rt":281,"correct":true,"confidence":-1},{"trial_n":19,"n_dots":3.45,"target":"right","response":"left","rt":105,"correct":false,"confidence":-1},{"trial_n":20,"n_dots":3.55,"target":"left","response":"right","rt":170,"correct":false,"confidence":-1},{"trial_n":21,"n_dots":3.65,"target":"left","response":"left","rt":252,"correct":true,"confidence":3},{"trial_n":22,"n_dots":3.65,"target":"right","response":"left","rt":226.99999999999,"correct":false,"confidence":4},{"trial_n":23,"n_dots":3.75,"target":"right","response":"right","rt":149,"correct":true,"confidence":3},{"trial_n":24,"n_dots":3.75,"target":"right","response":"right","rt":47.999999999985,"correct":true,"confidence":5},{"trial_n":25,"n_dots":3.65,"target":"right","response":"left","rt":279.99999999999,"correct":false,"confidence":2},{"trial_n":26,"n_dots":3.75,"target":"right","response":"right","rt":812.99999999999,"correct":true,"confidence":4},{"trial_n":27,"n_dots":3.75,"target":"left","response":"left","rt":75,"correct":true,"confidence":5},{"trial_n":28,"n_dots":3.65,"target":"right","response":"right","rt":652,"correct":true,"confidence":5},{"trial_n":29,"n_dots":3.65,"target":"left","response":"left","rt":41,"correct":true,"confidence":5},{"trial_n":30,"n_dots":3.55,"target":"right","response":"right","rt":343.99999999999,"correct":true,"confidence":4},{"trial_n":31,"n_dots":3.55,"target":"left","response":"left","rt":51.999999999985,"correct":true,"confidence":4},{"trial_n":32,"n_dots":3.45,"target":"left","response":"right","rt":782,"correct":false,"confidence":3},{"trial_n":33,"n_dots":3.55,"target":"right","response":"right","rt":805,"correct":true,"confidence":3},{"trial_n":34,"n_dots":3.55,"target":"right","response":"left","rt":502,"correct":false,"confidence":3},{"trial_n":35,"n_dots":3.65,"target":"left","response":"left","rt":757,"correct":true,"confidence":4},{"trial_n":36,"n_dots":3.65,"target":"right","response":"right","rt":666,"correct":true,"confidence":4},{"trial_n":37,"n_dots":3.55,"target":"left","response":"left","rt":110,"correct":true,"confidence":4},{"trial_n":38,"n_dots":3.55,"target":"left","response":"right","rt":211,"correct":false,"confidence":5},{"trial_n":39,"n_dots":3.65,"target":"left","response":"left","rt":677,"correct":true,"confidence":4},{"trial_n":40,"n_dots":3.65,"target":"left","response":"left","rt":583,"correct":true,"confidence":4},{"trial_n":41,"n_dots":3.55,"target":"left","response":"left","rt":310,"correct":true,"confidence":4},{"trial_n":42,"n_dots":3.55,"target":"right","response":"right","rt":453,"correct":true,"confidence":4},{"trial_n":43,"n_dots":3.45,"target":"right","response":"left","rt":57,"correct":false,"confidence":3},{"trial_n":44,"n_dots":3.55,"target":"right","response":"left","rt":91,"correct":false,"confidence":3},{"trial_n":45,"n_dots":3.65,"target":"left","response":"left","rt":1176,"correct":true,"confidence":2},{"trial_n":46,"n_dots":3.65,"target":"right","response":"right","rt":160,"correct":true,"confidence":4},{"trial_n":47,"n_dots":3.55,"target":"left","response":"left","rt":112,"correct":true,"confidence":5},{"trial_n":48,"n_dots":3.55,"target":"right","response":"right","rt":544,"correct":true,"confidence":3},{"trial_n":49,"n_dots":3.45,"target":"left","response":"left","rt":518,"correct":true,"confidence":4},{"trial_n":50,"n_dots":3.45,"target":"left","response":"left","rt":103,"correct":true,"confidence":3},{"trial_n":51,"n_dots":3.35,"target":"right","response":"left","rt":65,"correct":false,"confidence":4},{"trial_n":52,"n_dots":3.45,"target":"left","response":"left","rt":478,"correct":true,"confidence":5},{"trial_n":53,"n_dots":3.45,"target":"left","response":"left","rt":677,"correct":true,"confidence":5},{"trial_n":54,"n_dots":3.35,"target":"left","response":"right","rt":417,"correct":false,"confidence":3},{"trial_n":55,"n_dots":3.45,"target":"left","response":"left","rt":384,"correct":true,"confidence":1},{"trial_n":56,"n_dots":3.45,"target":"left","response":"right","rt":110,"correct":false,"confidence":2},{"trial_n":57,"n_dots":3.55,"target":"right","response":"right","rt":1100,"correct":true,"confidence":2},{"trial_n":58,"n_dots":3.55,"target":"left","response":"left","rt":62,"correct":true,"confidence":4},{"trial_n":59,"n_dots":3.45,"target":"left","response":"left","rt":553,"correct":true,"confidence":4},{"trial_n":60,"n_dots":3.45,"target":"right","response":"right","rt":434,"correct":true,"confidence":5},{"trial_n":61,"n_dots":3.35,"target":"right","response":"left","rt":619,"correct":false,"confidence":4},{"trial_n":62,"n_dots":3.45,"target":"left","response":"right","rt":591,"correct":false,"confidence":2},{"trial_n":63,"n_dots":3.55,"target":"right","response":"right","rt":475,"correct":true,"confidence":5},{"trial_n":64,"n_dots":3.55,"target":"right","response":"right","rt":284,"correct":true,"confidence":4},{"trial_n":65,"n_dots":3.45,"target":"left","response":"left","rt":276.00000000003,"correct":true,"confidence":3},{"trial_n":66,"n_dots":3.45,"target":"left","response":"left","rt":169,"correct":true,"confidence":4},{"trial_n":67,"n_dots":3.35,"target":"left","response":"left","rt":661,"correct":true,"confidence":4},{"trial_n":68,"n_dots":3.35,"target":"left","response":"left","rt":501,"correct":true,"confidence":3},{"trial_n":69,"n_dots":3.25,"target":"left","response":"left","rt":830.00000000003,"correct":true,"confidence":2},{"trial_n":70,"n_dots":3.25,"target":"right","response":"left","rt":487,"correct":false,"confidence":3},{"trial_n":71,"n_dots":3.35,"target":"left","response":"right","rt":455.00000000003,"correct":false,"confidence":4},{"trial_n":72,"n_dots":3.45,"target":"left","response":"right","rt":770.00000000003,"correct":false,"confidence":2},{"trial_n":73,"n_dots":3.55,"target":"right","response":"right","rt":54,"correct":true,"confidence":4},{"trial_n":74,"n_dots":3.55,"target":"left","response":"left","rt":485,"correct":true,"confidence":4},{"trial_n":75,"n_dots":3.45,"target":"right","response":"right","rt":282.00000000006,"correct":true,"confidence":4},{"trial_n":76,"n_dots":3.45,"target":"right","response":"right","rt":495.99999999997,"correct":true,"confidence":4},{"trial_n":77,"n_dots":3.35,"target":"right","response":"left","rt":384,"correct":false,"confidence":4},{"trial_n":78,"n_dots":3.45,"target":"right","response":"left","rt":693,"correct":false,"confidence":2},{"trial_n":79,"n_dots":3.55,"target":"left","response":"left","rt":69,"correct":true,"confidence":4},{"trial_n":80,"n_dots":3.55,"target":"left","response":"left","rt":303,"correct":true,"confidence":4},{"trial_n":81,"n_dots":3.45,"target":"left","response":"left","rt":413,"correct":true,"confidence":4},{"trial_n":82,"n_dots":3.45,"target":"right","response":"right","rt":150.99999999994,"correct":true,"confidence":3},{"trial_n":83,"n_dots":3.35,"target":"right","response":"right","rt":85.999999999942,"correct":true,"confidence":3},{"trial_n":84,"n_dots":3.35,"target":"left","response":"left","rt":593.99999999994,"correct":true,"confidence":2},{"trial_n":85,"n_dots":3.25,"target":"left","response":"left","rt":156.00000000006,"correct":true,"confidence":4},{"trial_n":86,"n_dots":3.25,"target":"right","response":"right","rt":658,"correct":true,"confidence":2},{"trial_n":87,"n_dots":3.15,"target":"right","response":"right","rt":593,"correct":true,"confidence":1},{"trial_n":88,"n_dots":3.15,"target":"left","response":"left","rt":608.00000000006,"correct":true,"confidence":1},{"trial_n":89,"n_dots":3.05,"target":"right","response":"right","rt":60.999999999942,"correct":true,"confidence":3},{"trial_n":90,"n_dots":3.05,"target":"left","response":"left","rt":184,"correct":true,"confidence":2},{"trial_n":91,"n_dots":2.95,"target":"right","response":"right","rt":410,"correct":true,"confidence":3},{"trial_n":92,"n_dots":2.95,"target":"left","response":"left","rt":711,"correct":true,"confidence":1},{"trial_n":93,"n_dots":2.85,"target":"right","response":"right","rt":75.999999999942,"correct":true,"confidence":2},{"trial_n":94,"n_dots":2.85,"target":"right","response":"right","rt":551,"correct":true,"confidence":2},{"trial_n":95,"n_dots":2.75,"target":"left","response":"left","rt":48,"correct":true,"confidence":3},{"trial_n":96,"n_dots":2.75,"target":"left","response":"right","rt":478,"correct":false,"confidence":1},{"trial_n":97,"n_dots":2.85,"target":"left","response":"left","rt":55,"correct":true,"confidence":1},{"trial_n":98,"n_dots":2.85,"target":"left","response":"left","rt":619,"correct":true,"confidence":1},{"trial_n":99,"n_dots":2.75,"target":"left","response":"right","rt":227,"correct":false,"confidence":2},{"trial_n":100,"n_dots":2.85,"target":"left","response":"left","rt":68,"correct":true,"confidence":1},{"trial_n":101,"n_dots":2.85,"target":"right","response":"right","rt":530,"correct":true,"confidence":1},{"trial_n":102,"n_dots":2.75,"target":"right","response":"right","rt":640,"correct":true,"confidence":2},{"trial_n":103,"n_dots":2.75,"target":"left","response":"left","rt":581.00000000006,"correct":true,"confidence":3},{"trial_n":104,"n_dots":2.65,"target":"right","response":"left","rt":532,"correct":false,"confidence":3},{"trial_n":105,"n_dots":2.75,"target":"right","response":"right","rt":339,"correct":true,"confidence":3},{"trial_n":106,"n_dots":2.75,"target":"right","response":"left","rt":421.99999999994,"correct":false,"confidence":1},{"trial_n":107,"n_dots":2.85,"target":"right","response":"left","rt":261.00000000006,"correct":false,"confidence":1},{"trial_n":108,"n_dots":2.95,"target":"left","response":"right","rt":128,"correct":false,"confidence":1},{"trial_n":109,"n_dots":3.05,"target":"right","response":"left","rt":272,"correct":false,"confidence":1},{"trial_n":110,"n_dots":3.15,"target":"left","response":"left","rt":262,"correct":true,"confidence":2},{"trial_n":111,"n_dots":3.15,"target":"right","response":"left","rt":7361,"correct":false,"confidence":1},{"trial_n":112,"n_dots":3.25,"target":"left","response":"right","rt":116,"correct":false,"confidence":2},{"trial_n":113,"n_dots":3.35,"target":"right","response":"right","rt":575,"correct":true,"confidence":3},{"trial_n":114,"n_dots":3.35,"target":"left","response":"left","rt":92,"correct":true,"confidence":3},{"trial_n":115,"n_dots":3.25,"target":"left","response":"right","rt":725,"correct":false,"confidence":1},{"trial_n":116,"n_dots":3.35,"target":"right","response":"right","rt":424,"correct":true,"confidence":4},{"trial_n":117,"n_dots":3.35,"target":"right","response":"right","rt":102.00000000006,"correct":true,"confidence":3},{"trial_n":118,"n_dots":3.25,"target":"left","response":"right","rt":494,"correct":false,"confidence":3},{"trial_n":119,"n_dots":3.35,"target":"left","response":"left","rt":765.99999999994,"correct":true,"confidence":2},{"trial_n":120,"n_dots":3.35,"target":"right","response":"right","rt":485.99999999994,"correct":true,"confidence":4}]