[{"trial_n":1,"min":25,"max":230,"target":"present","response":"present","rt":5655,"correct":true,"confidence":-1},{"trial_n":2,"min":25,"max":230,"target":"present","response":"present","rt":1221,"correct":true,"confidence":-1},{"trial_n":3,"min":41,"max":214,"target":"absent","response":"present","rt":791,"correct":false,"confidence":-1},{"trial_n":4,"min":25,"max":230,"target":"absent","response":"absent","rt":738,"correct":true,"confidence":-1},{"trial_n":5,"min":25,"max":230,"target":"present","response":"absent","rt":774,"correct":false,"confidence":-1},{"trial_n":6,"min":9,"max":246,"target":"absent","response":"present","rt":791,"correct":false,"confidence":-1},{"trial_n":7,"min":0,"max":255,"target":"present","response":"present","rt":1058,"correct":true,"confidence":-1},{"trial_n":8,"min":0,"max":255,"target":"present","response":"absent","rt":626,"correct":false,"confidence":-1},{"trial_n":9,"min":0,"max":255,"target":"absent","response":"absent","rt":1245,"correct":true,"confidence":-1},{"trial_n":10,"min":0,"max":255,"target":"absent","response":"present","rt":1480,"correct":false,"confidence":-1},{"trial_n":11,"min":0,"max":255,"target":"present","response":"present","rt":989,"correct":true,"confidence":-1},{"trial_n":12,"min":0,"max":255,"target":"absent","response":"absent","rt":640,"correct":true,"confidence":-1},{"trial_n":13,"min":8,"max":247,"target":"absent","response":"absent","rt":652,"correct":true,"confidence":-1},{"trial_n":14,"min":8,"max":247,"target":"absent","response":"absent","rt":538,"correct":true,"confidence":-1},{"trial_n":15,"min":16,"max":239,"target":"absent","response":"absent","rt":487,"correct":true,"confidence":-1},{"trial_n":16,"min":16,"max":239,"target":"present","response":"present","rt":568,"correct":true,"confidence":-1},{"trial_n":17,"min":24,"max":231,"target":"present","response":"present","rt":964.99999999999,"correct":true,"confidence":-1},{"trial_n":18,"min":24,"max":231,"target":"absent","response":"absent","rt":557,"correct":true,"confidence":-1},{"trial_n":19,"min":32,"max":223,"target":"present","response":"present","rt":800.99999999999,"correct":true,"confidence":-1},{"trial_n":20,"min":32,"max":223,"target":"present","response":"present","rt":550,"correct":true,"confidence":-1},{"trial_n":21,"min":36,"max":219,"target":"absent","response":"absent","rt":1418,"correct":true,"confidence":4},{"trial_n":22,"min":36,"max":219,"target":"present","response":"present","rt":744,"correct":true,"confidence":4},{"trial_n":23,"min":40,"max":215,"target":"absent","response":"absent","rt":596,"correct":true,"confidence":3},{"trial_n":24,"min":40,"max":215,"target":"present","response":"present","rt":611.00000000001,"correct":true,"confidence":5},{"trial_n":25,"min":44,"max":211,"target":"present","response":"present","rt":535,"correct":true,"confidence":5},{"trial_n":26,"min":44,"max":211,"target":"present","response":"present","rt":818.99999999999,"correct":true,"confidence":4},{"trial_n":27,"min":48,"max":207,"target":"present","response":"present","rt":670,"correct":true,"confidence":5},{"trial_n":28,"min":48,"max":207,"target":"present","response":"present","rt":696,"correct":true,"confidence":5},{"trial_n":29,"min":52,"max":203,"target":"absent","response":"absent","rt":696,"correct":true,"confidence":4},{"trial_n":30,"min":52,"max":203,"target":"absent","response":"absent","rt":571,"correct":true,"confidence":5},{"trial_n":31,"min":54,"max":201,"target":"present","response":"present","rt":586,"correct":true,"confidence":4},{"trial_n":32,"min":54,"max":201,"target":"present","response":"present","rt":628,"correct":true,"confidence":5},{"trial_n":33,"min":56,"max":199,"target":"absent","response":"absent","rt":589,"correct":true,"confidence":4},{"trial_n":34,"min":56,"max":199,"target":"present","response":"present","rt":635,"correct":true,"confidence":3},{"trial_n":35,"min":58,"max":197,"target":"present","response":"present","rt":659,"correct":true,"confidence":4},{"trial_n":36,"min":58,"max":197,"target":"present","response":"present","rt":562,"correct":true,"confidence":4},{"trial_n":37,"min":60,"max":195,"target":"present","response":"present","rt":661,"correct":true,"confidence":4},{"trial_n":38,"min":60,"max":195,"target":"absent","response":"absent","rt":542,"correct":true,"confidence":5},{"trial_n":39,"min":62,"max":193,"target":"absent","response":"absent","rt":545.99999999999,"correct":true,"confidence":4},{"trial_n":40,"min":62,"max":193,"target":"absent","response":"absent","rt":623.99999999999,"correct":true,"confidence":3},{"trial_n":41,"min":63,"max":192,"target":"absent","response":"absent","rt":758,"correct":true,"confidence":4},{"trial_n":42,"min":63,"max":192,"target":"absent","response":"absent","rt":555.99999999999,"correct":true,"confidence":5},{"trial_n":43,"min":64,"max":191,"target":"present","response":"present","rt":503,"correct":true,"confidence":4},{"trial_n":44,"min":64,"max":191,"target":"absent","response":"absent","rt":546.99999999999,"correct":true,"confidence":5},{"trial_n":45,"min":65,"max":190,"target":"absent","response":"absent","rt":581,"correct":true,"confidence":4},{"trial_n":46,"min":65,"max":190,"target":"absent","response":"absent","rt":512,"correct":true,"confidence":4},{"trial_n":47,"min":66,"max":189,"target":"present","response":"present","rt":529.00000000001,"correct":true,"confidence":4},{"trial_n":48,"min":66,"max":189,"target":"absent","response":"absent","rt":534,"correct":true,"confidence":3},{"trial_n":49,"min":67,"max":188,"target":"absent","response":"absent","rt":548,"correct":true,"confidence":5},{"trial_n":50,"min":67,"max":188,"target":"absent","response":"absent","rt":665.00000000001,"correct":true,"confidence":3},{"trial_n":51,"min":68,"max":187,"target":"present","response":"present","rt":1655,"correct":true,"confidence":3},{"trial_n":52,"min":68,"max":187,"target":"absent","response":"absent","rt":531,"correct":true,"confidence":4},{"trial_n":53,"min":69,"max":186,"target":"present","response":"absent","rt":1022,"correct":false,"confidence":3},{"trial_n":54,"min":68,"max":187,"target":"present","response":"present","rt":712,"correct":true,"confidence":4},{"trial_n":55,"min":68,"max":187,"target":"absent","response":"absent","rt":446,"correct":true,"confidence":5},{"trial_n":56,"min":69,"max":186,"target":"present","response":"present","rt":512,"correct":true,"confidence":4},{"trial_n":57,"min":69,"max":186,"target":"present","response":"present","rt":680,"correct":true,"confidence":3},{"trial_n":58,"min":70,"max":185,"target":"present","response":"present","rt":619,"correct":true,"confidence":4},{"trial_n":59,"min":70,"max":185,"target":"present","response":"present","rt":714,"correct":true,"confidence":3},{"trial_n":60,"min":71,"max":184,"target":"absent","response":"absent","rt":523,"correct":true,"confidence":5},{"trial_n":61,"min":71,"max":184,"target":"absent","response":"absent","rt":699,"correct":true,"confidence":4},{"trial_n":62,"min":72,"max":183,"target":"present","response":"absent","rt":678,"correct":false,"confidence":3},{"trial_n":63,"min":71,"max":184,"target":"present","response":"present","rt":853,"correct":true,"confidence":3},{"trial_n":64,"min":71,"max":184,"target":"absent","response":"absent","rt":405,"correct":true,"confidence":5},{"trial_n":65,"min":72,"max":183,"target":"absent","response":"absent","rt":496,"correct":true,"confidence":5},{"trial_n":66,"min":72,"max":183,"target":"present","response":"present","rt":505,"correct":true,"confidence":5},{"trial_n":67,"min":73,"max":182,"target":"absent","response":"absent","rt":471.00000000003,"correct":true,"confidence":5},{"trial_n":68,"min":73,"max":182,"target":"present","response":"present","rt":520,"correct":true,"confidence":5},{"trial_n":69,"min":74,"max":181,"target":"absent","response":"absent","rt":381,"correct":true,"confidence":4},{"trial_n":70,"min":74,"max":181,"target":"present","response":"present","rt":862,"correct":true,"confidence":4},{"trial_n":71,"min":41,"max":214,"target":"present","response":"present","rt":1769,"correct":true,"confidence":-1},{"trial_n":72,"min":41,"max":214,"target":"present","response":"present","rt":798.99999999997,"correct":true,"confidence":-1},{"trial_n":73,"min":57,"max":198,"target":"absent","response":"absent","rt":693.00000000003,"correct":true,"confidence":-1},{"trial_n":74,"min":57,"max":198,"target":"absent","response":"absent","rt":1025,"correct":true,"confidence":-1},{"trial_n":75,"min":73,"max":182,"target":"present","response":"present","rt":684,"correct":true,"confidence":-1},{"trial_n":76,"min":73,"max":182,"target":"present","response":"present","rt":924.99999999997,"correct":true,"confidence":-1},{"trial_n":77,"min":89,"max":166,"target":"present","response":"present","rt":734.00000000003,"correct":true,"confidence":-1},{"trial_n":78,"min":89,"max":166,"target":"absent","response":"absent","rt":1326,"correct":true,"confidence":-1},{"trial_n":79,"min":105,"max":150,"target":"absent","response":"absent","rt":1084,"correct":true,"confidence":-1},{"trial_n":80,"min":105,"max":150,"target":"present","response":"present","rt":736,"correct":true,"confidence":-1},{"trial_n":81,"min":113,"max":142,"target":"present","response":"present","rt":1391,"correct":true,"confidence":-1},{"trial_n":82,"min":113,"max":142,"target":"absent","response":"absent","rt":1059,"correct":true,"confidence":-1},{"trial_n":83,"min":121,"max":134,"target":"present","response":"present","rt":636,"correct":true,"confidence":-1},{"trial_n":84,"min":121,"max":134,"target":"present","response":"absent","rt":718,"correct":false,"confidence":-1},{"trial_n":85,"min":121,"max":134,"target":"present","response":"present","rt":758.99999999997,"correct":true,"confidence":-1},{"trial_n":86,"min":121,"max":134,"target":"present","response":"present","rt":884,"correct":true,"confidence":-1},{"trial_n":87,"min":121,"max":134,"target":"present","response":"absent","rt":507,"correct":false,"confidence":-1},{"trial_n":88,"min":121,"max":134,"target":"present","response":"present","rt":496,"correct":true,"confidence":-1},{"trial_n":89,"min":121,"max":134,"target":"absent","response":"absent","rt":525,"correct":true,"confidence":-1},{"trial_n":90,"min":121,"max":134,"target":"present","response":"present","rt":519.00000000003,"correct":true,"confidence":-1},{"trial_n":91,"min":121,"max":134,"target":"present","response":"present","rt":1397,"correct":true,"confidence":4},{"trial_n":92,"min":125,"max":130,"target":"present","response":"absent","rt":885,"correct":false,"confidence":2},{"trial_n":93,"min":125,"max":130,"target":"present","response":"absent","rt":678,"correct":false,"confidence":3},{"trial_n":94,"min":125,"max":130,"target":"absent","response":"absent","rt":918,"correct":true,"confidence":5},{"trial_n":95,"min":125,"max":130,"target":"absent","response":"absent","rt":1846,"correct":true,"confidence":3},{"trial_n":96,"min":125,"max":130,"target":"absent","response":"present","rt":684,"correct":false,"confidence":3},{"trial_n":97,"min":125,"max":130,"target":"present","response":"present","rt":2011,"correct":true,"confidence":4},{"trial_n":98,"min":125,"max":130,"target":"absent","response":"present","rt":1861,"correct":false,"confidence":4},{"trial_n":99,"min":125,"max":130,"target":"absent","response":"absent","rt":692.99999999997,"correct":true,"confidence":2},{"trial_n":100,"min":125,"max":130,"target":"present","response":"present","rt":710.00000000006,"correct":true,"confidence":4},{"trial_n":101,"min":125,"max":130,"target":"absent","response":"present","rt":1737,"correct":false,"confidence":3},{"trial_n":102,"min":125,"max":130,"target":"absent","response":"absent","rt":1136,"correct":true,"confidence":4},{"trial_n":103,"min":125,"max":130,"target":"absent","response":"absent","rt":1476,"correct":true,"confidence":4},{"trial_n":104,"min":125,"max":130,"target":"absent","response":"present","rt":893,"correct":false,"confidence":2},{"trial_n":105,"min":125,"max":130,"target":"present","response":"present","rt":2003,"correct":true,"confidence":4},{"trial_n":106,"min":125,"max":130,"target":"present","response":"present","rt":770,"correct":true,"confidence":1},{"trial_n":107,"min":125,"max":130,"target":"absent","response":"present","rt":666,"correct":false,"confidence":4},{"trial_n":108,"min":125,"max":130,"target":"present","response":"present","rt":1043,"correct":true,"confidence":4},{"trial_n":109,"min":125,"max":130,"target":"absent","response":"absent","rt":1086,"correct":true,"confidence":4},{"trial_n":110,"min":125,"max":130,"target":"absent","response":"present","rt":735,"correct":false,"confidence":2},{"trial_n":111,"min":124,"max":131,"target":"absent","response":"present","rt":658,"correct":false,"confidence":1},{"trial_n":112,"min":123,"max":132,"target":"present","response":"absent","rt":752,"correct":false,"confidence":4},{"trial_n":113,"min":122,"max":133,"target":"absent","response":"absent","rt":959.00000000006,"correct":true,"confidence":4},{"trial_n":114,"min":122,"max":133,"target":"present","response":"present","rt":618.00000000006,"correct":true,"confidence":4},{"trial_n":115,"min":123,"max":132,"target":"absent","response":"absent","rt":787,"correct":true,"confidence":4},{"trial_n":116,"min":123,"max":132,"target":"absent","response":"absent","rt":853,"correct":true,"confidence":3},{"trial_n":117,"min":124,"max":131,"target":"present","response":"present","rt":544.00000000006,"correct":true,"confidence":3},{"trial_n":118,"min":124,"max":131,"target":"absent","response":"absent","rt":786,"correct":true,"confidence":2},{"trial_n":119,"min":125,"max":130,"target":"present","response":"present","rt":810,"correct":true,"confidence":4},{"trial_n":120,"min":125,"max":130,"target":"present","response":"present","rt":577,"correct":true,"confidence":5},{"trial_n":121,"min":126,"max":128,"target":"present","response":"present","rt":577.99999999994,"correct":true,"confidence":5},{"trial_n":122,"min":126,"max":128,"target":"absent","response":"absent","rt":618,"correct":true,"confidence":4},{"trial_n":123,"min":126,"max":128,"target":"present","response":"absent","rt":2745,"correct":false,"confidence":2},{"trial_n":124,"min":126,"max":128,"target":"present","response":"present","rt":443.99999999994,"correct":true,"confidence":4},{"trial_n":125,"min":126,"max":128,"target":"present","response":"present","rt":535,"correct":true,"confidence":4},{"trial_n":126,"min":126,"max":128,"target":"present","response":"present","rt":611,"correct":true,"confidence":4},{"trial_n":127,"min":126,"max":128,"target":"absent","response":"absent","rt":651,"correct":true,"confidence":4},{"trial_n":128,"min":126,"max":128,"target":"present","response":"present","rt":518,"correct":true,"confidence":4},{"trial_n":129,"min":126,"max":128,"target":"absent","response":"absent","rt":502,"correct":true,"confidence":4},{"trial_n":130,"min":126,"max":128,"target":"absent","response":"absent","rt":494,"correct":true,"confidence":4},{"trial_n":131,"min":126,"max":128,"target":"absent","response":"absent","rt":599,"correct":true,"confidence":4},{"trial_n":132,"min":126,"max":128,"target":"absent","response":"absent","rt":444.00000000006,"correct":true,"confidence":4},{"trial_n":133,"min":126,"max":128,"target":"absent","response":"absent","rt":485.00000000006,"correct":true,"confidence":4},{"trial_n":134,"min":126,"max":128,"target":"present","response":"present","rt":452,"correct":true,"confidence":4},{"trial_n":135,"min":126,"max":128,"target":"absent","response":"absent","rt":726,"correct":true,"confidence":4},{"trial_n":136,"min":126,"max":128,"target":"absent","response":"absent","rt":436,"correct":true,"confidence":4},{"trial_n":137,"min":126,"max":128,"target":"absent","response":"absent","rt":460,"correct":true,"confidence":4},{"trial_n":138,"min":126,"max":128,"target":"absent","response":"absent","rt":518,"correct":true,"confidence":1},{"trial_n":139,"min":126,"max":128,"target":"present","response":"absent","rt":479,"correct":false,"confidence":4},{"trial_n":140,"min":126,"max":128,"target":"present","response":"present","rt":1117,"correct":true,"confidence":4}]