[{"trial_n":1,"span":8,"encoder":"08024913","distractor":"08024973","target":"present","response":"present","rt":"7860","correct":true,"confidence":-1},{"trial_n":2,"span":8,"encoder":"11850797","distractor":"11850790","target":"present","response":"absent","rt":"2580","correct":false,"confidence":-1},{"trial_n":3,"span":6,"encoder":"950121","distractor":"930121","target":"absent","response":"absent","rt":"2262","correct":true,"confidence":-1},{"trial_n":4,"span":6,"encoder":"298425","distractor":"298485","target":"absent","response":"present","rt":"3024","correct":false,"confidence":-1},{"trial_n":5,"span":4,"encoder":"7756","distractor":"7956","target":"present","response":"absent","rt":"2443","correct":false,"confidence":-1},{"trial_n":6,"span":2,"encoder":"71","distractor":"31","target":"present","response":"absent","rt":"1708","correct":false,"confidence":-1},{"trial_n":7,"span":2,"encoder":"89","distractor":"99","target":"present","response":"present","rt":"2377","correct":true,"confidence":-1},{"trial_n":8,"span":2,"encoder":"04","distractor":"54","target":"present","response":"present","rt":"1187","correct":true,"confidence":-1},{"trial_n":9,"span":4,"encoder":"1044","distractor":"1344","target":"absent","response":"absent","rt":"2963","correct":true,"confidence":-1},{"trial_n":10,"span":4,"encoder":"7542","distractor":"7572","target":"absent","response":"absent","rt":"4296","correct":true,"confidence":-1},{"trial_n":11,"span":6,"encoder":"124782","distractor":"224782","target":"present","response":"absent","rt":"1692","correct":false,"confidence":-1},{"trial_n":12,"span":5,"encoder":"80943","distractor":"83943","target":"present","response":"present","rt":"2325","correct":true,"confidence":-1},{"trial_n":13,"span":5,"encoder":"12734","distractor":"12724","target":"absent","response":"absent","rt":"2365","correct":true,"confidence":-1},{"trial_n":14,"span":6,"encoder":"762101","distractor":"762111","target":"absent","response":"absent","rt":"2075","correct":true,"confidence":-1},{"trial_n":15,"span":6,"encoder":"728456","distractor":"722456","target":"absent","response":"absent","rt":"1600","correct":true,"confidence":-1},{"trial_n":16,"span":7,"encoder":"7548894","distractor":"7548994","target":"present","response":"absent","rt":"992","correct":false,"confidence":-1},{"trial_n":17,"span":6,"encoder":"144523","distractor":"147523","target":"present","response":"present","rt":"2140","correct":true,"confidence":-1},{"trial_n":18,"span":6,"encoder":"102051","distractor":"402051","target":"present","response":"present","rt":"1421","correct":true,"confidence":-1},{"trial_n":19,"span":7,"encoder":"3460703","distractor":"3430703","target":"absent","response":"present","rt":"1463","correct":false,"confidence":-1},{"trial_n":20,"span":6,"encoder":"276241","distractor":"976241","target":"present","response":"present","rt":"2514","correct":true,"confidence":-1},{"trial_n":21,"span":6,"encoder":"145429","distractor":"145459","target":"absent","response":"absent","rt":"3428","correct":true,"confidence":5},{"trial_n":22,"span":7,"encoder":"4378107","distractor":"4370107","target":"absent","response":"present","rt":"2122","correct":false,"confidence":5},{"trial_n":23,"span":6,"encoder":"815073","distractor":"815033","target":"absent","response":"absent","rt":"2150","correct":true,"confidence":5},{"trial_n":24,"span":6,"encoder":"073986","distractor":"673986","target":"present","response":"present","rt":"2204","correct":true,"confidence":5},{"trial_n":25,"span":7,"encoder":"0745109","distractor":"0145109","target":"present","response":"present","rt":"2825","correct":true,"confidence":5},{"trial_n":26,"span":7,"encoder":"5864139","distractor":"5864039","target":"present","response":"present","rt":"2337","correct":true,"confidence":5},{"trial_n":27,"span":8,"encoder":"49274389","distractor":"49274329","target":"absent","response":"present","rt":"4720","correct":false,"confidence":4},{"trial_n":28,"span":7,"encoder":"2542384","distractor":"2542387","target":"absent","response":"present","rt":"3809","correct":false,"confidence":3},{"trial_n":29,"span":6,"encoder":"843659","distractor":"863659","target":"present","response":"present","rt":"2180","correct":true,"confidence":5},{"trial_n":30,"span":6,"encoder":"075913","distractor":"095913","target":"absent","response":"present","rt":"2129","correct":false,"confidence":5},{"trial_n":31,"span":5,"encoder":"13625","distractor":"13125","target":"absent","response":"absent","rt":"2563","correct":true,"confidence":5},{"trial_n":32,"span":5,"encoder":"31995","distractor":"51995","target":"present","response":"present","rt":"5370","correct":true,"confidence":5},{"trial_n":33,"span":6,"encoder":"648733","distractor":"668733","target":"present","response":"present","rt":"4829","correct":true,"confidence":5},{"trial_n":34,"span":6,"encoder":"203884","distractor":"203886","target":"present","response":"present","rt":"3496","correct":true,"confidence":5},{"trial_n":35,"span":7,"encoder":"5775709","distractor":"5775729","target":"present","response":"present","rt":"3142","correct":true,"confidence":5},{"trial_n":36,"span":7,"encoder":"4669232","distractor":"1669232","target":"absent","response":"absent","rt":"2564","correct":true,"confidence":5},{"trial_n":37,"span":8,"encoder":"06563692","distractor":"06565692","target":"present","response":"present","rt":"3034","correct":true,"confidence":5},{"trial_n":38,"span":8,"encoder":"80882126","distractor":"80882136","target":"present","response":"present","rt":"2380","correct":true,"confidence":5},{"trial_n":39,"span":9,"encoder":"819995672","distractor":"819995172","target":"absent","response":"present","rt":"5483","correct":false,"confidence":3},{"trial_n":40,"span":8,"encoder":"93828628","distractor":"93888628","target":"present","response":"present","rt":"6168.9999999999","correct":true,"confidence":5},{"trial_n":41,"span":8,"encoder":"64503579","distractor":"65503579","target":"present","response":"present","rt":"4299","correct":true,"confidence":3},{"trial_n":42,"span":9,"encoder":"408778075","distractor":"308778075","target":"absent","response":"present","rt":"1959.0000000001","correct":false,"confidence":5},{"trial_n":43,"span":8,"encoder":"37379530","distractor":"17379530","target":"absent","response":"absent","rt":"1725","correct":true,"confidence":5},{"trial_n":44,"span":8,"encoder":"04470514","distractor":"04450514","target":"present","response":"absent","rt":"9359","correct":false,"confidence":3},{"trial_n":45,"span":7,"encoder":"5550706","distractor":"5553706","target":"absent","response":"absent","rt":"2790","correct":true,"confidence":5},{"trial_n":46,"span":7,"encoder":"5828348","distractor":"5428348","target":"present","response":"present","rt":"4716","correct":true,"confidence":5},{"trial_n":47,"span":8,"encoder":"65569330","distractor":"65569130","target":"absent","response":"absent","rt":"2708","correct":true,"confidence":5},{"trial_n":48,"span":8,"encoder":"41448861","distractor":"41448831","target":"absent","response":"absent","rt":"2139","correct":true,"confidence":5},{"trial_n":49,"span":9,"encoder":"858071313","distractor":"858071813","target":"absent","response":"present","rt":"6464","correct":false,"confidence":5},{"trial_n":50,"span":8,"encoder":"82367839","distractor":"82667839","target":"absent","response":"absent","rt":"2302.0000000001","correct":true,"confidence":5},{"trial_n":51,"span":8,"encoder":"61395142","distractor":"66395142","target":"present","response":"present","rt":"4069.0000000001","correct":true,"confidence":3},{"trial_n":52,"span":9,"encoder":"355580671","distractor":"356580671","target":"present","response":"present","rt":"3506","correct":true,"confidence":5},{"trial_n":53,"span":9,"encoder":"144333205","distractor":"144033205","target":"absent","response":"present","rt":"2584","correct":false,"confidence":5},{"trial_n":54,"span":8,"encoder":"92016689","distractor":"12016689","target":"present","response":"present","rt":"2720","correct":true,"confidence":5},{"trial_n":55,"span":8,"encoder":"10045512","distractor":"12045512","target":"absent","response":"absent","rt":"4307","correct":true,"confidence":5},{"trial_n":56,"span":9,"encoder":"219266365","distractor":"210266365","target":"absent","response":"present","rt":"4925.9999999999","correct":false,"confidence":4},{"trial_n":57,"span":8,"encoder":"03735650","distractor":"03735350","target":"present","response":"present","rt":"2859","correct":true,"confidence":5},{"trial_n":58,"span":8,"encoder":"33796289","distractor":"33796789","target":"absent","response":"absent","rt":"3878","correct":true,"confidence":5},{"trial_n":59,"span":9,"encoder":"873929525","distractor":"673929525","target":"present","response":"present","rt":"6309","correct":true,"confidence":3},{"trial_n":60,"span":9,"encoder":"128539152","distractor":"128569152","target":"absent","response":"present","rt":"3588","correct":false,"confidence":2},{"trial_n":61,"span":8,"encoder":"41239586","distractor":"41229586","target":"present","response":"present","rt":"6045","correct":true,"confidence":5},{"trial_n":62,"span":8,"encoder":"56606531","distractor":"76606531","target":"present","response":"present","rt":"3546","correct":true,"confidence":5},{"trial_n":63,"span":9,"encoder":"206206584","distractor":"206206581","target":"absent","response":"absent","rt":"3078","correct":true,"confidence":5},{"trial_n":64,"span":9,"encoder":"528456548","distractor":"528456848","target":"present","response":"present","rt":"4554.9999999999","correct":true,"confidence":3},{"trial_n":65,"span":10,"encoder":"4588500146","distractor":"4588509146","target":"absent","response":"absent","rt":"3736","correct":true,"confidence":5},{"trial_n":66,"span":10,"encoder":"3864894123","distractor":"3864896123","target":"present","response":"present","rt":"9228.9999999999","correct":true,"confidence":4},{"trial_n":67,"span":11,"encoder":"21240108687","distractor":"20240108687","target":"absent","response":"present","rt":"2767","correct":false,"confidence":5},{"trial_n":68,"span":10,"encoder":"5746020022","distractor":"5746000022","target":"absent","response":"present","rt":"4189","correct":false,"confidence":4},{"trial_n":69,"span":9,"encoder":"577942587","distractor":"507942587","target":"present","response":"present","rt":"2703","correct":true,"confidence":5},{"trial_n":70,"span":9,"encoder":"965458218","distractor":"965458212","target":"absent","response":"absent","rt":"5262","correct":true,"confidence":5},{"trial_n":71,"span":8,"encoder":"29907261","distractor":"29807261","target":"present","response":"present","rt":"4588","correct":true,"confidence":-1},{"trial_n":72,"span":8,"encoder":"69913369","distractor":"69913769","target":"present","response":"present","rt":"3528.0000000001","correct":true,"confidence":-1},{"trial_n":73,"span":9,"encoder":"899444074","distractor":"899444874","target":"absent","response":"absent","rt":"7578","correct":true,"confidence":-1},{"trial_n":74,"span":9,"encoder":"722286722","distractor":"782286722","target":"absent","response":"absent","rt":"2146.0000000001","correct":true,"confidence":-1},{"trial_n":75,"span":10,"encoder":"2415075866","distractor":"2415073866","target":"present","response":"present","rt":"4534","correct":true,"confidence":-1},{"trial_n":76,"span":10,"encoder":"5583466364","distractor":"5513466364","target":"present","response":"present","rt":"4336","correct":true,"confidence":-1},{"trial_n":77,"span":11,"encoder":"76813094796","distractor":"76813194796","target":"present","response":"present","rt":"2877.9999999999","correct":true,"confidence":-1},{"trial_n":78,"span":11,"encoder":"37838765482","distractor":"37838765488","target":"absent","response":"absent","rt":"4563.9999999998","correct":true,"confidence":-1},{"trial_n":79,"span":12,"encoder":"513052978985","distractor":"513092978985","target":"absent","response":"absent","rt":"10557","correct":true,"confidence":-1},{"trial_n":80,"span":12,"encoder":"233405835660","distractor":"233475835660","target":"absent","response":"absent","rt":"5773","correct":true,"confidence":-1},{"trial_n":81,"span":13,"encoder":"0468839623084","distractor":"0468839623684","target":"present","response":"present","rt":"2698","correct":true,"confidence":-1},{"trial_n":82,"span":13,"encoder":"5034499404852","distractor":"7034499404852","target":"absent","response":"present","rt":"16578","correct":false,"confidence":-1},{"trial_n":83,"span":12,"encoder":"842583630860","distractor":"842583690860","target":"absent","response":"absent","rt":"9169","correct":true,"confidence":-1},{"trial_n":84,"span":12,"encoder":"572637492284","distractor":"372637492284","target":"present","response":"present","rt":"6674","correct":true,"confidence":-1},{"trial_n":85,"span":13,"encoder":"7346593383307","distractor":"7346793383307","target":"absent","response":"present","rt":"10894","correct":false,"confidence":-1},{"trial_n":86,"span":12,"encoder":"401440190100","distractor":"401440190180","target":"present","response":"present","rt":"2725","correct":true,"confidence":-1},{"trial_n":87,"span":12,"encoder":"864804712067","distractor":"864864712067","target":"present","response":"absent","rt":"105006","correct":false,"confidence":-1},{"trial_n":88,"span":11,"encoder":"04946399359","distractor":"24946399359","target":"present","response":"present","rt":"4565","correct":true,"confidence":-1},{"trial_n":89,"span":11,"encoder":"10929650910","distractor":"10928650910","target":"absent","response":"absent","rt":"5442","correct":true,"confidence":-1},{"trial_n":90,"span":12,"encoder":"136228149047","distractor":"736228149047","target":"absent","response":"absent","rt":"3443","correct":true,"confidence":-1},{"trial_n":91,"span":12,"encoder":"838612874907","distractor":"438612874907","target":"present","response":"absent","rt":"8477.9999999925","correct":false,"confidence":2},{"trial_n":92,"span":11,"encoder":"30737201036","distractor":"30737201636","target":"absent","response":"absent","rt":"4669","correct":true,"confidence":3},{"trial_n":93,"span":11,"encoder":"63903678057","distractor":"63903678027","target":"absent","response":"present","rt":"9968.0000000075","correct":false,"confidence":3},{"trial_n":94,"span":10,"encoder":"5084221325","distractor":"5085221325","target":"absent","response":"absent","rt":"7909","correct":true,"confidence":2},{"trial_n":95,"span":10,"encoder":"9954916851","distractor":"9954916151","target":"present","response":"absent","rt":"5736","correct":false,"confidence":3},{"trial_n":96,"span":9,"encoder":"444945454","distractor":"494945454","target":"absent","response":"absent","rt":"11500","correct":true,"confidence":4},{"trial_n":97,"span":9,"encoder":"060926728","distractor":"060936728","target":"absent","response":"absent","rt":"4778","correct":true,"confidence":4},{"trial_n":98,"span":10,"encoder":"6467705489","distractor":"3467705489","target":"absent","response":"absent","rt":"1657.0000000075","correct":true,"confidence":4},{"trial_n":99,"span":10,"encoder":"0590063868","distractor":"0590069868","target":"present","response":"absent","rt":"4441","correct":false,"confidence":4},{"trial_n":100,"span":9,"encoder":"870797410","distractor":"870797415","target":"present","response":"present","rt":"2649","correct":true,"confidence":5},{"trial_n":101,"span":9,"encoder":"620317577","distractor":"620311577","target":"present","response":"present","rt":"2928","correct":true,"confidence":4},{"trial_n":102,"span":10,"encoder":"5571105356","distractor":"5571105056","target":"present","response":"present","rt":"5906","correct":true,"confidence":4},{"trial_n":103,"span":10,"encoder":"6337145537","distractor":"6367145537","target":"present","response":"present","rt":"25560","correct":true,"confidence":5},{"trial_n":104,"span":11,"encoder":"89291422067","distractor":"89291442067","target":"present","response":"absent","rt":"5652.0000000075","correct":false,"confidence":4},{"trial_n":105,"span":10,"encoder":"3959645086","distractor":"3459645086","target":"absent","response":"absent","rt":"1546.0000000075","correct":true,"confidence":5},{"trial_n":106,"span":10,"encoder":"8788064141","distractor":"8788069141","target":"present","response":"present","rt":"5058.9999999925","correct":true,"confidence":4},{"trial_n":107,"span":11,"encoder":"72002135337","distractor":"72002535337","target":"present","response":"present","rt":"2966","correct":true,"confidence":5},{"trial_n":108,"span":11,"encoder":"74918548993","distractor":"74918541993","target":"absent","response":"present","rt":"5195.0000000075","correct":false,"confidence":5},{"trial_n":109,"span":10,"encoder":"1074954714","distractor":"1074654714","target":"absent","response":"absent","rt":"2804.0000000075","correct":true,"confidence":5},{"trial_n":110,"span":10,"encoder":"0022281511","distractor":"0021281511","target":"present","response":"present","rt":"3286.9999999925","correct":true,"confidence":5},{"trial_n":111,"span":11,"encoder":"90454993583","distractor":"90454993283","target":"absent","response":"absent","rt":"5021.9999999925","correct":true,"confidence":5},{"trial_n":112,"span":11,"encoder":"51012591029","distractor":"31012591029","target":"present","response":"present","rt":"1698.0000000075","correct":true,"confidence":5},{"trial_n":113,"span":12,"encoder":"373987191321","distractor":"373987991321","target":"present","response":"present","rt":"5486.0000000075","correct":true,"confidence":5},{"trial_n":114,"span":12,"encoder":"621254614810","distractor":"623254614810","target":"present","response":"present","rt":"7095","correct":true,"confidence":4},{"trial_n":115,"span":13,"encoder":"2772974316633","distractor":"2772974319633","target":"present","response":"present","rt":"11930.999999993","correct":true,"confidence":2},{"trial_n":116,"span":13,"encoder":"4802242639995","distractor":"4802245639995","target":"present","response":"absent","rt":"10904","correct":false,"confidence":4},{"trial_n":117,"span":12,"encoder":"171987745475","distractor":"171907745475","target":"present","response":"present","rt":"5823.9999999925","correct":true,"confidence":5},{"trial_n":118,"span":12,"encoder":"492907756767","distractor":"492907456767","target":"absent","response":"absent","rt":"12966","correct":true,"confidence":2},{"trial_n":119,"span":13,"encoder":"6323563812009","distractor":"6323563312009","target":"absent","response":"absent","rt":"7402.9999999925","correct":true,"confidence":2},{"trial_n":120,"span":13,"encoder":"9565613894357","distractor":"9555613894357","target":"present","response":"present","rt":"2513.9999999925","correct":true,"confidence":4},{"trial_n":121,"span":14,"encoder":"20936641779011","distractor":"20936641779014","target":"absent","response":"absent","rt":"8724","correct":true,"confidence":3},{"trial_n":122,"span":14,"encoder":"77504035227924","distractor":"67504035227924","target":"present","response":"present","rt":"2089.0000000075","correct":true,"confidence":5},{"trial_n":123,"span":15,"encoder":"893730524224261","distractor":"893730514224261","target":"absent","response":"absent","rt":"16419.999999993","correct":true,"confidence":4},{"trial_n":124,"span":15,"encoder":"098836061322387","distractor":"098836066322387","target":"absent","response":"present","rt":"7178","correct":false,"confidence":4},{"trial_n":125,"span":14,"encoder":"06629346592284","distractor":"06629366592284","target":"present","response":"present","rt":"11209","correct":true,"confidence":3},{"trial_n":126,"span":14,"encoder":"40586517010950","distractor":"40586817010950","target":"absent","response":"absent","rt":"10854.000000007","correct":true,"confidence":3},{"trial_n":127,"span":15,"encoder":"496743782286297","distractor":"496743772286297","target":"present","response":"present","rt":"14161.000000007","correct":true,"confidence":3},{"trial_n":128,"span":15,"encoder":"605308911212604","distractor":"605308611212604","target":"absent","response":"present","rt":"14028","correct":false,"confidence":3},{"trial_n":129,"span":14,"encoder":"72739096401227","distractor":"72739095401227","target":"absent","response":"present","rt":"8721","correct":false,"confidence":4},{"trial_n":130,"span":13,"encoder":"0005841032004","distractor":"0005841032001","target":"present","response":"present","rt":"5429.9999999925","correct":true,"confidence":4},{"trial_n":131,"span":13,"encoder":"7795102469496","distractor":"7795102469494","target":"absent","response":"absent","rt":"6774.9999999925","correct":true,"confidence":5},{"trial_n":132,"span":14,"encoder":"80874972123304","distractor":"80834972123304","target":"absent","response":"absent","rt":"2611.9999999925","correct":true,"confidence":5},{"trial_n":133,"span":14,"encoder":"44376864429360","distractor":"44376864429760","target":"absent","response":"absent","rt":"7291.9999999851","correct":true,"confidence":2},{"trial_n":134,"span":15,"encoder":"587733149297684","distractor":"587733149297664","target":"present","response":"present","rt":"10110.999999985","correct":true,"confidence":3},{"trial_n":135,"span":15,"encoder":"384787604487838","distractor":"384787604787838","target":"absent","response":"present","rt":"11944.999999993","correct":false,"confidence":3},{"trial_n":136,"span":14,"encoder":"28252836367066","distractor":"28252836367067","target":"present","response":"absent","rt":"9470.0000000075","correct":false,"confidence":3},{"trial_n":137,"span":13,"encoder":"8765934544949","distractor":"8775934544949","target":"absent","response":"absent","rt":"1748.9999999925","correct":true,"confidence":5},{"trial_n":138,"span":13,"encoder":"8527358064345","distractor":"8527358264345","target":"present","response":"present","rt":"5161.9999999925","correct":true,"confidence":4},{"trial_n":139,"span":14,"encoder":"63260440904326","distractor":"63260400904326","target":"present","response":"present","rt":"23732","correct":true,"confidence":4},{"trial_n":140,"span":14,"encoder":"97291260920591","distractor":"97201260920591","target":"absent","response":"absent","rt":"4916","correct":true,"confidence":4}]