[{"trial_n":1,"min":25,"max":230,"target":"present","response":"present","rt":3598.700000003,"correct":true,"confidence":-1},{"trial_n":2,"min":25,"max":230,"target":"present","response":"present","rt":612.40000000596,"correct":true,"confidence":-1},{"trial_n":3,"min":41,"max":214,"target":"absent","response":"absent","rt":1254.200000003,"correct":true,"confidence":-1},{"trial_n":4,"min":41,"max":214,"target":"absent","response":"absent","rt":758,"correct":true,"confidence":-1},{"trial_n":5,"min":57,"max":198,"target":"present","response":"present","rt":1402.900000006,"correct":true,"confidence":-1},{"trial_n":6,"min":57,"max":198,"target":"absent","response":"absent","rt":758.20000000298,"correct":true,"confidence":-1},{"trial_n":7,"min":73,"max":182,"target":"present","response":"present","rt":926,"correct":true,"confidence":-1},{"trial_n":8,"min":73,"max":182,"target":"present","response":"present","rt":2041.900000006,"correct":true,"confidence":-1},{"trial_n":9,"min":89,"max":166,"target":"present","response":"present","rt":963.39999999106,"correct":true,"confidence":-1},{"trial_n":10,"min":89,"max":166,"target":"present","response":"present","rt":370.20000000298,"correct":true,"confidence":-1},{"trial_n":11,"min":97,"max":158,"target":"absent","response":"absent","rt":1139.700000003,"correct":true,"confidence":-1},{"trial_n":12,"min":97,"max":158,"target":"absent","response":"absent","rt":709.40000000596,"correct":true,"confidence":-1},{"trial_n":13,"min":105,"max":150,"target":"present","response":"absent","rt":427.80000001192,"correct":false,"confidence":-1},{"trial_n":14,"min":97,"max":158,"target":"present","response":"absent","rt":605.39999999106,"correct":false,"confidence":-1},{"trial_n":15,"min":89,"max":166,"target":"present","response":"absent","rt":670.39999999106,"correct":false,"confidence":-1},{"trial_n":16,"min":81,"max":174,"target":"present","response":"present","rt":1333.099999994,"correct":true,"confidence":-1},{"trial_n":17,"min":81,"max":174,"target":"present","response":"present","rt":884.19999998808,"correct":true,"confidence":-1},{"trial_n":18,"min":89,"max":166,"target":"present","response":"absent","rt":1327.799999997,"correct":false,"confidence":-1},{"trial_n":19,"min":81,"max":174,"target":"absent","response":"present","rt":715,"correct":false,"confidence":-1},{"trial_n":20,"min":73,"max":182,"target":"present","response":"present","rt":430.5,"correct":true,"confidence":-1},{"trial_n":21,"min":73,"max":182,"target":"present","response":"present","rt":714.89999999106,"correct":true,"confidence":3},{"trial_n":22,"min":77,"max":178,"target":"absent","response":"absent","rt":1746.1999999881,"correct":true,"confidence":2},{"trial_n":23,"min":77,"max":178,"target":"present","response":"present","rt":1912,"correct":true,"confidence":3},{"trial_n":24,"min":81,"max":174,"target":"present","response":"present","rt":1754.400000006,"correct":true,"confidence":3},{"trial_n":25,"min":81,"max":174,"target":"present","response":"absent","rt":1228,"correct":false,"confidence":3},{"trial_n":26,"min":77,"max":178,"target":"absent","response":"absent","rt":2392.099999994,"correct":true,"confidence":3},{"trial_n":27,"min":77,"max":178,"target":"absent","response":"absent","rt":1731.200000003,"correct":true,"confidence":3},{"trial_n":28,"min":81,"max":174,"target":"absent","response":"present","rt":2229.1000000089,"correct":false,"confidence":3},{"trial_n":29,"min":77,"max":178,"target":"present","response":"present","rt":788.70000000298,"correct":true,"confidence":4},{"trial_n":30,"min":77,"max":178,"target":"present","response":"present","rt":1332.400000006,"correct":true,"confidence":4},{"trial_n":31,"min":79,"max":176,"target":"present","response":"present","rt":1739.5,"correct":true,"confidence":3},{"trial_n":32,"min":79,"max":176,"target":"absent","response":"absent","rt":1211.299999997,"correct":true,"confidence":3},{"trial_n":33,"min":81,"max":174,"target":"present","response":"absent","rt":998.20000000298,"correct":false,"confidence":2},{"trial_n":34,"min":79,"max":176,"target":"absent","response":"present","rt":1611,"correct":false,"confidence":2},{"trial_n":35,"min":77,"max":178,"target":"absent","response":"absent","rt":1744.400000006,"correct":true,"confidence":2},{"trial_n":36,"min":77,"max":178,"target":"absent","response":"absent","rt":1067.299999997,"correct":true,"confidence":2},{"trial_n":37,"min":79,"max":176,"target":"present","response":"present","rt":1185.299999997,"correct":true,"confidence":3},{"trial_n":38,"min":79,"max":176,"target":"absent","response":"absent","rt":981.29999999702,"correct":true,"confidence":3},{"trial_n":39,"min":81,"max":174,"target":"present","response":"absent","rt":1041.799999997,"correct":false,"confidence":2},{"trial_n":40,"min":79,"max":176,"target":"present","response":"present","rt":817.10000000894,"correct":true,"confidence":3},{"trial_n":41,"min":79,"max":176,"target":"present","response":"present","rt":790.5,"correct":true,"confidence":3},{"trial_n":42,"min":80,"max":175,"target":"absent","response":"absent","rt":811.89999999106,"correct":true,"confidence":3},{"trial_n":43,"min":80,"max":175,"target":"absent","response":"absent","rt":687.20000000298,"correct":true,"confidence":3},{"trial_n":44,"min":81,"max":174,"target":"absent","response":"absent","rt":545.69999998808,"correct":true,"confidence":3},{"trial_n":45,"min":81,"max":174,"target":"present","response":"present","rt":704.69999998808,"correct":true,"confidence":3},{"trial_n":46,"min":82,"max":173,"target":"present","response":"absent","rt":644.59999999404,"correct":false,"confidence":3},{"trial_n":47,"min":81,"max":174,"target":"present","response":"present","rt":750.40000000596,"correct":true,"confidence":3},{"trial_n":48,"min":81,"max":174,"target":"absent","response":"absent","rt":591.90000000596,"correct":true,"confidence":3},{"trial_n":49,"min":82,"max":173,"target":"absent","response":"absent","rt":512.19999998808,"correct":true,"confidence":3},{"trial_n":50,"min":82,"max":173,"target":"absent","response":"absent","rt":477.60000000894,"correct":true,"confidence":3},{"trial_n":51,"min":83,"max":172,"target":"absent","response":"absent","rt":1155.099999994,"correct":true,"confidence":3},{"trial_n":52,"min":83,"max":172,"target":"absent","response":"absent","rt":518.89999999106,"correct":true,"confidence":3},{"trial_n":53,"min":84,"max":171,"target":"present","response":"present","rt":658.79999999702,"correct":true,"confidence":3},{"trial_n":54,"min":84,"max":171,"target":"absent","response":"absent","rt":590.89999999106,"correct":true,"confidence":3},{"trial_n":55,"min":85,"max":170,"target":"absent","response":"absent","rt":545.79999999702,"correct":true,"confidence":3},{"trial_n":56,"min":85,"max":170,"target":"present","response":"absent","rt":709.5,"correct":false,"confidence":3},{"trial_n":57,"min":84,"max":171,"target":"present","response":"present","rt":742.90000000596,"correct":true,"confidence":3},{"trial_n":58,"min":84,"max":171,"target":"absent","response":"absent","rt":509.10000000894,"correct":true,"confidence":3},{"trial_n":59,"min":85,"max":170,"target":"present","response":"absent","rt":496.59999999404,"correct":false,"confidence":3},{"trial_n":60,"min":84,"max":171,"target":"absent","response":"absent","rt":438,"correct":true,"confidence":3},{"trial_n":61,"min":84,"max":171,"target":"absent","response":"absent","rt":884.80000001192,"correct":true,"confidence":3},{"trial_n":62,"min":85,"max":170,"target":"absent","response":"absent","rt":400.79999999702,"correct":true,"confidence":3},{"trial_n":63,"min":85,"max":170,"target":"absent","response":"absent","rt":350.70000000298,"correct":true,"confidence":3},{"trial_n":64,"min":86,"max":169,"target":"absent","response":"absent","rt":353.89999999106,"correct":true,"confidence":3},{"trial_n":65,"min":86,"max":169,"target":"present","response":"absent","rt":969.59999999404,"correct":false,"confidence":3},{"trial_n":66,"min":85,"max":170,"target":"absent","response":"absent","rt":504.5,"correct":true,"confidence":3},{"trial_n":67,"min":85,"max":170,"target":"absent","response":"absent","rt":550.69999998808,"correct":true,"confidence":3},{"trial_n":68,"min":86,"max":169,"target":"absent","response":"absent","rt":625.19999998808,"correct":true,"confidence":3},{"trial_n":69,"min":86,"max":169,"target":"present","response":"present","rt":681.39999999106,"correct":true,"confidence":3},{"trial_n":70,"min":87,"max":168,"target":"present","response":"absent","rt":562.5,"correct":false,"confidence":3},{"trial_n":71,"min":41,"max":214,"target":"present","response":"absent","rt":1228.5,"correct":false,"confidence":-1},{"trial_n":72,"min":41,"max":214,"target":"present","response":"present","rt":4640.299999997,"correct":true,"confidence":-1},{"trial_n":73,"min":41,"max":214,"target":"absent","response":"absent","rt":792.89999999106,"correct":true,"confidence":-1},{"trial_n":74,"min":57,"max":198,"target":"absent","response":"absent","rt":721.20000000298,"correct":true,"confidence":-1},{"trial_n":75,"min":57,"max":198,"target":"present","response":"present","rt":255.5,"correct":true,"confidence":-1},{"trial_n":76,"min":73,"max":182,"target":"absent","response":"absent","rt":367.19999998808,"correct":true,"confidence":-1},{"trial_n":77,"min":73,"max":182,"target":"present","response":"present","rt":251.29999999702,"correct":true,"confidence":-1},{"trial_n":78,"min":89,"max":166,"target":"present","response":"present","rt":1119.700000003,"correct":true,"confidence":-1},{"trial_n":79,"min":89,"max":166,"target":"absent","response":"present","rt":1363,"correct":false,"confidence":-1},{"trial_n":80,"min":73,"max":182,"target":"absent","response":"absent","rt":538.29999999702,"correct":true,"confidence":-1},{"trial_n":81,"min":73,"max":182,"target":"present","response":"present","rt":313.60000000894,"correct":true,"confidence":-1},{"trial_n":82,"min":81,"max":174,"target":"absent","response":"absent","rt":688.70000000298,"correct":true,"confidence":-1},{"trial_n":83,"min":81,"max":174,"target":"present","response":"absent","rt":1429.5,"correct":false,"confidence":-1},{"trial_n":84,"min":73,"max":182,"target":"absent","response":"absent","rt":464.79999999702,"correct":true,"confidence":-1},{"trial_n":85,"min":73,"max":182,"target":"present","response":"present","rt":339.19999998808,"correct":true,"confidence":-1},{"trial_n":86,"min":81,"max":174,"target":"absent","response":"absent","rt":688,"correct":true,"confidence":-1},{"trial_n":87,"min":81,"max":174,"target":"present","response":"present","rt":339.80000001192,"correct":true,"confidence":-1},{"trial_n":88,"min":89,"max":166,"target":"absent","response":"absent","rt":471.20000000298,"correct":true,"confidence":-1},{"trial_n":89,"min":89,"max":166,"target":"absent","response":"absent","rt":507.90000000596,"correct":true,"confidence":-1},{"trial_n":90,"min":97,"max":158,"target":"absent","response":"present","rt":597.09999999404,"correct":false,"confidence":-1},{"trial_n":91,"min":93,"max":162,"target":"absent","response":"present","rt":680.5,"correct":false,"confidence":3},{"trial_n":92,"min":89,"max":166,"target":"absent","response":"absent","rt":2747.8000000119,"correct":true,"confidence":1},{"trial_n":93,"min":89,"max":166,"target":"absent","response":"present","rt":1371.1999999881,"correct":false,"confidence":1},{"trial_n":94,"min":85,"max":170,"target":"absent","response":"absent","rt":802.5,"correct":true,"confidence":2},{"trial_n":95,"min":85,"max":170,"target":"absent","response":"absent","rt":1118.599999994,"correct":true,"confidence":2},{"trial_n":96,"min":89,"max":166,"target":"present","response":"present","rt":623,"correct":true,"confidence":2},{"trial_n":97,"min":89,"max":166,"target":"present","response":"present","rt":942.39999999106,"correct":true,"confidence":1},{"trial_n":98,"min":93,"max":162,"target":"present","response":"absent","rt":300,"correct":false,"confidence":1},{"trial_n":99,"min":89,"max":166,"target":"present","response":"present","rt":731.19999998808,"correct":true,"confidence":3},{"trial_n":100,"min":89,"max":166,"target":"present","response":"absent","rt":1706.6000000089,"correct":false,"confidence":1},{"trial_n":101,"min":87,"max":168,"target":"present","response":"present","rt":342.90000000596,"correct":true,"confidence":4},{"trial_n":102,"min":87,"max":168,"target":"present","response":"present","rt":731.90000000596,"correct":true,"confidence":3},{"trial_n":103,"min":89,"max":166,"target":"absent","response":"absent","rt":919.09999999404,"correct":true,"confidence":1},{"trial_n":104,"min":89,"max":166,"target":"present","response":"present","rt":795.90000000596,"correct":true,"confidence":3},{"trial_n":105,"min":91,"max":164,"target":"absent","response":"absent","rt":464.89999999106,"correct":true,"confidence":2},{"trial_n":106,"min":91,"max":164,"target":"present","response":"absent","rt":909.29999999702,"correct":false,"confidence":1},{"trial_n":107,"min":89,"max":166,"target":"present","response":"present","rt":828.79999999702,"correct":true,"confidence":1},{"trial_n":108,"min":89,"max":166,"target":"absent","response":"absent","rt":519.70000000298,"correct":true,"confidence":2},{"trial_n":109,"min":91,"max":164,"target":"absent","response":"present","rt":408.20000000298,"correct":false,"confidence":1},{"trial_n":110,"min":89,"max":166,"target":"absent","response":"absent","rt":192.80000001192,"correct":true,"confidence":1},{"trial_n":111,"min":89,"max":166,"target":"present","response":"present","rt":814.09999999404,"correct":true,"confidence":3},{"trial_n":112,"min":90,"max":165,"target":"present","response":"present","rt":479.5,"correct":true,"confidence":2},{"trial_n":113,"min":90,"max":165,"target":"absent","response":"present","rt":505.29999999702,"correct":false,"confidence":1},{"trial_n":114,"min":89,"max":166,"target":"absent","response":"absent","rt":461.70000000298,"correct":true,"confidence":1},{"trial_n":115,"min":89,"max":166,"target":"present","response":"present","rt":531.39999999106,"correct":true,"confidence":3},{"trial_n":116,"min":90,"max":165,"target":"absent","response":"absent","rt":610.29999999702,"correct":true,"confidence":3},{"trial_n":117,"min":90,"max":165,"target":"absent","response":"present","rt":1126.700000003,"correct":false,"confidence":2},{"trial_n":118,"min":89,"max":166,"target":"present","response":"absent","rt":693.5,"correct":false,"confidence":1},{"trial_n":119,"min":88,"max":167,"target":"absent","response":"absent","rt":536.10000000894,"correct":true,"confidence":1},{"trial_n":120,"min":88,"max":167,"target":"present","response":"present","rt":843,"correct":true,"confidence":1},{"trial_n":121,"min":89,"max":166,"target":"present","response":"present","rt":761.79999999702,"correct":true,"confidence":4},{"trial_n":122,"min":89,"max":166,"target":"present","response":"present","rt":720.79999999702,"correct":true,"confidence":3},{"trial_n":123,"min":90,"max":165,"target":"present","response":"present","rt":622.39999999106,"correct":true,"confidence":3},{"trial_n":124,"min":90,"max":165,"target":"absent","response":"absent","rt":654.40000000596,"correct":true,"confidence":3},{"trial_n":125,"min":91,"max":164,"target":"present","response":"present","rt":233.5,"correct":true,"confidence":3},{"trial_n":126,"min":91,"max":164,"target":"present","response":"absent","rt":849,"correct":false,"confidence":1},{"trial_n":127,"min":90,"max":165,"target":"present","response":"present","rt":658,"correct":true,"confidence":2},{"trial_n":128,"min":90,"max":165,"target":"present","response":"present","rt":516.70000000298,"correct":true,"confidence":2},{"trial_n":129,"min":91,"max":164,"target":"absent","response":"absent","rt":229.89999999106,"correct":true,"confidence":1},{"trial_n":130,"min":91,"max":164,"target":"present","response":"present","rt":581.90000000596,"correct":true,"confidence":3},{"trial_n":131,"min":92,"max":163,"target":"absent","response":"present","rt":284.70000000298,"correct":false,"confidence":1},{"trial_n":132,"min":91,"max":164,"target":"absent","response":"absent","rt":264.39999999106,"correct":true,"confidence":2},{"trial_n":133,"min":91,"max":164,"target":"absent","response":"present","rt":448.29999999702,"correct":false,"confidence":2},{"trial_n":134,"min":90,"max":165,"target":"present","response":"present","rt":346.09999999404,"correct":true,"confidence":1},{"trial_n":135,"min":90,"max":165,"target":"present","response":"absent","rt":311.60000000894,"correct":false,"confidence":1},{"trial_n":136,"min":89,"max":166,"target":"absent","response":"present","rt":842.39999999106,"correct":false,"confidence":1},{"trial_n":137,"min":88,"max":167,"target":"absent","response":"absent","rt":618.59999999404,"correct":true,"confidence":1},{"trial_n":138,"min":88,"max":167,"target":"absent","response":"absent","rt":919.59999999404,"correct":true,"confidence":3},{"trial_n":139,"min":89,"max":166,"target":"present","response":"absent","rt":401.29999999702,"correct":false,"confidence":2},{"trial_n":140,"min":88,"max":167,"target":"present","response":"absent","rt":263.5,"correct":false,"confidence":1}]