[{"trial_n":1,"span":8,"encoder":"12610017","distractor":"12310017","target":"present","response":"present","rt":"9520.3999999762","correct":true,"confidence":-1},{"trial_n":2,"span":8,"encoder":"95447503","distractor":"95947503","target":"present","response":"present","rt":"3852.2000000477","correct":true,"confidence":-1},{"trial_n":3,"span":10,"encoder":"2609616990","distractor":"4609616990","target":"absent","response":"absent","rt":"1602.2000000477","correct":true,"confidence":-1},{"trial_n":4,"span":10,"encoder":"4725381670","distractor":"4795381670","target":"absent","response":"absent","rt":"2457","correct":true,"confidence":-1},{"trial_n":5,"span":12,"encoder":"480776325888","distractor":"480776325828","target":"present","response":"absent","rt":"2062","correct":false,"confidence":-1},{"trial_n":6,"span":10,"encoder":"6212701733","distractor":"6212701783","target":"absent","response":"present","rt":"3118.7000000477","correct":false,"confidence":-1},{"trial_n":7,"span":8,"encoder":"73711671","distractor":"73711611","target":"absent","response":"present","rt":"3250.1000000238","correct":false,"confidence":-1},{"trial_n":8,"span":6,"encoder":"601725","distractor":"601723","target":"absent","response":"absent","rt":"2884.6000000238","correct":true,"confidence":-1},{"trial_n":9,"span":6,"encoder":"945176","distractor":"946176","target":"present","response":"present","rt":"1812.6000000238","correct":true,"confidence":-1},{"trial_n":10,"span":8,"encoder":"86409230","distractor":"16409230","target":"absent","response":"absent","rt":"1407.2000000477","correct":true,"confidence":-1},{"trial_n":11,"span":8,"encoder":"08054184","distractor":"08054144","target":"present","response":"present","rt":"2487.2999999523","correct":true,"confidence":-1},{"trial_n":12,"span":9,"encoder":"234323701","distractor":"234323703","target":"absent","response":"absent","rt":"4197.0999999046","correct":true,"confidence":-1},{"trial_n":13,"span":9,"encoder":"685186298","distractor":"689186298","target":"present","response":"absent","rt":"1640.3000000715","correct":false,"confidence":-1},{"trial_n":14,"span":8,"encoder":"77114639","distractor":"77114039","target":"present","response":"present","rt":"2598.8999999762","correct":true,"confidence":-1},{"trial_n":15,"span":8,"encoder":"34702252","distractor":"35702252","target":"present","response":"present","rt":"2722.7999999523","correct":true,"confidence":-1},{"trial_n":16,"span":9,"encoder":"510297262","distractor":"510997262","target":"present","response":"absent","rt":"3536.7999999523","correct":false,"confidence":-1},{"trial_n":17,"span":8,"encoder":"40758594","distractor":"40458594","target":"present","response":"present","rt":"3323.4000000954","correct":true,"confidence":-1},{"trial_n":18,"span":8,"encoder":"81870409","distractor":"81820409","target":"absent","response":"absent","rt":"1702.1000000238","correct":true,"confidence":-1},{"trial_n":19,"span":9,"encoder":"932099080","distractor":"932099084","target":"absent","response":"absent","rt":"4492.8999999762","correct":true,"confidence":-1},{"trial_n":20,"span":9,"encoder":"794355985","distractor":"794356985","target":"absent","response":"absent","rt":"2250.5999999046","correct":true,"confidence":-1},{"trial_n":21,"span":10,"encoder":"4368438823","distractor":"4368438223","target":"present","response":"present","rt":"2298.7000000477","correct":true,"confidence":3},{"trial_n":22,"span":10,"encoder":"8694862510","distractor":"8694882510","target":"absent","response":"absent","rt":"3637.7000000477","correct":true,"confidence":5},{"trial_n":23,"span":11,"encoder":"99824150832","distractor":"19824150832","target":"absent","response":"absent","rt":"3047.8999999762","correct":true,"confidence":5},{"trial_n":24,"span":11,"encoder":"52814465169","distractor":"50814465169","target":"absent","response":"absent","rt":"4374.1999999285","correct":true,"confidence":4},{"trial_n":25,"span":12,"encoder":"117135466894","distractor":"117135766894","target":"present","response":"present","rt":"3690.8999999762","correct":true,"confidence":3},{"trial_n":26,"span":12,"encoder":"593913193753","distractor":"593913133753","target":"present","response":"absent","rt":"4882.6000000238","correct":false,"confidence":3},{"trial_n":27,"span":11,"encoder":"13113438894","distractor":"13110438894","target":"absent","response":"present","rt":"4437.6000000238","correct":false,"confidence":3},{"trial_n":28,"span":10,"encoder":"0020856694","distractor":"0025856694","target":"absent","response":"absent","rt":"4090.8999999762","correct":true,"confidence":2},{"trial_n":29,"span":10,"encoder":"4132481321","distractor":"4732481321","target":"present","response":"absent","rt":"4635.3999999762","correct":false,"confidence":2},{"trial_n":30,"span":9,"encoder":"477506515","distractor":"477506595","target":"present","response":"present","rt":"3274","correct":true,"confidence":3},{"trial_n":31,"span":9,"encoder":"881217056","distractor":"881817056","target":"absent","response":"absent","rt":"2541.8999999762","correct":true,"confidence":3},{"trial_n":32,"span":10,"encoder":"5279626829","distractor":"1279626829","target":"present","response":"present","rt":"3930.3999999762","correct":true,"confidence":4},{"trial_n":33,"span":10,"encoder":"2209730706","distractor":"2209730906","target":"absent","response":"absent","rt":"3155.3999999762","correct":true,"confidence":4},{"trial_n":34,"span":11,"encoder":"78677878748","distractor":"70677878748","target":"absent","response":"absent","rt":"3559.5","correct":true,"confidence":3},{"trial_n":35,"span":11,"encoder":"57482374830","distractor":"57472374830","target":"absent","response":"absent","rt":"2510.1999999285","correct":true,"confidence":4},{"trial_n":36,"span":12,"encoder":"951089633332","distractor":"951089633334","target":"absent","response":"absent","rt":"3341.7000000477","correct":true,"confidence":5},{"trial_n":37,"span":12,"encoder":"978438937211","distractor":"978438937511","target":"absent","response":"absent","rt":"4984.7000000477","correct":true,"confidence":2},{"trial_n":38,"span":13,"encoder":"3813974868267","distractor":"3813974268267","target":"present","response":"present","rt":"3121.7999999523","correct":true,"confidence":3},{"trial_n":39,"span":13,"encoder":"4440972513593","distractor":"4448972513593","target":"absent","response":"present","rt":"5969.6000000238","correct":false,"confidence":3},{"trial_n":40,"span":12,"encoder":"647995622427","distractor":"677995622427","target":"absent","response":"present","rt":"6003.6000000238","correct":false,"confidence":2},{"trial_n":41,"span":11,"encoder":"67161184743","distractor":"67168184743","target":"absent","response":"present","rt":"2367.3999999762","correct":false,"confidence":3},{"trial_n":42,"span":10,"encoder":"9890264941","distractor":"9890364941","target":"present","response":"present","rt":"4781.5999999046","correct":true,"confidence":3},{"trial_n":43,"span":10,"encoder":"9832954915","distractor":"9832254915","target":"present","response":"present","rt":"3797.1999999285","correct":true,"confidence":4},{"trial_n":44,"span":11,"encoder":"00605864955","distractor":"00615864955","target":"present","response":"absent","rt":"5205.1000000238","correct":false,"confidence":5},{"trial_n":45,"span":10,"encoder":"2645804271","distractor":"2645824271","target":"absent","response":"absent","rt":"4259.5","correct":true,"confidence":5},{"trial_n":46,"span":10,"encoder":"3137539322","distractor":"3137539321","target":"absent","response":"absent","rt":"4076.3999999762","correct":true,"confidence":5},{"trial_n":47,"span":11,"encoder":"87509975976","distractor":"87500975976","target":"present","response":"present","rt":"6545","correct":true,"confidence":4},{"trial_n":48,"span":11,"encoder":"41593170789","distractor":"41595170789","target":"present","response":"present","rt":"3570.2999999523","correct":true,"confidence":4},{"trial_n":49,"span":12,"encoder":"418166617832","distractor":"418164617832","target":"present","response":"present","rt":"4493.5","correct":true,"confidence":5},{"trial_n":50,"span":12,"encoder":"121010082520","distractor":"121010080520","target":"present","response":"present","rt":"4375.5","correct":true,"confidence":4},{"trial_n":51,"span":13,"encoder":"2542636338320","distractor":"2542636338820","target":"present","response":"present","rt":"4481.8999999762","correct":true,"confidence":4},{"trial_n":52,"span":13,"encoder":"8446181962558","distractor":"8446181962550","target":"present","response":"present","rt":"3989.1999999285","correct":true,"confidence":4},{"trial_n":53,"span":14,"encoder":"54803483848546","distractor":"54803183848546","target":"present","response":"present","rt":"5225.4000000954","correct":true,"confidence":5},{"trial_n":54,"span":14,"encoder":"00963288965201","distractor":"00963288965301","target":"present","response":"absent","rt":"5385.1000000238","correct":false,"confidence":5},{"trial_n":55,"span":13,"encoder":"7832044061165","distractor":"7132044061165","target":"absent","response":"absent","rt":"3533.7000000477","correct":true,"confidence":5},{"trial_n":56,"span":13,"encoder":"9718800613574","distractor":"9718800613774","target":"present","response":"absent","rt":"9660.5","correct":false,"confidence":2},{"trial_n":57,"span":12,"encoder":"968590145046","distractor":"968590545046","target":"absent","response":"present","rt":"4312.7999999523","correct":false,"confidence":5},{"trial_n":58,"span":11,"encoder":"02269559284","distractor":"02269759284","target":"present","response":"present","rt":"2952.2999999523","correct":true,"confidence":4},{"trial_n":59,"span":11,"encoder":"79553048599","distractor":"79583048599","target":"absent","response":"absent","rt":"4468.2000000477","correct":true,"confidence":3},{"trial_n":60,"span":12,"encoder":"232884731317","distractor":"232884731357","target":"present","response":"absent","rt":"3963.1999999285","correct":false,"confidence":3},{"trial_n":61,"span":11,"encoder":"98318829220","distractor":"98310829220","target":"absent","response":"absent","rt":"2834.8999999762","correct":true,"confidence":5},{"trial_n":62,"span":11,"encoder":"09619571301","distractor":"69619571301","target":"present","response":"absent","rt":"5060.2999999523","correct":false,"confidence":2},{"trial_n":63,"span":10,"encoder":"9564731419","distractor":"9564741419","target":"absent","response":"absent","rt":"3464.1999999285","correct":true,"confidence":5},{"trial_n":64,"span":10,"encoder":"1784435007","distractor":"1784035007","target":"present","response":"present","rt":"4066.6999999285","correct":true,"confidence":3},{"trial_n":65,"span":11,"encoder":"45051910404","distractor":"47051910404","target":"absent","response":"absent","rt":"3874.3999999762","correct":true,"confidence":2},{"trial_n":66,"span":11,"encoder":"29679434768","distractor":"29679438768","target":"present","response":"present","rt":"2698.0999999046","correct":true,"confidence":3},{"trial_n":67,"span":12,"encoder":"952362341530","distractor":"958362341530","target":"absent","response":"absent","rt":"5666","correct":true,"confidence":4},{"trial_n":68,"span":12,"encoder":"051777615228","distractor":"051777615223","target":"absent","response":"absent","rt":"4538","correct":true,"confidence":3},{"trial_n":69,"span":13,"encoder":"7200230160888","distractor":"7200239160888","target":"present","response":"present","rt":"5700","correct":true,"confidence":3},{"trial_n":70,"span":13,"encoder":"5354459904110","distractor":"5354459924110","target":"present","response":"absent","rt":"4672.7999999523","correct":false,"confidence":3},{"trial_n":71,"span":8,"encoder":"05105039","distractor":"05145039","target":"present","response":"present","rt":"4873.8999999762","correct":true,"confidence":-1},{"trial_n":72,"span":8,"encoder":"25560829","distractor":"25560899","target":"present","response":"present","rt":"2792.2000000477","correct":true,"confidence":-1},{"trial_n":73,"span":9,"encoder":"801009876","distractor":"001009876","target":"absent","response":"absent","rt":"12506.300000072","correct":true,"confidence":-1},{"trial_n":74,"span":9,"encoder":"658102095","distractor":"658102695","target":"absent","response":"absent","rt":"2877.1000000238","correct":true,"confidence":-1},{"trial_n":75,"span":10,"encoder":"1923373767","distractor":"1923373737","target":"present","response":"present","rt":"13733.799999952","correct":true,"confidence":-1},{"trial_n":76,"span":10,"encoder":"6526853790","distractor":"6126853790","target":"absent","response":"absent","rt":"4197.5","correct":true,"confidence":-1},{"trial_n":77,"span":11,"encoder":"74734094111","distractor":"74734034111","target":"absent","response":"present","rt":"5219.3000000715","correct":false,"confidence":-1},{"trial_n":78,"span":10,"encoder":"5879051666","distractor":"5879051662","target":"absent","response":"absent","rt":"6290.3999999762","correct":true,"confidence":-1},{"trial_n":79,"span":10,"encoder":"2893188563","distractor":"6893188563","target":"present","response":"present","rt":"5676.8000000715","correct":true,"confidence":-1},{"trial_n":80,"span":11,"encoder":"27081535523","distractor":"27041535523","target":"present","response":"present","rt":"7466","correct":true,"confidence":-1},{"trial_n":81,"span":11,"encoder":"10323343433","distractor":"10373343433","target":"present","response":"present","rt":"3112.2000000477","correct":true,"confidence":-1},{"trial_n":82,"span":12,"encoder":"536169475003","distractor":"536169477003","target":"present","response":"present","rt":"9125.6000000238","correct":true,"confidence":-1},{"trial_n":83,"span":12,"encoder":"999732365018","distractor":"999732365118","target":"present","response":"present","rt":"5520.6999999285","correct":true,"confidence":-1},{"trial_n":84,"span":13,"encoder":"6271019622196","distractor":"6271014622196","target":"present","response":"present","rt":"4491.4000000954","correct":true,"confidence":-1},{"trial_n":85,"span":13,"encoder":"2982347039463","distractor":"2982347039469","target":"absent","response":"absent","rt":"3699.3999999762","correct":true,"confidence":-1},{"trial_n":86,"span":14,"encoder":"53515937489435","distractor":"53515237489435","target":"present","response":"present","rt":"2595.5","correct":true,"confidence":-1},{"trial_n":87,"span":14,"encoder":"25955017389409","distractor":"25955617389409","target":"present","response":"absent","rt":"6117","correct":false,"confidence":-1},{"trial_n":88,"span":13,"encoder":"8542276154889","distractor":"8542276154880","target":"absent","response":"absent","rt":"2196.3999999762","correct":true,"confidence":-1},{"trial_n":89,"span":13,"encoder":"6181207682633","distractor":"6181507682633","target":"present","response":"absent","rt":"4671.7999999523","correct":false,"confidence":-1},{"trial_n":90,"span":12,"encoder":"604923100851","distractor":"604928100851","target":"absent","response":"absent","rt":"4565.0999999046","correct":true,"confidence":-1},{"trial_n":91,"span":12,"encoder":"422595274583","distractor":"422595274283","target":"absent","response":"absent","rt":"2399.8000000715","correct":true,"confidence":5},{"trial_n":92,"span":13,"encoder":"1824449936973","distractor":"1874449936973","target":"absent","response":"absent","rt":"4472.2000000477","correct":true,"confidence":4},{"trial_n":93,"span":13,"encoder":"3745520905424","distractor":"3745520905422","target":"present","response":"present","rt":"1718.2000000477","correct":true,"confidence":5},{"trial_n":94,"span":14,"encoder":"76158718753694","distractor":"76158758753694","target":"present","response":"absent","rt":"6787.9000000954","correct":false,"confidence":1},{"trial_n":95,"span":13,"encoder":"4949791740057","distractor":"4949781740057","target":"present","response":"absent","rt":"7718.3000000715","correct":false,"confidence":3},{"trial_n":96,"span":12,"encoder":"344912789883","distractor":"344912789888","target":"present","response":"absent","rt":"8016.1999999285","correct":false,"confidence":2},{"trial_n":97,"span":11,"encoder":"18511591524","distractor":"18511591574","target":"absent","response":"absent","rt":"3841.8999999762","correct":true,"confidence":5},{"trial_n":98,"span":11,"encoder":"63263866226","distractor":"60263866226","target":"present","response":"present","rt":"8037.7000000477","correct":true,"confidence":5},{"trial_n":99,"span":12,"encoder":"244411262546","distractor":"244411262586","target":"absent","response":"absent","rt":"1965.6999999285","correct":true,"confidence":5},{"trial_n":100,"span":12,"encoder":"268698956978","distractor":"268698956958","target":"present","response":"present","rt":"4470.1999999285","correct":true,"confidence":5},{"trial_n":101,"span":13,"encoder":"0937078435694","distractor":"0935078435694","target":"absent","response":"absent","rt":"3880.8999999762","correct":true,"confidence":5},{"trial_n":102,"span":13,"encoder":"4921530841218","distractor":"4929530841218","target":"present","response":"present","rt":"4598.6000000238","correct":true,"confidence":5},{"trial_n":103,"span":14,"encoder":"46230312064168","distractor":"46232312064168","target":"present","response":"present","rt":"7793.1000000238","correct":true,"confidence":5},{"trial_n":104,"span":14,"encoder":"19416357118877","distractor":"19416307118877","target":"present","response":"present","rt":"5101.5","correct":true,"confidence":5},{"trial_n":105,"span":15,"encoder":"789977027302813","distractor":"789997027302813","target":"absent","response":"absent","rt":"6302.6999999285","correct":true,"confidence":5},{"trial_n":106,"span":15,"encoder":"458691228976922","distractor":"458691238976922","target":"absent","response":"absent","rt":"6293.6999999285","correct":true,"confidence":1},{"trial_n":107,"span":16,"encoder":"2489026270233164","distractor":"2489026279233164","target":"absent","response":"absent","rt":"8042.2000000477","correct":true,"confidence":2},{"trial_n":108,"span":16,"encoder":"8862332320442967","distractor":"8862332320842967","target":"present","response":"present","rt":"6709.9000000954","correct":true,"confidence":4},{"trial_n":109,"span":17,"encoder":"35425604479630371","distractor":"35425604479630374","target":"present","response":"absent","rt":"10862.099999905","correct":false,"confidence":2},{"trial_n":110,"span":16,"encoder":"0800782737384373","distractor":"0800782737884373","target":"absent","response":"absent","rt":"4165.7999999523","correct":true,"confidence":4},{"trial_n":111,"span":16,"encoder":"3574758382593642","distractor":"3574758380593642","target":"absent","response":"absent","rt":"6426.1000000238","correct":true,"confidence":4},{"trial_n":112,"span":17,"encoder":"44817727130763624","distractor":"44817727130763627","target":"absent","response":"absent","rt":"8069.2000000477","correct":true,"confidence":3},{"trial_n":113,"span":17,"encoder":"03306099094871333","distractor":"03306099096871333","target":"absent","response":"absent","rt":"5626.8000000715","correct":true,"confidence":5},{"trial_n":114,"span":18,"encoder":"620752466552384920","distractor":"620752466552284920","target":"absent","response":"absent","rt":"7886.5","correct":true,"confidence":1},{"trial_n":115,"span":18,"encoder":"047997633724008225","distractor":"047997633744008225","target":"present","response":"present","rt":"6578.5","correct":true,"confidence":1},{"trial_n":116,"span":19,"encoder":"3078020836140281383","distractor":"3078020836140281381","target":"present","response":"present","rt":"3142.6000000238","correct":true,"confidence":5},{"trial_n":117,"span":19,"encoder":"1618552612033621336","distractor":"1618552612033321336","target":"absent","response":"absent","rt":"8514.3000000715","correct":true,"confidence":1},{"trial_n":118,"span":20,"encoder":"56692514797166217523","distractor":"56692514797166217553","target":"present","response":"present","rt":"4132.1000000238","correct":true,"confidence":5},{"trial_n":119,"span":20,"encoder":"84142729627660443438","distractor":"84142729627660043438","target":"absent","response":"present","rt":"8828.6000000238","correct":false,"confidence":1},{"trial_n":120,"span":19,"encoder":"0942735039758202850","distractor":"0942735039768202850","target":"present","response":"present","rt":"4743.2999999523","correct":true,"confidence":5},{"trial_n":121,"span":19,"encoder":"0169574747450398100","distractor":"0169574747450398170","target":"present","response":"present","rt":"3761.5","correct":true,"confidence":5},{"trial_n":122,"span":20,"encoder":"12586184961891366752","distractor":"12586184961891366755","target":"present","response":"present","rt":"7972","correct":true,"confidence":2},{"trial_n":123,"span":20,"encoder":"51038831523855392318","distractor":"51038831521855392318","target":"present","response":"present","rt":"4967.5","correct":true,"confidence":1},{"trial_n":124,"span":21,"encoder":"622888480177070348326","distractor":"622888480177070348026","target":"absent","response":"absent","rt":"12014.599999905","correct":true,"confidence":4},{"trial_n":125,"span":21,"encoder":"730570191975750957670","distractor":"730570191975750257670","target":"present","response":"present","rt":"2661.7000000477","correct":true,"confidence":5},{"trial_n":126,"span":22,"encoder":"8312290389107531022755","distractor":"8312290389107531022754","target":"absent","response":"absent","rt":"2569.2999999523","correct":true,"confidence":5},{"trial_n":127,"span":22,"encoder":"2418400079625225822007","distractor":"2418400079625225862007","target":"absent","response":"absent","rt":"7192.3000000715","correct":true,"confidence":2},{"trial_n":128,"span":23,"encoder":"70834852909542940613884","distractor":"70834852909542940613834","target":"absent","response":"absent","rt":"2971.2999999523","correct":true,"confidence":5},{"trial_n":129,"span":23,"encoder":"80890821480398973912339","distractor":"80890821480398673912339","target":"absent","response":"absent","rt":"7388.7999999523","correct":true,"confidence":5},{"trial_n":130,"span":24,"encoder":"616197023413880022391955","distractor":"616197023413883022391955","target":"absent","response":"absent","rt":"5890.2999999523","correct":true,"confidence":2},{"trial_n":131,"span":24,"encoder":"781054353306450517286187","distractor":"781054353306450417286187","target":"absent","response":"absent","rt":"5823","correct":true,"confidence":1},{"trial_n":132,"span":25,"encoder":"6552958461374568806840232","distractor":"6552958461174568806840232","target":"present","response":"absent","rt":"7134.7000000477","correct":false,"confidence":1},{"trial_n":133,"span":24,"encoder":"913805894173230725631197","distractor":"913805894173230755631197","target":"present","response":"present","rt":"8522.7999999523","correct":true,"confidence":5},{"trial_n":134,"span":24,"encoder":"503011092305985805269109","distractor":"503011094305985805269109","target":"absent","response":"present","rt":"13739","correct":false,"confidence":2},{"trial_n":135,"span":23,"encoder":"18125080363107546789503","distractor":"18195080363107546789503","target":"present","response":"absent","rt":"8220.2999999523","correct":false,"confidence":2},{"trial_n":136,"span":22,"encoder":"2459039342891453797986","distractor":"2459099342891453797986","target":"absent","response":"absent","rt":"7844.7000000477","correct":true,"confidence":2},{"trial_n":137,"span":22,"encoder":"5141276023600699233764","distractor":"5141276623600699233764","target":"present","response":"present","rt":"8169","correct":true,"confidence":2},{"trial_n":138,"span":23,"encoder":"01348226233858451435193","distractor":"01348229233858451435193","target":"absent","response":"present","rt":"6666.1000000238","correct":false,"confidence":1},{"trial_n":139,"span":22,"encoder":"5629014681630086194793","distractor":"5629014681630086184793","target":"present","response":"present","rt":"7697.3000000715","correct":true,"confidence":1},{"trial_n":140,"span":22,"encoder":"3927505657620361605597","distractor":"3927505657620361615597","target":"absent","response":"absent","rt":"3541.1000000238","correct":true,"confidence":5}]