[{"trial_n":1,"n_dots":4.25,"target":"right","response":"left","rt":6240.6999998093,"correct":false,"confidence":-1},{"trial_n":2,"n_dots":4.25,"target":"left","response":"right","rt":680.90000009537,"correct":false,"confidence":-1},{"trial_n":3,"n_dots":4.65,"target":"left","response":"left","rt":1062.9000000954,"correct":true,"confidence":-1},{"trial_n":4,"n_dots":4.65,"target":"left","response":"left","rt":252.69999980927,"correct":true,"confidence":-1},{"trial_n":5,"n_dots":4.25,"target":"right","response":"right","rt":577.5,"correct":true,"confidence":-1},{"trial_n":6,"n_dots":4.25,"target":"right","response":"right","rt":170.09999990463,"correct":true,"confidence":-1},{"trial_n":7,"n_dots":3.85,"target":"right","response":"right","rt":678,"correct":true,"confidence":-1},{"trial_n":8,"n_dots":3.85,"target":"left","response":"left","rt":787.2999997139,"correct":true,"confidence":-1},{"trial_n":9,"n_dots":3.65,"target":"left","response":"left","rt":13.400000095367,"correct":true,"confidence":-1},{"trial_n":10,"n_dots":3.65,"target":"right","response":"left","rt":737.59999990463,"correct":false,"confidence":-1},{"trial_n":11,"n_dots":3.85,"target":"left","response":"left","rt":178.5,"correct":true,"confidence":-1},{"trial_n":12,"n_dots":3.85,"target":"left","response":"left","rt":901.90000009537,"correct":true,"confidence":-1},{"trial_n":13,"n_dots":3.75,"target":"left","response":"left","rt":578.2000002861,"correct":true,"confidence":-1},{"trial_n":14,"n_dots":3.75,"target":"left","response":"right","rt":51.099999904633,"correct":false,"confidence":-1},{"trial_n":15,"n_dots":3.85,"target":"left","response":"left","rt":921.69999980927,"correct":true,"confidence":-1},{"trial_n":16,"n_dots":3.85,"target":"right","response":"right","rt":289.09999990463,"correct":true,"confidence":-1},{"trial_n":17,"n_dots":3.75,"target":"left","response":"left","rt":372.09999990463,"correct":true,"confidence":-1},{"trial_n":18,"n_dots":3.75,"target":"left","response":"left","rt":607.39999961853,"correct":true,"confidence":-1},{"trial_n":19,"n_dots":3.65,"target":"left","response":"right","rt":79.900000095367,"correct":false,"confidence":-1},{"trial_n":20,"n_dots":3.75,"target":"left","response":"left","rt":789.7000002861,"correct":true,"confidence":-1},{"trial_n":21,"n_dots":3.75,"target":"left","response":"right","rt":150.90000009537,"correct":false,"confidence":3},{"trial_n":22,"n_dots":3.85,"target":"right","response":"right","rt":378.09999990463,"correct":true,"confidence":1},{"trial_n":23,"n_dots":3.85,"target":"left","response":"right","rt":47,"correct":false,"confidence":1},{"trial_n":24,"n_dots":3.95,"target":"left","response":"right","rt":10.699999809265,"correct":false,"confidence":1},{"trial_n":25,"n_dots":4.05,"target":"right","response":"left","rt":170.40000009537,"correct":false,"confidence":1},{"trial_n":26,"n_dots":4.15,"target":"left","response":"left","rt":95.200000286102,"correct":true,"confidence":1},{"trial_n":27,"n_dots":4.15,"target":"right","response":"right","rt":1262.0999999046,"correct":true,"confidence":1},{"trial_n":28,"n_dots":4.05,"target":"left","response":"left","rt":519.39999961853,"correct":true,"confidence":3},{"trial_n":29,"n_dots":4.05,"target":"left","response":"right","rt":1355.1999998093,"correct":false,"confidence":1},{"trial_n":30,"n_dots":4.15,"target":"left","response":"left","rt":18.400000095367,"correct":true,"confidence":1},{"trial_n":31,"n_dots":4.15,"target":"left","response":"left","rt":50.89999961853,"correct":true,"confidence":1},{"trial_n":32,"n_dots":4.05,"target":"left","response":"left","rt":717.10000038147,"correct":true,"confidence":1},{"trial_n":33,"n_dots":4.05,"target":"left","response":"right","rt":446.09999990463,"correct":false,"confidence":1},{"trial_n":34,"n_dots":4.15,"target":"right","response":"left","rt":45.800000190735,"correct":false,"confidence":1},{"trial_n":35,"n_dots":4.25,"target":"right","response":"right","rt":1052.5999999046,"correct":true,"confidence":1},{"trial_n":36,"n_dots":4.25,"target":"left","response":"left","rt":29.599999904633,"correct":true,"confidence":1},{"trial_n":37,"n_dots":4.15,"target":"right","response":"left","rt":824.40000009537,"correct":false,"confidence":1},{"trial_n":38,"n_dots":4.25,"target":"right","response":"right","rt":1574.9000000954,"correct":true,"confidence":1},{"trial_n":39,"n_dots":4.25,"target":"left","response":"left","rt":249.59999990463,"correct":true,"confidence":1},{"trial_n":40,"n_dots":4.15,"target":"right","response":"left","rt":227,"correct":false,"confidence":1},{"trial_n":41,"n_dots":4.25,"target":"right","response":"right","rt":513.5,"correct":true,"confidence":1},{"trial_n":42,"n_dots":4.25,"target":"left","response":"right","rt":121.40000009537,"correct":false,"confidence":1},{"trial_n":43,"n_dots":4.35,"target":"right","response":"left","rt":3522.8000001907,"correct":false,"confidence":3},{"trial_n":44,"n_dots":4.45,"target":"left","response":"right","rt":669.40000009537,"correct":false,"confidence":1},{"trial_n":45,"n_dots":4.55,"target":"right","response":"right","rt":427.40000009537,"correct":true,"confidence":1},{"trial_n":46,"n_dots":4.55,"target":"left","response":"right","rt":356.30000019073,"correct":false,"confidence":1},{"trial_n":47,"n_dots":4.65,"target":"right","response":"right","rt":60.200000286102,"correct":true,"confidence":1},{"trial_n":48,"n_dots":4.65,"target":"left","response":"left","rt":572.40000009537,"correct":true,"confidence":1},{"trial_n":49,"n_dots":4.55,"target":"right","response":"right","rt":858.40000009537,"correct":true,"confidence":1},{"trial_n":50,"n_dots":4.55,"target":"right","response":"right","rt":167.39999961853,"correct":true,"confidence":1},{"trial_n":51,"n_dots":4.45,"target":"right","response":"right","rt":674.09999990463,"correct":true,"confidence":1},{"trial_n":52,"n_dots":4.45,"target":"right","response":"right","rt":331.40000009537,"correct":true,"confidence":1},{"trial_n":53,"n_dots":4.35,"target":"right","response":"right","rt":439,"correct":true,"confidence":1},{"trial_n":54,"n_dots":4.35,"target":"left","response":"right","rt":691.5,"correct":false,"confidence":1},{"trial_n":55,"n_dots":4.45,"target":"right","response":"right","rt":67.699999809265,"correct":true,"confidence":1},{"trial_n":56,"n_dots":4.45,"target":"right","response":"right","rt":105.2999997139,"correct":true,"confidence":1},{"trial_n":57,"n_dots":4.35,"target":"left","response":"left","rt":1500.9000000954,"correct":true,"confidence":1},{"trial_n":58,"n_dots":4.35,"target":"right","response":"right","rt":167.09999990463,"correct":true,"confidence":1},{"trial_n":59,"n_dots":4.25,"target":"right","response":"right","rt":153.69999980927,"correct":true,"confidence":1},{"trial_n":60,"n_dots":4.25,"target":"right","response":"right","rt":75.900000095367,"correct":true,"confidence":1},{"trial_n":61,"n_dots":4.15,"target":"right","response":"right","rt":223.40000009537,"correct":true,"confidence":1},{"trial_n":62,"n_dots":4.15,"target":"right","response":"right","rt":113.30000019073,"correct":true,"confidence":1},{"trial_n":63,"n_dots":4.05,"target":"left","response":"right","rt":-2.3000001907349,"correct":false,"confidence":1},{"trial_n":64,"n_dots":4.15,"target":"left","response":"right","rt":89.400000095367,"correct":false,"confidence":1},{"trial_n":65,"n_dots":4.25,"target":"right","response":"right","rt":95.299999713898,"correct":true,"confidence":1},{"trial_n":66,"n_dots":4.25,"target":"left","response":"right","rt":60.699999809265,"correct":false,"confidence":1},{"trial_n":67,"n_dots":4.35,"target":"left","response":"right","rt":264.7999997139,"correct":false,"confidence":1},{"trial_n":68,"n_dots":4.45,"target":"left","response":"right","rt":68.200000286102,"correct":false,"confidence":1},{"trial_n":69,"n_dots":4.55,"target":"right","response":"right","rt":437.2000002861,"correct":true,"confidence":1},{"trial_n":70,"n_dots":4.55,"target":"right","response":"left","rt":21,"correct":false,"confidence":1},{"trial_n":71,"n_dots":4.65,"target":"right","response":"right","rt":45.5,"correct":true,"confidence":1},{"trial_n":72,"n_dots":4.65,"target":"right","response":"right","rt":7,"correct":true,"confidence":1},{"trial_n":73,"n_dots":4.55,"target":"left","response":"right","rt":85.599999904633,"correct":false,"confidence":1},{"trial_n":74,"n_dots":4.65,"target":"left","response":"right","rt":74.299999713898,"correct":false,"confidence":1},{"trial_n":75,"n_dots":4.75,"target":"left","response":"right","rt":73.199999809265,"correct":false,"confidence":1},{"trial_n":76,"n_dots":4.85,"target":"left","response":"right","rt":73.299999713898,"correct":false,"confidence":1},{"trial_n":77,"n_dots":4.95,"target":"left","response":"left","rt":151.69999980927,"correct":true,"confidence":1},{"trial_n":78,"n_dots":4.95,"target":"left","response":"right","rt":37.199999809265,"correct":false,"confidence":1},{"trial_n":79,"n_dots":5.05,"target":"right","response":"left","rt":70.699999809265,"correct":false,"confidence":1},{"trial_n":80,"n_dots":5.15,"target":"right","response":"right","rt":55.300000190735,"correct":true,"confidence":1},{"trial_n":81,"n_dots":5.15,"target":"left","response":"left","rt":659.09999990463,"correct":true,"confidence":1},{"trial_n":82,"n_dots":5.05,"target":"right","response":"right","rt":1537.8999996185,"correct":true,"confidence":1},{"trial_n":83,"n_dots":5.05,"target":"left","response":"left","rt":234.7999997139,"correct":true,"confidence":1},{"trial_n":84,"n_dots":4.95,"target":"right","response":"right","rt":532.7000002861,"correct":true,"confidence":1},{"trial_n":85,"n_dots":4.95,"target":"left","response":"left","rt":578.2999997139,"correct":true,"confidence":1},{"trial_n":86,"n_dots":4.85,"target":"right","response":"right","rt":250.10000038147,"correct":true,"confidence":1},{"trial_n":87,"n_dots":4.85,"target":"left","response":"left","rt":508.7000002861,"correct":true,"confidence":1},{"trial_n":88,"n_dots":4.75,"target":"right","response":"right","rt":824.30000019073,"correct":true,"confidence":1},{"trial_n":89,"n_dots":4.75,"target":"left","response":"right","rt":68.699999809265,"correct":false,"confidence":1},{"trial_n":90,"n_dots":4.85,"target":"right","response":"right","rt":290.59999990463,"correct":true,"confidence":3},{"trial_n":91,"n_dots":4.85,"target":"left","response":"right","rt":175,"correct":false,"confidence":1},{"trial_n":92,"n_dots":4.95,"target":"left","response":"right","rt":378.2000002861,"correct":false,"confidence":1},{"trial_n":93,"n_dots":5.05,"target":"right","response":"right","rt":150,"correct":true,"confidence":1},{"trial_n":94,"n_dots":5.05,"target":"right","response":"right","rt":558.09999990463,"correct":true,"confidence":1},{"trial_n":95,"n_dots":4.95,"target":"left","response":"right","rt":144.60000038147,"correct":false,"confidence":1},{"trial_n":96,"n_dots":5.05,"target":"right","response":"right","rt":172.5,"correct":true,"confidence":1},{"trial_n":97,"n_dots":5.05,"target":"right","response":"right","rt":2.1999998092651,"correct":true,"confidence":1},{"trial_n":98,"n_dots":4.95,"target":"left","response":"right","rt":484.89999961853,"correct":false,"confidence":1},{"trial_n":99,"n_dots":5.05,"target":"right","response":"right","rt":131.7999997139,"correct":true,"confidence":1},{"trial_n":100,"n_dots":5.05,"target":"right","response":"right","rt":113.59999990463,"correct":true,"confidence":1},{"trial_n":101,"n_dots":4.95,"target":"right","response":"right","rt":121.2999997139,"correct":true,"confidence":1},{"trial_n":102,"n_dots":4.95,"target":"right","response":"right","rt":1.7999997138977,"correct":true,"confidence":1},{"trial_n":103,"n_dots":4.85,"target":"left","response":"right","rt":163.2999997139,"correct":false,"confidence":1},{"trial_n":104,"n_dots":4.95,"target":"right","response":"right","rt":87,"correct":true,"confidence":1},{"trial_n":105,"n_dots":4.95,"target":"right","response":"right","rt":38.200000286102,"correct":true,"confidence":1},{"trial_n":106,"n_dots":4.85,"target":"right","response":"right","rt":95,"correct":true,"confidence":1},{"trial_n":107,"n_dots":4.85,"target":"right","response":"right","rt":72.400000095367,"correct":true,"confidence":1},{"trial_n":108,"n_dots":4.75,"target":"left","response":"right","rt":107.5,"correct":false,"confidence":1},{"trial_n":109,"n_dots":4.85,"target":"left","response":"right","rt":2364.6999998093,"correct":false,"confidence":1},{"trial_n":110,"n_dots":4.95,"target":"right","response":"left","rt":26,"correct":false,"confidence":1},{"trial_n":111,"n_dots":5.05,"target":"right","response":"left","rt":101.40000009537,"correct":false,"confidence":1},{"trial_n":112,"n_dots":5.15,"target":"right","response":"left","rt":164,"correct":false,"confidence":1},{"trial_n":113,"n_dots":5.25,"target":"left","response":"left","rt":109,"correct":true,"confidence":1},{"trial_n":114,"n_dots":5.25,"target":"right","response":"left","rt":70.60000038147,"correct":false,"confidence":1},{"trial_n":115,"n_dots":5.35,"target":"left","response":"right","rt":85.099999904633,"correct":false,"confidence":1},{"trial_n":116,"n_dots":5.45,"target":"left","response":"right","rt":243,"correct":false,"confidence":1},{"trial_n":117,"n_dots":5.55,"target":"right","response":"right","rt":109.59999990463,"correct":true,"confidence":1},{"trial_n":118,"n_dots":5.55,"target":"right","response":"right","rt":23,"correct":true,"confidence":5},{"trial_n":119,"n_dots":5.45,"target":"left","response":"right","rt":36.599999904633,"correct":false,"confidence":1},{"trial_n":120,"n_dots":5.55,"target":"left","response":"right","rt":365.59999990463,"correct":false,"confidence":1}]