[{"trial_n":1,"min":25,"max":230,"target":"present","response":"present","rt":11134.099999905,"correct":true,"confidence":-1},{"trial_n":2,"min":25,"max":230,"target":"present","response":"present","rt":517.89999985695,"correct":true,"confidence":-1},{"trial_n":3,"min":41,"max":214,"target":"absent","response":"absent","rt":365.40000009537,"correct":true,"confidence":-1},{"trial_n":4,"min":41,"max":214,"target":"absent","response":"absent","rt":245.60000014305,"correct":true,"confidence":-1},{"trial_n":5,"min":57,"max":198,"target":"present","response":"present","rt":76.099999904633,"correct":true,"confidence":-1},{"trial_n":6,"min":57,"max":198,"target":"absent","response":"absent","rt":320.09999990463,"correct":true,"confidence":-1},{"trial_n":7,"min":73,"max":182,"target":"present","response":"absent","rt":477,"correct":false,"confidence":-1},{"trial_n":8,"min":57,"max":198,"target":"absent","response":"absent","rt":660.29999995232,"correct":true,"confidence":-1},{"trial_n":9,"min":57,"max":198,"target":"present","response":"present","rt":201.20000004768,"correct":true,"confidence":-1},{"trial_n":10,"min":73,"max":182,"target":"absent","response":"absent","rt":514.20000004768,"correct":true,"confidence":-1},{"trial_n":11,"min":73,"max":182,"target":"absent","response":"absent","rt":275.70000004768,"correct":true,"confidence":-1},{"trial_n":12,"min":81,"max":174,"target":"present","response":"present","rt":143.70000004768,"correct":true,"confidence":-1},{"trial_n":13,"min":81,"max":174,"target":"present","response":"present","rt":90.099999904633,"correct":true,"confidence":-1},{"trial_n":14,"min":89,"max":166,"target":"absent","response":"absent","rt":283.79999995232,"correct":true,"confidence":-1},{"trial_n":15,"min":89,"max":166,"target":"absent","response":"absent","rt":304.29999995232,"correct":true,"confidence":-1},{"trial_n":16,"min":97,"max":158,"target":"absent","response":"absent","rt":270.79999995232,"correct":true,"confidence":-1},{"trial_n":17,"min":97,"max":158,"target":"absent","response":"absent","rt":346.40000009537,"correct":true,"confidence":-1},{"trial_n":18,"min":105,"max":150,"target":"present","response":"absent","rt":520.90000009537,"correct":false,"confidence":-1},{"trial_n":19,"min":97,"max":158,"target":"present","response":"present","rt":297.70000004768,"correct":true,"confidence":-1},{"trial_n":20,"min":97,"max":158,"target":"present","response":"present","rt":276,"correct":true,"confidence":-1},{"trial_n":21,"min":101,"max":154,"target":"absent","response":"absent","rt":408.39999985695,"correct":true,"confidence":3},{"trial_n":22,"min":101,"max":154,"target":"present","response":"present","rt":807.29999995232,"correct":true,"confidence":3},{"trial_n":23,"min":105,"max":150,"target":"present","response":"present","rt":1175.5,"correct":true,"confidence":2},{"trial_n":24,"min":105,"max":150,"target":"present","response":"present","rt":758.89999985695,"correct":true,"confidence":3},{"trial_n":25,"min":109,"max":146,"target":"present","response":"absent","rt":613.5,"correct":false,"confidence":3},{"trial_n":26,"min":105,"max":150,"target":"present","response":"absent","rt":823.09999990463,"correct":false,"confidence":3},{"trial_n":27,"min":101,"max":154,"target":"absent","response":"absent","rt":968.5,"correct":true,"confidence":2},{"trial_n":28,"min":101,"max":154,"target":"absent","response":"absent","rt":854.20000004768,"correct":true,"confidence":2},{"trial_n":29,"min":105,"max":150,"target":"absent","response":"present","rt":1467.9000000954,"correct":false,"confidence":2},{"trial_n":30,"min":101,"max":154,"target":"present","response":"absent","rt":576.39999985695,"correct":false,"confidence":2},{"trial_n":31,"min":99,"max":156,"target":"present","response":"present","rt":860,"correct":true,"confidence":2},{"trial_n":32,"min":99,"max":156,"target":"absent","response":"absent","rt":491.5,"correct":true,"confidence":3},{"trial_n":33,"min":101,"max":154,"target":"present","response":"absent","rt":813.09999990463,"correct":false,"confidence":3},{"trial_n":34,"min":99,"max":156,"target":"present","response":"present","rt":828.29999995232,"correct":true,"confidence":3},{"trial_n":35,"min":99,"max":156,"target":"present","response":"absent","rt":479.10000014305,"correct":false,"confidence":4},{"trial_n":36,"min":97,"max":158,"target":"present","response":"absent","rt":590.09999990463,"correct":false,"confidence":4},{"trial_n":37,"min":95,"max":160,"target":"present","response":"present","rt":776.30000019073,"correct":true,"confidence":3},{"trial_n":38,"min":95,"max":160,"target":"absent","response":"present","rt":1215.7000000477,"correct":false,"confidence":2},{"trial_n":39,"min":93,"max":162,"target":"absent","response":"absent","rt":616.09999990463,"correct":true,"confidence":2},{"trial_n":40,"min":93,"max":162,"target":"absent","response":"present","rt":1315.9000000954,"correct":false,"confidence":2},{"trial_n":41,"min":92,"max":163,"target":"absent","response":"absent","rt":2930.5999999046,"correct":true,"confidence":1},{"trial_n":42,"min":92,"max":163,"target":"present","response":"absent","rt":635.89999985695,"correct":false,"confidence":2},{"trial_n":43,"min":91,"max":164,"target":"absent","response":"absent","rt":510.40000009537,"correct":true,"confidence":3},{"trial_n":44,"min":91,"max":164,"target":"absent","response":"absent","rt":385.29999995232,"correct":true,"confidence":3},{"trial_n":45,"min":92,"max":163,"target":"present","response":"present","rt":1894,"correct":true,"confidence":3},{"trial_n":46,"min":92,"max":163,"target":"present","response":"absent","rt":560.79999995232,"correct":false,"confidence":2},{"trial_n":47,"min":91,"max":164,"target":"present","response":"present","rt":1062.0999999046,"correct":true,"confidence":4},{"trial_n":48,"min":91,"max":164,"target":"present","response":"absent","rt":1366,"correct":false,"confidence":2},{"trial_n":49,"min":90,"max":165,"target":"absent","response":"absent","rt":585.90000009537,"correct":true,"confidence":2},{"trial_n":50,"min":90,"max":165,"target":"absent","response":"absent","rt":781.20000004768,"correct":true,"confidence":2},{"trial_n":51,"min":91,"max":164,"target":"present","response":"absent","rt":851,"correct":false,"confidence":2},{"trial_n":52,"min":90,"max":165,"target":"absent","response":"present","rt":780.59999990463,"correct":false,"confidence":3},{"trial_n":53,"min":89,"max":166,"target":"present","response":"present","rt":803.29999995232,"correct":true,"confidence":3},{"trial_n":54,"min":89,"max":166,"target":"present","response":"absent","rt":1208.6000001431,"correct":false,"confidence":1},{"trial_n":55,"min":88,"max":167,"target":"absent","response":"present","rt":751.09999990463,"correct":false,"confidence":3},{"trial_n":56,"min":87,"max":168,"target":"present","response":"absent","rt":357.60000014305,"correct":false,"confidence":3},{"trial_n":57,"min":86,"max":169,"target":"absent","response":"absent","rt":477.5,"correct":true,"confidence":2},{"trial_n":58,"min":86,"max":169,"target":"present","response":"present","rt":759.79999995232,"correct":true,"confidence":3},{"trial_n":59,"min":87,"max":168,"target":"absent","response":"absent","rt":488.09999990463,"correct":true,"confidence":3},{"trial_n":60,"min":87,"max":168,"target":"absent","response":"present","rt":447.29999995232,"correct":false,"confidence":2},{"trial_n":61,"min":86,"max":169,"target":"absent","response":"absent","rt":636.79999995232,"correct":true,"confidence":3},{"trial_n":62,"min":86,"max":169,"target":"present","response":"present","rt":465.5,"correct":true,"confidence":4},{"trial_n":63,"min":87,"max":168,"target":"present","response":"present","rt":716.20000004768,"correct":true,"confidence":3},{"trial_n":64,"min":87,"max":168,"target":"absent","response":"absent","rt":1666.5999999046,"correct":true,"confidence":2},{"trial_n":65,"min":88,"max":167,"target":"absent","response":"absent","rt":591.90000009537,"correct":true,"confidence":2},{"trial_n":66,"min":88,"max":167,"target":"present","response":"present","rt":577.59999990463,"correct":true,"confidence":4},{"trial_n":67,"min":89,"max":166,"target":"present","response":"present","rt":1118.1999998093,"correct":true,"confidence":2},{"trial_n":68,"min":89,"max":166,"target":"absent","response":"absent","rt":1136.4000000954,"correct":true,"confidence":2},{"trial_n":69,"min":90,"max":165,"target":"absent","response":"absent","rt":546.29999995232,"correct":true,"confidence":3},{"trial_n":70,"min":90,"max":165,"target":"absent","response":"absent","rt":848.60000014305,"correct":true,"confidence":3},{"trial_n":71,"min":41,"max":214,"target":"present","response":"present","rt":1431.6999998093,"correct":true,"confidence":-1},{"trial_n":72,"min":41,"max":214,"target":"present","response":"present","rt":657.29999995232,"correct":true,"confidence":-1},{"trial_n":73,"min":57,"max":198,"target":"absent","response":"absent","rt":265.40000009537,"correct":true,"confidence":-1},{"trial_n":74,"min":57,"max":198,"target":"absent","response":"absent","rt":245.79999995232,"correct":true,"confidence":-1},{"trial_n":75,"min":73,"max":182,"target":"present","response":"present","rt":219.70000004768,"correct":true,"confidence":-1},{"trial_n":76,"min":73,"max":182,"target":"absent","response":"absent","rt":180.79999995232,"correct":true,"confidence":-1},{"trial_n":77,"min":89,"max":166,"target":"present","response":"absent","rt":181,"correct":false,"confidence":-1},{"trial_n":78,"min":73,"max":182,"target":"absent","response":"absent","rt":345.09999990463,"correct":true,"confidence":-1},{"trial_n":79,"min":73,"max":182,"target":"present","response":"present","rt":12.099999904633,"correct":true,"confidence":-1},{"trial_n":80,"min":89,"max":166,"target":"present","response":"present","rt":40,"correct":true,"confidence":-1},{"trial_n":81,"min":89,"max":166,"target":"present","response":"present","rt":200.09999990463,"correct":true,"confidence":-1},{"trial_n":82,"min":97,"max":158,"target":"present","response":"absent","rt":248.20000004768,"correct":false,"confidence":-1},{"trial_n":83,"min":89,"max":166,"target":"present","response":"present","rt":185.60000014305,"correct":true,"confidence":-1},{"trial_n":84,"min":89,"max":166,"target":"present","response":"present","rt":359.10000014305,"correct":true,"confidence":-1},{"trial_n":85,"min":97,"max":158,"target":"present","response":"absent","rt":686.79999995232,"correct":false,"confidence":-1},{"trial_n":86,"min":89,"max":166,"target":"absent","response":"absent","rt":295.79999995232,"correct":true,"confidence":-1},{"trial_n":87,"min":89,"max":166,"target":"absent","response":"absent","rt":428.5,"correct":true,"confidence":-1},{"trial_n":88,"min":97,"max":158,"target":"absent","response":"present","rt":250.30000019073,"correct":false,"confidence":-1},{"trial_n":89,"min":89,"max":166,"target":"present","response":"absent","rt":84.899999856949,"correct":false,"confidence":-1},{"trial_n":90,"min":81,"max":174,"target":"present","response":"present","rt":47.700000047684,"correct":true,"confidence":-1},{"trial_n":91,"min":81,"max":174,"target":"present","response":"present","rt":569.09999990463,"correct":true,"confidence":2},{"trial_n":92,"min":85,"max":170,"target":"present","response":"present","rt":762.19999980927,"correct":true,"confidence":1},{"trial_n":93,"min":85,"max":170,"target":"present","response":"present","rt":178.70000004768,"correct":true,"confidence":2},{"trial_n":94,"min":89,"max":166,"target":"absent","response":"absent","rt":602.60000014305,"correct":true,"confidence":1},{"trial_n":95,"min":89,"max":166,"target":"present","response":"present","rt":670.40000009537,"correct":true,"confidence":2},{"trial_n":96,"min":93,"max":162,"target":"present","response":"present","rt":560.39999985695,"correct":true,"confidence":1},{"trial_n":97,"min":93,"max":162,"target":"absent","response":"present","rt":1092,"correct":false,"confidence":1},{"trial_n":98,"min":89,"max":166,"target":"absent","response":"absent","rt":593.40000009537,"correct":true,"confidence":2},{"trial_n":99,"min":89,"max":166,"target":"absent","response":"absent","rt":654.40000009537,"correct":true,"confidence":1},{"trial_n":100,"min":93,"max":162,"target":"absent","response":"absent","rt":305.79999995232,"correct":true,"confidence":1},{"trial_n":101,"min":93,"max":162,"target":"present","response":"present","rt":529.70000004768,"correct":true,"confidence":2},{"trial_n":102,"min":95,"max":160,"target":"present","response":"present","rt":266.5,"correct":true,"confidence":2},{"trial_n":103,"min":95,"max":160,"target":"absent","response":"absent","rt":464,"correct":true,"confidence":1},{"trial_n":104,"min":97,"max":158,"target":"absent","response":"present","rt":322.5,"correct":false,"confidence":1},{"trial_n":105,"min":95,"max":160,"target":"present","response":"present","rt":387.09999990463,"correct":true,"confidence":1},{"trial_n":106,"min":95,"max":160,"target":"present","response":"present","rt":387.5,"correct":true,"confidence":1},{"trial_n":107,"min":97,"max":158,"target":"present","response":"present","rt":294.20000004768,"correct":true,"confidence":1},{"trial_n":108,"min":97,"max":158,"target":"absent","response":"present","rt":539.30000019073,"correct":false,"confidence":2},{"trial_n":109,"min":95,"max":160,"target":"absent","response":"present","rt":1120,"correct":false,"confidence":1},{"trial_n":110,"min":93,"max":162,"target":"absent","response":"present","rt":549.29999995232,"correct":false,"confidence":2},{"trial_n":111,"min":92,"max":163,"target":"absent","response":"absent","rt":631.59999990463,"correct":true,"confidence":1},{"trial_n":112,"min":92,"max":163,"target":"absent","response":"absent","rt":513.40000009537,"correct":true,"confidence":2},{"trial_n":113,"min":93,"max":162,"target":"absent","response":"absent","rt":549.5,"correct":true,"confidence":1},{"trial_n":114,"min":93,"max":162,"target":"absent","response":"present","rt":287.89999985695,"correct":false,"confidence":2},{"trial_n":115,"min":92,"max":163,"target":"present","response":"absent","rt":469,"correct":false,"confidence":1},{"trial_n":116,"min":91,"max":164,"target":"absent","response":"absent","rt":336.69999980927,"correct":true,"confidence":1},{"trial_n":117,"min":91,"max":164,"target":"absent","response":"present","rt":365.70000004768,"correct":false,"confidence":1},{"trial_n":118,"min":90,"max":165,"target":"absent","response":"present","rt":525.69999980927,"correct":false,"confidence":1},{"trial_n":119,"min":89,"max":166,"target":"present","response":"absent","rt":419.29999995232,"correct":false,"confidence":1},{"trial_n":120,"min":88,"max":167,"target":"absent","response":"absent","rt":736,"correct":true,"confidence":1},{"trial_n":121,"min":88,"max":167,"target":"absent","response":"absent","rt":1240.9000000954,"correct":true,"confidence":2},{"trial_n":122,"min":89,"max":166,"target":"present","response":"present","rt":291.39999985695,"correct":true,"confidence":2},{"trial_n":123,"min":89,"max":166,"target":"present","response":"present","rt":208.79999995232,"correct":true,"confidence":2},{"trial_n":124,"min":90,"max":165,"target":"absent","response":"absent","rt":267.40000009537,"correct":true,"confidence":1},{"trial_n":125,"min":90,"max":165,"target":"present","response":"absent","rt":525.5,"correct":false,"confidence":1},{"trial_n":126,"min":89,"max":166,"target":"present","response":"present","rt":136.40000009537,"correct":true,"confidence":2},{"trial_n":127,"min":89,"max":166,"target":"present","response":"present","rt":304.89999985695,"correct":true,"confidence":3},{"trial_n":128,"min":90,"max":165,"target":"absent","response":"present","rt":794.20000004768,"correct":false,"confidence":1},{"trial_n":129,"min":89,"max":166,"target":"present","response":"present","rt":362.89999985695,"correct":true,"confidence":3},{"trial_n":130,"min":89,"max":166,"target":"absent","response":"absent","rt":409.89999985695,"correct":true,"confidence":1},{"trial_n":131,"min":90,"max":165,"target":"present","response":"absent","rt":698.79999995232,"correct":false,"confidence":1},{"trial_n":132,"min":89,"max":166,"target":"absent","response":"absent","rt":234.70000004768,"correct":true,"confidence":1},{"trial_n":133,"min":89,"max":166,"target":"absent","response":"absent","rt":618.60000014305,"correct":true,"confidence":1},{"trial_n":134,"min":90,"max":165,"target":"present","response":"present","rt":104.40000009537,"correct":true,"confidence":2},{"trial_n":135,"min":90,"max":165,"target":"absent","response":"absent","rt":380.59999990463,"correct":true,"confidence":3},{"trial_n":136,"min":91,"max":164,"target":"present","response":"present","rt":321.09999990463,"correct":true,"confidence":2},{"trial_n":137,"min":91,"max":164,"target":"present","response":"absent","rt":524.5,"correct":false,"confidence":1},{"trial_n":138,"min":90,"max":165,"target":"absent","response":"absent","rt":418.70000004768,"correct":true,"confidence":1},{"trial_n":139,"min":90,"max":165,"target":"present","response":"present","rt":203.29999995232,"correct":true,"confidence":2},{"trial_n":140,"min":91,"max":164,"target":"absent","response":"absent","rt":574.40000009537,"correct":true,"confidence":1}]