[{"trial_n":1,"span":8,"encoder":"47589104","distractor":"47589106","target":"present","response":"present","rt":"1887.4000000954","correct":true,"confidence":-1},{"trial_n":2,"span":8,"encoder":"20407581","distractor":"30407581","target":"present","response":"present","rt":"1987.8000001907","correct":true,"confidence":-1},{"trial_n":3,"span":10,"encoder":"3956276528","distractor":"3956276508","target":"absent","response":"absent","rt":"674.7999997139","correct":true,"confidence":-1},{"trial_n":4,"span":10,"encoder":"1039333908","distractor":"1039333900","target":"absent","response":"absent","rt":"2401.1999998093","correct":true,"confidence":-1},{"trial_n":5,"span":12,"encoder":"142388769325","distractor":"142388669325","target":"present","response":"absent","rt":"1614.1000003815","correct":false,"confidence":-1},{"trial_n":6,"span":10,"encoder":"7095244034","distractor":"7095244036","target":"absent","response":"absent","rt":"860.80000019073","correct":true,"confidence":-1},{"trial_n":7,"span":10,"encoder":"1495890605","distractor":"6495890605","target":"present","response":"absent","rt":"857.09999990463","correct":false,"confidence":-1},{"trial_n":8,"span":8,"encoder":"63716763","distractor":"63716463","target":"present","response":"present","rt":"1160.1999998093","correct":true,"confidence":-1},{"trial_n":9,"span":8,"encoder":"01997788","distractor":"01997728","target":"present","response":"present","rt":"974.2999997139","correct":true,"confidence":-1},{"trial_n":10,"span":10,"encoder":"4081902333","distractor":"4081902303","target":"absent","response":"absent","rt":"1804.5","correct":true,"confidence":-1},{"trial_n":11,"span":10,"encoder":"3095911316","distractor":"3095911396","target":"present","response":"present","rt":"320.2000002861","correct":true,"confidence":-1},{"trial_n":12,"span":11,"encoder":"93031733939","distractor":"93331733939","target":"present","response":"present","rt":"1250.1999998093","correct":true,"confidence":-1},{"trial_n":13,"span":11,"encoder":"73710505541","distractor":"73710515541","target":"present","response":"present","rt":"731.2000002861","correct":true,"confidence":-1},{"trial_n":14,"span":12,"encoder":"612101907857","distractor":"619101907857","target":"absent","response":"absent","rt":"500.90000009537","correct":true,"confidence":-1},{"trial_n":15,"span":12,"encoder":"405748450044","distractor":"405778450044","target":"absent","response":"absent","rt":"318.2000002861","correct":true,"confidence":-1},{"trial_n":16,"span":13,"encoder":"6778900295079","distractor":"6779900295079","target":"absent","response":"absent","rt":"328.59999990463","correct":true,"confidence":-1},{"trial_n":17,"span":13,"encoder":"6191170810015","distractor":"6191175810015","target":"absent","response":"absent","rt":"436","correct":true,"confidence":-1},{"trial_n":18,"span":14,"encoder":"70503093414675","distractor":"70503093464675","target":"present","response":"absent","rt":"1476.2000002861","correct":false,"confidence":-1},{"trial_n":19,"span":13,"encoder":"0112938996393","distractor":"0112938996398","target":"present","response":"absent","rt":"384.80000019073","correct":false,"confidence":-1},{"trial_n":20,"span":12,"encoder":"914191150815","distractor":"914191550815","target":"absent","response":"absent","rt":"363.7999997139","correct":true,"confidence":-1},{"trial_n":21,"span":12,"encoder":"900451461429","distractor":"900401461429","target":"present","response":"absent","rt":"669","correct":false,"confidence":2},{"trial_n":22,"span":11,"encoder":"88724339860","distractor":"88704339860","target":"present","response":"absent","rt":"575.2999997139","correct":false,"confidence":1},{"trial_n":23,"span":10,"encoder":"9939648162","distractor":"5939648162","target":"absent","response":"absent","rt":"662.40000009537","correct":true,"confidence":1},{"trial_n":24,"span":10,"encoder":"2600883239","distractor":"2607883239","target":"absent","response":"absent","rt":"3143.2000002861","correct":true,"confidence":1},{"trial_n":25,"span":11,"encoder":"90744780890","distractor":"90744790890","target":"present","response":"absent","rt":"3215","correct":false,"confidence":1},{"trial_n":26,"span":10,"encoder":"9677404902","distractor":"9677464902","target":"present","response":"absent","rt":"418.2000002861","correct":false,"confidence":1},{"trial_n":27,"span":9,"encoder":"358495928","distractor":"318495928","target":"absent","response":"absent","rt":"602.19999980927","correct":true,"confidence":1},{"trial_n":28,"span":9,"encoder":"419470601","distractor":"412470601","target":"present","response":"absent","rt":"431.69999980927","correct":false,"confidence":1},{"trial_n":29,"span":8,"encoder":"64858007","distractor":"64852007","target":"absent","response":"absent","rt":"525.90000009537","correct":true,"confidence":1},{"trial_n":30,"span":8,"encoder":"22558942","distractor":"22558912","target":"absent","response":"absent","rt":"514.19999980927","correct":true,"confidence":1},{"trial_n":31,"span":9,"encoder":"253145415","distractor":"253145485","target":"absent","response":"absent","rt":"541.69999980927","correct":true,"confidence":1},{"trial_n":32,"span":9,"encoder":"341206531","distractor":"341206031","target":"absent","response":"absent","rt":"656.5","correct":true,"confidence":1},{"trial_n":33,"span":10,"encoder":"2072646580","distractor":"2072676580","target":"present","response":"absent","rt":"1051.8000001907","correct":false,"confidence":1},{"trial_n":34,"span":9,"encoder":"506450268","distractor":"506440268","target":"absent","response":"absent","rt":"649.30000019073","correct":true,"confidence":1},{"trial_n":35,"span":9,"encoder":"504472172","distractor":"504472472","target":"absent","response":"absent","rt":"2925.6000003815","correct":true,"confidence":1},{"trial_n":36,"span":10,"encoder":"1338838053","distractor":"1338848053","target":"present","response":"absent","rt":"4835.1999998093","correct":false,"confidence":1},{"trial_n":37,"span":9,"encoder":"155371838","distractor":"155371878","target":"absent","response":"absent","rt":"1594.7000002861","correct":true,"confidence":1},{"trial_n":38,"span":9,"encoder":"518775795","distractor":"918775795","target":"present","response":"absent","rt":"901.5","correct":false,"confidence":1},{"trial_n":39,"span":8,"encoder":"88829434","distractor":"58829434","target":"absent","response":"absent","rt":"14440.5","correct":true,"confidence":1},{"trial_n":40,"span":8,"encoder":"92324655","distractor":"92324605","target":"present","response":"absent","rt":"403.30000019073","correct":false,"confidence":1},{"trial_n":41,"span":7,"encoder":"9650641","distractor":"3650641","target":"present","response":"present","rt":"299.40000009537","correct":true,"confidence":1},{"trial_n":42,"span":7,"encoder":"2155692","distractor":"2155690","target":"present","response":"absent","rt":"3412.0999999046","correct":false,"confidence":1},{"trial_n":43,"span":6,"encoder":"198145","distractor":"198147","target":"absent","response":"present","rt":"1653.1999998093","correct":false,"confidence":1},{"trial_n":44,"span":5,"encoder":"07628","distractor":"07625","target":"present","response":"absent","rt":"1489.6999998093","correct":false,"confidence":1},{"trial_n":45,"span":4,"encoder":"8392","distractor":"6392","target":"absent","response":"present","rt":"331","correct":false,"confidence":1},{"trial_n":46,"span":3,"encoder":"432","distractor":"632","target":"absent","response":"absent","rt":"371","correct":true,"confidence":1},{"trial_n":47,"span":3,"encoder":"660","distractor":"560","target":"present","response":"present","rt":"1104.5","correct":true,"confidence":1},{"trial_n":48,"span":4,"encoder":"7295","distractor":"7795","target":"present","response":"absent","rt":"427.7000002861","correct":false,"confidence":1},{"trial_n":49,"span":3,"encoder":"570","distractor":"470","target":"absent","response":"present","rt":"906.09999990463","correct":false,"confidence":1},{"trial_n":50,"span":2,"encoder":"83","distractor":"88","target":"present","response":"absent","rt":"653.80000019073","correct":false,"confidence":1},{"trial_n":51,"span":2,"encoder":"89","distractor":"49","target":"present","response":"present","rt":"1355.5","correct":true,"confidence":1},{"trial_n":52,"span":2,"encoder":"87","distractor":"80","target":"absent","response":"absent","rt":"1252","correct":true,"confidence":1},{"trial_n":53,"span":3,"encoder":"725","distractor":"625","target":"absent","response":"absent","rt":"1232.1000003815","correct":true,"confidence":1},{"trial_n":54,"span":3,"encoder":"824","distractor":"829","target":"absent","response":"absent","rt":"838.7000002861","correct":true,"confidence":1},{"trial_n":55,"span":4,"encoder":"7445","distractor":"7545","target":"present","response":"present","rt":"1309.6999998093","correct":true,"confidence":4},{"trial_n":56,"span":4,"encoder":"5746","distractor":"5046","target":"present","response":"absent","rt":"1220.5999999046","correct":false,"confidence":1},{"trial_n":57,"span":3,"encoder":"709","distractor":"409","target":"present","response":"absent","rt":"1027.3000001907","correct":false,"confidence":1},{"trial_n":58,"span":2,"encoder":"19","distractor":"15","target":"absent","response":"absent","rt":"2112.0999999046","correct":true,"confidence":1},{"trial_n":59,"span":2,"encoder":"73","distractor":"72","target":"absent","response":"absent","rt":"1457.5","correct":true,"confidence":1},{"trial_n":60,"span":3,"encoder":"769","distractor":"789","target":"absent","response":"absent","rt":"1854","correct":true,"confidence":1},{"trial_n":61,"span":3,"encoder":"269","distractor":"263","target":"present","response":"present","rt":"1365.4000000954","correct":true,"confidence":5},{"trial_n":62,"span":4,"encoder":"4963","distractor":"4965","target":"present","response":"absent","rt":"1450.4000000954","correct":false,"confidence":1},{"trial_n":63,"span":3,"encoder":"530","distractor":"550","target":"absent","response":"absent","rt":"732.60000038147","correct":true,"confidence":1},{"trial_n":64,"span":3,"encoder":"198","distractor":"178","target":"absent","response":"absent","rt":"1068.9000000954","correct":true,"confidence":1},{"trial_n":65,"span":4,"encoder":"3600","distractor":"3620","target":"absent","response":"absent","rt":"730.09999990463","correct":true,"confidence":1},{"trial_n":66,"span":4,"encoder":"4329","distractor":"4379","target":"present","response":"absent","rt":"954.90000009537","correct":false,"confidence":1},{"trial_n":67,"span":3,"encoder":"479","distractor":"477","target":"absent","response":"absent","rt":"541.69999980927","correct":true,"confidence":1},{"trial_n":68,"span":3,"encoder":"672","distractor":"674","target":"present","response":"absent","rt":"592.90000009537","correct":false,"confidence":1},{"trial_n":69,"span":2,"encoder":"12","distractor":"10","target":"present","response":"absent","rt":"788.90000009537","correct":false,"confidence":1},{"trial_n":70,"span":2,"encoder":"40","distractor":"46","target":"present","response":"absent","rt":"648.5","correct":false,"confidence":1},{"trial_n":71,"span":8,"encoder":"14059093","distractor":"14059003","target":"present","response":"present","rt":"1796.9000000954","correct":true,"confidence":-1},{"trial_n":72,"span":8,"encoder":"37263028","distractor":"37163028","target":"present","response":"absent","rt":"1290.6999998093","correct":false,"confidence":-1},{"trial_n":73,"span":7,"encoder":"1768117","distractor":"1768111","target":"absent","response":"absent","rt":"2125.7000002861","correct":true,"confidence":-1},{"trial_n":74,"span":7,"encoder":"9224848","distractor":"9222848","target":"absent","response":"absent","rt":"1244.0999999046","correct":true,"confidence":-1},{"trial_n":75,"span":8,"encoder":"46944493","distractor":"46944393","target":"present","response":"present","rt":"1738.2999997139","correct":true,"confidence":-1},{"trial_n":76,"span":8,"encoder":"40432157","distractor":"40442157","target":"present","response":"absent","rt":"4578.8000001907","correct":false,"confidence":-1},{"trial_n":77,"span":7,"encoder":"6442171","distractor":"7442171","target":"present","response":"absent","rt":"859","correct":false,"confidence":-1},{"trial_n":78,"span":6,"encoder":"910140","distractor":"980140","target":"present","response":"absent","rt":"334.59999990463","correct":false,"confidence":-1},{"trial_n":79,"span":5,"encoder":"76912","distractor":"78912","target":"present","response":"absent","rt":"690.60000038147","correct":false,"confidence":-1},{"trial_n":80,"span":4,"encoder":"1479","distractor":"1477","target":"absent","response":"absent","rt":"273","correct":true,"confidence":-1},{"trial_n":81,"span":4,"encoder":"1085","distractor":"2085","target":"present","response":"absent","rt":"467.30000019073","correct":false,"confidence":-1},{"trial_n":82,"span":3,"encoder":"126","distractor":"127","target":"present","response":"absent","rt":"263.69999980927","correct":false,"confidence":-1},{"trial_n":83,"span":2,"encoder":"05","distractor":"00","target":"absent","response":"absent","rt":"323.40000009537","correct":true,"confidence":-1},{"trial_n":84,"span":2,"encoder":"96","distractor":"90","target":"absent","response":"absent","rt":"354","correct":true,"confidence":-1},{"trial_n":85,"span":3,"encoder":"672","distractor":"673","target":"absent","response":"absent","rt":"348.40000009537","correct":true,"confidence":-1},{"trial_n":86,"span":3,"encoder":"738","distractor":"798","target":"present","response":"absent","rt":"683.30000019073","correct":false,"confidence":-1},{"trial_n":87,"span":2,"encoder":"32","distractor":"12","target":"absent","response":"absent","rt":"329.40000009537","correct":true,"confidence":-1},{"trial_n":88,"span":2,"encoder":"20","distractor":"24","target":"absent","response":"absent","rt":"563.59999990463","correct":true,"confidence":-1},{"trial_n":89,"span":3,"encoder":"551","distractor":"555","target":"present","response":"absent","rt":"298.19999980927","correct":false,"confidence":-1},{"trial_n":90,"span":2,"encoder":"44","distractor":"64","target":"present","response":"absent","rt":"399","correct":false,"confidence":-1},{"trial_n":91,"span":2,"encoder":"74","distractor":"84","target":"absent","response":"absent","rt":"2487.5","correct":true,"confidence":2},{"trial_n":92,"span":2,"encoder":"22","distractor":"62","target":"absent","response":"absent","rt":"823.19999980927","correct":true,"confidence":1},{"trial_n":93,"span":3,"encoder":"594","distractor":"294","target":"absent","response":"absent","rt":"2976.1000003815","correct":true,"confidence":1},{"trial_n":94,"span":3,"encoder":"554","distractor":"552","target":"absent","response":"absent","rt":"457.80000019073","correct":true,"confidence":1},{"trial_n":95,"span":4,"encoder":"5428","distractor":"6428","target":"absent","response":"absent","rt":"729.89999961853","correct":true,"confidence":1},{"trial_n":96,"span":4,"encoder":"0198","distractor":"0193","target":"present","response":"absent","rt":"517.30000019073","correct":false,"confidence":1},{"trial_n":97,"span":3,"encoder":"721","distractor":"728","target":"present","response":"absent","rt":"348.2999997139","correct":false,"confidence":1},{"trial_n":98,"span":2,"encoder":"47","distractor":"46","target":"present","response":"absent","rt":"338.30000019073","correct":false,"confidence":1},{"trial_n":99,"span":2,"encoder":"39","distractor":"09","target":"absent","response":"absent","rt":"321.5","correct":true,"confidence":1},{"trial_n":100,"span":2,"encoder":"68","distractor":"78","target":"present","response":"absent","rt":"235.39999961853","correct":false,"confidence":1},{"trial_n":101,"span":2,"encoder":"96","distractor":"90","target":"absent","response":"absent","rt":"357","correct":true,"confidence":1},{"trial_n":102,"span":2,"encoder":"48","distractor":"43","target":"present","response":"absent","rt":"320.2000002861","correct":false,"confidence":1},{"trial_n":103,"span":2,"encoder":"39","distractor":"19","target":"absent","response":"absent","rt":"302.39999961853","correct":true,"confidence":1},{"trial_n":104,"span":2,"encoder":"51","distractor":"57","target":"present","response":"absent","rt":"307.60000038147","correct":false,"confidence":1},{"trial_n":105,"span":2,"encoder":"52","distractor":"56","target":"absent","response":"absent","rt":"1206.3999996185","correct":true,"confidence":1},{"trial_n":106,"span":2,"encoder":"75","distractor":"78","target":"present","response":"absent","rt":"328.2000002861","correct":false,"confidence":1},{"trial_n":107,"span":2,"encoder":"01","distractor":"06","target":"present","response":"absent","rt":"155.5","correct":false,"confidence":1},{"trial_n":108,"span":2,"encoder":"36","distractor":"31","target":"absent","response":"absent","rt":"547.2999997139","correct":true,"confidence":1},{"trial_n":109,"span":2,"encoder":"08","distractor":"78","target":"absent","response":"absent","rt":"420.69999980927","correct":true,"confidence":1},{"trial_n":110,"span":3,"encoder":"865","distractor":"165","target":"absent","response":"absent","rt":"1190.7999997139","correct":true,"confidence":1},{"trial_n":111,"span":3,"encoder":"697","distractor":"397","target":"present","response":"absent","rt":"465.39999961853","correct":false,"confidence":1},{"trial_n":112,"span":2,"encoder":"46","distractor":"06","target":"present","response":"absent","rt":"553.90000009537","correct":false,"confidence":1},{"trial_n":113,"span":2,"encoder":"84","distractor":"85","target":"present","response":"absent","rt":"247.09999990463","correct":false,"confidence":1},{"trial_n":114,"span":2,"encoder":"15","distractor":"18","target":"present","response":"absent","rt":"305.30000019073","correct":false,"confidence":1},{"trial_n":115,"span":2,"encoder":"56","distractor":"53","target":"present","response":"absent","rt":"359.5","correct":false,"confidence":1},{"trial_n":116,"span":2,"encoder":"34","distractor":"32","target":"absent","response":"absent","rt":"701.5","correct":true,"confidence":1},{"trial_n":117,"span":2,"encoder":"33","distractor":"63","target":"absent","response":"absent","rt":"319.40000009537","correct":true,"confidence":1},{"trial_n":118,"span":3,"encoder":"344","distractor":"364","target":"present","response":"absent","rt":"404.90000009537","correct":false,"confidence":1},{"trial_n":119,"span":2,"encoder":"29","distractor":"19","target":"present","response":"absent","rt":"581","correct":false,"confidence":1},{"trial_n":120,"span":2,"encoder":"23","distractor":"20","target":"present","response":"absent","rt":"329.59999990463","correct":false,"confidence":1},{"trial_n":121,"span":2,"encoder":"22","distractor":"32","target":"present","response":"present","rt":"1155.1999998093","correct":true,"confidence":1},{"trial_n":122,"span":2,"encoder":"71","distractor":"70","target":"absent","response":"present","rt":"266.2999997139","correct":false,"confidence":1},{"trial_n":123,"span":2,"encoder":"70","distractor":"79","target":"present","response":"absent","rt":"854.19999980927","correct":false,"confidence":1},{"trial_n":124,"span":2,"encoder":"57","distractor":"07","target":"present","response":"absent","rt":"221.2999997139","correct":false,"confidence":1},{"trial_n":125,"span":2,"encoder":"49","distractor":"69","target":"present","response":"absent","rt":"362.19999980927","correct":false,"confidence":1},{"trial_n":126,"span":2,"encoder":"63","distractor":"23","target":"present","response":"absent","rt":"313.59999990463","correct":false,"confidence":1},{"trial_n":127,"span":2,"encoder":"52","distractor":"92","target":"present","response":"absent","rt":"541","correct":false,"confidence":1},{"trial_n":128,"span":2,"encoder":"95","distractor":"45","target":"absent","response":"absent","rt":"320.5","correct":true,"confidence":1},{"trial_n":129,"span":2,"encoder":"53","distractor":"23","target":"absent","response":"absent","rt":"682.10000038147","correct":true,"confidence":1},{"trial_n":130,"span":3,"encoder":"101","distractor":"106","target":"absent","response":"absent","rt":"320","correct":true,"confidence":1},{"trial_n":131,"span":3,"encoder":"028","distractor":"022","target":"present","response":"absent","rt":"496.90000009537","correct":false,"confidence":1},{"trial_n":132,"span":2,"encoder":"05","distractor":"45","target":"absent","response":"absent","rt":"406","correct":true,"confidence":1},{"trial_n":133,"span":2,"encoder":"00","distractor":"20","target":"absent","response":"present","rt":"4943.7999997139","correct":false,"confidence":2},{"trial_n":134,"span":2,"encoder":"56","distractor":"96","target":"absent","response":"absent","rt":"2730.5","correct":true,"confidence":1},{"trial_n":135,"span":2,"encoder":"16","distractor":"18","target":"present","response":"absent","rt":"431.09999990463","correct":false,"confidence":1},{"trial_n":136,"span":2,"encoder":"79","distractor":"76","target":"absent","response":"absent","rt":"477.09999990463","correct":true,"confidence":1},{"trial_n":137,"span":2,"encoder":"33","distractor":"30","target":"absent","response":"absent","rt":"446","correct":true,"confidence":1},{"trial_n":138,"span":3,"encoder":"358","distractor":"308","target":"absent","response":"absent","rt":"333.69999980927","correct":true,"confidence":1},{"trial_n":139,"span":3,"encoder":"156","distractor":"126","target":"absent","response":"absent","rt":"251","correct":true,"confidence":1},{"trial_n":140,"span":4,"encoder":"8615","distractor":"6615","target":"absent","response":"absent","rt":"378.09999990463","correct":true,"confidence":1}]