[{"trial_n":1,"min":25,"max":230,"target":"present","response":"present","rt":6558.2000002861,"correct":true,"confidence":-1},{"trial_n":2,"min":25,"max":230,"target":"present","response":"present","rt":4113.5999999046,"correct":true,"confidence":-1},{"trial_n":3,"min":41,"max":214,"target":"absent","response":"present","rt":3748.2999997139,"correct":false,"confidence":-1},{"trial_n":4,"min":25,"max":230,"target":"absent","response":"present","rt":1042.3000001907,"correct":false,"confidence":-1},{"trial_n":5,"min":9,"max":246,"target":"present","response":"present","rt":820.5,"correct":true,"confidence":-1},{"trial_n":6,"min":9,"max":246,"target":"absent","response":"absent","rt":896.5,"correct":true,"confidence":-1},{"trial_n":7,"min":25,"max":230,"target":"absent","response":"absent","rt":464.40000009537,"correct":true,"confidence":-1},{"trial_n":8,"min":25,"max":230,"target":"absent","response":"absent","rt":407.19999980927,"correct":true,"confidence":-1},{"trial_n":9,"min":41,"max":214,"target":"present","response":"present","rt":497.89999961853,"correct":true,"confidence":-1},{"trial_n":10,"min":41,"max":214,"target":"present","response":"present","rt":558.2999997139,"correct":true,"confidence":-1},{"trial_n":11,"min":49,"max":206,"target":"present","response":"present","rt":406.69999980927,"correct":true,"confidence":-1},{"trial_n":12,"min":49,"max":206,"target":"absent","response":"absent","rt":532.59999990463,"correct":true,"confidence":-1},{"trial_n":13,"min":57,"max":198,"target":"absent","response":"absent","rt":544.59999990463,"correct":true,"confidence":-1},{"trial_n":14,"min":57,"max":198,"target":"absent","response":"absent","rt":379.69999980927,"correct":true,"confidence":-1},{"trial_n":15,"min":65,"max":190,"target":"present","response":"absent","rt":201.2999997139,"correct":false,"confidence":-1},{"trial_n":16,"min":57,"max":198,"target":"present","response":"present","rt":559,"correct":true,"confidence":-1},{"trial_n":17,"min":57,"max":198,"target":"present","response":"present","rt":231.90000009537,"correct":true,"confidence":-1},{"trial_n":18,"min":65,"max":190,"target":"absent","response":"absent","rt":397.69999980927,"correct":true,"confidence":-1},{"trial_n":19,"min":65,"max":190,"target":"present","response":"present","rt":1182.9000000954,"correct":true,"confidence":-1},{"trial_n":20,"min":73,"max":182,"target":"absent","response":"absent","rt":427.30000019073,"correct":true,"confidence":-1},{"trial_n":21,"min":73,"max":182,"target":"absent","response":"absent","rt":856,"correct":true,"confidence":1},{"trial_n":22,"min":77,"max":178,"target":"absent","response":"absent","rt":1744.0999999046,"correct":true,"confidence":1},{"trial_n":23,"min":77,"max":178,"target":"present","response":"absent","rt":720.19999980927,"correct":false,"confidence":4},{"trial_n":24,"min":73,"max":182,"target":"absent","response":"absent","rt":1029,"correct":true,"confidence":4},{"trial_n":25,"min":73,"max":182,"target":"present","response":"present","rt":1146.9000000954,"correct":true,"confidence":1},{"trial_n":26,"min":77,"max":178,"target":"absent","response":"absent","rt":1352.0999999046,"correct":true,"confidence":1},{"trial_n":27,"min":77,"max":178,"target":"present","response":"absent","rt":1643.5,"correct":false,"confidence":1},{"trial_n":28,"min":73,"max":182,"target":"present","response":"absent","rt":256.90000009537,"correct":false,"confidence":1},{"trial_n":29,"min":69,"max":186,"target":"present","response":"absent","rt":484.69999980927,"correct":false,"confidence":1},{"trial_n":30,"min":65,"max":190,"target":"present","response":"present","rt":2570,"correct":true,"confidence":4},{"trial_n":31,"min":65,"max":190,"target":"present","response":"present","rt":1047.4000000954,"correct":true,"confidence":4},{"trial_n":32,"min":67,"max":188,"target":"absent","response":"absent","rt":827.90000009537,"correct":true,"confidence":4},{"trial_n":33,"min":67,"max":188,"target":"present","response":"absent","rt":571.69999980927,"correct":false,"confidence":1},{"trial_n":34,"min":65,"max":190,"target":"absent","response":"absent","rt":1388.3000001907,"correct":true,"confidence":1},{"trial_n":35,"min":65,"max":190,"target":"present","response":"absent","rt":383.59999990463,"correct":false,"confidence":1},{"trial_n":36,"min":63,"max":192,"target":"absent","response":"absent","rt":970.60000038147,"correct":true,"confidence":1},{"trial_n":37,"min":63,"max":192,"target":"absent","response":"present","rt":1595,"correct":false,"confidence":1},{"trial_n":38,"min":61,"max":194,"target":"absent","response":"present","rt":164.5,"correct":false,"confidence":1},{"trial_n":39,"min":59,"max":196,"target":"present","response":"present","rt":1368.9000000954,"correct":true,"confidence":1},{"trial_n":40,"min":59,"max":196,"target":"absent","response":"absent","rt":265.80000019073,"correct":true,"confidence":1},{"trial_n":41,"min":60,"max":195,"target":"present","response":"present","rt":959.40000009537,"correct":true,"confidence":1},{"trial_n":42,"min":60,"max":195,"target":"present","response":"absent","rt":246.5,"correct":false,"confidence":1},{"trial_n":43,"min":59,"max":196,"target":"present","response":"present","rt":118.30000019073,"correct":true,"confidence":1},{"trial_n":44,"min":59,"max":196,"target":"present","response":"absent","rt":1093.3000001907,"correct":false,"confidence":1},{"trial_n":45,"min":58,"max":197,"target":"present","response":"present","rt":832.10000038147,"correct":true,"confidence":1},{"trial_n":46,"min":58,"max":197,"target":"present","response":"absent","rt":340.59999990463,"correct":false,"confidence":1},{"trial_n":47,"min":57,"max":198,"target":"absent","response":"present","rt":306.30000019073,"correct":false,"confidence":1},{"trial_n":48,"min":56,"max":199,"target":"absent","response":"absent","rt":49.800000190735,"correct":true,"confidence":1},{"trial_n":49,"min":56,"max":199,"target":"present","response":"present","rt":169.2000002861,"correct":true,"confidence":1},{"trial_n":50,"min":57,"max":198,"target":"absent","response":"absent","rt":155.90000009537,"correct":true,"confidence":1},{"trial_n":51,"min":57,"max":198,"target":"present","response":"present","rt":94.900000095367,"correct":true,"confidence":1},{"trial_n":52,"min":58,"max":197,"target":"absent","response":"absent","rt":107,"correct":true,"confidence":1},{"trial_n":53,"min":58,"max":197,"target":"present","response":"present","rt":78.5,"correct":true,"confidence":1},{"trial_n":54,"min":59,"max":196,"target":"present","response":"absent","rt":89.900000095367,"correct":false,"confidence":1},{"trial_n":55,"min":58,"max":197,"target":"absent","response":"present","rt":61.5,"correct":false,"confidence":1},{"trial_n":56,"min":57,"max":198,"target":"absent","response":"absent","rt":59.699999809265,"correct":true,"confidence":1},{"trial_n":57,"min":57,"max":198,"target":"absent","response":"present","rt":50.400000095367,"correct":false,"confidence":1},{"trial_n":58,"min":56,"max":199,"target":"absent","response":"absent","rt":83.699999809265,"correct":true,"confidence":1},{"trial_n":59,"min":56,"max":199,"target":"present","response":"present","rt":86.300000190735,"correct":true,"confidence":4},{"trial_n":60,"min":57,"max":198,"target":"absent","response":"present","rt":390.5,"correct":false,"confidence":1},{"trial_n":61,"min":56,"max":199,"target":"absent","response":"present","rt":648.30000019073,"correct":false,"confidence":1},{"trial_n":62,"min":55,"max":200,"target":"present","response":"absent","rt":149.2999997139,"correct":false,"confidence":1},{"trial_n":63,"min":54,"max":201,"target":"present","response":"absent","rt":1832.3000001907,"correct":false,"confidence":3},{"trial_n":64,"min":53,"max":202,"target":"present","response":"present","rt":182.90000009537,"correct":true,"confidence":1},{"trial_n":65,"min":53,"max":202,"target":"absent","response":"absent","rt":282.09999990463,"correct":true,"confidence":1},{"trial_n":66,"min":54,"max":201,"target":"absent","response":"present","rt":925.39999961853,"correct":false,"confidence":2},{"trial_n":67,"min":53,"max":202,"target":"present","response":"absent","rt":312.40000009537,"correct":false,"confidence":1},{"trial_n":68,"min":52,"max":203,"target":"absent","response":"absent","rt":745.80000019073,"correct":true,"confidence":1},{"trial_n":69,"min":52,"max":203,"target":"absent","response":"present","rt":575.5,"correct":false,"confidence":1},{"trial_n":70,"min":51,"max":204,"target":"present","response":"present","rt":951.2000002861,"correct":true,"confidence":3},{"trial_n":71,"min":41,"max":214,"target":"present","response":"absent","rt":5983.5999999046,"correct":false,"confidence":-1},{"trial_n":72,"min":41,"max":214,"target":"present","response":"present","rt":587,"correct":true,"confidence":-1},{"trial_n":73,"min":41,"max":214,"target":"absent","response":"absent","rt":1664.7999997139,"correct":true,"confidence":-1},{"trial_n":74,"min":57,"max":198,"target":"absent","response":"absent","rt":1004.8000001907,"correct":true,"confidence":-1},{"trial_n":75,"min":57,"max":198,"target":"present","response":"absent","rt":274.59999990463,"correct":false,"confidence":-1},{"trial_n":76,"min":41,"max":214,"target":"present","response":"absent","rt":575.69999980927,"correct":false,"confidence":-1},{"trial_n":77,"min":25,"max":230,"target":"present","response":"absent","rt":324.2999997139,"correct":false,"confidence":-1},{"trial_n":78,"min":9,"max":246,"target":"absent","response":"absent","rt":390.59999990463,"correct":true,"confidence":-1},{"trial_n":79,"min":9,"max":246,"target":"absent","response":"present","rt":491.09999990463,"correct":false,"confidence":-1},{"trial_n":80,"min":0,"max":255,"target":"present","response":"present","rt":169.69999980927,"correct":true,"confidence":-1},{"trial_n":81,"min":0,"max":255,"target":"absent","response":"absent","rt":952.69999980927,"correct":true,"confidence":-1},{"trial_n":82,"min":8,"max":247,"target":"present","response":"present","rt":170.10000038147,"correct":true,"confidence":-1},{"trial_n":83,"min":8,"max":247,"target":"absent","response":"present","rt":382.59999990463,"correct":false,"confidence":-1},{"trial_n":84,"min":0,"max":255,"target":"present","response":"present","rt":359.09999990463,"correct":true,"confidence":-1},{"trial_n":85,"min":0,"max":255,"target":"present","response":"absent","rt":152.80000019073,"correct":false,"confidence":-1},{"trial_n":86,"min":0,"max":255,"target":"absent","response":"absent","rt":235.5,"correct":true,"confidence":-1},{"trial_n":87,"min":0,"max":255,"target":"absent","response":"absent","rt":218.89999961853,"correct":true,"confidence":-1},{"trial_n":88,"min":8,"max":247,"target":"present","response":"absent","rt":536.19999980927,"correct":false,"confidence":-1},{"trial_n":89,"min":0,"max":255,"target":"present","response":"absent","rt":428.59999990463,"correct":false,"confidence":-1},{"trial_n":90,"min":0,"max":255,"target":"absent","response":"absent","rt":324.60000038147,"correct":true,"confidence":-1},{"trial_n":91,"min":0,"max":255,"target":"present","response":"absent","rt":689.40000009537,"correct":false,"confidence":5},{"trial_n":92,"min":0,"max":255,"target":"absent","response":"absent","rt":2632.5,"correct":true,"confidence":1},{"trial_n":93,"min":0,"max":255,"target":"present","response":"absent","rt":899.7999997139,"correct":false,"confidence":1},{"trial_n":94,"min":0,"max":255,"target":"present","response":"present","rt":1125.6999998093,"correct":true,"confidence":1},{"trial_n":95,"min":0,"max":255,"target":"present","response":"present","rt":2687.2999997139,"correct":true,"confidence":4},{"trial_n":96,"min":4,"max":251,"target":"absent","response":"absent","rt":2841.0999999046,"correct":true,"confidence":1},{"trial_n":97,"min":4,"max":251,"target":"absent","response":"present","rt":777,"correct":false,"confidence":1},{"trial_n":98,"min":0,"max":255,"target":"absent","response":"present","rt":464.5,"correct":false,"confidence":1},{"trial_n":99,"min":0,"max":255,"target":"absent","response":"present","rt":410.5,"correct":false,"confidence":1},{"trial_n":100,"min":0,"max":255,"target":"present","response":"absent","rt":358.59999990463,"correct":false,"confidence":1},{"trial_n":101,"min":0,"max":255,"target":"absent","response":"absent","rt":6069.7999997139,"correct":true,"confidence":1},{"trial_n":102,"min":0,"max":255,"target":"absent","response":"present","rt":1446.2999997139,"correct":false,"confidence":1},{"trial_n":103,"min":0,"max":255,"target":"present","response":"present","rt":843.5,"correct":true,"confidence":1},{"trial_n":104,"min":0,"max":255,"target":"absent","response":"present","rt":259.90000009537,"correct":false,"confidence":1},{"trial_n":105,"min":0,"max":255,"target":"absent","response":"present","rt":223.59999990463,"correct":false,"confidence":1},{"trial_n":106,"min":0,"max":255,"target":"present","response":"present","rt":306.30000019073,"correct":true,"confidence":1},{"trial_n":107,"min":0,"max":255,"target":"present","response":"present","rt":270,"correct":true,"confidence":1},{"trial_n":108,"min":2,"max":253,"target":"present","response":"present","rt":293.80000019073,"correct":true,"confidence":1},{"trial_n":109,"min":2,"max":253,"target":"absent","response":"present","rt":251.90000009537,"correct":false,"confidence":1},{"trial_n":110,"min":0,"max":255,"target":"absent","response":"present","rt":266,"correct":false,"confidence":1},{"trial_n":111,"min":0,"max":255,"target":"present","response":"absent","rt":744.09999990463,"correct":false,"confidence":1},{"trial_n":112,"min":0,"max":255,"target":"present","response":"absent","rt":60.5,"correct":false,"confidence":1},{"trial_n":113,"min":0,"max":255,"target":"absent","response":"absent","rt":84.599999904633,"correct":true,"confidence":1},{"trial_n":114,"min":0,"max":255,"target":"present","response":"absent","rt":487.30000019073,"correct":false,"confidence":1},{"trial_n":115,"min":0,"max":255,"target":"present","response":"present","rt":300.80000019073,"correct":true,"confidence":1},{"trial_n":116,"min":0,"max":255,"target":"present","response":"absent","rt":80,"correct":false,"confidence":1},{"trial_n":117,"min":0,"max":255,"target":"absent","response":"present","rt":929.19999980927,"correct":false,"confidence":1},{"trial_n":118,"min":0,"max":255,"target":"present","response":"absent","rt":677,"correct":false,"confidence":1},{"trial_n":119,"min":0,"max":255,"target":"present","response":"present","rt":378.5,"correct":true,"confidence":1},{"trial_n":120,"min":0,"max":255,"target":"present","response":"present","rt":715.90000009537,"correct":true,"confidence":2},{"trial_n":121,"min":1,"max":254,"target":"absent","response":"present","rt":260.90000009537,"correct":false,"confidence":1},{"trial_n":122,"min":0,"max":255,"target":"present","response":"absent","rt":270.10000038147,"correct":false,"confidence":1},{"trial_n":123,"min":0,"max":255,"target":"present","response":"present","rt":278.19999980927,"correct":true,"confidence":1},{"trial_n":124,"min":0,"max":255,"target":"present","response":"absent","rt":260.2999997139,"correct":false,"confidence":1},{"trial_n":125,"min":0,"max":255,"target":"present","response":"absent","rt":173.5,"correct":false,"confidence":1},{"trial_n":126,"min":0,"max":255,"target":"present","response":"absent","rt":231.89999961853,"correct":false,"confidence":1},{"trial_n":127,"min":0,"max":255,"target":"absent","response":"absent","rt":316.19999980927,"correct":true,"confidence":1},{"trial_n":128,"min":0,"max":255,"target":"absent","response":"absent","rt":79.400000095367,"correct":true,"confidence":1},{"trial_n":129,"min":1,"max":254,"target":"absent","response":"absent","rt":189.69999980927,"correct":true,"confidence":1},{"trial_n":130,"min":1,"max":254,"target":"present","response":"absent","rt":189,"correct":false,"confidence":1},{"trial_n":131,"min":0,"max":255,"target":"absent","response":"absent","rt":334.2000002861,"correct":true,"confidence":4},{"trial_n":132,"min":0,"max":255,"target":"absent","response":"absent","rt":270.90000009537,"correct":true,"confidence":1},{"trial_n":133,"min":1,"max":254,"target":"absent","response":"absent","rt":577.5,"correct":true,"confidence":3},{"trial_n":134,"min":1,"max":254,"target":"present","response":"present","rt":1497.9000000954,"correct":true,"confidence":3},{"trial_n":135,"min":2,"max":253,"target":"absent","response":"absent","rt":550.7000002861,"correct":true,"confidence":1},{"trial_n":136,"min":2,"max":253,"target":"absent","response":"absent","rt":1887.0999999046,"correct":true,"confidence":4},{"trial_n":137,"min":3,"max":252,"target":"absent","response":"absent","rt":701.80000019073,"correct":true,"confidence":1},{"trial_n":138,"min":3,"max":252,"target":"absent","response":"absent","rt":44.300000190735,"correct":true,"confidence":1},{"trial_n":139,"min":4,"max":251,"target":"absent","response":"absent","rt":62.299999713898,"correct":true,"confidence":1},{"trial_n":140,"min":4,"max":251,"target":"present","response":"absent","rt":147.30000019073,"correct":false,"confidence":1}]