[{"trial_n":1,"min":25,"max":230,"target":"present","response":"present","rt":5560,"correct":true,"confidence":-1},{"trial_n":2,"min":25,"max":230,"target":"present","response":"present","rt":1446,"correct":true,"confidence":-1},{"trial_n":3,"min":41,"max":214,"target":"absent","response":"absent","rt":1171,"correct":true,"confidence":-1},{"trial_n":4,"min":41,"max":214,"target":"absent","response":"absent","rt":619.99999999999,"correct":true,"confidence":-1},{"trial_n":5,"min":57,"max":198,"target":"present","response":"present","rt":785,"correct":true,"confidence":-1},{"trial_n":6,"min":57,"max":198,"target":"absent","response":"absent","rt":859,"correct":true,"confidence":-1},{"trial_n":7,"min":73,"max":182,"target":"present","response":"present","rt":831.00000000001,"correct":true,"confidence":-1},{"trial_n":8,"min":73,"max":182,"target":"present","response":"present","rt":844,"correct":true,"confidence":-1},{"trial_n":9,"min":89,"max":166,"target":"present","response":"absent","rt":825,"correct":false,"confidence":-1},{"trial_n":10,"min":73,"max":182,"target":"present","response":"present","rt":853,"correct":true,"confidence":-1},{"trial_n":11,"min":73,"max":182,"target":"absent","response":"absent","rt":1291,"correct":true,"confidence":-1},{"trial_n":12,"min":81,"max":174,"target":"absent","response":"absent","rt":1651,"correct":true,"confidence":-1},{"trial_n":13,"min":81,"max":174,"target":"present","response":"absent","rt":915,"correct":false,"confidence":-1},{"trial_n":14,"min":73,"max":182,"target":"present","response":"present","rt":839.99999999999,"correct":true,"confidence":-1},{"trial_n":15,"min":73,"max":182,"target":"present","response":"present","rt":500,"correct":true,"confidence":-1},{"trial_n":16,"min":81,"max":174,"target":"present","response":"present","rt":486,"correct":true,"confidence":-1},{"trial_n":17,"min":81,"max":174,"target":"present","response":"absent","rt":994,"correct":false,"confidence":-1},{"trial_n":18,"min":73,"max":182,"target":"absent","response":"present","rt":656.00000000001,"correct":false,"confidence":-1},{"trial_n":19,"min":65,"max":190,"target":"absent","response":"present","rt":2291,"correct":false,"confidence":-1},{"trial_n":20,"min":57,"max":198,"target":"absent","response":"absent","rt":792,"correct":true,"confidence":-1},{"trial_n":21,"min":57,"max":198,"target":"absent","response":"present","rt":1337,"correct":false,"confidence":2},{"trial_n":22,"min":53,"max":202,"target":"absent","response":"absent","rt":1244,"correct":true,"confidence":3},{"trial_n":23,"min":53,"max":202,"target":"absent","response":"absent","rt":2161,"correct":true,"confidence":1},{"trial_n":24,"min":57,"max":198,"target":"present","response":"present","rt":830,"correct":true,"confidence":4},{"trial_n":25,"min":57,"max":198,"target":"present","response":"present","rt":920,"correct":true,"confidence":5},{"trial_n":26,"min":61,"max":194,"target":"present","response":"present","rt":867,"correct":true,"confidence":4},{"trial_n":27,"min":61,"max":194,"target":"present","response":"present","rt":856,"correct":true,"confidence":4},{"trial_n":28,"min":65,"max":190,"target":"absent","response":"absent","rt":1100,"correct":true,"confidence":3},{"trial_n":29,"min":65,"max":190,"target":"present","response":"present","rt":878,"correct":true,"confidence":4},{"trial_n":30,"min":69,"max":186,"target":"present","response":"present","rt":810.99999999999,"correct":true,"confidence":4},{"trial_n":31,"min":69,"max":186,"target":"absent","response":"absent","rt":1035,"correct":true,"confidence":3},{"trial_n":32,"min":71,"max":184,"target":"absent","response":"absent","rt":1122,"correct":true,"confidence":4},{"trial_n":33,"min":71,"max":184,"target":"absent","response":"present","rt":875,"correct":false,"confidence":2},{"trial_n":34,"min":69,"max":186,"target":"absent","response":"absent","rt":787.00000000003,"correct":true,"confidence":3},{"trial_n":35,"min":69,"max":186,"target":"absent","response":"absent","rt":702,"correct":true,"confidence":5},{"trial_n":36,"min":71,"max":184,"target":"absent","response":"absent","rt":654,"correct":true,"confidence":5},{"trial_n":37,"min":71,"max":184,"target":"present","response":"present","rt":976,"correct":true,"confidence":3},{"trial_n":38,"min":73,"max":182,"target":"present","response":"absent","rt":1931,"correct":false,"confidence":4},{"trial_n":39,"min":71,"max":184,"target":"present","response":"present","rt":1300,"correct":true,"confidence":4},{"trial_n":40,"min":71,"max":184,"target":"present","response":"present","rt":792,"correct":true,"confidence":4},{"trial_n":41,"min":72,"max":183,"target":"absent","response":"present","rt":949,"correct":false,"confidence":3},{"trial_n":42,"min":71,"max":184,"target":"absent","response":"absent","rt":754,"correct":true,"confidence":4},{"trial_n":43,"min":71,"max":184,"target":"present","response":"present","rt":1041,"correct":true,"confidence":3},{"trial_n":44,"min":72,"max":183,"target":"present","response":"absent","rt":925,"correct":false,"confidence":4},{"trial_n":45,"min":71,"max":184,"target":"present","response":"present","rt":825,"correct":true,"confidence":4},{"trial_n":46,"min":71,"max":184,"target":"absent","response":"absent","rt":705.00000000003,"correct":true,"confidence":5},{"trial_n":47,"min":72,"max":183,"target":"absent","response":"absent","rt":1179,"correct":true,"confidence":3},{"trial_n":48,"min":72,"max":183,"target":"present","response":"absent","rt":719.99999999997,"correct":false,"confidence":4},{"trial_n":49,"min":71,"max":184,"target":"present","response":"present","rt":856,"correct":true,"confidence":4},{"trial_n":50,"min":71,"max":184,"target":"present","response":"present","rt":666,"correct":true,"confidence":5},{"trial_n":51,"min":72,"max":183,"target":"absent","response":"present","rt":762,"correct":false,"confidence":4},{"trial_n":52,"min":71,"max":184,"target":"absent","response":"absent","rt":698,"correct":true,"confidence":3},{"trial_n":53,"min":71,"max":184,"target":"absent","response":"present","rt":644,"correct":false,"confidence":3},{"trial_n":54,"min":70,"max":185,"target":"absent","response":"absent","rt":630,"correct":true,"confidence":4},{"trial_n":55,"min":70,"max":185,"target":"absent","response":"absent","rt":1050,"correct":true,"confidence":5},{"trial_n":56,"min":71,"max":184,"target":"absent","response":"present","rt":744.99999999997,"correct":false,"confidence":3},{"trial_n":57,"min":70,"max":185,"target":"present","response":"present","rt":607,"correct":true,"confidence":2},{"trial_n":58,"min":70,"max":185,"target":"present","response":"absent","rt":746,"correct":false,"confidence":3},{"trial_n":59,"min":69,"max":186,"target":"present","response":"present","rt":801.00000000003,"correct":true,"confidence":2},{"trial_n":60,"min":69,"max":186,"target":"present","response":"absent","rt":52234,"correct":false,"confidence":1},{"trial_n":61,"min":68,"max":187,"target":"absent","response":"absent","rt":672,"correct":true,"confidence":4},{"trial_n":62,"min":68,"max":187,"target":"absent","response":"absent","rt":782,"correct":true,"confidence":3},{"trial_n":63,"min":69,"max":186,"target":"present","response":"present","rt":1554.9999999999,"correct":true,"confidence":2},{"trial_n":64,"min":69,"max":186,"target":"present","response":"absent","rt":3994,"correct":false,"confidence":4},{"trial_n":65,"min":68,"max":187,"target":"absent","response":"present","rt":8295.9999999999,"correct":false,"confidence":3},{"trial_n":66,"min":67,"max":188,"target":"present","response":"absent","rt":68080,"correct":false,"confidence":4},{"trial_n":67,"min":66,"max":189,"target":"absent","response":"present","rt":693,"correct":false,"confidence":3},{"trial_n":68,"min":65,"max":190,"target":"present","response":"absent","rt":535,"correct":false,"confidence":2},{"trial_n":69,"min":64,"max":191,"target":"absent","response":"present","rt":770,"correct":false,"confidence":3},{"trial_n":70,"min":63,"max":192,"target":"absent","response":"absent","rt":650,"correct":true,"confidence":2},{"trial_n":71,"min":41,"max":214,"target":"present","response":"present","rt":2049,"correct":true,"confidence":-1},{"trial_n":72,"min":41,"max":214,"target":"present","response":"absent","rt":835,"correct":false,"confidence":-1},{"trial_n":73,"min":25,"max":230,"target":"absent","response":"absent","rt":799,"correct":true,"confidence":-1},{"trial_n":74,"min":25,"max":230,"target":"absent","response":"absent","rt":443,"correct":true,"confidence":-1},{"trial_n":75,"min":41,"max":214,"target":"present","response":"present","rt":870,"correct":true,"confidence":-1},{"trial_n":76,"min":41,"max":214,"target":"absent","response":"absent","rt":429,"correct":true,"confidence":-1},{"trial_n":77,"min":57,"max":198,"target":"present","response":"present","rt":624,"correct":true,"confidence":-1},{"trial_n":78,"min":57,"max":198,"target":"present","response":"present","rt":484,"correct":true,"confidence":-1},{"trial_n":79,"min":73,"max":182,"target":"absent","response":"absent","rt":727.99999999994,"correct":true,"confidence":-1},{"trial_n":80,"min":73,"max":182,"target":"present","response":"present","rt":669.00000000006,"correct":true,"confidence":-1},{"trial_n":81,"min":81,"max":174,"target":"present","response":"absent","rt":983.99999999994,"correct":false,"confidence":-1},{"trial_n":82,"min":73,"max":182,"target":"present","response":"present","rt":931,"correct":true,"confidence":-1},{"trial_n":83,"min":73,"max":182,"target":"absent","response":"absent","rt":990,"correct":true,"confidence":-1},{"trial_n":84,"min":81,"max":174,"target":"absent","response":"absent","rt":1116,"correct":true,"confidence":-1},{"trial_n":85,"min":81,"max":174,"target":"absent","response":"present","rt":1155,"correct":false,"confidence":-1},{"trial_n":86,"min":73,"max":182,"target":"present","response":"present","rt":998,"correct":true,"confidence":-1},{"trial_n":87,"min":73,"max":182,"target":"present","response":"present","rt":1000,"correct":true,"confidence":-1},{"trial_n":88,"min":81,"max":174,"target":"absent","response":"absent","rt":766.00000000006,"correct":true,"confidence":-1},{"trial_n":89,"min":81,"max":174,"target":"present","response":"absent","rt":1652,"correct":false,"confidence":-1},{"trial_n":90,"min":73,"max":182,"target":"present","response":"present","rt":617,"correct":true,"confidence":-1},{"trial_n":91,"min":73,"max":182,"target":"present","response":"present","rt":1190,"correct":true,"confidence":1},{"trial_n":92,"min":77,"max":178,"target":"present","response":"absent","rt":1606.9999999999,"correct":false,"confidence":3},{"trial_n":93,"min":73,"max":182,"target":"absent","response":"absent","rt":1212.0000000001,"correct":true,"confidence":4},{"trial_n":94,"min":73,"max":182,"target":"absent","response":"absent","rt":672.00000000006,"correct":true,"confidence":3},{"trial_n":95,"min":77,"max":178,"target":"absent","response":"absent","rt":561.00000000006,"correct":true,"confidence":4},{"trial_n":96,"min":77,"max":178,"target":"absent","response":"absent","rt":494.00000000006,"correct":true,"confidence":4},{"trial_n":97,"min":81,"max":174,"target":"present","response":"absent","rt":664.00000000012,"correct":false,"confidence":1},{"trial_n":98,"min":77,"max":178,"target":"present","response":"absent","rt":466,"correct":false,"confidence":3},{"trial_n":99,"min":73,"max":182,"target":"absent","response":"absent","rt":264.00000000006,"correct":true,"confidence":1},{"trial_n":100,"min":73,"max":182,"target":"absent","response":"absent","rt":1236.9999999999,"correct":true,"confidence":1},{"trial_n":101,"min":75,"max":180,"target":"present","response":"absent","rt":1004,"correct":false,"confidence":5},{"trial_n":102,"min":73,"max":182,"target":"present","response":"absent","rt":1369,"correct":false,"confidence":1},{"trial_n":103,"min":71,"max":184,"target":"absent","response":"absent","rt":901,"correct":true,"confidence":3},{"trial_n":104,"min":71,"max":184,"target":"absent","response":"absent","rt":196,"correct":true,"confidence":3},{"trial_n":105,"min":73,"max":182,"target":"present","response":"absent","rt":1396,"correct":false,"confidence":3},{"trial_n":106,"min":71,"max":184,"target":"present","response":"absent","rt":271,"correct":false,"confidence":4},{"trial_n":107,"min":69,"max":186,"target":"absent","response":"absent","rt":248,"correct":true,"confidence":1},{"trial_n":108,"min":69,"max":186,"target":"present","response":"present","rt":508,"correct":true,"confidence":4},{"trial_n":109,"min":71,"max":184,"target":"absent","response":"present","rt":318,"correct":false,"confidence":4},{"trial_n":110,"min":69,"max":186,"target":"absent","response":"present","rt":333.00000000012,"correct":false,"confidence":4},{"trial_n":111,"min":68,"max":187,"target":"present","response":"absent","rt":371,"correct":false,"confidence":1},{"trial_n":112,"min":67,"max":188,"target":"absent","response":"absent","rt":675.99999999988,"correct":true,"confidence":1},{"trial_n":113,"min":67,"max":188,"target":"absent","response":"absent","rt":467,"correct":true,"confidence":1},{"trial_n":114,"min":68,"max":187,"target":"present","response":"present","rt":373,"correct":true,"confidence":3},{"trial_n":115,"min":68,"max":187,"target":"present","response":"present","rt":423,"correct":true,"confidence":2},{"trial_n":116,"min":69,"max":186,"target":"absent","response":"absent","rt":258,"correct":true,"confidence":1},{"trial_n":117,"min":69,"max":186,"target":"absent","response":"present","rt":901,"correct":false,"confidence":2},{"trial_n":118,"min":68,"max":187,"target":"absent","response":"absent","rt":378,"correct":true,"confidence":4},{"trial_n":119,"min":68,"max":187,"target":"present","response":"absent","rt":322.99999999988,"correct":false,"confidence":4},{"trial_n":120,"min":67,"max":188,"target":"present","response":"absent","rt":827,"correct":false,"confidence":3},{"trial_n":121,"min":66,"max":189,"target":"present","response":"absent","rt":238,"correct":false,"confidence":4},{"trial_n":122,"min":65,"max":190,"target":"present","response":"absent","rt":1448.0000000001,"correct":false,"confidence":4},{"trial_n":123,"min":64,"max":191,"target":"present","response":"absent","rt":700.00000000012,"correct":false,"confidence":1},{"trial_n":124,"min":63,"max":192,"target":"absent","response":"absent","rt":430.99999999988,"correct":true,"confidence":4},{"trial_n":125,"min":63,"max":192,"target":"present","response":"absent","rt":457,"correct":false,"confidence":5},{"trial_n":126,"min":62,"max":193,"target":"absent","response":"absent","rt":155,"correct":true,"confidence":4},{"trial_n":127,"min":62,"max":193,"target":"present","response":"present","rt":57.999999999884,"correct":true,"confidence":4},{"trial_n":128,"min":63,"max":192,"target":"absent","response":"present","rt":266,"correct":false,"confidence":2},{"trial_n":129,"min":62,"max":193,"target":"absent","response":"absent","rt":176,"correct":true,"confidence":4},{"trial_n":130,"min":62,"max":193,"target":"absent","response":"present","rt":513.00000000012,"correct":false,"confidence":1},{"trial_n":131,"min":61,"max":194,"target":"absent","response":"present","rt":921.99999999988,"correct":false,"confidence":4},{"trial_n":132,"min":60,"max":195,"target":"absent","response":"present","rt":600,"correct":false,"confidence":3},{"trial_n":133,"min":59,"max":196,"target":"present","response":"absent","rt":434.99999999988,"correct":false,"confidence":1},{"trial_n":134,"min":58,"max":197,"target":"present","response":"absent","rt":346,"correct":false,"confidence":4},{"trial_n":135,"min":57,"max":198,"target":"absent","response":"absent","rt":641.99999999988,"correct":true,"confidence":1},{"trial_n":136,"min":57,"max":198,"target":"absent","response":"present","rt":521,"correct":false,"confidence":4},{"trial_n":137,"min":56,"max":199,"target":"present","response":"absent","rt":529,"correct":false,"confidence":2},{"trial_n":138,"min":55,"max":200,"target":"absent","response":"present","rt":510,"correct":false,"confidence":3},{"trial_n":139,"min":54,"max":201,"target":"present","response":"absent","rt":516,"correct":false,"confidence":1},{"trial_n":140,"min":53,"max":202,"target":"present","response":"present","rt":476.99999999988,"correct":true,"confidence":5}]