[{"trial_n":1,"n_dots":4.25,"target":"left","response":"left","rt":10141.400000095,"correct":true,"confidence":-1},{"trial_n":2,"n_dots":4.25,"target":"left","response":"left","rt":445.30000007153,"correct":true,"confidence":-1},{"trial_n":3,"n_dots":3.85,"target":"right","response":"right","rt":329.09999990463,"correct":true,"confidence":-1},{"trial_n":4,"n_dots":3.85,"target":"left","response":"left","rt":291.80000007153,"correct":true,"confidence":-1},{"trial_n":5,"n_dots":3.45,"target":"right","response":"right","rt":299.10000002384,"correct":true,"confidence":-1},{"trial_n":6,"n_dots":3.45,"target":"left","response":"left","rt":293.5,"correct":true,"confidence":-1},{"trial_n":7,"n_dots":3.05,"target":"right","response":"left","rt":323,"correct":false,"confidence":-1},{"trial_n":8,"n_dots":3.25,"target":"right","response":"left","rt":237.79999995232,"correct":false,"confidence":-1},{"trial_n":9,"n_dots":3.45,"target":"right","response":"left","rt":264.5,"correct":false,"confidence":-1},{"trial_n":10,"n_dots":3.65,"target":"left","response":"left","rt":293.30000007153,"correct":true,"confidence":-1},{"trial_n":11,"n_dots":3.65,"target":"right","response":"right","rt":221.29999995232,"correct":true,"confidence":-1},{"trial_n":12,"n_dots":3.45,"target":"left","response":"left","rt":288.89999997616,"correct":true,"confidence":-1},{"trial_n":13,"n_dots":3.45,"target":"right","response":"right","rt":243.70000004768,"correct":true,"confidence":-1},{"trial_n":14,"n_dots":3.35,"target":"left","response":"left","rt":247.30000007153,"correct":true,"confidence":-1},{"trial_n":15,"n_dots":3.35,"target":"left","response":"left","rt":231.10000002384,"correct":true,"confidence":-1},{"trial_n":16,"n_dots":3.25,"target":"right","response":"left","rt":300.39999997616,"correct":false,"confidence":-1},{"trial_n":17,"n_dots":3.35,"target":"right","response":"left","rt":272.29999995232,"correct":false,"confidence":-1},{"trial_n":18,"n_dots":3.45,"target":"right","response":"left","rt":215.89999997616,"correct":false,"confidence":-1},{"trial_n":19,"n_dots":3.55,"target":"left","response":"left","rt":263.39999997616,"correct":true,"confidence":-1},{"trial_n":20,"n_dots":3.55,"target":"left","response":"left","rt":235.89999997616,"correct":true,"confidence":-1},{"trial_n":21,"n_dots":3.45,"target":"right","response":"left","rt":438.10000002384,"correct":false,"confidence":3},{"trial_n":22,"n_dots":3.55,"target":"left","response":"left","rt":358.60000002384,"correct":true,"confidence":3},{"trial_n":23,"n_dots":3.55,"target":"left","response":"left","rt":274.70000004768,"correct":true,"confidence":2},{"trial_n":24,"n_dots":3.45,"target":"right","response":"left","rt":313.5,"correct":false,"confidence":2},{"trial_n":25,"n_dots":3.55,"target":"left","response":"left","rt":300.80000007153,"correct":true,"confidence":2},{"trial_n":26,"n_dots":3.55,"target":"right","response":"right","rt":373.29999995232,"correct":true,"confidence":4},{"trial_n":27,"n_dots":3.45,"target":"right","response":"right","rt":569.20000004768,"correct":true,"confidence":4},{"trial_n":28,"n_dots":3.45,"target":"left","response":"left","rt":427.70000004768,"correct":true,"confidence":4},{"trial_n":29,"n_dots":3.35,"target":"right","response":"right","rt":462.89999997616,"correct":true,"confidence":3},{"trial_n":30,"n_dots":3.35,"target":"left","response":"left","rt":390.60000002384,"correct":true,"confidence":2},{"trial_n":31,"n_dots":3.25,"target":"left","response":"left","rt":286.89999997616,"correct":true,"confidence":3},{"trial_n":32,"n_dots":3.25,"target":"left","response":"left","rt":437.89999997616,"correct":true,"confidence":3},{"trial_n":33,"n_dots":3.15,"target":"left","response":"left","rt":317.60000002384,"correct":true,"confidence":2},{"trial_n":34,"n_dots":3.15,"target":"right","response":"right","rt":366.69999992847,"correct":true,"confidence":2},{"trial_n":35,"n_dots":3.05,"target":"left","response":"left","rt":319.60000002384,"correct":true,"confidence":3},{"trial_n":36,"n_dots":3.05,"target":"right","response":"left","rt":458.79999995232,"correct":false,"confidence":2},{"trial_n":37,"n_dots":3.15,"target":"right","response":"right","rt":841.70000004768,"correct":true,"confidence":3},{"trial_n":38,"n_dots":3.15,"target":"right","response":"left","rt":1005.8999999762,"correct":false,"confidence":2},{"trial_n":39,"n_dots":3.25,"target":"left","response":"left","rt":319.39999997616,"correct":true,"confidence":4},{"trial_n":40,"n_dots":3.25,"target":"left","response":"left","rt":332.5,"correct":true,"confidence":2},{"trial_n":41,"n_dots":3.15,"target":"right","response":"left","rt":2371.5,"correct":false,"confidence":1},{"trial_n":42,"n_dots":3.25,"target":"left","response":"left","rt":378.70000004768,"correct":true,"confidence":3},{"trial_n":43,"n_dots":3.25,"target":"right","response":"left","rt":723.89999997616,"correct":false,"confidence":2},{"trial_n":44,"n_dots":3.35,"target":"left","response":"left","rt":986.19999992847,"correct":true,"confidence":4},{"trial_n":45,"n_dots":3.35,"target":"left","response":"left","rt":717.80000007153,"correct":true,"confidence":3},{"trial_n":46,"n_dots":3.25,"target":"right","response":"left","rt":462.5,"correct":false,"confidence":3},{"trial_n":47,"n_dots":3.35,"target":"left","response":"left","rt":430.19999992847,"correct":true,"confidence":4},{"trial_n":48,"n_dots":3.35,"target":"right","response":"left","rt":554.89999997616,"correct":false,"confidence":3},{"trial_n":49,"n_dots":3.45,"target":"left","response":"left","rt":456.40000009537,"correct":true,"confidence":2},{"trial_n":50,"n_dots":3.45,"target":"right","response":"left","rt":449.60000002384,"correct":false,"confidence":2},{"trial_n":51,"n_dots":3.55,"target":"left","response":"left","rt":440.5,"correct":true,"confidence":4},{"trial_n":52,"n_dots":3.55,"target":"right","response":"right","rt":562.80000007153,"correct":true,"confidence":3},{"trial_n":53,"n_dots":3.45,"target":"right","response":"right","rt":484.80000007153,"correct":true,"confidence":3},{"trial_n":54,"n_dots":3.45,"target":"right","response":"left","rt":537.39999997616,"correct":false,"confidence":2},{"trial_n":55,"n_dots":3.55,"target":"left","response":"left","rt":586,"correct":true,"confidence":4},{"trial_n":56,"n_dots":3.55,"target":"right","response":"right","rt":529.89999997616,"correct":true,"confidence":3},{"trial_n":57,"n_dots":3.45,"target":"right","response":"right","rt":517.70000004768,"correct":true,"confidence":3},{"trial_n":58,"n_dots":3.45,"target":"left","response":"left","rt":648.5,"correct":true,"confidence":3},{"trial_n":59,"n_dots":3.35,"target":"left","response":"right","rt":513.79999995232,"correct":false,"confidence":2},{"trial_n":60,"n_dots":3.45,"target":"left","response":"right","rt":514.5,"correct":false,"confidence":3},{"trial_n":61,"n_dots":3.55,"target":"left","response":"left","rt":288.5,"correct":true,"confidence":4},{"trial_n":62,"n_dots":3.55,"target":"left","response":"left","rt":328.69999992847,"correct":true,"confidence":4},{"trial_n":63,"n_dots":3.45,"target":"left","response":"left","rt":627.60000002384,"correct":true,"confidence":4},{"trial_n":64,"n_dots":3.45,"target":"right","response":"right","rt":417.39999997616,"correct":true,"confidence":3},{"trial_n":65,"n_dots":3.35,"target":"left","response":"left","rt":379.90000009537,"correct":true,"confidence":3},{"trial_n":66,"n_dots":3.35,"target":"right","response":"left","rt":549.30000007153,"correct":false,"confidence":2},{"trial_n":67,"n_dots":3.45,"target":"left","response":"left","rt":479.79999995232,"correct":true,"confidence":3},{"trial_n":68,"n_dots":3.45,"target":"left","response":"left","rt":511.89999997616,"correct":true,"confidence":3},{"trial_n":69,"n_dots":3.35,"target":"right","response":"right","rt":424.10000002384,"correct":true,"confidence":3},{"trial_n":70,"n_dots":3.35,"target":"left","response":"left","rt":409.10000002384,"correct":true,"confidence":2},{"trial_n":71,"n_dots":3.25,"target":"right","response":"right","rt":511.29999995232,"correct":true,"confidence":2},{"trial_n":72,"n_dots":3.25,"target":"right","response":"left","rt":384.29999995232,"correct":false,"confidence":2},{"trial_n":73,"n_dots":3.35,"target":"right","response":"left","rt":416.80000007153,"correct":false,"confidence":2},{"trial_n":74,"n_dots":3.45,"target":"right","response":"right","rt":441.39999997616,"correct":true,"confidence":2},{"trial_n":75,"n_dots":3.45,"target":"left","response":"left","rt":439.39999997616,"correct":true,"confidence":2},{"trial_n":76,"n_dots":3.35,"target":"right","response":"right","rt":382.39999997616,"correct":true,"confidence":3},{"trial_n":77,"n_dots":3.35,"target":"right","response":"right","rt":421.60000002384,"correct":true,"confidence":3},{"trial_n":78,"n_dots":3.25,"target":"right","response":"left","rt":393.19999992847,"correct":false,"confidence":2},{"trial_n":79,"n_dots":3.35,"target":"right","response":"right","rt":434.70000004768,"correct":true,"confidence":1},{"trial_n":80,"n_dots":3.35,"target":"left","response":"left","rt":453.5,"correct":true,"confidence":1},{"trial_n":81,"n_dots":3.25,"target":"right","response":"right","rt":429.80000007153,"correct":true,"confidence":3},{"trial_n":82,"n_dots":3.25,"target":"left","response":"left","rt":564.89999997616,"correct":true,"confidence":3},{"trial_n":83,"n_dots":3.15,"target":"right","response":"left","rt":565.10000002384,"correct":false,"confidence":2},{"trial_n":84,"n_dots":3.25,"target":"right","response":"right","rt":401.89999997616,"correct":true,"confidence":3},{"trial_n":85,"n_dots":3.25,"target":"left","response":"left","rt":561.69999992847,"correct":true,"confidence":2},{"trial_n":86,"n_dots":3.15,"target":"right","response":"right","rt":379,"correct":true,"confidence":3},{"trial_n":87,"n_dots":3.15,"target":"right","response":"right","rt":306.69999992847,"correct":true,"confidence":3},{"trial_n":88,"n_dots":3.05,"target":"left","response":"left","rt":422.79999995232,"correct":true,"confidence":2},{"trial_n":89,"n_dots":3.05,"target":"right","response":"left","rt":442,"correct":false,"confidence":3},{"trial_n":90,"n_dots":3.15,"target":"right","response":"left","rt":339.39999997616,"correct":false,"confidence":2},{"trial_n":91,"n_dots":3.25,"target":"left","response":"right","rt":382.70000004768,"correct":false,"confidence":3},{"trial_n":92,"n_dots":3.35,"target":"left","response":"right","rt":598.39999997616,"correct":false,"confidence":2},{"trial_n":93,"n_dots":3.45,"target":"right","response":"right","rt":339.19999992847,"correct":true,"confidence":2},{"trial_n":94,"n_dots":3.45,"target":"right","response":"right","rt":444.29999995232,"correct":true,"confidence":1},{"trial_n":95,"n_dots":3.35,"target":"right","response":"left","rt":325.10000002384,"correct":false,"confidence":1},{"trial_n":96,"n_dots":3.45,"target":"left","response":"right","rt":1009.2999999523,"correct":false,"confidence":2},{"trial_n":97,"n_dots":3.55,"target":"right","response":"right","rt":540.79999995232,"correct":true,"confidence":3},{"trial_n":98,"n_dots":3.55,"target":"left","response":"right","rt":311.5,"correct":false,"confidence":2},{"trial_n":99,"n_dots":3.65,"target":"left","response":"left","rt":424.69999992847,"correct":true,"confidence":3},{"trial_n":100,"n_dots":3.65,"target":"left","response":"right","rt":294.80000007153,"correct":false,"confidence":2},{"trial_n":101,"n_dots":3.75,"target":"right","response":"right","rt":519.69999992847,"correct":true,"confidence":1},{"trial_n":102,"n_dots":3.75,"target":"right","response":"right","rt":484.30000007153,"correct":true,"confidence":2},{"trial_n":103,"n_dots":3.65,"target":"left","response":"left","rt":361.5,"correct":true,"confidence":3},{"trial_n":104,"n_dots":3.65,"target":"right","response":"right","rt":345.89999997616,"correct":true,"confidence":2},{"trial_n":105,"n_dots":3.55,"target":"right","response":"right","rt":417.69999992847,"correct":true,"confidence":2},{"trial_n":106,"n_dots":3.55,"target":"left","response":"right","rt":330.60000002384,"correct":false,"confidence":2},{"trial_n":107,"n_dots":3.65,"target":"right","response":"right","rt":546.09999990463,"correct":true,"confidence":3},{"trial_n":108,"n_dots":3.65,"target":"left","response":"left","rt":289.39999997616,"correct":true,"confidence":4},{"trial_n":109,"n_dots":3.55,"target":"left","response":"left","rt":334.10000002384,"correct":true,"confidence":3},{"trial_n":110,"n_dots":3.55,"target":"left","response":"left","rt":325.90000009537,"correct":true,"confidence":4},{"trial_n":111,"n_dots":3.45,"target":"left","response":"left","rt":335.29999995232,"correct":true,"confidence":4},{"trial_n":112,"n_dots":3.45,"target":"left","response":"left","rt":360.79999995232,"correct":true,"confidence":4},{"trial_n":113,"n_dots":3.35,"target":"right","response":"right","rt":1122.6999999285,"correct":true,"confidence":3},{"trial_n":114,"n_dots":3.35,"target":"left","response":"left","rt":927.10000002384,"correct":true,"confidence":2},{"trial_n":115,"n_dots":3.25,"target":"left","response":"right","rt":977.19999992847,"correct":false,"confidence":3},{"trial_n":116,"n_dots":3.35,"target":"right","response":"right","rt":991.39999997616,"correct":true,"confidence":4},{"trial_n":117,"n_dots":3.35,"target":"left","response":"left","rt":696.5,"correct":true,"confidence":3},{"trial_n":118,"n_dots":3.25,"target":"right","response":"right","rt":429.10000002384,"correct":true,"confidence":3},{"trial_n":119,"n_dots":3.25,"target":"left","response":"left","rt":512.59999990463,"correct":true,"confidence":1},{"trial_n":120,"n_dots":3.15,"target":"right","response":"left","rt":877.89999997616,"correct":false,"confidence":1}]