[{"trial_n":1,"n_dots":4.25,"target":"left","response":"left","rt":5353,"correct":true,"confidence":-1},{"trial_n":2,"n_dots":4.25,"target":"left","response":"right","rt":155,"correct":false,"confidence":-1},{"trial_n":3,"n_dots":4.65,"target":"left","response":"left","rt":428,"correct":true,"confidence":-1},{"trial_n":4,"n_dots":4.65,"target":"left","response":"right","rt":281,"correct":false,"confidence":-1},{"trial_n":5,"n_dots":5.05,"target":"left","response":"left","rt":316,"correct":true,"confidence":-1},{"trial_n":6,"n_dots":5.05,"target":"left","response":"left","rt":393,"correct":true,"confidence":-1},{"trial_n":7,"n_dots":4.65,"target":"right","response":"right","rt":106.99999999999,"correct":true,"confidence":-1},{"trial_n":8,"n_dots":4.65,"target":"right","response":"right","rt":443.99999999999,"correct":true,"confidence":-1},{"trial_n":9,"n_dots":4.45,"target":"left","response":"left","rt":269,"correct":true,"confidence":-1},{"trial_n":10,"n_dots":4.45,"target":"right","response":"right","rt":414,"correct":true,"confidence":-1},{"trial_n":11,"n_dots":4.25,"target":"right","response":"right","rt":40.000000000007,"correct":true,"confidence":-1},{"trial_n":12,"n_dots":4.25,"target":"right","response":"right","rt":246.00000000001,"correct":true,"confidence":-1},{"trial_n":13,"n_dots":4.15,"target":"right","response":"right","rt":395,"correct":true,"confidence":-1},{"trial_n":14,"n_dots":4.15,"target":"right","response":"right","rt":226,"correct":true,"confidence":-1},{"trial_n":15,"n_dots":4.05,"target":"left","response":"right","rt":443,"correct":false,"confidence":-1},{"trial_n":16,"n_dots":4.15,"target":"left","response":"left","rt":609,"correct":true,"confidence":-1},{"trial_n":17,"n_dots":4.15,"target":"left","response":"right","rt":138,"correct":false,"confidence":-1},{"trial_n":18,"n_dots":4.25,"target":"left","response":"left","rt":102,"correct":true,"confidence":-1},{"trial_n":19,"n_dots":4.25,"target":"right","response":"right","rt":271,"correct":true,"confidence":-1},{"trial_n":20,"n_dots":4.15,"target":"left","response":"left","rt":366,"correct":true,"confidence":-1},{"trial_n":21,"n_dots":4.15,"target":"left","response":"right","rt":42,"correct":false,"confidence":3},{"trial_n":22,"n_dots":4.25,"target":"right","response":"left","rt":326,"correct":false,"confidence":4},{"trial_n":23,"n_dots":4.35,"target":"right","response":"left","rt":384,"correct":false,"confidence":1},{"trial_n":24,"n_dots":4.45,"target":"right","response":"left","rt":159,"correct":false,"confidence":2},{"trial_n":25,"n_dots":4.55,"target":"left","response":"right","rt":47,"correct":false,"confidence":1},{"trial_n":26,"n_dots":4.65,"target":"right","response":"right","rt":755,"correct":true,"confidence":1},{"trial_n":27,"n_dots":4.65,"target":"left","response":"right","rt":59,"correct":false,"confidence":2},{"trial_n":28,"n_dots":4.75,"target":"left","response":"right","rt":26,"correct":false,"confidence":4},{"trial_n":29,"n_dots":4.85,"target":"right","response":"right","rt":204,"correct":true,"confidence":2},{"trial_n":30,"n_dots":4.85,"target":"left","response":"right","rt":34,"correct":false,"confidence":2},{"trial_n":31,"n_dots":4.95,"target":"right","response":"right","rt":99,"correct":true,"confidence":3},{"trial_n":32,"n_dots":4.95,"target":"left","response":"right","rt":0,"correct":false,"confidence":3},{"trial_n":33,"n_dots":5.05,"target":"right","response":"right","rt":65.000000000015,"correct":true,"confidence":4},{"trial_n":34,"n_dots":5.05,"target":"left","response":"right","rt":281,"correct":false,"confidence":4},{"trial_n":35,"n_dots":5.15,"target":"left","response":"right","rt":8,"correct":false,"confidence":4},{"trial_n":36,"n_dots":5.25,"target":"right","response":"left","rt":137,"correct":false,"confidence":3},{"trial_n":37,"n_dots":5.35,"target":"left","response":"left","rt":229,"correct":true,"confidence":4},{"trial_n":38,"n_dots":5.35,"target":"right","response":"right","rt":476,"correct":true,"confidence":1},{"trial_n":39,"n_dots":5.25,"target":"left","response":"left","rt":899,"correct":true,"confidence":2},{"trial_n":40,"n_dots":5.25,"target":"right","response":"right","rt":792,"correct":true,"confidence":1},{"trial_n":41,"n_dots":5.15,"target":"left","response":"right","rt":3854,"correct":false,"confidence":1},{"trial_n":42,"n_dots":5.25,"target":"right","response":"left","rt":157,"correct":false,"confidence":1},{"trial_n":43,"n_dots":5.35,"target":"right","response":"left","rt":118.00000000003,"correct":false,"confidence":1},{"trial_n":44,"n_dots":5.45,"target":"right","response":"right","rt":95,"correct":true,"confidence":4},{"trial_n":45,"n_dots":5.45,"target":"left","response":"left","rt":123,"correct":true,"confidence":5},{"trial_n":46,"n_dots":5.35,"target":"right","response":"right","rt":6.9999999999709,"correct":true,"confidence":1},{"trial_n":47,"n_dots":5.35,"target":"right","response":"right","rt":133,"correct":true,"confidence":1},{"trial_n":48,"n_dots":5.25,"target":"right","response":"right","rt":887.99999999997,"correct":true,"confidence":5},{"trial_n":49,"n_dots":5.25,"target":"right","response":"right","rt":64,"correct":true,"confidence":4},{"trial_n":50,"n_dots":5.15,"target":"right","response":"right","rt":89,"correct":true,"confidence":2},{"trial_n":51,"n_dots":5.15,"target":"right","response":"right","rt":116,"correct":true,"confidence":2},{"trial_n":52,"n_dots":5.05,"target":"right","response":"right","rt":120,"correct":true,"confidence":2},{"trial_n":53,"n_dots":5.05,"target":"left","response":"right","rt":190,"correct":false,"confidence":4},{"trial_n":54,"n_dots":5.15,"target":"right","response":"right","rt":513,"correct":true,"confidence":5},{"trial_n":55,"n_dots":5.15,"target":"right","response":"right","rt":940,"correct":true,"confidence":1},{"trial_n":56,"n_dots":5.05,"target":"right","response":"right","rt":-9,"correct":true,"confidence":5},{"trial_n":57,"n_dots":5.05,"target":"left","response":"left","rt":219.00000000003,"correct":true,"confidence":1},{"trial_n":58,"n_dots":4.95,"target":"left","response":"left","rt":83,"correct":true,"confidence":5},{"trial_n":59,"n_dots":4.95,"target":"right","response":"left","rt":78,"correct":false,"confidence":5},{"trial_n":60,"n_dots":5.05,"target":"left","response":"right","rt":6287,"correct":false,"confidence":1},{"trial_n":61,"n_dots":5.15,"target":"left","response":"right","rt":2264,"correct":false,"confidence":1},{"trial_n":62,"n_dots":5.25,"target":"left","response":"right","rt":671,"correct":false,"confidence":2},{"trial_n":63,"n_dots":5.35,"target":"left","response":"left","rt":61,"correct":true,"confidence":4},{"trial_n":64,"n_dots":5.35,"target":"right","response":"right","rt":301.99999999997,"correct":true,"confidence":1},{"trial_n":65,"n_dots":5.25,"target":"left","response":"right","rt":625,"correct":false,"confidence":3},{"trial_n":66,"n_dots":5.35,"target":"left","response":"left","rt":4,"correct":true,"confidence":3},{"trial_n":67,"n_dots":5.35,"target":"left","response":"right","rt":416,"correct":false,"confidence":1},{"trial_n":68,"n_dots":5.45,"target":"left","response":"right","rt":5392,"correct":false,"confidence":1},{"trial_n":69,"n_dots":5.55,"target":"right","response":"right","rt":1942,"correct":true,"confidence":1},{"trial_n":70,"n_dots":5.55,"target":"left","response":"left","rt":814,"correct":true,"confidence":1},{"trial_n":71,"n_dots":5.45,"target":"right","response":"right","rt":-1,"correct":true,"confidence":5},{"trial_n":72,"n_dots":5.45,"target":"left","response":"left","rt":404,"correct":true,"confidence":1},{"trial_n":73,"n_dots":5.35,"target":"right","response":"right","rt":489.99999999997,"correct":true,"confidence":5},{"trial_n":74,"n_dots":5.35,"target":"left","response":"left","rt":370,"correct":true,"confidence":5},{"trial_n":75,"n_dots":5.25,"target":"right","response":"right","rt":221,"correct":true,"confidence":5},{"trial_n":76,"n_dots":5.25,"target":"left","response":"left","rt":124,"correct":true,"confidence":5},{"trial_n":77,"n_dots":5.15,"target":"right","response":"right","rt":118,"correct":true,"confidence":5},{"trial_n":78,"n_dots":5.15,"target":"left","response":"left","rt":381,"correct":true,"confidence":5},{"trial_n":79,"n_dots":5.05,"target":"left","response":"left","rt":141.00000000003,"correct":true,"confidence":5},{"trial_n":80,"n_dots":5.05,"target":"left","response":"left","rt":223.99999999997,"correct":true,"confidence":5},{"trial_n":81,"n_dots":4.95,"target":"left","response":"left","rt":346,"correct":true,"confidence":1},{"trial_n":82,"n_dots":4.95,"target":"right","response":"right","rt":177,"correct":true,"confidence":5},{"trial_n":83,"n_dots":4.85,"target":"left","response":"left","rt":188,"correct":true,"confidence":5},{"trial_n":84,"n_dots":4.85,"target":"right","response":"left","rt":646,"correct":false,"confidence":1},{"trial_n":85,"n_dots":4.95,"target":"left","response":"left","rt":424,"correct":true,"confidence":5},{"trial_n":86,"n_dots":4.95,"target":"right","response":"left","rt":2085,"correct":false,"confidence":1},{"trial_n":87,"n_dots":5.05,"target":"right","response":"right","rt":112,"correct":true,"confidence":5},{"trial_n":88,"n_dots":5.05,"target":"left","response":"left","rt":93.999999999942,"correct":true,"confidence":5},{"trial_n":89,"n_dots":4.95,"target":"left","response":"left","rt":246,"correct":true,"confidence":5},{"trial_n":90,"n_dots":4.95,"target":"right","response":"right","rt":363,"correct":true,"confidence":5},{"trial_n":91,"n_dots":4.85,"target":"right","response":"right","rt":255,"correct":true,"confidence":5},{"trial_n":92,"n_dots":4.85,"target":"right","response":"right","rt":23,"correct":true,"confidence":5},{"trial_n":93,"n_dots":4.75,"target":"left","response":"left","rt":130,"correct":true,"confidence":5},{"trial_n":94,"n_dots":4.75,"target":"right","response":"right","rt":132,"correct":true,"confidence":5},{"trial_n":95,"n_dots":4.65,"target":"right","response":"left","rt":633.99999999994,"correct":false,"confidence":1},{"trial_n":96,"n_dots":4.75,"target":"left","response":"left","rt":246,"correct":true,"confidence":5},{"trial_n":97,"n_dots":4.75,"target":"left","response":"left","rt":405.00000000006,"correct":true,"confidence":5},{"trial_n":98,"n_dots":4.65,"target":"right","response":"right","rt":256,"correct":true,"confidence":5},{"trial_n":99,"n_dots":4.65,"target":"left","response":"left","rt":421,"correct":true,"confidence":5},{"trial_n":100,"n_dots":4.55,"target":"left","response":"left","rt":578.99999999994,"correct":true,"confidence":1},{"trial_n":101,"n_dots":4.55,"target":"right","response":"right","rt":336,"correct":true,"confidence":5},{"trial_n":102,"n_dots":4.45,"target":"left","response":"left","rt":-8.9999999999418,"correct":true,"confidence":5},{"trial_n":103,"n_dots":4.45,"target":"right","response":"right","rt":241,"correct":true,"confidence":5},{"trial_n":104,"n_dots":4.35,"target":"left","response":"left","rt":228,"correct":true,"confidence":5},{"trial_n":105,"n_dots":4.35,"target":"right","response":"right","rt":527.99999999994,"correct":true,"confidence":1},{"trial_n":106,"n_dots":4.25,"target":"right","response":"right","rt":405,"correct":true,"confidence":5},{"trial_n":107,"n_dots":4.25,"target":"left","response":"left","rt":797.00000000006,"correct":true,"confidence":5},{"trial_n":108,"n_dots":4.15,"target":"left","response":"right","rt":2656,"correct":false,"confidence":1},{"trial_n":109,"n_dots":4.25,"target":"right","response":"right","rt":290,"correct":true,"confidence":5},{"trial_n":110,"n_dots":4.25,"target":"right","response":"right","rt":280.99999999994,"correct":true,"confidence":5},{"trial_n":111,"n_dots":4.15,"target":"left","response":"left","rt":559,"correct":true,"confidence":5},{"trial_n":112,"n_dots":4.15,"target":"left","response":"right","rt":1422,"correct":false,"confidence":1},{"trial_n":113,"n_dots":4.25,"target":"right","response":"right","rt":462,"correct":true,"confidence":1},{"trial_n":114,"n_dots":4.25,"target":"left","response":"left","rt":653,"correct":true,"confidence":1},{"trial_n":115,"n_dots":4.15,"target":"right","response":"right","rt":501,"correct":true,"confidence":1},{"trial_n":116,"n_dots":4.15,"target":"left","response":"left","rt":683,"correct":true,"confidence":5},{"trial_n":117,"n_dots":4.05,"target":"right","response":"right","rt":235.99999999994,"correct":true,"confidence":5},{"trial_n":118,"n_dots":4.05,"target":"right","response":"right","rt":319.00000000006,"correct":true,"confidence":5},{"trial_n":119,"n_dots":3.95,"target":"right","response":"right","rt":172,"correct":true,"confidence":1},{"trial_n":120,"n_dots":3.95,"target":"right","response":"right","rt":301,"correct":true,"confidence":5}]