[{"trial_n":1,"min":25,"max":230,"target":"present","response":"absent","rt":7151,"correct":false,"confidence":-1},{"trial_n":2,"min":25,"max":230,"target":"present","response":"present","rt":1878,"correct":true,"confidence":-1},{"trial_n":3,"min":25,"max":230,"target":"absent","response":"present","rt":5481,"correct":false,"confidence":-1},{"trial_n":4,"min":9,"max":246,"target":"absent","response":"absent","rt":885,"correct":true,"confidence":-1},{"trial_n":5,"min":9,"max":246,"target":"present","response":"present","rt":1074,"correct":true,"confidence":-1},{"trial_n":6,"min":25,"max":230,"target":"absent","response":"absent","rt":704,"correct":true,"confidence":-1},{"trial_n":7,"min":25,"max":230,"target":"present","response":"present","rt":757.99999999999,"correct":true,"confidence":-1},{"trial_n":8,"min":41,"max":214,"target":"absent","response":"absent","rt":649,"correct":true,"confidence":-1},{"trial_n":9,"min":41,"max":214,"target":"absent","response":"absent","rt":488,"correct":true,"confidence":-1},{"trial_n":10,"min":57,"max":198,"target":"absent","response":"absent","rt":455,"correct":true,"confidence":-1},{"trial_n":11,"min":57,"max":198,"target":"absent","response":"absent","rt":349,"correct":true,"confidence":-1},{"trial_n":12,"min":65,"max":190,"target":"present","response":"present","rt":1134,"correct":true,"confidence":-1},{"trial_n":13,"min":65,"max":190,"target":"absent","response":"absent","rt":939,"correct":true,"confidence":-1},{"trial_n":14,"min":73,"max":182,"target":"absent","response":"absent","rt":361,"correct":true,"confidence":-1},{"trial_n":15,"min":73,"max":182,"target":"absent","response":"absent","rt":469,"correct":true,"confidence":-1},{"trial_n":16,"min":81,"max":174,"target":"present","response":"absent","rt":519.99999999999,"correct":false,"confidence":-1},{"trial_n":17,"min":73,"max":182,"target":"present","response":"absent","rt":2861,"correct":false,"confidence":-1},{"trial_n":18,"min":65,"max":190,"target":"present","response":"absent","rt":610,"correct":false,"confidence":-1},{"trial_n":19,"min":57,"max":198,"target":"absent","response":"absent","rt":1865,"correct":true,"confidence":-1},{"trial_n":20,"min":57,"max":198,"target":"absent","response":"absent","rt":419,"correct":true,"confidence":-1},{"trial_n":21,"min":61,"max":194,"target":"present","response":"present","rt":1175,"correct":true,"confidence":4},{"trial_n":22,"min":61,"max":194,"target":"present","response":"present","rt":2366,"correct":true,"confidence":5},{"trial_n":23,"min":65,"max":190,"target":"absent","response":"absent","rt":767,"correct":true,"confidence":5},{"trial_n":24,"min":65,"max":190,"target":"present","response":"present","rt":1092,"correct":true,"confidence":5},{"trial_n":25,"min":69,"max":186,"target":"present","response":"present","rt":3915,"correct":true,"confidence":5},{"trial_n":26,"min":69,"max":186,"target":"absent","response":"absent","rt":1136,"correct":true,"confidence":5},{"trial_n":27,"min":73,"max":182,"target":"present","response":"present","rt":1044,"correct":true,"confidence":5},{"trial_n":28,"min":73,"max":182,"target":"absent","response":"absent","rt":1531,"correct":true,"confidence":5},{"trial_n":29,"min":77,"max":178,"target":"present","response":"present","rt":1395,"correct":true,"confidence":5},{"trial_n":30,"min":77,"max":178,"target":"absent","response":"absent","rt":758,"correct":true,"confidence":5},{"trial_n":31,"min":79,"max":176,"target":"absent","response":"absent","rt":1134,"correct":true,"confidence":5},{"trial_n":32,"min":79,"max":176,"target":"present","response":"present","rt":1666,"correct":true,"confidence":5},{"trial_n":33,"min":81,"max":174,"target":"absent","response":"present","rt":2214,"correct":false,"confidence":5},{"trial_n":34,"min":79,"max":176,"target":"present","response":"present","rt":3381,"correct":true,"confidence":5},{"trial_n":35,"min":79,"max":176,"target":"present","response":"absent","rt":1033,"correct":false,"confidence":5},{"trial_n":36,"min":77,"max":178,"target":"absent","response":"absent","rt":1111,"correct":true,"confidence":5},{"trial_n":37,"min":77,"max":178,"target":"present","response":"present","rt":955,"correct":true,"confidence":5},{"trial_n":38,"min":79,"max":176,"target":"present","response":"present","rt":1211,"correct":true,"confidence":5},{"trial_n":39,"min":79,"max":176,"target":"present","response":"present","rt":1283,"correct":true,"confidence":5},{"trial_n":40,"min":81,"max":174,"target":"present","response":"present","rt":801,"correct":true,"confidence":5},{"trial_n":41,"min":81,"max":174,"target":"present","response":"present","rt":1670,"correct":true,"confidence":5},{"trial_n":42,"min":82,"max":173,"target":"absent","response":"present","rt":1358,"correct":false,"confidence":5},{"trial_n":43,"min":81,"max":174,"target":"present","response":"present","rt":1256,"correct":true,"confidence":5},{"trial_n":44,"min":81,"max":174,"target":"absent","response":"present","rt":2524,"correct":false,"confidence":3},{"trial_n":45,"min":80,"max":175,"target":"present","response":"present","rt":1079,"correct":true,"confidence":5},{"trial_n":46,"min":80,"max":175,"target":"present","response":"present","rt":3018,"correct":true,"confidence":4},{"trial_n":47,"min":81,"max":174,"target":"absent","response":"absent","rt":2829,"correct":true,"confidence":4},{"trial_n":48,"min":81,"max":174,"target":"absent","response":"present","rt":1828,"correct":false,"confidence":4},{"trial_n":49,"min":80,"max":175,"target":"present","response":"present","rt":1127,"correct":true,"confidence":5},{"trial_n":50,"min":80,"max":175,"target":"absent","response":"absent","rt":1294,"correct":true,"confidence":5},{"trial_n":51,"min":81,"max":174,"target":"absent","response":"absent","rt":1823,"correct":true,"confidence":4},{"trial_n":52,"min":81,"max":174,"target":"absent","response":"present","rt":1378,"correct":false,"confidence":5},{"trial_n":53,"min":80,"max":175,"target":"present","response":"present","rt":907,"correct":true,"confidence":5},{"trial_n":54,"min":80,"max":175,"target":"present","response":"present","rt":1055,"correct":true,"confidence":5},{"trial_n":55,"min":81,"max":174,"target":"absent","response":"absent","rt":3610,"correct":true,"confidence":2},{"trial_n":56,"min":81,"max":174,"target":"present","response":"present","rt":1095,"correct":true,"confidence":5},{"trial_n":57,"min":82,"max":173,"target":"present","response":"absent","rt":1686,"correct":false,"confidence":3},{"trial_n":58,"min":81,"max":174,"target":"absent","response":"absent","rt":1531,"correct":true,"confidence":4},{"trial_n":59,"min":81,"max":174,"target":"present","response":"present","rt":1972,"correct":true,"confidence":5},{"trial_n":60,"min":82,"max":173,"target":"absent","response":"absent","rt":1169,"correct":true,"confidence":5},{"trial_n":61,"min":82,"max":173,"target":"absent","response":"absent","rt":1561,"correct":true,"confidence":5},{"trial_n":62,"min":83,"max":172,"target":"present","response":"present","rt":934,"correct":true,"confidence":5},{"trial_n":63,"min":83,"max":172,"target":"present","response":"present","rt":873,"correct":true,"confidence":5},{"trial_n":64,"min":84,"max":171,"target":"absent","response":"present","rt":977,"correct":false,"confidence":5},{"trial_n":65,"min":83,"max":172,"target":"absent","response":"absent","rt":1474,"correct":true,"confidence":5},{"trial_n":66,"min":83,"max":172,"target":"present","response":"present","rt":1822,"correct":true,"confidence":4},{"trial_n":67,"min":84,"max":171,"target":"present","response":"present","rt":948,"correct":true,"confidence":4},{"trial_n":68,"min":84,"max":171,"target":"absent","response":"present","rt":796,"correct":false,"confidence":3},{"trial_n":69,"min":83,"max":172,"target":"present","response":"absent","rt":1016,"correct":false,"confidence":4},{"trial_n":70,"min":82,"max":173,"target":"absent","response":"absent","rt":2000,"correct":true,"confidence":4},{"trial_n":71,"min":41,"max":214,"target":"present","response":"present","rt":2235,"correct":true,"confidence":-1},{"trial_n":72,"min":41,"max":214,"target":"present","response":"present","rt":741,"correct":true,"confidence":-1},{"trial_n":73,"min":57,"max":198,"target":"absent","response":"absent","rt":1016,"correct":true,"confidence":-1},{"trial_n":74,"min":57,"max":198,"target":"absent","response":"absent","rt":1036,"correct":true,"confidence":-1},{"trial_n":75,"min":73,"max":182,"target":"present","response":"present","rt":872,"correct":true,"confidence":-1},{"trial_n":76,"min":73,"max":182,"target":"absent","response":"absent","rt":859,"correct":true,"confidence":-1},{"trial_n":77,"min":89,"max":166,"target":"present","response":"present","rt":1479,"correct":true,"confidence":-1},{"trial_n":78,"min":89,"max":166,"target":"present","response":"present","rt":1568,"correct":true,"confidence":-1},{"trial_n":79,"min":105,"max":150,"target":"present","response":"present","rt":817.00000000006,"correct":true,"confidence":-1},{"trial_n":80,"min":105,"max":150,"target":"present","response":"present","rt":1767,"correct":true,"confidence":-1},{"trial_n":81,"min":113,"max":142,"target":"present","response":"present","rt":794.99999999994,"correct":true,"confidence":-1},{"trial_n":82,"min":113,"max":142,"target":"absent","response":"present","rt":1923,"correct":false,"confidence":-1},{"trial_n":83,"min":105,"max":150,"target":"absent","response":"present","rt":860,"correct":false,"confidence":-1},{"trial_n":84,"min":97,"max":158,"target":"absent","response":"absent","rt":1104,"correct":true,"confidence":-1},{"trial_n":85,"min":97,"max":158,"target":"present","response":"absent","rt":1232,"correct":false,"confidence":-1},{"trial_n":86,"min":89,"max":166,"target":"present","response":"present","rt":979,"correct":true,"confidence":-1},{"trial_n":87,"min":89,"max":166,"target":"present","response":"present","rt":569,"correct":true,"confidence":-1},{"trial_n":88,"min":97,"max":158,"target":"present","response":"present","rt":889,"correct":true,"confidence":-1},{"trial_n":89,"min":97,"max":158,"target":"absent","response":"present","rt":942.00000000006,"correct":false,"confidence":-1},{"trial_n":90,"min":89,"max":166,"target":"present","response":"present","rt":1611.9999999999,"correct":true,"confidence":-1},{"trial_n":91,"min":89,"max":166,"target":"present","response":"present","rt":2413,"correct":true,"confidence":3},{"trial_n":92,"min":93,"max":162,"target":"absent","response":"present","rt":2447.0000000001,"correct":false,"confidence":3},{"trial_n":93,"min":89,"max":166,"target":"absent","response":"present","rt":919.00000000006,"correct":false,"confidence":5},{"trial_n":94,"min":85,"max":170,"target":"absent","response":"present","rt":918,"correct":false,"confidence":5},{"trial_n":95,"min":81,"max":174,"target":"present","response":"present","rt":1141.0000000001,"correct":true,"confidence":5},{"trial_n":96,"min":81,"max":174,"target":"present","response":"present","rt":1245,"correct":true,"confidence":5},{"trial_n":97,"min":85,"max":170,"target":"present","response":"present","rt":1093,"correct":true,"confidence":4},{"trial_n":98,"min":85,"max":170,"target":"absent","response":"present","rt":835,"correct":false,"confidence":5},{"trial_n":99,"min":81,"max":174,"target":"absent","response":"absent","rt":3242,"correct":true,"confidence":5},{"trial_n":100,"min":81,"max":174,"target":"absent","response":"present","rt":3284.0000000001,"correct":false,"confidence":5},{"trial_n":101,"min":79,"max":176,"target":"present","response":"present","rt":595.99999999994,"correct":true,"confidence":5},{"trial_n":102,"min":79,"max":176,"target":"present","response":"present","rt":634.00000000006,"correct":true,"confidence":5},{"trial_n":103,"min":81,"max":174,"target":"absent","response":"absent","rt":2553,"correct":true,"confidence":5},{"trial_n":104,"min":81,"max":174,"target":"absent","response":"present","rt":1305,"correct":false,"confidence":4},{"trial_n":105,"min":79,"max":176,"target":"absent","response":"present","rt":1537,"correct":false,"confidence":5},{"trial_n":106,"min":77,"max":178,"target":"absent","response":"present","rt":865,"correct":false,"confidence":5},{"trial_n":107,"min":75,"max":180,"target":"absent","response":"absent","rt":1451,"correct":true,"confidence":5},{"trial_n":108,"min":75,"max":180,"target":"absent","response":"absent","rt":1137.9999999999,"correct":true,"confidence":5},{"trial_n":109,"min":77,"max":178,"target":"present","response":"present","rt":823,"correct":true,"confidence":5},{"trial_n":110,"min":77,"max":178,"target":"absent","response":"absent","rt":2560,"correct":true,"confidence":5},{"trial_n":111,"min":78,"max":177,"target":"present","response":"present","rt":512,"correct":true,"confidence":5},{"trial_n":112,"min":78,"max":177,"target":"present","response":"present","rt":743,"correct":true,"confidence":5},{"trial_n":113,"min":79,"max":176,"target":"present","response":"present","rt":621,"correct":true,"confidence":5},{"trial_n":114,"min":79,"max":176,"target":"present","response":"present","rt":1001.0000000001,"correct":true,"confidence":5},{"trial_n":115,"min":80,"max":175,"target":"present","response":"present","rt":857,"correct":true,"confidence":5},{"trial_n":116,"min":80,"max":175,"target":"absent","response":"absent","rt":1858,"correct":true,"confidence":5},{"trial_n":117,"min":81,"max":174,"target":"absent","response":"present","rt":1121,"correct":false,"confidence":5},{"trial_n":118,"min":80,"max":175,"target":"present","response":"present","rt":808,"correct":true,"confidence":5},{"trial_n":119,"min":80,"max":175,"target":"absent","response":"absent","rt":1592,"correct":true,"confidence":5},{"trial_n":120,"min":81,"max":174,"target":"present","response":"present","rt":675,"correct":true,"confidence":5},{"trial_n":121,"min":81,"max":174,"target":"absent","response":"absent","rt":1964.9999999999,"correct":true,"confidence":5},{"trial_n":122,"min":82,"max":173,"target":"present","response":"present","rt":589,"correct":true,"confidence":5},{"trial_n":123,"min":82,"max":173,"target":"present","response":"present","rt":839,"correct":true,"confidence":5},{"trial_n":124,"min":83,"max":172,"target":"present","response":"present","rt":1032,"correct":true,"confidence":5},{"trial_n":125,"min":83,"max":172,"target":"absent","response":"absent","rt":2321,"correct":true,"confidence":4},{"trial_n":126,"min":84,"max":171,"target":"present","response":"present","rt":1360,"correct":true,"confidence":5},{"trial_n":127,"min":84,"max":171,"target":"absent","response":"present","rt":2094,"correct":false,"confidence":3},{"trial_n":128,"min":83,"max":172,"target":"absent","response":"present","rt":899,"correct":false,"confidence":5},{"trial_n":129,"min":82,"max":173,"target":"absent","response":"absent","rt":1232,"correct":true,"confidence":4},{"trial_n":130,"min":82,"max":173,"target":"absent","response":"absent","rt":1635.9999999999,"correct":true,"confidence":5},{"trial_n":131,"min":83,"max":172,"target":"absent","response":"absent","rt":989,"correct":true,"confidence":5},{"trial_n":132,"min":83,"max":172,"target":"present","response":"present","rt":1067,"correct":true,"confidence":5},{"trial_n":133,"min":84,"max":171,"target":"absent","response":"absent","rt":1222,"correct":true,"confidence":5},{"trial_n":134,"min":84,"max":171,"target":"absent","response":"present","rt":2806,"correct":false,"confidence":3},{"trial_n":135,"min":83,"max":172,"target":"present","response":"present","rt":778,"correct":true,"confidence":5},{"trial_n":136,"min":83,"max":172,"target":"present","response":"present","rt":724,"correct":true,"confidence":5},{"trial_n":137,"min":84,"max":171,"target":"absent","response":"present","rt":1118,"correct":false,"confidence":5},{"trial_n":138,"min":83,"max":172,"target":"present","response":"present","rt":562.00000000012,"correct":true,"confidence":5},{"trial_n":139,"min":83,"max":172,"target":"absent","response":"absent","rt":1237,"correct":true,"confidence":5},{"trial_n":140,"min":84,"max":171,"target":"present","response":"present","rt":889,"correct":true,"confidence":5}]