[{"trial_n":1,"min":25,"max":230,"target":"present","response":"absent","rt":7436.7000000477,"correct":false,"confidence":-1},{"trial_n":2,"min":25,"max":230,"target":"present","response":"present","rt":1894.5,"correct":true,"confidence":-1},{"trial_n":3,"min":25,"max":230,"target":"absent","response":"absent","rt":438.09999990463,"correct":true,"confidence":-1},{"trial_n":4,"min":41,"max":214,"target":"absent","response":"absent","rt":467.10000002384,"correct":true,"confidence":-1},{"trial_n":5,"min":41,"max":214,"target":"present","response":"present","rt":215.20000004768,"correct":true,"confidence":-1},{"trial_n":6,"min":57,"max":198,"target":"present","response":"present","rt":503.89999997616,"correct":true,"confidence":-1},{"trial_n":7,"min":57,"max":198,"target":"absent","response":"absent","rt":445.60000002384,"correct":true,"confidence":-1},{"trial_n":8,"min":73,"max":182,"target":"present","response":"absent","rt":425.19999992847,"correct":false,"confidence":-1},{"trial_n":9,"min":57,"max":198,"target":"absent","response":"absent","rt":439.69999992847,"correct":true,"confidence":-1},{"trial_n":10,"min":57,"max":198,"target":"present","response":"present","rt":276.29999995232,"correct":true,"confidence":-1},{"trial_n":11,"min":65,"max":190,"target":"absent","response":"absent","rt":254.79999995232,"correct":true,"confidence":-1},{"trial_n":12,"min":65,"max":190,"target":"absent","response":"absent","rt":302.5,"correct":true,"confidence":-1},{"trial_n":13,"min":73,"max":182,"target":"present","response":"present","rt":477.5,"correct":true,"confidence":-1},{"trial_n":14,"min":73,"max":182,"target":"absent","response":"absent","rt":341.40000009537,"correct":true,"confidence":-1},{"trial_n":15,"min":81,"max":174,"target":"absent","response":"absent","rt":367.70000004768,"correct":true,"confidence":-1},{"trial_n":16,"min":81,"max":174,"target":"absent","response":"absent","rt":375.10000002384,"correct":true,"confidence":-1},{"trial_n":17,"min":89,"max":166,"target":"present","response":"absent","rt":340.10000002384,"correct":false,"confidence":-1},{"trial_n":18,"min":81,"max":174,"target":"present","response":"present","rt":475.60000002384,"correct":true,"confidence":-1},{"trial_n":19,"min":81,"max":174,"target":"absent","response":"present","rt":404.5,"correct":false,"confidence":-1},{"trial_n":20,"min":73,"max":182,"target":"present","response":"present","rt":397.90000009537,"correct":true,"confidence":-1},{"trial_n":21,"min":73,"max":182,"target":"present","response":"present","rt":729.5,"correct":true,"confidence":2},{"trial_n":22,"min":77,"max":178,"target":"present","response":"absent","rt":488,"correct":false,"confidence":2},{"trial_n":23,"min":73,"max":182,"target":"absent","response":"absent","rt":651.69999992847,"correct":true,"confidence":3},{"trial_n":24,"min":73,"max":182,"target":"present","response":"present","rt":384.70000004768,"correct":true,"confidence":3},{"trial_n":25,"min":77,"max":178,"target":"present","response":"present","rt":551.5,"correct":true,"confidence":4},{"trial_n":26,"min":77,"max":178,"target":"present","response":"present","rt":455.20000004768,"correct":true,"confidence":4},{"trial_n":27,"min":81,"max":174,"target":"present","response":"present","rt":428.80000007153,"correct":true,"confidence":3},{"trial_n":28,"min":81,"max":174,"target":"absent","response":"absent","rt":385.59999990463,"correct":true,"confidence":3},{"trial_n":29,"min":85,"max":170,"target":"absent","response":"absent","rt":799.79999995232,"correct":true,"confidence":4},{"trial_n":30,"min":85,"max":170,"target":"absent","response":"absent","rt":431,"correct":true,"confidence":4},{"trial_n":31,"min":87,"max":168,"target":"present","response":"present","rt":493.60000002384,"correct":true,"confidence":3},{"trial_n":32,"min":87,"max":168,"target":"present","response":"absent","rt":362.29999995232,"correct":false,"confidence":4},{"trial_n":33,"min":85,"max":170,"target":"absent","response":"absent","rt":601.89999997616,"correct":true,"confidence":3},{"trial_n":34,"min":85,"max":170,"target":"absent","response":"absent","rt":385.5,"correct":true,"confidence":3},{"trial_n":35,"min":87,"max":168,"target":"present","response":"absent","rt":928.79999995232,"correct":false,"confidence":2},{"trial_n":36,"min":85,"max":170,"target":"absent","response":"absent","rt":389.10000002384,"correct":true,"confidence":3},{"trial_n":37,"min":85,"max":170,"target":"present","response":"present","rt":317,"correct":true,"confidence":4},{"trial_n":38,"min":87,"max":168,"target":"absent","response":"absent","rt":362.89999997616,"correct":true,"confidence":3},{"trial_n":39,"min":87,"max":168,"target":"present","response":"absent","rt":639.60000002384,"correct":false,"confidence":4},{"trial_n":40,"min":85,"max":170,"target":"present","response":"absent","rt":442.29999995232,"correct":false,"confidence":2},{"trial_n":41,"min":84,"max":171,"target":"absent","response":"absent","rt":534,"correct":true,"confidence":3},{"trial_n":42,"min":84,"max":171,"target":"absent","response":"absent","rt":478.60000002384,"correct":true,"confidence":3},{"trial_n":43,"min":85,"max":170,"target":"absent","response":"present","rt":735.39999997616,"correct":false,"confidence":3},{"trial_n":44,"min":84,"max":171,"target":"present","response":"present","rt":499.40000009537,"correct":true,"confidence":5},{"trial_n":45,"min":84,"max":171,"target":"present","response":"present","rt":634.29999995232,"correct":true,"confidence":3},{"trial_n":46,"min":85,"max":170,"target":"absent","response":"present","rt":474,"correct":false,"confidence":3},{"trial_n":47,"min":84,"max":171,"target":"present","response":"absent","rt":493.40000009537,"correct":false,"confidence":3},{"trial_n":48,"min":83,"max":172,"target":"present","response":"absent","rt":541,"correct":false,"confidence":2},{"trial_n":49,"min":82,"max":173,"target":"present","response":"absent","rt":384.10000002384,"correct":false,"confidence":3},{"trial_n":50,"min":81,"max":174,"target":"present","response":"absent","rt":394.39999997616,"correct":false,"confidence":3},{"trial_n":51,"min":80,"max":175,"target":"absent","response":"absent","rt":1039.6000000238,"correct":true,"confidence":3},{"trial_n":52,"min":80,"max":175,"target":"present","response":"present","rt":506.39999997616,"correct":true,"confidence":3},{"trial_n":53,"min":81,"max":174,"target":"present","response":"absent","rt":353.39999997616,"correct":false,"confidence":2},{"trial_n":54,"min":80,"max":175,"target":"absent","response":"absent","rt":657.89999997616,"correct":true,"confidence":3},{"trial_n":55,"min":80,"max":175,"target":"absent","response":"present","rt":716,"correct":false,"confidence":3},{"trial_n":56,"min":79,"max":176,"target":"absent","response":"present","rt":480.89999997616,"correct":false,"confidence":3},{"trial_n":57,"min":78,"max":177,"target":"absent","response":"present","rt":492.39999997616,"correct":false,"confidence":3},{"trial_n":58,"min":77,"max":178,"target":"absent","response":"absent","rt":323.80000007153,"correct":true,"confidence":3},{"trial_n":59,"min":77,"max":178,"target":"present","response":"present","rt":421.79999995232,"correct":true,"confidence":5},{"trial_n":60,"min":78,"max":177,"target":"absent","response":"absent","rt":557.39999997616,"correct":true,"confidence":2},{"trial_n":61,"min":78,"max":177,"target":"present","response":"present","rt":338.60000002384,"correct":true,"confidence":4},{"trial_n":62,"min":79,"max":176,"target":"present","response":"present","rt":314.40000009537,"correct":true,"confidence":5},{"trial_n":63,"min":79,"max":176,"target":"present","response":"present","rt":348.80000007153,"correct":true,"confidence":4},{"trial_n":64,"min":80,"max":175,"target":"absent","response":"absent","rt":430.10000002384,"correct":true,"confidence":3},{"trial_n":65,"min":80,"max":175,"target":"absent","response":"present","rt":506.60000002384,"correct":false,"confidence":2},{"trial_n":66,"min":79,"max":176,"target":"absent","response":"absent","rt":376.39999997616,"correct":true,"confidence":4},{"trial_n":67,"min":79,"max":176,"target":"absent","response":"absent","rt":475.70000004768,"correct":true,"confidence":4},{"trial_n":68,"min":80,"max":175,"target":"present","response":"present","rt":421.89999997616,"correct":true,"confidence":5},{"trial_n":69,"min":80,"max":175,"target":"present","response":"present","rt":453,"correct":true,"confidence":3},{"trial_n":70,"min":81,"max":174,"target":"absent","response":"absent","rt":433,"correct":true,"confidence":3},{"trial_n":71,"min":41,"max":214,"target":"present","response":"present","rt":1789.5,"correct":true,"confidence":-1},{"trial_n":72,"min":41,"max":214,"target":"present","response":"present","rt":681.69999992847,"correct":true,"confidence":-1},{"trial_n":73,"min":57,"max":198,"target":"absent","response":"absent","rt":2222.2999999523,"correct":true,"confidence":-1},{"trial_n":74,"min":57,"max":198,"target":"absent","response":"absent","rt":657.30000007153,"correct":true,"confidence":-1},{"trial_n":75,"min":73,"max":182,"target":"present","response":"present","rt":352,"correct":true,"confidence":-1},{"trial_n":76,"min":73,"max":182,"target":"absent","response":"absent","rt":420.70000004768,"correct":true,"confidence":-1},{"trial_n":77,"min":89,"max":166,"target":"present","response":"present","rt":595.30000007153,"correct":true,"confidence":-1},{"trial_n":78,"min":89,"max":166,"target":"present","response":"present","rt":1463.5999999046,"correct":true,"confidence":-1},{"trial_n":79,"min":105,"max":150,"target":"present","response":"present","rt":588.19999992847,"correct":true,"confidence":-1},{"trial_n":80,"min":105,"max":150,"target":"absent","response":"present","rt":431.69999992847,"correct":false,"confidence":-1},{"trial_n":81,"min":97,"max":158,"target":"present","response":"absent","rt":557.80000007153,"correct":false,"confidence":-1},{"trial_n":82,"min":89,"max":166,"target":"absent","response":"absent","rt":346.39999997616,"correct":true,"confidence":-1},{"trial_n":83,"min":89,"max":166,"target":"present","response":"absent","rt":545,"correct":false,"confidence":-1},{"trial_n":84,"min":81,"max":174,"target":"present","response":"present","rt":1101.3999999762,"correct":true,"confidence":-1},{"trial_n":85,"min":81,"max":174,"target":"absent","response":"present","rt":493.10000002384,"correct":false,"confidence":-1},{"trial_n":86,"min":73,"max":182,"target":"present","response":"present","rt":425.10000002384,"correct":true,"confidence":-1},{"trial_n":87,"min":73,"max":182,"target":"present","response":"present","rt":239.29999995232,"correct":true,"confidence":-1},{"trial_n":88,"min":81,"max":174,"target":"present","response":"present","rt":344,"correct":true,"confidence":-1},{"trial_n":89,"min":81,"max":174,"target":"absent","response":"absent","rt":405.79999995232,"correct":true,"confidence":-1},{"trial_n":90,"min":89,"max":166,"target":"present","response":"absent","rt":300,"correct":false,"confidence":-1},{"trial_n":91,"min":85,"max":170,"target":"present","response":"present","rt":894.69999992847,"correct":true,"confidence":3},{"trial_n":92,"min":85,"max":170,"target":"absent","response":"present","rt":1030.8999999762,"correct":false,"confidence":1},{"trial_n":93,"min":81,"max":174,"target":"present","response":"present","rt":497.69999992847,"correct":true,"confidence":4},{"trial_n":94,"min":81,"max":174,"target":"present","response":"present","rt":243.5,"correct":true,"confidence":5},{"trial_n":95,"min":85,"max":170,"target":"absent","response":"absent","rt":770.79999995232,"correct":true,"confidence":2},{"trial_n":96,"min":85,"max":170,"target":"absent","response":"present","rt":417,"correct":false,"confidence":3},{"trial_n":97,"min":81,"max":174,"target":"absent","response":"present","rt":537,"correct":false,"confidence":3},{"trial_n":98,"min":77,"max":178,"target":"present","response":"present","rt":1787.3000000715,"correct":true,"confidence":2},{"trial_n":99,"min":77,"max":178,"target":"present","response":"present","rt":542.5,"correct":true,"confidence":2},{"trial_n":100,"min":81,"max":174,"target":"present","response":"present","rt":186.90000009537,"correct":true,"confidence":5},{"trial_n":101,"min":81,"max":174,"target":"absent","response":"absent","rt":661.79999995232,"correct":true,"confidence":4},{"trial_n":102,"min":83,"max":172,"target":"absent","response":"present","rt":676.80000007153,"correct":false,"confidence":2},{"trial_n":103,"min":81,"max":174,"target":"present","response":"present","rt":328.29999995232,"correct":true,"confidence":4},{"trial_n":104,"min":81,"max":174,"target":"absent","response":"absent","rt":694.30000007153,"correct":true,"confidence":3},{"trial_n":105,"min":83,"max":172,"target":"absent","response":"present","rt":564.10000002384,"correct":false,"confidence":3},{"trial_n":106,"min":81,"max":174,"target":"absent","response":"present","rt":755.30000007153,"correct":false,"confidence":2},{"trial_n":107,"min":79,"max":176,"target":"present","response":"present","rt":301.69999992847,"correct":true,"confidence":4},{"trial_n":108,"min":79,"max":176,"target":"absent","response":"absent","rt":570.09999990463,"correct":true,"confidence":4},{"trial_n":109,"min":81,"max":174,"target":"present","response":"present","rt":417.79999995232,"correct":true,"confidence":5},{"trial_n":110,"min":81,"max":174,"target":"present","response":"present","rt":295.19999992847,"correct":true,"confidence":4},{"trial_n":111,"min":82,"max":173,"target":"absent","response":"absent","rt":464.20000004768,"correct":true,"confidence":4},{"trial_n":112,"min":82,"max":173,"target":"present","response":"present","rt":385.10000002384,"correct":true,"confidence":4},{"trial_n":113,"min":83,"max":172,"target":"absent","response":"present","rt":484.70000004768,"correct":false,"confidence":3},{"trial_n":114,"min":82,"max":173,"target":"absent","response":"present","rt":467.5,"correct":false,"confidence":3},{"trial_n":115,"min":81,"max":174,"target":"absent","response":"present","rt":485.69999992847,"correct":false,"confidence":2},{"trial_n":116,"min":80,"max":175,"target":"present","response":"present","rt":151.30000007153,"correct":true,"confidence":5},{"trial_n":117,"min":80,"max":175,"target":"present","response":"present","rt":292.70000004768,"correct":true,"confidence":5},{"trial_n":118,"min":81,"max":174,"target":"present","response":"present","rt":310.5,"correct":true,"confidence":5},{"trial_n":119,"min":81,"max":174,"target":"present","response":"present","rt":962.10000002384,"correct":true,"confidence":2},{"trial_n":120,"min":82,"max":173,"target":"absent","response":"present","rt":449.5,"correct":false,"confidence":4},{"trial_n":121,"min":81,"max":174,"target":"absent","response":"absent","rt":945.19999992847,"correct":true,"confidence":5},{"trial_n":122,"min":81,"max":174,"target":"absent","response":"absent","rt":540.39999997616,"correct":true,"confidence":5},{"trial_n":123,"min":82,"max":173,"target":"absent","response":"present","rt":417.70000004768,"correct":false,"confidence":4},{"trial_n":124,"min":81,"max":174,"target":"absent","response":"absent","rt":434.5,"correct":true,"confidence":3},{"trial_n":125,"min":81,"max":174,"target":"absent","response":"absent","rt":523.80000007153,"correct":true,"confidence":3},{"trial_n":126,"min":82,"max":173,"target":"present","response":"present","rt":472,"correct":true,"confidence":3},{"trial_n":127,"min":82,"max":173,"target":"present","response":"present","rt":504.89999997616,"correct":true,"confidence":2},{"trial_n":128,"min":83,"max":172,"target":"present","response":"present","rt":284.89999997616,"correct":true,"confidence":4},{"trial_n":129,"min":83,"max":172,"target":"present","response":"present","rt":590.60000002384,"correct":true,"confidence":3},{"trial_n":130,"min":84,"max":171,"target":"absent","response":"absent","rt":600.69999992847,"correct":true,"confidence":3},{"trial_n":131,"min":84,"max":171,"target":"absent","response":"absent","rt":1083.8999999762,"correct":true,"confidence":2},{"trial_n":132,"min":85,"max":170,"target":"present","response":"present","rt":973.60000002384,"correct":true,"confidence":3},{"trial_n":133,"min":85,"max":170,"target":"absent","response":"present","rt":556.70000004768,"correct":false,"confidence":1},{"trial_n":134,"min":84,"max":171,"target":"absent","response":"absent","rt":796.60000002384,"correct":true,"confidence":4},{"trial_n":135,"min":84,"max":171,"target":"present","response":"present","rt":729.70000004768,"correct":true,"confidence":2},{"trial_n":136,"min":85,"max":170,"target":"absent","response":"present","rt":822.10000002384,"correct":false,"confidence":1},{"trial_n":137,"min":84,"max":171,"target":"absent","response":"present","rt":425,"correct":false,"confidence":3},{"trial_n":138,"min":83,"max":172,"target":"absent","response":"present","rt":535.80000007153,"correct":false,"confidence":2},{"trial_n":139,"min":82,"max":173,"target":"present","response":"present","rt":394,"correct":true,"confidence":4},{"trial_n":140,"min":82,"max":173,"target":"present","response":"absent","rt":684.29999995232,"correct":false,"confidence":2}]