[{"trial_n":1,"span":8,"encoder":"56790483","distractor":"56790487","target":"present","response":"present","rt":"4679.700000003","correct":true,"confidence":-1},{"trial_n":2,"span":8,"encoder":"22761205","distractor":"22761225","target":"present","response":"present","rt":"2559.6000000089","correct":true,"confidence":-1},{"trial_n":3,"span":10,"encoder":"4269649802","distractor":"4269649602","target":"absent","response":"present","rt":"1773.700000003","correct":false,"confidence":-1},{"trial_n":4,"span":8,"encoder":"65943438","distractor":"05943438","target":"absent","response":"absent","rt":"2150.200000003","correct":true,"confidence":-1},{"trial_n":5,"span":8,"encoder":"75400921","distractor":"76400921","target":"present","response":"present","rt":"1331.1000000089","correct":true,"confidence":-1},{"trial_n":6,"span":10,"encoder":"5496320178","distractor":"5496321178","target":"present","response":"absent","rt":"1751.900000006","correct":false,"confidence":-1},{"trial_n":7,"span":8,"encoder":"08478326","distractor":"08468326","target":"absent","response":"present","rt":"1303","correct":false,"confidence":-1},{"trial_n":8,"span":6,"encoder":"520241","distractor":"520243","target":"present","response":"present","rt":"1461.6000000089","correct":true,"confidence":-1},{"trial_n":9,"span":6,"encoder":"723845","distractor":"723145","target":"present","response":"present","rt":"1727.5","correct":true,"confidence":-1},{"trial_n":10,"span":8,"encoder":"49317509","distractor":"49319509","target":"absent","response":"absent","rt":"2179.6999999881","correct":true,"confidence":-1},{"trial_n":11,"span":8,"encoder":"49444775","distractor":"29444775","target":"present","response":"present","rt":"2231.599999994","correct":true,"confidence":-1},{"trial_n":12,"span":9,"encoder":"550893553","distractor":"550893552","target":"present","response":"present","rt":"2244.400000006","correct":true,"confidence":-1},{"trial_n":13,"span":9,"encoder":"724138664","distractor":"724938664","target":"absent","response":"present","rt":"1270.700000003","correct":false,"confidence":-1},{"trial_n":14,"span":8,"encoder":"04153554","distractor":"04163554","target":"absent","response":"present","rt":"854.80000001192","correct":false,"confidence":-1},{"trial_n":15,"span":7,"encoder":"9754588","distractor":"9754088","target":"absent","response":"absent","rt":"2350.099999994","correct":true,"confidence":-1},{"trial_n":16,"span":7,"encoder":"5886272","distractor":"2886272","target":"absent","response":"present","rt":"1341.6999999881","correct":false,"confidence":-1},{"trial_n":17,"span":6,"encoder":"568051","distractor":"508051","target":"absent","response":"present","rt":"1682.6999999881","correct":false,"confidence":-1},{"trial_n":18,"span":5,"encoder":"79278","distractor":"79478","target":"present","response":"present","rt":"1346.1000000089","correct":true,"confidence":-1},{"trial_n":19,"span":5,"encoder":"99732","distractor":"99432","target":"present","response":"present","rt":"1077.299999997","correct":true,"confidence":-1},{"trial_n":20,"span":6,"encoder":"302276","distractor":"102276","target":"absent","response":"absent","rt":"1824.6999999881","correct":true,"confidence":-1},{"trial_n":21,"span":6,"encoder":"107415","distractor":"107405","target":"present","response":"present","rt":"2441.3999999911","correct":true,"confidence":5},{"trial_n":22,"span":7,"encoder":"5492525","distractor":"5442525","target":"present","response":"present","rt":"3150.099999994","correct":true,"confidence":4},{"trial_n":23,"span":7,"encoder":"7726638","distractor":"7723638","target":"present","response":"present","rt":"2984.200000003","correct":true,"confidence":3},{"trial_n":24,"span":8,"encoder":"98436112","distractor":"98446112","target":"absent","response":"absent","rt":"2929","correct":true,"confidence":4},{"trial_n":25,"span":8,"encoder":"01518659","distractor":"01538659","target":"present","response":"present","rt":"2741.799999997","correct":true,"confidence":3},{"trial_n":26,"span":9,"encoder":"104737292","distractor":"104737892","target":"present","response":"absent","rt":"4274.6999999881","correct":false,"confidence":3},{"trial_n":27,"span":8,"encoder":"29132430","distractor":"29132410","target":"absent","response":"absent","rt":"2836.1999999881","correct":true,"confidence":2},{"trial_n":28,"span":8,"encoder":"90997659","distractor":"90992659","target":"present","response":"present","rt":"2646.099999994","correct":true,"confidence":2},{"trial_n":29,"span":9,"encoder":"799039891","distractor":"799038891","target":"absent","response":"present","rt":"3140.200000003","correct":false,"confidence":2},{"trial_n":30,"span":8,"encoder":"15385982","distractor":"15385282","target":"present","response":"present","rt":"1544","correct":true,"confidence":3},{"trial_n":31,"span":8,"encoder":"20726890","distractor":"20736890","target":"absent","response":"absent","rt":"3797.3999999911","correct":true,"confidence":1},{"trial_n":32,"span":9,"encoder":"123312847","distractor":"128312847","target":"absent","response":"absent","rt":"2362.3000000119","correct":true,"confidence":4},{"trial_n":33,"span":9,"encoder":"430509533","distractor":"430509583","target":"absent","response":"absent","rt":"2365.8999999911","correct":true,"confidence":4},{"trial_n":34,"span":10,"encoder":"3565502512","distractor":"3565502518","target":"absent","response":"absent","rt":"2607.700000003","correct":true,"confidence":5},{"trial_n":35,"span":10,"encoder":"6339516196","distractor":"6339216196","target":"absent","response":"present","rt":"2924.200000003","correct":false,"confidence":4},{"trial_n":36,"span":9,"encoder":"618486614","distractor":"618489614","target":"absent","response":"absent","rt":"3115.1999999881","correct":true,"confidence":3},{"trial_n":37,"span":9,"encoder":"126895366","distractor":"126895396","target":"present","response":"present","rt":"4818.799999997","correct":true,"confidence":3},{"trial_n":38,"span":10,"encoder":"2320365742","distractor":"2320362742","target":"absent","response":"present","rt":"2191.299999997","correct":false,"confidence":4},{"trial_n":39,"span":9,"encoder":"013745054","distractor":"013745058","target":"absent","response":"absent","rt":"3557.1999999881","correct":true,"confidence":4},{"trial_n":40,"span":9,"encoder":"700874388","distractor":"700874288","target":"present","response":"present","rt":"3168.8999999911","correct":true,"confidence":2},{"trial_n":41,"span":10,"encoder":"9553434438","distractor":"9553434439","target":"present","response":"present","rt":"1394.1999999881","correct":true,"confidence":4},{"trial_n":42,"span":10,"encoder":"9037446227","distractor":"9037441227","target":"absent","response":"present","rt":"4180.299999997","correct":false,"confidence":3},{"trial_n":43,"span":9,"encoder":"444316920","distractor":"444396920","target":"absent","response":"present","rt":"4028.5","correct":false,"confidence":3},{"trial_n":44,"span":8,"encoder":"49813882","distractor":"49813582","target":"absent","response":"absent","rt":"2793.5","correct":true,"confidence":4},{"trial_n":45,"span":8,"encoder":"19910878","distractor":"19910870","target":"absent","response":"present","rt":"2739.299999997","correct":false,"confidence":5},{"trial_n":46,"span":7,"encoder":"6045293","distractor":"6245293","target":"present","response":"present","rt":"3084.6999999881","correct":true,"confidence":5},{"trial_n":47,"span":7,"encoder":"4374018","distractor":"4374038","target":"present","response":"present","rt":"3125.200000003","correct":true,"confidence":3},{"trial_n":48,"span":8,"encoder":"58481555","distractor":"58491555","target":"absent","response":"absent","rt":"2656.799999997","correct":true,"confidence":3},{"trial_n":49,"span":8,"encoder":"53319224","distractor":"93319224","target":"absent","response":"absent","rt":"2026.5","correct":true,"confidence":4},{"trial_n":50,"span":9,"encoder":"862628766","distractor":"862628266","target":"absent","response":"absent","rt":"2125.700000003","correct":true,"confidence":4},{"trial_n":51,"span":9,"encoder":"599429826","distractor":"599449826","target":"absent","response":"present","rt":"3375.299999997","correct":false,"confidence":4},{"trial_n":52,"span":8,"encoder":"72246211","distractor":"72246271","target":"present","response":"present","rt":"1868.700000003","correct":true,"confidence":5},{"trial_n":53,"span":8,"encoder":"85959715","distractor":"87959715","target":"absent","response":"present","rt":"2388.599999994","correct":false,"confidence":4},{"trial_n":54,"span":7,"encoder":"9912664","distractor":"9912634","target":"present","response":"absent","rt":"2170.5","correct":false,"confidence":5},{"trial_n":55,"span":6,"encoder":"585488","distractor":"565488","target":"present","response":"present","rt":"2133.6999999881","correct":true,"confidence":5},{"trial_n":56,"span":6,"encoder":"061464","distractor":"061964","target":"present","response":"present","rt":"1569.599999994","correct":true,"confidence":5},{"trial_n":57,"span":7,"encoder":"1198653","distractor":"1198953","target":"absent","response":"absent","rt":"2986.3999999911","correct":true,"confidence":5},{"trial_n":58,"span":7,"encoder":"4012389","distractor":"4012349","target":"present","response":"present","rt":"2786.599999994","correct":true,"confidence":4},{"trial_n":59,"span":8,"encoder":"80252037","distractor":"80251037","target":"present","response":"present","rt":"2570.6000000089","correct":true,"confidence":4},{"trial_n":60,"span":8,"encoder":"57114368","distractor":"57113368","target":"present","response":"present","rt":"2498.3999999911","correct":true,"confidence":4},{"trial_n":61,"span":9,"encoder":"102908392","distractor":"102908492","target":"present","response":"present","rt":"2407.799999997","correct":true,"confidence":4},{"trial_n":62,"span":9,"encoder":"313758368","distractor":"613758368","target":"present","response":"present","rt":"2565.3000000119","correct":true,"confidence":3},{"trial_n":63,"span":10,"encoder":"4510454094","distractor":"4580454094","target":"present","response":"present","rt":"3361.900000006","correct":true,"confidence":4},{"trial_n":64,"span":10,"encoder":"8694967270","distractor":"8604967270","target":"absent","response":"absent","rt":"3677.799999997","correct":true,"confidence":2},{"trial_n":65,"span":11,"encoder":"29344116935","distractor":"29344156935","target":"present","response":"present","rt":"3033.8999999911","correct":true,"confidence":4},{"trial_n":66,"span":11,"encoder":"78839268034","distractor":"78839278034","target":"absent","response":"present","rt":"2876.5","correct":false,"confidence":2},{"trial_n":67,"span":10,"encoder":"8978577265","distractor":"8978577255","target":"absent","response":"absent","rt":"2961.099999994","correct":true,"confidence":3},{"trial_n":68,"span":10,"encoder":"0350959042","distractor":"0350999042","target":"present","response":"present","rt":"4243.900000006","correct":true,"confidence":4},{"trial_n":69,"span":11,"encoder":"23254888436","distractor":"03254888436","target":"present","response":"present","rt":"3601.700000003","correct":true,"confidence":3},{"trial_n":70,"span":11,"encoder":"89767870221","distractor":"89767870241","target":"present","response":"absent","rt":"3796.400000006","correct":false,"confidence":3},{"trial_n":71,"span":8,"encoder":"92738893","distractor":"92738897","target":"present","response":"present","rt":"5338.3999999911","correct":true,"confidence":-1},{"trial_n":72,"span":8,"encoder":"89820695","distractor":"84820695","target":"present","response":"present","rt":"5163.900000006","correct":true,"confidence":-1},{"trial_n":73,"span":9,"encoder":"089497903","distractor":"089407903","target":"absent","response":"absent","rt":"5931.299999997","correct":true,"confidence":-1},{"trial_n":74,"span":9,"encoder":"030960441","distractor":"030960421","target":"absent","response":"absent","rt":"3276.6999999881","correct":true,"confidence":-1},{"trial_n":75,"span":10,"encoder":"0895804861","distractor":"0395804861","target":"present","response":"present","rt":"3571.200000003","correct":true,"confidence":-1},{"trial_n":76,"span":10,"encoder":"5597149357","distractor":"5527149357","target":"absent","response":"absent","rt":"2503.1999999881","correct":true,"confidence":-1},{"trial_n":77,"span":11,"encoder":"18809268184","distractor":"18809298184","target":"present","response":"present","rt":"4666.799999997","correct":true,"confidence":-1},{"trial_n":78,"span":11,"encoder":"98262396145","distractor":"98262396545","target":"present","response":"present","rt":"2589.6999999881","correct":true,"confidence":-1},{"trial_n":79,"span":12,"encoder":"151655146295","distractor":"151655146245","target":"present","response":"absent","rt":"6957.200000003","correct":false,"confidence":-1},{"trial_n":80,"span":11,"encoder":"66229361158","distractor":"66229371158","target":"absent","response":"absent","rt":"4336.1999999881","correct":true,"confidence":-1},{"trial_n":81,"span":11,"encoder":"75334644966","distractor":"75534644966","target":"present","response":"absent","rt":"3338.799999997","correct":false,"confidence":-1},{"trial_n":82,"span":10,"encoder":"5471690002","distractor":"5471390002","target":"present","response":"absent","rt":"988.09999999404","correct":false,"confidence":-1},{"trial_n":83,"span":9,"encoder":"625974467","distractor":"625974468","target":"present","response":"absent","rt":"798.79999999702","correct":false,"confidence":-1},{"trial_n":84,"span":8,"encoder":"66681991","distractor":"66981991","target":"present","response":"present","rt":"708.10000000894","correct":true,"confidence":-1},{"trial_n":85,"span":8,"encoder":"75035418","distractor":"75095418","target":"present","response":"present","rt":"3634.5","correct":true,"confidence":-1},{"trial_n":86,"span":9,"encoder":"983127694","distractor":"983126694","target":"absent","response":"present","rt":"2942.299999997","correct":false,"confidence":-1},{"trial_n":87,"span":8,"encoder":"30480555","distractor":"36480555","target":"present","response":"present","rt":"1328.299999997","correct":true,"confidence":-1},{"trial_n":88,"span":8,"encoder":"55657382","distractor":"55657384","target":"present","response":"present","rt":"1730","correct":true,"confidence":-1},{"trial_n":89,"span":9,"encoder":"181396231","distractor":"581396231","target":"present","response":"present","rt":"2372.299999997","correct":true,"confidence":-1},{"trial_n":90,"span":9,"encoder":"206477821","distractor":"206477826","target":"absent","response":"present","rt":"4219.900000006","correct":false,"confidence":-1},{"trial_n":91,"span":8,"encoder":"18293994","distractor":"18290994","target":"absent","response":"absent","rt":"2336.400000006","correct":true,"confidence":5},{"trial_n":92,"span":8,"encoder":"86906624","distractor":"26906624","target":"present","response":"present","rt":"5303.400000006","correct":true,"confidence":3},{"trial_n":93,"span":9,"encoder":"224335448","distractor":"224335446","target":"absent","response":"absent","rt":"7697.1999999881","correct":true,"confidence":2},{"trial_n":94,"span":9,"encoder":"531700277","distractor":"531700477","target":"absent","response":"absent","rt":"9468.6000000089","correct":true,"confidence":2},{"trial_n":95,"span":10,"encoder":"6705825347","distractor":"6805825347","target":"present","response":"absent","rt":"4816.200000003","correct":false,"confidence":2},{"trial_n":96,"span":9,"encoder":"433693991","distractor":"433693191","target":"present","response":"present","rt":"4971.799999997","correct":true,"confidence":3},{"trial_n":97,"span":9,"encoder":"903736814","distractor":"903736214","target":"absent","response":"absent","rt":"6124.6000000089","correct":true,"confidence":3},{"trial_n":98,"span":10,"encoder":"0182926584","distractor":"0182923584","target":"absent","response":"present","rt":"4239.5","correct":false,"confidence":3},{"trial_n":99,"span":9,"encoder":"568563817","distractor":"368563817","target":"absent","response":"absent","rt":"2164.799999997","correct":true,"confidence":4},{"trial_n":100,"span":9,"encoder":"676974722","distractor":"576974722","target":"present","response":"present","rt":"1735.799999997","correct":true,"confidence":3},{"trial_n":101,"span":10,"encoder":"6878289996","distractor":"6878289976","target":"absent","response":"absent","rt":"4314.8000000119","correct":true,"confidence":3},{"trial_n":102,"span":10,"encoder":"1234876765","distractor":"1234876775","target":"absent","response":"absent","rt":"3804.900000006","correct":true,"confidence":4},{"trial_n":103,"span":11,"encoder":"87418823881","distractor":"87408823881","target":"present","response":"present","rt":"2403.700000003","correct":true,"confidence":5},{"trial_n":104,"span":11,"encoder":"49391372031","distractor":"49391372038","target":"present","response":"present","rt":"3801.6999999881","correct":true,"confidence":5},{"trial_n":105,"span":12,"encoder":"972713089906","distractor":"972713039906","target":"absent","response":"present","rt":"6305.799999997","correct":false,"confidence":3},{"trial_n":106,"span":11,"encoder":"04640667167","distractor":"04680667167","target":"present","response":"present","rt":"2743","correct":true,"confidence":4},{"trial_n":107,"span":11,"encoder":"16013541359","distractor":"16013341359","target":"present","response":"present","rt":"5477.700000003","correct":true,"confidence":4},{"trial_n":108,"span":12,"encoder":"333735122554","distractor":"333735122552","target":"present","response":"present","rt":"6210.799999997","correct":true,"confidence":2},{"trial_n":109,"span":12,"encoder":"561535009193","distractor":"561535009198","target":"present","response":"present","rt":"2410.6000000089","correct":true,"confidence":5},{"trial_n":110,"span":13,"encoder":"0335254141225","distractor":"0339254141225","target":"absent","response":"absent","rt":"5099.299999997","correct":true,"confidence":3},{"trial_n":111,"span":13,"encoder":"0626226278042","distractor":"0626226978042","target":"absent","response":"absent","rt":"6454.1000000089","correct":true,"confidence":4},{"trial_n":112,"span":14,"encoder":"07970500501996","distractor":"07970550501996","target":"absent","response":"present","rt":"6544.299999997","correct":false,"confidence":3},{"trial_n":113,"span":13,"encoder":"6152628020128","distractor":"6152628040128","target":"absent","response":"absent","rt":"4526.3000000119","correct":true,"confidence":3},{"trial_n":114,"span":13,"encoder":"4336603584502","distractor":"4336603784502","target":"absent","response":"absent","rt":"6394","correct":true,"confidence":3},{"trial_n":115,"span":14,"encoder":"42763333580256","distractor":"42963333580256","target":"absent","response":"absent","rt":"8139.1000000089","correct":true,"confidence":2},{"trial_n":116,"span":14,"encoder":"31694079945146","distractor":"31690079945146","target":"absent","response":"present","rt":"5411.3000000119","correct":false,"confidence":1},{"trial_n":117,"span":13,"encoder":"9089466455604","distractor":"9089466458604","target":"present","response":"present","rt":"5117.5","correct":true,"confidence":4},{"trial_n":118,"span":13,"encoder":"7406597560902","distractor":"6406597560902","target":"absent","response":"absent","rt":"2838.5","correct":true,"confidence":2},{"trial_n":119,"span":14,"encoder":"15513992765686","distractor":"15513992765606","target":"present","response":"present","rt":"3035.400000006","correct":true,"confidence":3},{"trial_n":120,"span":14,"encoder":"64717756132285","distractor":"64757756132285","target":"present","response":"absent","rt":"7174.799999997","correct":false,"confidence":1},{"trial_n":121,"span":13,"encoder":"2047186982849","distractor":"2047186902849","target":"absent","response":"present","rt":"6432.700000003","correct":false,"confidence":2},{"trial_n":122,"span":12,"encoder":"422070646012","distractor":"412070646012","target":"absent","response":"present","rt":"2643.099999994","correct":false,"confidence":4},{"trial_n":123,"span":11,"encoder":"98011494003","distractor":"92011494003","target":"present","response":"present","rt":"3005.700000003","correct":true,"confidence":2},{"trial_n":124,"span":11,"encoder":"06987354242","distractor":"05987354242","target":"absent","response":"absent","rt":"2485.700000003","correct":true,"confidence":3},{"trial_n":125,"span":12,"encoder":"184944910512","distractor":"184944610512","target":"present","response":"present","rt":"4121.700000003","correct":true,"confidence":3},{"trial_n":126,"span":12,"encoder":"110324465817","distractor":"110324465717","target":"absent","response":"absent","rt":"4956.700000003","correct":true,"confidence":3},{"trial_n":127,"span":13,"encoder":"2620513531055","distractor":"2620533531055","target":"present","response":"present","rt":"6416.700000003","correct":true,"confidence":2},{"trial_n":128,"span":13,"encoder":"6199781875022","distractor":"6199761875022","target":"present","response":"present","rt":"3848.200000003","correct":true,"confidence":3},{"trial_n":129,"span":14,"encoder":"47868838693316","distractor":"42868838693316","target":"absent","response":"absent","rt":"4965.099999994","correct":true,"confidence":1},{"trial_n":130,"span":14,"encoder":"35772551711388","distractor":"35772551211388","target":"absent","response":"present","rt":"1024","correct":false,"confidence":1},{"trial_n":131,"span":13,"encoder":"8060646063729","distractor":"8060646068729","target":"present","response":"present","rt":"4263.599999994","correct":true,"confidence":4},{"trial_n":132,"span":13,"encoder":"4087159022255","distractor":"4083159022255","target":"present","response":"present","rt":"4505.599999994","correct":true,"confidence":3},{"trial_n":133,"span":14,"encoder":"80750106445500","distractor":"80250106445500","target":"absent","response":"absent","rt":"3720","correct":true,"confidence":2},{"trial_n":134,"span":14,"encoder":"16220498794979","distractor":"16220495794979","target":"absent","response":"present","rt":"2099.700000003","correct":false,"confidence":1},{"trial_n":135,"span":13,"encoder":"7528444375475","distractor":"7528444875475","target":"present","response":"present","rt":"49836.099999994","correct":true,"confidence":1},{"trial_n":136,"span":13,"encoder":"3482761970365","distractor":"3482261970365","target":"present","response":"absent","rt":"2779.900000006","correct":false,"confidence":3},{"trial_n":137,"span":12,"encoder":"901343267972","distractor":"901343167972","target":"absent","response":"absent","rt":"5899.6000000089","correct":true,"confidence":3},{"trial_n":138,"span":12,"encoder":"296052380152","distractor":"296052380155","target":"absent","response":"absent","rt":"3679","correct":true,"confidence":4},{"trial_n":139,"span":13,"encoder":"0568314030277","distractor":"0568314060277","target":"absent","response":"absent","rt":"2766.299999997","correct":true,"confidence":3},{"trial_n":140,"span":13,"encoder":"2393040553128","distractor":"8393040553128","target":"present","response":"present","rt":"4237.799999997","correct":true,"confidence":2}]