[{"trial_n":1,"n_dots":4.25,"target":"right","response":"right","rt":7994.1000001431,"correct":true,"confidence":-1},{"trial_n":2,"n_dots":4.25,"target":"right","response":"right","rt":775.79999995232,"correct":true,"confidence":-1},{"trial_n":3,"n_dots":3.85,"target":"left","response":"left","rt":403.70000004768,"correct":true,"confidence":-1},{"trial_n":4,"n_dots":3.85,"target":"right","response":"right","rt":585.89999985695,"correct":true,"confidence":-1},{"trial_n":5,"n_dots":3.45,"target":"right","response":"left","rt":283.59999990463,"correct":false,"confidence":-1},{"trial_n":6,"n_dots":3.85,"target":"left","response":"left","rt":473.39999985695,"correct":true,"confidence":-1},{"trial_n":7,"n_dots":3.85,"target":"right","response":"left","rt":638,"correct":false,"confidence":-1},{"trial_n":8,"n_dots":4.05,"target":"left","response":"left","rt":322.5,"correct":true,"confidence":-1},{"trial_n":9,"n_dots":4.05,"target":"right","response":"right","rt":272.09999990463,"correct":true,"confidence":-1},{"trial_n":10,"n_dots":3.85,"target":"right","response":"right","rt":267.70000004768,"correct":true,"confidence":-1},{"trial_n":11,"n_dots":3.85,"target":"right","response":"left","rt":324.40000009537,"correct":false,"confidence":-1},{"trial_n":12,"n_dots":4.05,"target":"right","response":"right","rt":2952.7999999523,"correct":true,"confidence":-1},{"trial_n":13,"n_dots":4.05,"target":"right","response":"right","rt":304.5,"correct":true,"confidence":-1},{"trial_n":14,"n_dots":3.95,"target":"left","response":"left","rt":238.70000004768,"correct":true,"confidence":-1},{"trial_n":15,"n_dots":3.95,"target":"right","response":"right","rt":266,"correct":true,"confidence":-1},{"trial_n":16,"n_dots":3.85,"target":"right","response":"right","rt":340.5,"correct":true,"confidence":-1},{"trial_n":17,"n_dots":3.85,"target":"left","response":"left","rt":263.69999980927,"correct":true,"confidence":-1},{"trial_n":18,"n_dots":3.75,"target":"left","response":"left","rt":421.69999980927,"correct":true,"confidence":-1},{"trial_n":19,"n_dots":3.75,"target":"left","response":"left","rt":64.599999904633,"correct":true,"confidence":-1},{"trial_n":20,"n_dots":3.65,"target":"left","response":"right","rt":326.5,"correct":false,"confidence":-1},{"trial_n":21,"n_dots":3.75,"target":"left","response":"left","rt":862.70000004768,"correct":true,"confidence":4},{"trial_n":22,"n_dots":3.75,"target":"left","response":"right","rt":1049.4000000954,"correct":false,"confidence":2},{"trial_n":23,"n_dots":3.85,"target":"left","response":"left","rt":885.70000004768,"correct":true,"confidence":4},{"trial_n":24,"n_dots":3.85,"target":"left","response":"left","rt":934.90000009537,"correct":true,"confidence":2},{"trial_n":25,"n_dots":3.75,"target":"left","response":"right","rt":490.79999995232,"correct":false,"confidence":2},{"trial_n":26,"n_dots":3.85,"target":"left","response":"left","rt":346,"correct":true,"confidence":3},{"trial_n":27,"n_dots":3.85,"target":"right","response":"right","rt":631.5,"correct":true,"confidence":4},{"trial_n":28,"n_dots":3.75,"target":"left","response":"left","rt":761.5,"correct":true,"confidence":3},{"trial_n":29,"n_dots":3.75,"target":"right","response":"right","rt":833,"correct":true,"confidence":4},{"trial_n":30,"n_dots":3.65,"target":"left","response":"left","rt":1112.7000000477,"correct":true,"confidence":2},{"trial_n":31,"n_dots":3.65,"target":"left","response":"right","rt":1645.5,"correct":false,"confidence":2},{"trial_n":32,"n_dots":3.75,"target":"left","response":"left","rt":591.19999980927,"correct":true,"confidence":3},{"trial_n":33,"n_dots":3.75,"target":"left","response":"right","rt":569.20000004768,"correct":false,"confidence":2},{"trial_n":34,"n_dots":3.85,"target":"right","response":"right","rt":408.39999985695,"correct":true,"confidence":2},{"trial_n":35,"n_dots":3.85,"target":"left","response":"left","rt":438,"correct":true,"confidence":3},{"trial_n":36,"n_dots":3.75,"target":"right","response":"right","rt":959.79999995232,"correct":true,"confidence":2},{"trial_n":37,"n_dots":3.75,"target":"left","response":"left","rt":690.29999995232,"correct":true,"confidence":3},{"trial_n":38,"n_dots":3.65,"target":"left","response":"left","rt":1967.7000000477,"correct":true,"confidence":1},{"trial_n":39,"n_dots":3.65,"target":"right","response":"right","rt":448.29999995232,"correct":true,"confidence":2},{"trial_n":40,"n_dots":3.55,"target":"left","response":"left","rt":357.40000009537,"correct":true,"confidence":3},{"trial_n":41,"n_dots":3.55,"target":"right","response":"right","rt":342.60000014305,"correct":true,"confidence":2},{"trial_n":42,"n_dots":3.45,"target":"right","response":"right","rt":454.30000019073,"correct":true,"confidence":2},{"trial_n":43,"n_dots":3.45,"target":"right","response":"left","rt":326.10000014305,"correct":false,"confidence":3},{"trial_n":44,"n_dots":3.55,"target":"left","response":"left","rt":690.09999990463,"correct":true,"confidence":1},{"trial_n":45,"n_dots":3.55,"target":"right","response":"right","rt":268.89999985695,"correct":true,"confidence":2},{"trial_n":46,"n_dots":3.45,"target":"left","response":"left","rt":2598.4000000954,"correct":true,"confidence":1},{"trial_n":47,"n_dots":3.45,"target":"left","response":"left","rt":802.5,"correct":true,"confidence":2},{"trial_n":48,"n_dots":3.35,"target":"left","response":"left","rt":437.79999995232,"correct":true,"confidence":2},{"trial_n":49,"n_dots":3.35,"target":"left","response":"right","rt":317.90000009537,"correct":false,"confidence":2},{"trial_n":50,"n_dots":3.45,"target":"right","response":"right","rt":343.20000004768,"correct":true,"confidence":2},{"trial_n":51,"n_dots":3.45,"target":"right","response":"right","rt":399.60000014305,"correct":true,"confidence":2},{"trial_n":52,"n_dots":3.35,"target":"right","response":"left","rt":1151.7999999523,"correct":false,"confidence":2},{"trial_n":53,"n_dots":3.45,"target":"right","response":"right","rt":358.79999995232,"correct":true,"confidence":2},{"trial_n":54,"n_dots":3.45,"target":"left","response":"left","rt":254.69999980927,"correct":true,"confidence":2},{"trial_n":55,"n_dots":3.35,"target":"left","response":"left","rt":286.5,"correct":true,"confidence":2},{"trial_n":56,"n_dots":3.35,"target":"right","response":"right","rt":286.19999980927,"correct":true,"confidence":2},{"trial_n":57,"n_dots":3.25,"target":"left","response":"right","rt":591.29999995232,"correct":false,"confidence":1},{"trial_n":58,"n_dots":3.35,"target":"left","response":"left","rt":409.20000004768,"correct":true,"confidence":1},{"trial_n":59,"n_dots":3.35,"target":"left","response":"left","rt":421.79999995232,"correct":true,"confidence":2},{"trial_n":60,"n_dots":3.25,"target":"left","response":"right","rt":298.79999995232,"correct":false,"confidence":2},{"trial_n":61,"n_dots":3.35,"target":"right","response":"left","rt":391.90000009537,"correct":false,"confidence":3},{"trial_n":62,"n_dots":3.45,"target":"right","response":"left","rt":460.5,"correct":false,"confidence":2},{"trial_n":63,"n_dots":3.55,"target":"right","response":"left","rt":289.10000014305,"correct":false,"confidence":2},{"trial_n":64,"n_dots":3.65,"target":"right","response":"right","rt":104.90000009537,"correct":true,"confidence":2},{"trial_n":65,"n_dots":3.65,"target":"right","response":"right","rt":275.5,"correct":true,"confidence":3},{"trial_n":66,"n_dots":3.55,"target":"right","response":"right","rt":379,"correct":true,"confidence":2},{"trial_n":67,"n_dots":3.55,"target":"left","response":"right","rt":331.89999985695,"correct":false,"confidence":1},{"trial_n":68,"n_dots":3.65,"target":"right","response":"right","rt":223.40000009537,"correct":true,"confidence":2},{"trial_n":69,"n_dots":3.65,"target":"left","response":"left","rt":297.39999985695,"correct":true,"confidence":2},{"trial_n":70,"n_dots":3.55,"target":"left","response":"left","rt":281.09999990463,"correct":true,"confidence":2},{"trial_n":71,"n_dots":3.55,"target":"right","response":"right","rt":375.40000009537,"correct":true,"confidence":3},{"trial_n":72,"n_dots":3.45,"target":"left","response":"left","rt":255.29999995232,"correct":true,"confidence":2},{"trial_n":73,"n_dots":3.45,"target":"right","response":"right","rt":193.30000019073,"correct":true,"confidence":3},{"trial_n":74,"n_dots":3.35,"target":"right","response":"left","rt":76.599999904633,"correct":false,"confidence":3},{"trial_n":75,"n_dots":3.45,"target":"left","response":"left","rt":239.5,"correct":true,"confidence":3},{"trial_n":76,"n_dots":3.45,"target":"left","response":"left","rt":218.20000004768,"correct":true,"confidence":3},{"trial_n":77,"n_dots":3.35,"target":"left","response":"left","rt":146,"correct":true,"confidence":2},{"trial_n":78,"n_dots":3.35,"target":"right","response":"right","rt":696.20000004768,"correct":true,"confidence":3},{"trial_n":79,"n_dots":3.25,"target":"right","response":"left","rt":417.39999985695,"correct":false,"confidence":2},{"trial_n":80,"n_dots":3.35,"target":"right","response":"right","rt":305.29999995232,"correct":true,"confidence":2},{"trial_n":81,"n_dots":3.35,"target":"right","response":"right","rt":504.29999995232,"correct":true,"confidence":2},{"trial_n":82,"n_dots":3.25,"target":"right","response":"right","rt":227.09999990463,"correct":true,"confidence":2},{"trial_n":83,"n_dots":3.25,"target":"left","response":"left","rt":386.29999995232,"correct":true,"confidence":3},{"trial_n":84,"n_dots":3.15,"target":"left","response":"left","rt":1019.3999998569,"correct":true,"confidence":2},{"trial_n":85,"n_dots":3.15,"target":"left","response":"left","rt":300.5,"correct":true,"confidence":3},{"trial_n":86,"n_dots":3.05,"target":"left","response":"left","rt":340.79999995232,"correct":true,"confidence":3},{"trial_n":87,"n_dots":3.05,"target":"right","response":"right","rt":250.5,"correct":true,"confidence":2},{"trial_n":88,"n_dots":2.95,"target":"left","response":"left","rt":180.40000009537,"correct":true,"confidence":3},{"trial_n":89,"n_dots":2.95,"target":"right","response":"right","rt":371.70000004768,"correct":true,"confidence":2},{"trial_n":90,"n_dots":2.85,"target":"right","response":"left","rt":48.5,"correct":false,"confidence":3},{"trial_n":91,"n_dots":2.95,"target":"right","response":"left","rt":324.20000004768,"correct":false,"confidence":2},{"trial_n":92,"n_dots":3.05,"target":"right","response":"right","rt":117.79999995232,"correct":true,"confidence":3},{"trial_n":93,"n_dots":3.05,"target":"right","response":"left","rt":284.5,"correct":false,"confidence":2},{"trial_n":94,"n_dots":3.15,"target":"left","response":"left","rt":1243.9000000954,"correct":true,"confidence":1},{"trial_n":95,"n_dots":3.15,"target":"right","response":"right","rt":583.30000019073,"correct":true,"confidence":1},{"trial_n":96,"n_dots":3.05,"target":"right","response":"left","rt":1069.2000000477,"correct":false,"confidence":2},{"trial_n":97,"n_dots":3.15,"target":"left","response":"left","rt":303.39999985695,"correct":true,"confidence":2},{"trial_n":98,"n_dots":3.15,"target":"left","response":"left","rt":474.5,"correct":true,"confidence":1},{"trial_n":99,"n_dots":3.05,"target":"left","response":"right","rt":371,"correct":false,"confidence":1},{"trial_n":100,"n_dots":3.15,"target":"left","response":"left","rt":743.39999985695,"correct":true,"confidence":2},{"trial_n":101,"n_dots":3.15,"target":"left","response":"left","rt":452.79999995232,"correct":true,"confidence":1},{"trial_n":102,"n_dots":3.05,"target":"right","response":"right","rt":299.90000009537,"correct":true,"confidence":2},{"trial_n":103,"n_dots":3.05,"target":"right","response":"left","rt":591.89999985695,"correct":false,"confidence":1},{"trial_n":104,"n_dots":3.15,"target":"left","response":"left","rt":351.20000004768,"correct":true,"confidence":2},{"trial_n":105,"n_dots":3.15,"target":"left","response":"left","rt":316.70000004768,"correct":true,"confidence":3},{"trial_n":106,"n_dots":3.05,"target":"left","response":"left","rt":664.39999985695,"correct":true,"confidence":2},{"trial_n":107,"n_dots":3.05,"target":"right","response":"left","rt":374,"correct":false,"confidence":2},{"trial_n":108,"n_dots":3.15,"target":"left","response":"right","rt":1065.8999998569,"correct":false,"confidence":1},{"trial_n":109,"n_dots":3.25,"target":"left","response":"left","rt":245.79999995232,"correct":true,"confidence":3},{"trial_n":110,"n_dots":3.25,"target":"right","response":"left","rt":385.10000014305,"correct":false,"confidence":1},{"trial_n":111,"n_dots":3.35,"target":"right","response":"left","rt":362.09999990463,"correct":false,"confidence":1},{"trial_n":112,"n_dots":3.45,"target":"left","response":"left","rt":279.20000004768,"correct":true,"confidence":3},{"trial_n":113,"n_dots":3.45,"target":"left","response":"left","rt":378.5,"correct":true,"confidence":2},{"trial_n":114,"n_dots":3.35,"target":"right","response":"left","rt":731.10000014305,"correct":false,"confidence":1},{"trial_n":115,"n_dots":3.45,"target":"left","response":"left","rt":1106.1000001431,"correct":true,"confidence":1},{"trial_n":116,"n_dots":3.45,"target":"right","response":"right","rt":1168.4000000954,"correct":true,"confidence":3},{"trial_n":117,"n_dots":3.35,"target":"right","response":"right","rt":758.20000004768,"correct":true,"confidence":3},{"trial_n":118,"n_dots":3.35,"target":"right","response":"right","rt":817,"correct":true,"confidence":3},{"trial_n":119,"n_dots":3.25,"target":"right","response":"right","rt":1075.1999998093,"correct":true,"confidence":3},{"trial_n":120,"n_dots":3.25,"target":"right","response":"right","rt":1430.2999999523,"correct":true,"confidence":2}]