[{"trial_n":1,"n_dots":4.25,"target":"right","response":"right","rt":13115,"correct":true,"confidence":-1},{"trial_n":2,"n_dots":4.25,"target":"right","response":"right","rt":860,"correct":true,"confidence":-1},{"trial_n":3,"n_dots":3.85,"target":"right","response":"right","rt":1231,"correct":true,"confidence":-1},{"trial_n":4,"n_dots":3.85,"target":"left","response":"right","rt":1343,"correct":false,"confidence":-1},{"trial_n":5,"n_dots":4.25,"target":"left","response":"right","rt":1970,"correct":false,"confidence":-1},{"trial_n":6,"n_dots":4.65,"target":"right","response":"right","rt":567,"correct":true,"confidence":-1},{"trial_n":7,"n_dots":4.65,"target":"left","response":"left","rt":1527,"correct":true,"confidence":-1},{"trial_n":8,"n_dots":4.45,"target":"right","response":"right","rt":803,"correct":true,"confidence":-1},{"trial_n":9,"n_dots":4.45,"target":"right","response":"right","rt":509,"correct":true,"confidence":-1},{"trial_n":10,"n_dots":4.25,"target":"right","response":"right","rt":560.99999999999,"correct":true,"confidence":-1},{"trial_n":11,"n_dots":4.25,"target":"right","response":"right","rt":574,"correct":true,"confidence":-1},{"trial_n":12,"n_dots":4.05,"target":"right","response":"right","rt":122,"correct":true,"confidence":-1},{"trial_n":13,"n_dots":4.05,"target":"right","response":"right","rt":253.99999999999,"correct":true,"confidence":-1},{"trial_n":14,"n_dots":3.95,"target":"left","response":"left","rt":1066,"correct":true,"confidence":-1},{"trial_n":15,"n_dots":3.95,"target":"left","response":"left","rt":811,"correct":true,"confidence":-1},{"trial_n":16,"n_dots":3.85,"target":"right","response":"right","rt":837.99999999999,"correct":true,"confidence":-1},{"trial_n":17,"n_dots":3.85,"target":"right","response":"right","rt":461,"correct":true,"confidence":-1},{"trial_n":18,"n_dots":3.75,"target":"left","response":"left","rt":1128,"correct":true,"confidence":-1},{"trial_n":19,"n_dots":3.75,"target":"right","response":"right","rt":720,"correct":true,"confidence":-1},{"trial_n":20,"n_dots":3.65,"target":"left","response":"left","rt":810.00000000001,"correct":true,"confidence":-1},{"trial_n":21,"n_dots":3.65,"target":"right","response":"right","rt":1275,"correct":true,"confidence":4},{"trial_n":22,"n_dots":3.55,"target":"right","response":"right","rt":936.99999999997,"correct":true,"confidence":5},{"trial_n":23,"n_dots":3.55,"target":"right","response":"right","rt":951.99999999997,"correct":true,"confidence":5},{"trial_n":24,"n_dots":3.45,"target":"left","response":"right","rt":2942,"correct":false,"confidence":4},{"trial_n":25,"n_dots":3.55,"target":"left","response":"left","rt":1377,"correct":true,"confidence":4},{"trial_n":26,"n_dots":3.55,"target":"left","response":"left","rt":981,"correct":true,"confidence":5},{"trial_n":27,"n_dots":3.45,"target":"right","response":"right","rt":905,"correct":true,"confidence":5},{"trial_n":28,"n_dots":3.45,"target":"right","response":"right","rt":2288,"correct":true,"confidence":5},{"trial_n":29,"n_dots":3.35,"target":"right","response":"right","rt":1308,"correct":true,"confidence":5},{"trial_n":30,"n_dots":3.35,"target":"right","response":"right","rt":4391,"correct":true,"confidence":4},{"trial_n":31,"n_dots":3.25,"target":"right","response":"right","rt":1020,"correct":true,"confidence":5},{"trial_n":32,"n_dots":3.25,"target":"left","response":"right","rt":2256,"correct":false,"confidence":4},{"trial_n":33,"n_dots":3.35,"target":"left","response":"right","rt":1261,"correct":false,"confidence":4},{"trial_n":34,"n_dots":3.45,"target":"right","response":"right","rt":1013,"correct":true,"confidence":5},{"trial_n":35,"n_dots":3.45,"target":"left","response":"left","rt":1209,"correct":true,"confidence":5},{"trial_n":36,"n_dots":3.35,"target":"left","response":"left","rt":983,"correct":true,"confidence":5},{"trial_n":37,"n_dots":3.35,"target":"right","response":"right","rt":1362,"correct":true,"confidence":5},{"trial_n":38,"n_dots":3.25,"target":"right","response":"right","rt":909,"correct":true,"confidence":5},{"trial_n":39,"n_dots":3.25,"target":"left","response":"left","rt":3457.0000000001,"correct":true,"confidence":3},{"trial_n":40,"n_dots":3.15,"target":"left","response":"right","rt":1111,"correct":false,"confidence":3},{"trial_n":41,"n_dots":3.25,"target":"right","response":"right","rt":552,"correct":true,"confidence":5},{"trial_n":42,"n_dots":3.25,"target":"left","response":"right","rt":617,"correct":false,"confidence":5},{"trial_n":43,"n_dots":3.35,"target":"right","response":"right","rt":1553,"correct":true,"confidence":4},{"trial_n":44,"n_dots":3.35,"target":"left","response":"left","rt":2170,"correct":true,"confidence":5},{"trial_n":45,"n_dots":3.25,"target":"left","response":"right","rt":986.99999999988,"correct":false,"confidence":5},{"trial_n":46,"n_dots":3.35,"target":"right","response":"right","rt":1722,"correct":true,"confidence":5},{"trial_n":47,"n_dots":3.35,"target":"left","response":"left","rt":732,"correct":true,"confidence":5},{"trial_n":48,"n_dots":3.25,"target":"left","response":"right","rt":1242,"correct":false,"confidence":5},{"trial_n":49,"n_dots":3.35,"target":"right","response":"left","rt":602,"correct":false,"confidence":5},{"trial_n":50,"n_dots":3.45,"target":"left","response":"left","rt":553,"correct":true,"confidence":5},{"trial_n":51,"n_dots":3.45,"target":"left","response":"left","rt":403,"correct":true,"confidence":5},{"trial_n":52,"n_dots":3.35,"target":"left","response":"left","rt":510,"correct":true,"confidence":5},{"trial_n":53,"n_dots":3.35,"target":"left","response":"left","rt":1179.0000000001,"correct":true,"confidence":4},{"trial_n":54,"n_dots":3.25,"target":"right","response":"left","rt":1332,"correct":false,"confidence":4},{"trial_n":55,"n_dots":3.35,"target":"right","response":"right","rt":981,"correct":true,"confidence":4},{"trial_n":56,"n_dots":3.35,"target":"right","response":"left","rt":869,"correct":false,"confidence":4},{"trial_n":57,"n_dots":3.45,"target":"right","response":"left","rt":861,"correct":false,"confidence":5},{"trial_n":58,"n_dots":3.55,"target":"left","response":"left","rt":566,"correct":true,"confidence":5},{"trial_n":59,"n_dots":3.55,"target":"left","response":"left","rt":644,"correct":true,"confidence":5},{"trial_n":60,"n_dots":3.45,"target":"left","response":"left","rt":518,"correct":true,"confidence":5},{"trial_n":61,"n_dots":3.45,"target":"left","response":"left","rt":3253,"correct":true,"confidence":5},{"trial_n":62,"n_dots":3.35,"target":"right","response":"right","rt":624,"correct":true,"confidence":5},{"trial_n":63,"n_dots":3.35,"target":"right","response":"right","rt":647,"correct":true,"confidence":5},{"trial_n":64,"n_dots":3.25,"target":"left","response":"right","rt":965,"correct":false,"confidence":4},{"trial_n":65,"n_dots":3.35,"target":"left","response":"right","rt":1194.9999999991,"correct":false,"confidence":5},{"trial_n":66,"n_dots":3.45,"target":"left","response":"left","rt":867,"correct":true,"confidence":5},{"trial_n":67,"n_dots":3.45,"target":"right","response":"right","rt":691,"correct":true,"confidence":5},{"trial_n":68,"n_dots":3.35,"target":"right","response":"right","rt":652,"correct":true,"confidence":5},{"trial_n":69,"n_dots":3.35,"target":"right","response":"right","rt":528.00000000093,"correct":true,"confidence":5},{"trial_n":70,"n_dots":3.25,"target":"right","response":"right","rt":314,"correct":true,"confidence":5},{"trial_n":71,"n_dots":3.25,"target":"right","response":"right","rt":919,"correct":true,"confidence":4},{"trial_n":72,"n_dots":3.15,"target":"left","response":"right","rt":884.99999999907,"correct":false,"confidence":4},{"trial_n":73,"n_dots":3.25,"target":"right","response":"right","rt":695,"correct":true,"confidence":5},{"trial_n":74,"n_dots":3.25,"target":"left","response":"right","rt":974,"correct":false,"confidence":5},{"trial_n":75,"n_dots":3.35,"target":"right","response":"right","rt":732,"correct":true,"confidence":5},{"trial_n":76,"n_dots":3.35,"target":"left","response":"right","rt":1028,"correct":false,"confidence":5},{"trial_n":77,"n_dots":3.45,"target":"right","response":"right","rt":1097,"correct":true,"confidence":5},{"trial_n":78,"n_dots":3.45,"target":"right","response":"right","rt":527,"correct":true,"confidence":5},{"trial_n":79,"n_dots":3.35,"target":"left","response":"left","rt":1570,"correct":true,"confidence":4},{"trial_n":80,"n_dots":3.35,"target":"left","response":"left","rt":489,"correct":true,"confidence":5},{"trial_n":81,"n_dots":3.25,"target":"right","response":"right","rt":665,"correct":true,"confidence":5},{"trial_n":82,"n_dots":3.25,"target":"left","response":"right","rt":763,"correct":false,"confidence":5},{"trial_n":83,"n_dots":3.35,"target":"left","response":"left","rt":860.99999999907,"correct":true,"confidence":4},{"trial_n":84,"n_dots":3.35,"target":"left","response":"right","rt":615,"correct":false,"confidence":5},{"trial_n":85,"n_dots":3.45,"target":"left","response":"left","rt":807,"correct":true,"confidence":5},{"trial_n":86,"n_dots":3.45,"target":"right","response":"right","rt":1331,"correct":true,"confidence":5},{"trial_n":87,"n_dots":3.35,"target":"left","response":"left","rt":646,"correct":true,"confidence":4},{"trial_n":88,"n_dots":3.35,"target":"left","response":"left","rt":987,"correct":true,"confidence":5},{"trial_n":89,"n_dots":3.25,"target":"right","response":"right","rt":915.00000000093,"correct":true,"confidence":5},{"trial_n":90,"n_dots":3.25,"target":"left","response":"left","rt":1255,"correct":true,"confidence":4},{"trial_n":91,"n_dots":3.15,"target":"right","response":"right","rt":388,"correct":true,"confidence":4},{"trial_n":92,"n_dots":3.15,"target":"left","response":"left","rt":938,"correct":true,"confidence":5},{"trial_n":93,"n_dots":3.05,"target":"left","response":"right","rt":1175,"correct":false,"confidence":4},{"trial_n":94,"n_dots":3.15,"target":"right","response":"left","rt":750,"correct":false,"confidence":4},{"trial_n":95,"n_dots":3.25,"target":"right","response":"left","rt":1034,"correct":false,"confidence":4},{"trial_n":96,"n_dots":3.35,"target":"right","response":"right","rt":538,"correct":true,"confidence":5},{"trial_n":97,"n_dots":3.35,"target":"left","response":"left","rt":895,"correct":true,"confidence":5},{"trial_n":98,"n_dots":3.25,"target":"right","response":"right","rt":871,"correct":true,"confidence":5},{"trial_n":99,"n_dots":3.25,"target":"left","response":"left","rt":1265,"correct":true,"confidence":4},{"trial_n":100,"n_dots":3.15,"target":"left","response":"right","rt":3985,"correct":false,"confidence":4},{"trial_n":101,"n_dots":3.25,"target":"right","response":"right","rt":1112,"correct":true,"confidence":4},{"trial_n":102,"n_dots":3.25,"target":"left","response":"right","rt":1005,"correct":false,"confidence":4},{"trial_n":103,"n_dots":3.35,"target":"left","response":"right","rt":1058,"correct":false,"confidence":4},{"trial_n":104,"n_dots":3.45,"target":"right","response":"right","rt":764.99999999907,"correct":true,"confidence":4},{"trial_n":105,"n_dots":3.45,"target":"left","response":"left","rt":441,"correct":true,"confidence":5},{"trial_n":106,"n_dots":3.35,"target":"right","response":"right","rt":20303.000000001,"correct":true,"confidence":4},{"trial_n":107,"n_dots":3.35,"target":"right","response":"left","rt":1154.0000000009,"correct":false,"confidence":4},{"trial_n":108,"n_dots":3.45,"target":"left","response":"left","rt":753.99999999907,"correct":true,"confidence":4},{"trial_n":109,"n_dots":3.45,"target":"right","response":"left","rt":906.99999999907,"correct":false,"confidence":4},{"trial_n":110,"n_dots":3.55,"target":"left","response":"left","rt":411,"correct":true,"confidence":5},{"trial_n":111,"n_dots":3.55,"target":"right","response":"right","rt":849.00000000093,"correct":true,"confidence":5},{"trial_n":112,"n_dots":3.45,"target":"right","response":"right","rt":1041.0000000009,"correct":true,"confidence":5},{"trial_n":113,"n_dots":3.45,"target":"left","response":"left","rt":1083,"correct":true,"confidence":5},{"trial_n":114,"n_dots":3.35,"target":"left","response":"left","rt":699,"correct":true,"confidence":5},{"trial_n":115,"n_dots":3.35,"target":"left","response":"left","rt":1009,"correct":true,"confidence":5},{"trial_n":116,"n_dots":3.25,"target":"left","response":"right","rt":1188,"correct":false,"confidence":4},{"trial_n":117,"n_dots":3.35,"target":"right","response":"right","rt":661,"correct":true,"confidence":5},{"trial_n":118,"n_dots":3.35,"target":"left","response":"left","rt":475,"correct":true,"confidence":5},{"trial_n":119,"n_dots":3.25,"target":"left","response":"left","rt":1038,"correct":true,"confidence":5},{"trial_n":120,"n_dots":3.25,"target":"right","response":"right","rt":416,"correct":true,"confidence":5}]