[{"trial_n":1,"span":8,"encoder":"16523930","distractor":"16523630","target":"present","response":"present","rt":"3108.9000000954","correct":true,"confidence":-1},{"trial_n":2,"span":8,"encoder":"37060801","distractor":"37065801","target":"present","response":"present","rt":"1305.3999998569","correct":true,"confidence":-1},{"trial_n":3,"span":10,"encoder":"7554778928","distractor":"7854778928","target":"absent","response":"absent","rt":"1982.7999999523","correct":true,"confidence":-1},{"trial_n":4,"span":10,"encoder":"8556617909","distractor":"8556627909","target":"absent","response":"present","rt":"1061.3000001907","correct":false,"confidence":-1},{"trial_n":5,"span":8,"encoder":"64188370","distractor":"64188970","target":"present","response":"present","rt":"1315.7000000477","correct":true,"confidence":-1},{"trial_n":6,"span":8,"encoder":"67057566","distractor":"07057566","target":"present","response":"present","rt":"179.39999985695","correct":true,"confidence":-1},{"trial_n":7,"span":10,"encoder":"8399202899","distractor":"8399209899","target":"absent","response":"present","rt":"249.79999995232","correct":false,"confidence":-1},{"trial_n":8,"span":8,"encoder":"16119773","distractor":"16119173","target":"present","response":"present","rt":"328.39999985695","correct":true,"confidence":-1},{"trial_n":9,"span":8,"encoder":"62626384","distractor":"62626383","target":"present","response":"present","rt":"531.79999995232","correct":true,"confidence":-1},{"trial_n":10,"span":10,"encoder":"8309376508","distractor":"8309176508","target":"absent","response":"present","rt":"356.40000009537","correct":false,"confidence":-1},{"trial_n":11,"span":8,"encoder":"74607776","distractor":"74007776","target":"absent","response":"present","rt":"569.29999995232","correct":false,"confidence":-1},{"trial_n":12,"span":7,"encoder":"6746491","distractor":"6746291","target":"absent","response":"present","rt":"1198.2000000477","correct":false,"confidence":-1},{"trial_n":13,"span":6,"encoder":"107869","distractor":"108869","target":"present","response":"present","rt":"403.80000019073","correct":true,"confidence":-1},{"trial_n":14,"span":6,"encoder":"898421","distractor":"898425","target":"present","response":"present","rt":"516.79999995232","correct":true,"confidence":-1},{"trial_n":15,"span":7,"encoder":"9802181","distractor":"9802183","target":"absent","response":"present","rt":"596.10000014305","correct":false,"confidence":-1},{"trial_n":16,"span":6,"encoder":"412237","distractor":"422237","target":"present","response":"present","rt":"897.79999995232","correct":true,"confidence":-1},{"trial_n":17,"span":6,"encoder":"799485","distractor":"799415","target":"absent","response":"present","rt":"1319.3999998569","correct":false,"confidence":-1},{"trial_n":18,"span":5,"encoder":"84881","distractor":"84781","target":"present","response":"absent","rt":"687.79999995232","correct":false,"confidence":-1},{"trial_n":19,"span":4,"encoder":"4793","distractor":"4193","target":"present","response":"present","rt":"1111.5","correct":true,"confidence":-1},{"trial_n":20,"span":4,"encoder":"5910","distractor":"5916","target":"present","response":"present","rt":"1608.7000000477","correct":true,"confidence":-1},{"trial_n":21,"span":5,"encoder":"72557","distractor":"72507","target":"present","response":"present","rt":"1146.3999998569","correct":true,"confidence":4},{"trial_n":22,"span":5,"encoder":"09856","distractor":"09852","target":"absent","response":"absent","rt":"1471.2000000477","correct":true,"confidence":4},{"trial_n":23,"span":6,"encoder":"006536","distractor":"106536","target":"absent","response":"absent","rt":"1278.4000000954","correct":true,"confidence":4},{"trial_n":24,"span":6,"encoder":"632769","distractor":"639769","target":"absent","response":"absent","rt":"1862.5","correct":true,"confidence":4},{"trial_n":25,"span":7,"encoder":"9495740","distractor":"9495746","target":"present","response":"present","rt":"2567.2999999523","correct":true,"confidence":3},{"trial_n":26,"span":7,"encoder":"9053399","distractor":"9053397","target":"absent","response":"present","rt":"1176.8999998569","correct":false,"confidence":3},{"trial_n":27,"span":6,"encoder":"912660","distractor":"922660","target":"absent","response":"absent","rt":"1269.5","correct":true,"confidence":4},{"trial_n":28,"span":6,"encoder":"309452","distractor":"305452","target":"absent","response":"absent","rt":"1625.5999999046","correct":true,"confidence":5},{"trial_n":29,"span":7,"encoder":"5738172","distractor":"9738172","target":"present","response":"present","rt":"1638.6000001431","correct":true,"confidence":3},{"trial_n":30,"span":7,"encoder":"4554400","distractor":"4054400","target":"present","response":"present","rt":"1822.1999998093","correct":true,"confidence":5},{"trial_n":31,"span":8,"encoder":"42964629","distractor":"42364629","target":"present","response":"present","rt":"3241.3999998569","correct":true,"confidence":2},{"trial_n":32,"span":8,"encoder":"16773972","distractor":"16776972","target":"present","response":"present","rt":"1592.2000000477","correct":true,"confidence":3},{"trial_n":33,"span":9,"encoder":"092547306","distractor":"092547396","target":"absent","response":"absent","rt":"2116.2999999523","correct":true,"confidence":4},{"trial_n":34,"span":9,"encoder":"660999311","distractor":"660939311","target":"absent","response":"absent","rt":"3160.5999999046","correct":true,"confidence":3},{"trial_n":35,"span":10,"encoder":"0881306841","distractor":"3881306841","target":"absent","response":"absent","rt":"2344.2000000477","correct":true,"confidence":3},{"trial_n":36,"span":10,"encoder":"3177729159","distractor":"3177729149","target":"absent","response":"absent","rt":"2328.6000001431","correct":true,"confidence":4},{"trial_n":37,"span":11,"encoder":"52947767591","distractor":"52947767541","target":"present","response":"absent","rt":"2966","correct":false,"confidence":2},{"trial_n":38,"span":10,"encoder":"9161195409","distractor":"9161199409","target":"absent","response":"present","rt":"2026.6999998093","correct":false,"confidence":3},{"trial_n":39,"span":9,"encoder":"678792631","distractor":"678792231","target":"present","response":"present","rt":"1597.5999999046","correct":true,"confidence":3},{"trial_n":40,"span":9,"encoder":"385425331","distractor":"385425831","target":"present","response":"present","rt":"1820.5","correct":true,"confidence":4},{"trial_n":41,"span":10,"encoder":"8580252706","distractor":"8581252706","target":"absent","response":"absent","rt":"2636.5","correct":true,"confidence":2},{"trial_n":42,"span":10,"encoder":"1660959627","distractor":"1660959620","target":"absent","response":"absent","rt":"2463.1000001431","correct":true,"confidence":2},{"trial_n":43,"span":11,"encoder":"02159002133","distractor":"02159000133","target":"absent","response":"present","rt":"2291.2000000477","correct":false,"confidence":3},{"trial_n":44,"span":10,"encoder":"0180554282","distractor":"0150554282","target":"present","response":"present","rt":"1559","correct":true,"confidence":2},{"trial_n":45,"span":10,"encoder":"1658353986","distractor":"1658353886","target":"absent","response":"absent","rt":"2786.4000000954","correct":true,"confidence":3},{"trial_n":46,"span":11,"encoder":"98881667345","distractor":"98881647345","target":"absent","response":"absent","rt":"1559.6999998093","correct":true,"confidence":4},{"trial_n":47,"span":11,"encoder":"95111985438","distractor":"95141985438","target":"absent","response":"absent","rt":"1721.6999998093","correct":true,"confidence":4},{"trial_n":48,"span":12,"encoder":"669975054668","distractor":"669975754668","target":"absent","response":"absent","rt":"1705.5999999046","correct":true,"confidence":5},{"trial_n":49,"span":12,"encoder":"662713172912","distractor":"662113172912","target":"present","response":"present","rt":"1597.5","correct":true,"confidence":3},{"trial_n":50,"span":13,"encoder":"5568890671572","distractor":"5566890671572","target":"present","response":"present","rt":"6257.7999999523","correct":true,"confidence":2},{"trial_n":51,"span":13,"encoder":"4473187314154","distractor":"9473187314154","target":"absent","response":"absent","rt":"1692.6000001431","correct":true,"confidence":5},{"trial_n":52,"span":14,"encoder":"28855677785473","distractor":"28855677785493","target":"present","response":"present","rt":"2683.8999998569","correct":true,"confidence":3},{"trial_n":53,"span":14,"encoder":"13410835263569","distractor":"13410831263569","target":"present","response":"present","rt":"2515","correct":true,"confidence":2},{"trial_n":54,"span":15,"encoder":"458344111685543","distractor":"458344111685843","target":"absent","response":"present","rt":"2883.0999999046","correct":false,"confidence":2},{"trial_n":55,"span":14,"encoder":"43578262920373","distractor":"49578262920373","target":"present","response":"present","rt":"1825.8000001907","correct":true,"confidence":3},{"trial_n":56,"span":14,"encoder":"06750416901070","distractor":"06750816901070","target":"present","response":"present","rt":"2395.2999999523","correct":true,"confidence":3},{"trial_n":57,"span":15,"encoder":"235388318252020","distractor":"235388318252010","target":"absent","response":"absent","rt":"3076.2999999523","correct":true,"confidence":2},{"trial_n":58,"span":15,"encoder":"181885169136763","distractor":"181835169136763","target":"present","response":"present","rt":"2295","correct":true,"confidence":3},{"trial_n":59,"span":16,"encoder":"4076907898409358","distractor":"4076907858409358","target":"present","response":"present","rt":"3719.5","correct":true,"confidence":2},{"trial_n":60,"span":16,"encoder":"4615244406456577","distractor":"4815244406456577","target":"present","response":"present","rt":"3434.5","correct":true,"confidence":2},{"trial_n":61,"span":17,"encoder":"59032974239517051","distractor":"59032977239517051","target":"absent","response":"present","rt":"1968.2999999523","correct":false,"confidence":2},{"trial_n":62,"span":16,"encoder":"5336750036903901","distractor":"5436750036903901","target":"present","response":"present","rt":"2880.1000001431","correct":true,"confidence":2},{"trial_n":63,"span":16,"encoder":"7004055468775855","distractor":"7004055438775855","target":"absent","response":"absent","rt":"2245.5","correct":true,"confidence":3},{"trial_n":64,"span":17,"encoder":"29426393754173932","distractor":"29426393724173932","target":"present","response":"present","rt":"2127.2999999523","correct":true,"confidence":2},{"trial_n":65,"span":17,"encoder":"90961768332247348","distractor":"90961768332247328","target":"absent","response":"present","rt":"2444.9000000954","correct":false,"confidence":2},{"trial_n":66,"span":16,"encoder":"9278531340799620","distractor":"9278531340799625","target":"present","response":"absent","rt":"3348.8999998569","correct":false,"confidence":2},{"trial_n":67,"span":15,"encoder":"388464211681292","distractor":"388464211601292","target":"absent","response":"present","rt":"1697.8000001907","correct":false,"confidence":2},{"trial_n":68,"span":14,"encoder":"17250598695385","distractor":"17250568695385","target":"present","response":"present","rt":"2827.7000000477","correct":true,"confidence":2},{"trial_n":69,"span":14,"encoder":"76254404111728","distractor":"76254604111728","target":"present","response":"present","rt":"2038.6000001431","correct":true,"confidence":2},{"trial_n":70,"span":15,"encoder":"809247606989545","distractor":"809247606983545","target":"absent","response":"absent","rt":"2003.0999999046","correct":true,"confidence":3},{"trial_n":71,"span":8,"encoder":"88949685","distractor":"88849685","target":"present","response":"present","rt":"2712.1000001431","correct":true,"confidence":-1},{"trial_n":72,"span":8,"encoder":"42120860","distractor":"42160860","target":"present","response":"absent","rt":"51.5","correct":false,"confidence":-1},{"trial_n":73,"span":7,"encoder":"9080089","distractor":"2080089","target":"absent","response":"absent","rt":"1026.7000000477","correct":true,"confidence":-1},{"trial_n":74,"span":7,"encoder":"4787429","distractor":"5787429","target":"absent","response":"absent","rt":"314.60000014305","correct":true,"confidence":-1},{"trial_n":75,"span":8,"encoder":"23248416","distractor":"83248416","target":"present","response":"absent","rt":"230.20000004768","correct":false,"confidence":-1},{"trial_n":76,"span":7,"encoder":"0043615","distractor":"0043618","target":"present","response":"absent","rt":"365.70000004768","correct":false,"confidence":-1},{"trial_n":77,"span":6,"encoder":"444134","distractor":"434134","target":"absent","response":"absent","rt":"971.39999985695","correct":true,"confidence":-1},{"trial_n":78,"span":6,"encoder":"990822","distractor":"920822","target":"present","response":"absent","rt":"387.59999990463","correct":false,"confidence":-1},{"trial_n":79,"span":5,"encoder":"89674","distractor":"88674","target":"present","response":"absent","rt":"951.79999995232","correct":false,"confidence":-1},{"trial_n":80,"span":4,"encoder":"3841","distractor":"3844","target":"absent","response":"absent","rt":"871.5","correct":true,"confidence":-1},{"trial_n":81,"span":4,"encoder":"9674","distractor":"3674","target":"absent","response":"absent","rt":"731.89999985695","correct":true,"confidence":-1},{"trial_n":82,"span":5,"encoder":"49871","distractor":"46871","target":"present","response":"absent","rt":"284.10000014305","correct":false,"confidence":-1},{"trial_n":83,"span":4,"encoder":"2574","distractor":"2594","target":"absent","response":"absent","rt":"394.09999990463","correct":true,"confidence":-1},{"trial_n":84,"span":4,"encoder":"3235","distractor":"7235","target":"present","response":"absent","rt":"500.79999995232","correct":false,"confidence":-1},{"trial_n":85,"span":3,"encoder":"823","distractor":"223","target":"absent","response":"absent","rt":"853","correct":true,"confidence":-1},{"trial_n":86,"span":3,"encoder":"961","distractor":"061","target":"present","response":"absent","rt":"716.20000004768","correct":false,"confidence":-1},{"trial_n":87,"span":2,"encoder":"05","distractor":"01","target":"present","response":"absent","rt":"1110.6999998093","correct":false,"confidence":-1},{"trial_n":88,"span":2,"encoder":"95","distractor":"65","target":"absent","response":"absent","rt":"815.69999980927","correct":true,"confidence":-1},{"trial_n":89,"span":2,"encoder":"58","distractor":"08","target":"present","response":"absent","rt":"718.80000019073","correct":false,"confidence":-1},{"trial_n":90,"span":2,"encoder":"84","distractor":"87","target":"present","response":"absent","rt":"820.79999995232","correct":false,"confidence":-1},{"trial_n":91,"span":2,"encoder":"19","distractor":"89","target":"absent","response":"absent","rt":"1721.6000001431","correct":true,"confidence":5},{"trial_n":92,"span":2,"encoder":"56","distractor":"96","target":"absent","response":"absent","rt":"1186.7999999523","correct":true,"confidence":5},{"trial_n":93,"span":3,"encoder":"103","distractor":"101","target":"present","response":"present","rt":"1263.0999999046","correct":true,"confidence":5},{"trial_n":94,"span":3,"encoder":"561","distractor":"861","target":"present","response":"present","rt":"1064","correct":true,"confidence":5},{"trial_n":95,"span":4,"encoder":"4437","distractor":"9437","target":"absent","response":"absent","rt":"1324.8999998569","correct":true,"confidence":5},{"trial_n":96,"span":4,"encoder":"4173","distractor":"4113","target":"present","response":"present","rt":"1225.0999999046","correct":true,"confidence":5},{"trial_n":97,"span":5,"encoder":"91378","distractor":"91308","target":"present","response":"present","rt":"1696.2999999523","correct":true,"confidence":5},{"trial_n":98,"span":5,"encoder":"11334","distractor":"11335","target":"absent","response":"absent","rt":"1370.7000000477","correct":true,"confidence":5},{"trial_n":99,"span":6,"encoder":"526173","distractor":"526179","target":"absent","response":"absent","rt":"2039.5","correct":true,"confidence":5},{"trial_n":100,"span":6,"encoder":"791296","distractor":"711296","target":"present","response":"present","rt":"2518.8999998569","correct":true,"confidence":5},{"trial_n":101,"span":7,"encoder":"2650517","distractor":"2650557","target":"absent","response":"absent","rt":"3320","correct":true,"confidence":5},{"trial_n":102,"span":7,"encoder":"4448055","distractor":"5448055","target":"present","response":"present","rt":"2446.4000000954","correct":true,"confidence":5},{"trial_n":103,"span":8,"encoder":"06715439","distractor":"06515439","target":"absent","response":"absent","rt":"3085.2999999523","correct":true,"confidence":5},{"trial_n":104,"span":8,"encoder":"77891172","distractor":"77991172","target":"present","response":"present","rt":"2959.1000001431","correct":true,"confidence":5},{"trial_n":105,"span":9,"encoder":"435340228","distractor":"435340229","target":"absent","response":"absent","rt":"4732","correct":true,"confidence":5},{"trial_n":106,"span":9,"encoder":"904140838","distractor":"904940838","target":"absent","response":"absent","rt":"2299.2999999523","correct":true,"confidence":5},{"trial_n":107,"span":10,"encoder":"3647838276","distractor":"3667838276","target":"present","response":"present","rt":"2882.9000000954","correct":true,"confidence":5},{"trial_n":108,"span":10,"encoder":"8030135797","distractor":"8070135797","target":"present","response":"present","rt":"2334.5999999046","correct":true,"confidence":5},{"trial_n":109,"span":11,"encoder":"84205772989","distractor":"84205782989","target":"absent","response":"present","rt":"7392.7000000477","correct":false,"confidence":2},{"trial_n":110,"span":10,"encoder":"7988485500","distractor":"7988485509","target":"present","response":"present","rt":"1839.2999999523","correct":true,"confidence":5},{"trial_n":111,"span":10,"encoder":"4800982198","distractor":"4800982098","target":"present","response":"present","rt":"1810","correct":true,"confidence":5},{"trial_n":112,"span":11,"encoder":"86522626183","distractor":"86522626186","target":"present","response":"present","rt":"1717.5","correct":true,"confidence":5},{"trial_n":113,"span":11,"encoder":"15423681616","distractor":"15523681616","target":"absent","response":"absent","rt":"2417.4000000954","correct":true,"confidence":5},{"trial_n":114,"span":12,"encoder":"821568758566","distractor":"821568758556","target":"present","response":"present","rt":"1808.9000000954","correct":true,"confidence":5},{"trial_n":115,"span":12,"encoder":"505020489692","distractor":"505020480692","target":"absent","response":"absent","rt":"8638.5","correct":true,"confidence":2},{"trial_n":116,"span":13,"encoder":"8956654249352","distractor":"8956654249362","target":"present","response":"present","rt":"3135.4000000954","correct":true,"confidence":4},{"trial_n":117,"span":13,"encoder":"2060696355611","distractor":"2060616355611","target":"absent","response":"present","rt":"5025","correct":false,"confidence":1},{"trial_n":118,"span":12,"encoder":"121742102821","distractor":"131742102821","target":"present","response":"present","rt":"2302.8999998569","correct":true,"confidence":5},{"trial_n":119,"span":12,"encoder":"474689134089","distractor":"474689104089","target":"absent","response":"present","rt":"6061.7000000477","correct":false,"confidence":2},{"trial_n":120,"span":11,"encoder":"48397112938","distractor":"48397512938","target":"present","response":"absent","rt":"4841.9000000954","correct":false,"confidence":1},{"trial_n":121,"span":10,"encoder":"2164442293","distractor":"2160442293","target":"present","response":"present","rt":"3838.2000000477","correct":true,"confidence":3},{"trial_n":122,"span":10,"encoder":"9693248964","distractor":"9693228964","target":"absent","response":"present","rt":"3978.6999998093","correct":false,"confidence":1},{"trial_n":123,"span":9,"encoder":"873600083","distractor":"833600083","target":"present","response":"present","rt":"3419.7999999523","correct":true,"confidence":5},{"trial_n":124,"span":9,"encoder":"536412909","distractor":"536612909","target":"present","response":"present","rt":"7240","correct":true,"confidence":2},{"trial_n":125,"span":10,"encoder":"5912682767","distractor":"5912682967","target":"absent","response":"absent","rt":"2297.4000000954","correct":true,"confidence":5},{"trial_n":126,"span":10,"encoder":"1604028899","distractor":"1804028899","target":"absent","response":"absent","rt":"3616.9000000954","correct":true,"confidence":5},{"trial_n":127,"span":11,"encoder":"61690054300","distractor":"21690054300","target":"absent","response":"absent","rt":"3479.2999999523","correct":true,"confidence":5},{"trial_n":128,"span":11,"encoder":"47980508706","distractor":"47980008706","target":"absent","response":"absent","rt":"5240.4000000954","correct":true,"confidence":2},{"trial_n":129,"span":12,"encoder":"245436675393","distractor":"245436675392","target":"absent","response":"absent","rt":"3553.7999999523","correct":true,"confidence":4},{"trial_n":130,"span":12,"encoder":"325691964960","distractor":"525691964960","target":"absent","response":"present","rt":"3890.5","correct":false,"confidence":2},{"trial_n":131,"span":11,"encoder":"55268503509","distractor":"51268503509","target":"present","response":"present","rt":"2902.5999999046","correct":true,"confidence":5},{"trial_n":132,"span":11,"encoder":"99517722424","distractor":"99517522424","target":"present","response":"present","rt":"2661","correct":true,"confidence":4},{"trial_n":133,"span":12,"encoder":"694532663883","distractor":"694532363883","target":"present","response":"present","rt":"3317.1999998093","correct":true,"confidence":2},{"trial_n":134,"span":12,"encoder":"411705048838","distractor":"511705048838","target":"present","response":"present","rt":"2635.1999998093","correct":true,"confidence":4},{"trial_n":135,"span":13,"encoder":"7130802318093","distractor":"7130302318093","target":"absent","response":"absent","rt":"2795.6999998093","correct":true,"confidence":5},{"trial_n":136,"span":13,"encoder":"1200284175811","distractor":"1200284171811","target":"absent","response":"present","rt":"5744.2000000477","correct":false,"confidence":1},{"trial_n":137,"span":12,"encoder":"635440629364","distractor":"635447629364","target":"absent","response":"absent","rt":"4891.2000000477","correct":true,"confidence":4},{"trial_n":138,"span":12,"encoder":"772278249586","distractor":"772278249526","target":"absent","response":"absent","rt":"6600.6999998093","correct":true,"confidence":1},{"trial_n":139,"span":13,"encoder":"3462886788693","distractor":"3462386788693","target":"absent","response":"absent","rt":"4599.9000000954","correct":true,"confidence":4},{"trial_n":140,"span":13,"encoder":"0336839232519","distractor":"0336839232511","target":"present","response":"present","rt":"1938.7000000477","correct":true,"confidence":5}]