[{"trial_n":1,"span":8,"encoder":"37444958","distractor":"37944958","target":"present","response":"present","rt":"3347","correct":true,"confidence":-1},{"trial_n":2,"span":8,"encoder":"60288937","distractor":"60228937","target":"present","response":"present","rt":"2616.9999999995","correct":true,"confidence":-1},{"trial_n":3,"span":10,"encoder":"9218633753","distractor":"9278633753","target":"absent","response":"present","rt":"1769","correct":false,"confidence":-1},{"trial_n":4,"span":8,"encoder":"51425880","distractor":"51425885","target":"absent","response":"absent","rt":"190","correct":true,"confidence":-1},{"trial_n":5,"span":8,"encoder":"52089124","distractor":"52789124","target":"present","response":"absent","rt":"345.00000000047","correct":false,"confidence":-1},{"trial_n":6,"span":6,"encoder":"907118","distractor":"904118","target":"absent","response":"absent","rt":"438","correct":true,"confidence":-1},{"trial_n":7,"span":6,"encoder":"619686","distractor":"699686","target":"present","response":"present","rt":"9556","correct":true,"confidence":-1},{"trial_n":8,"span":8,"encoder":"99549934","distractor":"99549834","target":"absent","response":"absent","rt":"1288","correct":true,"confidence":-1},{"trial_n":9,"span":8,"encoder":"76031177","distractor":"76051177","target":"present","response":"absent","rt":"1349","correct":false,"confidence":-1},{"trial_n":10,"span":6,"encoder":"689830","distractor":"683830","target":"present","response":"absent","rt":"525","correct":false,"confidence":-1},{"trial_n":11,"span":4,"encoder":"4511","distractor":"4514","target":"absent","response":"absent","rt":"1660","correct":true,"confidence":-1},{"trial_n":12,"span":4,"encoder":"7377","distractor":"7397","target":"absent","response":"absent","rt":"7939","correct":true,"confidence":-1},{"trial_n":13,"span":5,"encoder":"00301","distractor":"40301","target":"present","response":"absent","rt":"5123","correct":false,"confidence":-1},{"trial_n":14,"span":4,"encoder":"2685","distractor":"2686","target":"absent","response":"absent","rt":"1755","correct":true,"confidence":-1},{"trial_n":15,"span":4,"encoder":"2111","distractor":"6111","target":"absent","response":"present","rt":"3195","correct":false,"confidence":-1},{"trial_n":16,"span":3,"encoder":"324","distractor":"624","target":"absent","response":"absent","rt":"3156","correct":true,"confidence":-1},{"trial_n":17,"span":3,"encoder":"956","distractor":"950","target":"absent","response":"absent","rt":"3385","correct":true,"confidence":-1},{"trial_n":18,"span":4,"encoder":"6321","distractor":"1321","target":"absent","response":"absent","rt":"15213","correct":true,"confidence":-1},{"trial_n":19,"span":4,"encoder":"3111","distractor":"5111","target":"absent","response":"present","rt":"451","correct":false,"confidence":-1},{"trial_n":20,"span":3,"encoder":"540","distractor":"580","target":"present","response":"absent","rt":"268","correct":false,"confidence":-1},{"trial_n":21,"span":2,"encoder":"86","distractor":"46","target":"absent","response":"absent","rt":"1916.9999999995","correct":true,"confidence":2},{"trial_n":22,"span":2,"encoder":"46","distractor":"96","target":"present","response":"present","rt":"1284.9999999995","correct":true,"confidence":5},{"trial_n":23,"span":3,"encoder":"378","distractor":"373","target":"present","response":"absent","rt":"1500.9999999995","correct":false,"confidence":5},{"trial_n":24,"span":2,"encoder":"22","distractor":"92","target":"present","response":"absent","rt":"794","correct":false,"confidence":3},{"trial_n":25,"span":2,"encoder":"01","distractor":"09","target":"absent","response":"absent","rt":"2","correct":true,"confidence":3},{"trial_n":26,"span":2,"encoder":"37","distractor":"38","target":"present","response":"present","rt":"1314","correct":true,"confidence":3},{"trial_n":27,"span":3,"encoder":"284","distractor":"884","target":"present","response":"absent","rt":"609","correct":false,"confidence":1},{"trial_n":28,"span":2,"encoder":"85","distractor":"65","target":"absent","response":"present","rt":"765","correct":false,"confidence":1},{"trial_n":29,"span":2,"encoder":"76","distractor":"71","target":"present","response":"present","rt":"1005.9999999995","correct":true,"confidence":1},{"trial_n":30,"span":2,"encoder":"39","distractor":"49","target":"present","response":"present","rt":"1597","correct":true,"confidence":4},{"trial_n":31,"span":3,"encoder":"420","distractor":"520","target":"absent","response":"absent","rt":"1606","correct":true,"confidence":1},{"trial_n":32,"span":3,"encoder":"360","distractor":"760","target":"present","response":"present","rt":"1816","correct":true,"confidence":5},{"trial_n":33,"span":4,"encoder":"0686","distractor":"5686","target":"absent","response":"present","rt":"1363","correct":false,"confidence":1},{"trial_n":34,"span":3,"encoder":"945","distractor":"943","target":"present","response":"present","rt":"3078","correct":true,"confidence":5},{"trial_n":35,"span":3,"encoder":"331","distractor":"931","target":"absent","response":"present","rt":"1622.0000000005","correct":false,"confidence":1},{"trial_n":36,"span":2,"encoder":"72","distractor":"75","target":"absent","response":"present","rt":"8158","correct":false,"confidence":1},{"trial_n":37,"span":2,"encoder":"93","distractor":"95","target":"absent","response":"absent","rt":"925","correct":true,"confidence":5},{"trial_n":38,"span":2,"encoder":"02","distractor":"06","target":"present","response":"absent","rt":"467","correct":false,"confidence":1},{"trial_n":39,"span":2,"encoder":"60","distractor":"50","target":"present","response":"absent","rt":"330","correct":false,"confidence":5},{"trial_n":40,"span":2,"encoder":"98","distractor":"28","target":"present","response":"present","rt":"19747","correct":true,"confidence":1},{"trial_n":41,"span":2,"encoder":"91","distractor":"94","target":"present","response":"present","rt":"1530.0000000005","correct":true,"confidence":4},{"trial_n":42,"span":3,"encoder":"717","distractor":"797","target":"absent","response":"present","rt":"2637.0000000005","correct":false,"confidence":1},{"trial_n":43,"span":2,"encoder":"16","distractor":"26","target":"present","response":"present","rt":"3022","correct":true,"confidence":4},{"trial_n":44,"span":2,"encoder":"43","distractor":"41","target":"absent","response":"present","rt":"672","correct":false,"confidence":3},{"trial_n":45,"span":2,"encoder":"26","distractor":"56","target":"present","response":"present","rt":"411.00000000047","correct":true,"confidence":1},{"trial_n":46,"span":2,"encoder":"91","distractor":"21","target":"present","response":"present","rt":"23","correct":true,"confidence":5},{"trial_n":47,"span":3,"encoder":"009","distractor":"069","target":"present","response":"present","rt":"1204","correct":true,"confidence":5},{"trial_n":48,"span":3,"encoder":"853","distractor":"353","target":"present","response":"present","rt":"180","correct":true,"confidence":5},{"trial_n":49,"span":4,"encoder":"0376","distractor":"0976","target":"absent","response":"present","rt":"1350","correct":false,"confidence":4},{"trial_n":50,"span":3,"encoder":"717","distractor":"767","target":"present","response":"present","rt":"165","correct":true,"confidence":5},{"trial_n":51,"span":3,"encoder":"794","distractor":"594","target":"present","response":"present","rt":"439.00000000047","correct":true,"confidence":1},{"trial_n":52,"span":4,"encoder":"2837","distractor":"2877","target":"absent","response":"present","rt":"619","correct":false,"confidence":4},{"trial_n":53,"span":3,"encoder":"462","distractor":"465","target":"absent","response":"present","rt":"114.99999999953","correct":false,"confidence":3},{"trial_n":54,"span":2,"encoder":"50","distractor":"55","target":"absent","response":"present","rt":"800","correct":false,"confidence":1},{"trial_n":55,"span":2,"encoder":"92","distractor":"32","target":"absent","response":"present","rt":"57","correct":false,"confidence":3},{"trial_n":56,"span":2,"encoder":"38","distractor":"08","target":"present","response":"present","rt":"1087","correct":true,"confidence":1},{"trial_n":57,"span":2,"encoder":"66","distractor":"60","target":"absent","response":"present","rt":"725","correct":false,"confidence":1},{"trial_n":58,"span":2,"encoder":"16","distractor":"06","target":"absent","response":"present","rt":"645.99999999953","correct":false,"confidence":4},{"trial_n":59,"span":2,"encoder":"15","distractor":"35","target":"present","response":"present","rt":"1197","correct":true,"confidence":4},{"trial_n":60,"span":2,"encoder":"90","distractor":"10","target":"present","response":"present","rt":"350","correct":true,"confidence":5},{"trial_n":61,"span":3,"encoder":"127","distractor":"187","target":"absent","response":"absent","rt":"240","correct":true,"confidence":5},{"trial_n":62,"span":3,"encoder":"341","distractor":"331","target":"present","response":"absent","rt":"67","correct":false,"confidence":1},{"trial_n":63,"span":2,"encoder":"63","distractor":"68","target":"absent","response":"absent","rt":"169","correct":true,"confidence":1},{"trial_n":64,"span":2,"encoder":"14","distractor":"84","target":"present","response":"absent","rt":"439","correct":false,"confidence":1},{"trial_n":65,"span":2,"encoder":"70","distractor":"90","target":"present","response":"present","rt":"989","correct":true,"confidence":3},{"trial_n":66,"span":2,"encoder":"02","distractor":"72","target":"absent","response":"present","rt":"96.000000000466","correct":false,"confidence":4},{"trial_n":67,"span":2,"encoder":"76","distractor":"77","target":"present","response":"absent","rt":"175","correct":false,"confidence":1},{"trial_n":68,"span":2,"encoder":"38","distractor":"68","target":"absent","response":"absent","rt":"10","correct":true,"confidence":5},{"trial_n":69,"span":2,"encoder":"75","distractor":"76","target":"absent","response":"present","rt":"-3.9999999995343","correct":false,"confidence":1},{"trial_n":70,"span":2,"encoder":"33","distractor":"73","target":"present","response":"absent","rt":"35.000000000466","correct":false,"confidence":1},{"trial_n":71,"span":8,"encoder":"04856803","distractor":"04956803","target":"present","response":"present","rt":"5941","correct":true,"confidence":-1},{"trial_n":72,"span":8,"encoder":"81837161","distractor":"91837161","target":"present","response":"present","rt":"260.00000000047","correct":true,"confidence":-1},{"trial_n":73,"span":9,"encoder":"119856601","distractor":"119856701","target":"absent","response":"present","rt":"439.99999999953","correct":false,"confidence":-1},{"trial_n":74,"span":8,"encoder":"86380854","distractor":"86680854","target":"absent","response":"present","rt":"4","correct":false,"confidence":-1},{"trial_n":75,"span":7,"encoder":"1711727","distractor":"1781727","target":"present","response":"absent","rt":"209","correct":false,"confidence":-1},{"trial_n":76,"span":6,"encoder":"189572","distractor":"129572","target":"present","response":"absent","rt":"9","correct":false,"confidence":-1},{"trial_n":77,"span":5,"encoder":"71749","distractor":"71742","target":"present","response":"absent","rt":"53","correct":false,"confidence":-1},{"trial_n":78,"span":4,"encoder":"0854","distractor":"0884","target":"present","response":"absent","rt":"77","correct":false,"confidence":-1},{"trial_n":79,"span":3,"encoder":"233","distractor":"633","target":"absent","response":"absent","rt":"481","correct":true,"confidence":-1},{"trial_n":80,"span":3,"encoder":"046","distractor":"246","target":"absent","response":"absent","rt":"183.99999999953","correct":true,"confidence":-1},{"trial_n":81,"span":4,"encoder":"0649","distractor":"0449","target":"present","response":"absent","rt":"705","correct":false,"confidence":-1},{"trial_n":82,"span":3,"encoder":"248","distractor":"243","target":"present","response":"present","rt":"334","correct":true,"confidence":-1},{"trial_n":83,"span":3,"encoder":"860","distractor":"866","target":"absent","response":"absent","rt":"79.999999999534","correct":true,"confidence":-1},{"trial_n":84,"span":4,"encoder":"2996","distractor":"2956","target":"absent","response":"absent","rt":"466","correct":true,"confidence":-1},{"trial_n":85,"span":4,"encoder":"8354","distractor":"5354","target":"present","response":"present","rt":"11","correct":true,"confidence":-1},{"trial_n":86,"span":5,"encoder":"68988","distractor":"68989","target":"present","response":"present","rt":"-11","correct":true,"confidence":-1},{"trial_n":87,"span":5,"encoder":"10401","distractor":"10481","target":"present","response":"absent","rt":"4271","correct":false,"confidence":-1},{"trial_n":88,"span":4,"encoder":"3377","distractor":"3374","target":"absent","response":"absent","rt":"891.99999999953","correct":true,"confidence":-1},{"trial_n":89,"span":4,"encoder":"7880","distractor":"7860","target":"absent","response":"absent","rt":"332","correct":true,"confidence":-1},{"trial_n":90,"span":5,"encoder":"88966","distractor":"98966","target":"absent","response":"present","rt":"142","correct":false,"confidence":-1},{"trial_n":91,"span":4,"encoder":"6300","distractor":"6320","target":"present","response":"absent","rt":"4885","correct":false,"confidence":5},{"trial_n":92,"span":3,"encoder":"284","distractor":"184","target":"present","response":"present","rt":"11311","correct":true,"confidence":5},{"trial_n":93,"span":3,"encoder":"376","distractor":"976","target":"absent","response":"present","rt":"975","correct":false,"confidence":5},{"trial_n":94,"span":2,"encoder":"16","distractor":"56","target":"present","response":"absent","rt":"132","correct":false,"confidence":5},{"trial_n":95,"span":2,"encoder":"92","distractor":"72","target":"present","response":"present","rt":"25","correct":true,"confidence":5},{"trial_n":96,"span":2,"encoder":"15","distractor":"65","target":"absent","response":"present","rt":"-4.9999999995343","correct":false,"confidence":5},{"trial_n":97,"span":2,"encoder":"45","distractor":"40","target":"present","response":"absent","rt":"28.000000000466","correct":false,"confidence":5},{"trial_n":98,"span":2,"encoder":"78","distractor":"75","target":"present","response":"absent","rt":"161","correct":false,"confidence":5},{"trial_n":99,"span":2,"encoder":"19","distractor":"29","target":"present","response":"present","rt":"223","correct":true,"confidence":5},{"trial_n":100,"span":2,"encoder":"03","distractor":"05","target":"absent","response":"present","rt":"0","correct":false,"confidence":5},{"trial_n":101,"span":2,"encoder":"59","distractor":"57","target":"absent","response":"absent","rt":"455","correct":true,"confidence":1},{"trial_n":102,"span":2,"encoder":"69","distractor":"19","target":"absent","response":"absent","rt":"74","correct":true,"confidence":4},{"trial_n":103,"span":3,"encoder":"400","distractor":"490","target":"present","response":"absent","rt":"10.000000000466","correct":false,"confidence":1},{"trial_n":104,"span":2,"encoder":"56","distractor":"76","target":"absent","response":"absent","rt":"223","correct":true,"confidence":3},{"trial_n":105,"span":2,"encoder":"77","distractor":"72","target":"absent","response":"present","rt":"392.00000000047","correct":false,"confidence":4},{"trial_n":106,"span":2,"encoder":"13","distractor":"03","target":"absent","response":"absent","rt":"380.00000000047","correct":true,"confidence":4},{"trial_n":107,"span":2,"encoder":"81","distractor":"86","target":"present","response":"absent","rt":"513","correct":false,"confidence":3},{"trial_n":108,"span":2,"encoder":"13","distractor":"16","target":"present","response":"present","rt":"116","correct":true,"confidence":1},{"trial_n":109,"span":2,"encoder":"16","distractor":"15","target":"present","response":"absent","rt":"83","correct":false,"confidence":3},{"trial_n":110,"span":2,"encoder":"30","distractor":"32","target":"absent","response":"absent","rt":"83","correct":true,"confidence":2},{"trial_n":111,"span":2,"encoder":"89","distractor":"29","target":"absent","response":"absent","rt":"174","correct":true,"confidence":1},{"trial_n":112,"span":3,"encoder":"693","distractor":"393","target":"present","response":"absent","rt":"555","correct":false,"confidence":4},{"trial_n":113,"span":2,"encoder":"61","distractor":"51","target":"absent","response":"present","rt":"181","correct":false,"confidence":1},{"trial_n":114,"span":2,"encoder":"86","distractor":"80","target":"present","response":"absent","rt":"229","correct":false,"confidence":2},{"trial_n":115,"span":2,"encoder":"61","distractor":"91","target":"present","response":"present","rt":"26.000000000466","correct":true,"confidence":1},{"trial_n":116,"span":2,"encoder":"94","distractor":"90","target":"present","response":"absent","rt":"-9","correct":false,"confidence":1},{"trial_n":117,"span":2,"encoder":"58","distractor":"78","target":"present","response":"absent","rt":"194.99999999953","correct":false,"confidence":4},{"trial_n":118,"span":2,"encoder":"25","distractor":"85","target":"present","response":"absent","rt":"1227.0000000005","correct":false,"confidence":4},{"trial_n":119,"span":2,"encoder":"72","distractor":"92","target":"present","response":"absent","rt":"112","correct":false,"confidence":2},{"trial_n":120,"span":2,"encoder":"59","distractor":"54","target":"present","response":"absent","rt":"222.00000000047","correct":false,"confidence":3},{"trial_n":121,"span":2,"encoder":"71","distractor":"11","target":"absent","response":"absent","rt":"1754.0000000005","correct":true,"confidence":5},{"trial_n":122,"span":2,"encoder":"65","distractor":"62","target":"present","response":"present","rt":"1892.9999999995","correct":true,"confidence":5},{"trial_n":123,"span":3,"encoder":"592","distractor":"792","target":"absent","response":"absent","rt":"1962","correct":true,"confidence":1},{"trial_n":124,"span":3,"encoder":"191","distractor":"192","target":"absent","response":"present","rt":"1852","correct":false,"confidence":5},{"trial_n":125,"span":2,"encoder":"00","distractor":"04","target":"absent","response":"present","rt":"2327","correct":false,"confidence":5},{"trial_n":126,"span":2,"encoder":"44","distractor":"74","target":"present","response":"present","rt":"6897.9999999995","correct":true,"confidence":5},{"trial_n":127,"span":2,"encoder":"84","distractor":"04","target":"absent","response":"absent","rt":"278","correct":true,"confidence":5},{"trial_n":128,"span":3,"encoder":"446","distractor":"466","target":"present","response":"absent","rt":"110","correct":false,"confidence":5},{"trial_n":129,"span":2,"encoder":"86","distractor":"89","target":"absent","response":"present","rt":"5015","correct":false,"confidence":5},{"trial_n":130,"span":2,"encoder":"52","distractor":"62","target":"present","response":"present","rt":"1628","correct":true,"confidence":1},{"trial_n":131,"span":2,"encoder":"99","distractor":"95","target":"absent","response":"absent","rt":"440","correct":true,"confidence":1},{"trial_n":132,"span":3,"encoder":"935","distractor":"937","target":"absent","response":"absent","rt":"114","correct":true,"confidence":5},{"trial_n":133,"span":3,"encoder":"678","distractor":"578","target":"absent","response":"present","rt":"291.00000000047","correct":false,"confidence":1},{"trial_n":134,"span":2,"encoder":"50","distractor":"70","target":"absent","response":"absent","rt":"207","correct":true,"confidence":5},{"trial_n":135,"span":2,"encoder":"20","distractor":"24","target":"absent","response":"present","rt":"65","correct":false,"confidence":5},{"trial_n":136,"span":2,"encoder":"56","distractor":"54","target":"absent","response":"absent","rt":"136","correct":true,"confidence":5},{"trial_n":137,"span":2,"encoder":"13","distractor":"17","target":"present","response":"absent","rt":"261","correct":false,"confidence":1},{"trial_n":138,"span":2,"encoder":"26","distractor":"16","target":"absent","response":"present","rt":"105","correct":false,"confidence":1},{"trial_n":139,"span":2,"encoder":"19","distractor":"12","target":"absent","response":"absent","rt":"434","correct":true,"confidence":5},{"trial_n":140,"span":2,"encoder":"27","distractor":"29","target":"present","response":"absent","rt":"6413","correct":false,"confidence":5}]