[{"trial_n":1,"n_dots":4.25,"target":"left","response":"left","rt":3159.200000003,"correct":true,"confidence":-1},{"trial_n":2,"n_dots":4.25,"target":"right","response":"right","rt":1321.1000000089,"correct":true,"confidence":-1},{"trial_n":3,"n_dots":3.85,"target":"left","response":"left","rt":985.09999999404,"correct":true,"confidence":-1},{"trial_n":4,"n_dots":3.85,"target":"right","response":"right","rt":798.39999999106,"correct":true,"confidence":-1},{"trial_n":5,"n_dots":3.45,"target":"right","response":"right","rt":1712.599999994,"correct":true,"confidence":-1},{"trial_n":6,"n_dots":3.45,"target":"right","response":"right","rt":666.69999998808,"correct":true,"confidence":-1},{"trial_n":7,"n_dots":3.05,"target":"right","response":"right","rt":418.90000000596,"correct":true,"confidence":-1},{"trial_n":8,"n_dots":3.05,"target":"right","response":"right","rt":458,"correct":true,"confidence":-1},{"trial_n":9,"n_dots":2.85,"target":"right","response":"left","rt":543.29999999702,"correct":false,"confidence":-1},{"trial_n":10,"n_dots":3.05,"target":"left","response":"right","rt":646.69999998808,"correct":false,"confidence":-1},{"trial_n":11,"n_dots":3.25,"target":"left","response":"left","rt":570.60000000894,"correct":true,"confidence":-1},{"trial_n":12,"n_dots":3.25,"target":"right","response":"right","rt":402,"correct":true,"confidence":-1},{"trial_n":13,"n_dots":3.15,"target":"left","response":"left","rt":812,"correct":true,"confidence":-1},{"trial_n":14,"n_dots":3.15,"target":"left","response":"right","rt":604,"correct":false,"confidence":-1},{"trial_n":15,"n_dots":3.25,"target":"left","response":"left","rt":269.29999999702,"correct":true,"confidence":-1},{"trial_n":16,"n_dots":3.25,"target":"right","response":"right","rt":417.90000000596,"correct":true,"confidence":-1},{"trial_n":17,"n_dots":3.15,"target":"left","response":"left","rt":895.29999999702,"correct":true,"confidence":-1},{"trial_n":18,"n_dots":3.15,"target":"left","response":"right","rt":342.5,"correct":false,"confidence":-1},{"trial_n":19,"n_dots":3.25,"target":"right","response":"left","rt":624.09999999404,"correct":false,"confidence":-1},{"trial_n":20,"n_dots":3.35,"target":"right","response":"right","rt":807.19999998808,"correct":true,"confidence":-1},{"trial_n":21,"n_dots":3.35,"target":"right","response":"right","rt":626.90000000596,"correct":true,"confidence":3},{"trial_n":22,"n_dots":3.25,"target":"left","response":"right","rt":1052.1999999881,"correct":false,"confidence":1},{"trial_n":23,"n_dots":3.35,"target":"left","response":"right","rt":2873.6999999881,"correct":false,"confidence":1},{"trial_n":24,"n_dots":3.45,"target":"right","response":"right","rt":1096.3999999911,"correct":true,"confidence":2},{"trial_n":25,"n_dots":3.45,"target":"left","response":"left","rt":727.90000000596,"correct":true,"confidence":3},{"trial_n":26,"n_dots":3.35,"target":"left","response":"left","rt":1314,"correct":true,"confidence":2},{"trial_n":27,"n_dots":3.35,"target":"right","response":"right","rt":1050.3000000119,"correct":true,"confidence":3},{"trial_n":28,"n_dots":3.25,"target":"right","response":"right","rt":783.5,"correct":true,"confidence":1},{"trial_n":29,"n_dots":3.25,"target":"right","response":"right","rt":839.40000000596,"correct":true,"confidence":3},{"trial_n":30,"n_dots":3.15,"target":"left","response":"left","rt":600.29999999702,"correct":true,"confidence":2},{"trial_n":31,"n_dots":3.15,"target":"left","response":"right","rt":376.20000000298,"correct":false,"confidence":2},{"trial_n":32,"n_dots":3.25,"target":"left","response":"left","rt":669.39999999106,"correct":true,"confidence":2},{"trial_n":33,"n_dots":3.25,"target":"left","response":"left","rt":799.89999999106,"correct":true,"confidence":2},{"trial_n":34,"n_dots":3.15,"target":"right","response":"right","rt":952,"correct":true,"confidence":2},{"trial_n":35,"n_dots":3.15,"target":"left","response":"left","rt":954,"correct":true,"confidence":2},{"trial_n":36,"n_dots":3.05,"target":"left","response":"left","rt":629.10000000894,"correct":true,"confidence":3},{"trial_n":37,"n_dots":3.05,"target":"right","response":"right","rt":497.09999999404,"correct":true,"confidence":3},{"trial_n":38,"n_dots":2.95,"target":"right","response":"left","rt":763.70000000298,"correct":false,"confidence":3},{"trial_n":39,"n_dots":3.05,"target":"left","response":"right","rt":1800.8999999911,"correct":false,"confidence":3},{"trial_n":40,"n_dots":3.15,"target":"left","response":"left","rt":754.20000000298,"correct":true,"confidence":2},{"trial_n":41,"n_dots":3.15,"target":"right","response":"left","rt":923.70000000298,"correct":false,"confidence":1},{"trial_n":42,"n_dots":3.25,"target":"left","response":"left","rt":470.5,"correct":true,"confidence":2},{"trial_n":43,"n_dots":3.25,"target":"right","response":"right","rt":1838.1999999881,"correct":true,"confidence":1},{"trial_n":44,"n_dots":3.15,"target":"right","response":"right","rt":613,"correct":true,"confidence":3},{"trial_n":45,"n_dots":3.15,"target":"right","response":"left","rt":753.90000000596,"correct":false,"confidence":3},{"trial_n":46,"n_dots":3.25,"target":"left","response":"left","rt":927.69999998808,"correct":true,"confidence":3},{"trial_n":47,"n_dots":3.25,"target":"left","response":"left","rt":846.20000000298,"correct":true,"confidence":3},{"trial_n":48,"n_dots":3.15,"target":"left","response":"left","rt":721.90000000596,"correct":true,"confidence":3},{"trial_n":49,"n_dots":3.15,"target":"left","response":"left","rt":725,"correct":true,"confidence":3},{"trial_n":50,"n_dots":3.05,"target":"left","response":"left","rt":696.20000000298,"correct":true,"confidence":3},{"trial_n":51,"n_dots":3.05,"target":"left","response":"left","rt":708.10000000894,"correct":true,"confidence":2},{"trial_n":52,"n_dots":2.95,"target":"right","response":"right","rt":479.79999999702,"correct":true,"confidence":3},{"trial_n":53,"n_dots":2.95,"target":"left","response":"left","rt":436.89999999106,"correct":true,"confidence":3},{"trial_n":54,"n_dots":2.85,"target":"right","response":"right","rt":248.60000000894,"correct":true,"confidence":3},{"trial_n":55,"n_dots":2.85,"target":"right","response":"left","rt":211.40000000596,"correct":false,"confidence":3},{"trial_n":56,"n_dots":2.95,"target":"right","response":"right","rt":247.59999999404,"correct":true,"confidence":4},{"trial_n":57,"n_dots":2.95,"target":"left","response":"right","rt":492.80000001192,"correct":false,"confidence":4},{"trial_n":58,"n_dots":3.05,"target":"right","response":"right","rt":246.79999999702,"correct":true,"confidence":3},{"trial_n":59,"n_dots":3.05,"target":"right","response":"left","rt":311.29999999702,"correct":false,"confidence":3},{"trial_n":60,"n_dots":3.15,"target":"left","response":"right","rt":324.90000000596,"correct":false,"confidence":3},{"trial_n":61,"n_dots":3.25,"target":"left","response":"left","rt":402.90000000596,"correct":true,"confidence":3},{"trial_n":62,"n_dots":3.25,"target":"left","response":"left","rt":555,"correct":true,"confidence":4},{"trial_n":63,"n_dots":3.15,"target":"right","response":"right","rt":485.09999999404,"correct":true,"confidence":3},{"trial_n":64,"n_dots":3.15,"target":"right","response":"right","rt":745.10000000894,"correct":true,"confidence":3},{"trial_n":65,"n_dots":3.05,"target":"right","response":"right","rt":501.09999999404,"correct":true,"confidence":3},{"trial_n":66,"n_dots":3.05,"target":"right","response":"left","rt":533.40000000596,"correct":false,"confidence":3},{"trial_n":67,"n_dots":3.15,"target":"right","response":"right","rt":308.29999999702,"correct":true,"confidence":3},{"trial_n":68,"n_dots":3.15,"target":"left","response":"left","rt":886.59999999404,"correct":true,"confidence":4},{"trial_n":69,"n_dots":3.05,"target":"right","response":"right","rt":496.70000000298,"correct":true,"confidence":4},{"trial_n":70,"n_dots":3.05,"target":"right","response":"right","rt":367.20000000298,"correct":true,"confidence":3},{"trial_n":71,"n_dots":2.95,"target":"left","response":"left","rt":592.79999999702,"correct":true,"confidence":2},{"trial_n":72,"n_dots":2.95,"target":"right","response":"right","rt":520.09999999404,"correct":true,"confidence":2},{"trial_n":73,"n_dots":2.85,"target":"left","response":"right","rt":293.09999999404,"correct":false,"confidence":2},{"trial_n":74,"n_dots":2.95,"target":"left","response":"right","rt":317.70000000298,"correct":false,"confidence":3},{"trial_n":75,"n_dots":3.05,"target":"right","response":"right","rt":341.90000000596,"correct":true,"confidence":2},{"trial_n":76,"n_dots":3.05,"target":"right","response":"right","rt":193.20000000298,"correct":true,"confidence":2},{"trial_n":77,"n_dots":2.95,"target":"right","response":"left","rt":347.79999999702,"correct":false,"confidence":1},{"trial_n":78,"n_dots":3.05,"target":"left","response":"left","rt":606.89999999106,"correct":true,"confidence":3},{"trial_n":79,"n_dots":3.05,"target":"right","response":"left","rt":302.59999999404,"correct":false,"confidence":3},{"trial_n":80,"n_dots":3.15,"target":"left","response":"left","rt":496,"correct":true,"confidence":3},{"trial_n":81,"n_dots":3.15,"target":"right","response":"right","rt":193.69999998808,"correct":true,"confidence":3},{"trial_n":82,"n_dots":3.05,"target":"left","response":"left","rt":661.79999999702,"correct":true,"confidence":3},{"trial_n":83,"n_dots":3.05,"target":"right","response":"right","rt":593.39999999106,"correct":true,"confidence":2},{"trial_n":84,"n_dots":2.95,"target":"right","response":"right","rt":701.10000000894,"correct":true,"confidence":2},{"trial_n":85,"n_dots":2.95,"target":"right","response":"right","rt":783.20000000298,"correct":true,"confidence":3},{"trial_n":86,"n_dots":2.85,"target":"left","response":"left","rt":1054.599999994,"correct":true,"confidence":3},{"trial_n":87,"n_dots":2.85,"target":"left","response":"right","rt":535.29999999702,"correct":false,"confidence":3},{"trial_n":88,"n_dots":2.95,"target":"left","response":"left","rt":416.90000000596,"correct":true,"confidence":3},{"trial_n":89,"n_dots":2.95,"target":"right","response":"left","rt":484.89999999106,"correct":false,"confidence":2},{"trial_n":90,"n_dots":3.05,"target":"left","response":"left","rt":521.19999998808,"correct":true,"confidence":3},{"trial_n":91,"n_dots":3.05,"target":"right","response":"right","rt":712.59999999404,"correct":true,"confidence":3},{"trial_n":92,"n_dots":2.95,"target":"right","response":"right","rt":652.40000000596,"correct":true,"confidence":1},{"trial_n":93,"n_dots":2.95,"target":"left","response":"left","rt":562,"correct":true,"confidence":2},{"trial_n":94,"n_dots":2.85,"target":"right","response":"right","rt":323.79999999702,"correct":true,"confidence":3},{"trial_n":95,"n_dots":2.85,"target":"left","response":"left","rt":285.40000000596,"correct":true,"confidence":3},{"trial_n":96,"n_dots":2.75,"target":"left","response":"left","rt":510.29999999702,"correct":true,"confidence":3},{"trial_n":97,"n_dots":2.75,"target":"left","response":"left","rt":956.5,"correct":true,"confidence":3},{"trial_n":98,"n_dots":2.65,"target":"left","response":"right","rt":294.60000000894,"correct":false,"confidence":3},{"trial_n":99,"n_dots":2.75,"target":"right","response":"left","rt":304.19999998808,"correct":false,"confidence":3},{"trial_n":100,"n_dots":2.85,"target":"left","response":"left","rt":129.10000000894,"correct":true,"confidence":2},{"trial_n":101,"n_dots":2.85,"target":"left","response":"right","rt":198.59999999404,"correct":false,"confidence":3},{"trial_n":102,"n_dots":2.95,"target":"left","response":"left","rt":726.79999999702,"correct":true,"confidence":3},{"trial_n":103,"n_dots":2.95,"target":"right","response":"right","rt":293.39999999106,"correct":true,"confidence":3},{"trial_n":104,"n_dots":2.85,"target":"right","response":"right","rt":319.89999999106,"correct":true,"confidence":3},{"trial_n":105,"n_dots":2.85,"target":"left","response":"left","rt":538.29999999702,"correct":true,"confidence":3},{"trial_n":106,"n_dots":2.75,"target":"right","response":"right","rt":399,"correct":true,"confidence":3},{"trial_n":107,"n_dots":2.75,"target":"right","response":"left","rt":301,"correct":false,"confidence":3},{"trial_n":108,"n_dots":2.85,"target":"left","response":"right","rt":227.20000000298,"correct":false,"confidence":3},{"trial_n":109,"n_dots":2.95,"target":"right","response":"right","rt":217.5,"correct":true,"confidence":3},{"trial_n":110,"n_dots":2.95,"target":"right","response":"left","rt":367.19999998808,"correct":false,"confidence":2},{"trial_n":111,"n_dots":3.05,"target":"left","response":"left","rt":611,"correct":true,"confidence":1},{"trial_n":112,"n_dots":3.05,"target":"right","response":"left","rt":505.60000000894,"correct":false,"confidence":3},{"trial_n":113,"n_dots":3.15,"target":"left","response":"left","rt":308.09999999404,"correct":true,"confidence":3},{"trial_n":114,"n_dots":3.15,"target":"right","response":"right","rt":663.70000000298,"correct":true,"confidence":3},{"trial_n":115,"n_dots":3.05,"target":"right","response":"left","rt":274.89999999106,"correct":false,"confidence":3},{"trial_n":116,"n_dots":3.15,"target":"left","response":"right","rt":627.40000000596,"correct":false,"confidence":3},{"trial_n":117,"n_dots":3.25,"target":"left","response":"left","rt":159.79999999702,"correct":true,"confidence":3},{"trial_n":118,"n_dots":3.25,"target":"right","response":"right","rt":65.59999999404,"correct":true,"confidence":3},{"trial_n":119,"n_dots":3.15,"target":"left","response":"right","rt":255.89999999106,"correct":false,"confidence":2},{"trial_n":120,"n_dots":3.25,"target":"left","response":"right","rt":128,"correct":false,"confidence":2}]