[{"trial_n":1,"n_dots":4.25,"target":"right","response":"left","rt":2709.3999999985,"correct":false,"confidence":-1},{"trial_n":2,"n_dots":4.25,"target":"right","response":"right","rt":1067.8000000007,"correct":true,"confidence":-1},{"trial_n":3,"n_dots":4.25,"target":"left","response":"left","rt":849.5,"correct":true,"confidence":-1},{"trial_n":4,"n_dots":3.85,"target":"left","response":"right","rt":560.30000000075,"correct":false,"confidence":-1},{"trial_n":5,"n_dots":4.25,"target":"left","response":"right","rt":533.40000000037,"correct":false,"confidence":-1},{"trial_n":6,"n_dots":4.65,"target":"left","response":"left","rt":386.90000000037,"correct":true,"confidence":-1},{"trial_n":7,"n_dots":4.65,"target":"left","response":"left","rt":447.90000000037,"correct":true,"confidence":-1},{"trial_n":8,"n_dots":4.45,"target":"right","response":"right","rt":379.5,"correct":true,"confidence":-1},{"trial_n":9,"n_dots":4.45,"target":"left","response":"right","rt":553.59999999963,"correct":false,"confidence":-1},{"trial_n":10,"n_dots":4.65,"target":"left","response":"left","rt":529,"correct":true,"confidence":-1},{"trial_n":11,"n_dots":4.65,"target":"left","response":"left","rt":196.90000000037,"correct":true,"confidence":-1},{"trial_n":12,"n_dots":4.45,"target":"right","response":"right","rt":407.5,"correct":true,"confidence":-1},{"trial_n":13,"n_dots":4.45,"target":"right","response":"right","rt":436.5,"correct":true,"confidence":-1},{"trial_n":14,"n_dots":4.35,"target":"left","response":"right","rt":654.39999999851,"correct":false,"confidence":-1},{"trial_n":15,"n_dots":4.45,"target":"left","response":"left","rt":240.40000000037,"correct":true,"confidence":-1},{"trial_n":16,"n_dots":4.45,"target":"left","response":"left","rt":338.40000000037,"correct":true,"confidence":-1},{"trial_n":17,"n_dots":4.35,"target":"left","response":"left","rt":447.70000000112,"correct":true,"confidence":-1},{"trial_n":18,"n_dots":4.35,"target":"right","response":"right","rt":337.40000000037,"correct":true,"confidence":-1},{"trial_n":19,"n_dots":4.25,"target":"right","response":"right","rt":401.59999999963,"correct":true,"confidence":-1},{"trial_n":20,"n_dots":4.25,"target":"right","response":"right","rt":339.60000000149,"correct":true,"confidence":-1},{"trial_n":21,"n_dots":4.15,"target":"right","response":"right","rt":579.10000000149,"correct":true,"confidence":5},{"trial_n":22,"n_dots":4.15,"target":"right","response":"right","rt":92.700000001118,"correct":true,"confidence":5},{"trial_n":23,"n_dots":4.05,"target":"left","response":"left","rt":562.90000000037,"correct":true,"confidence":4},{"trial_n":24,"n_dots":4.05,"target":"right","response":"right","rt":52.89999999851,"correct":true,"confidence":4},{"trial_n":25,"n_dots":3.95,"target":"right","response":"right","rt":2712.2999999989,"correct":true,"confidence":4},{"trial_n":26,"n_dots":3.95,"target":"right","response":"right","rt":885.5,"correct":true,"confidence":5},{"trial_n":27,"n_dots":3.85,"target":"right","response":"right","rt":357.19999999925,"correct":true,"confidence":5},{"trial_n":28,"n_dots":3.85,"target":"right","response":"right","rt":376.10000000149,"correct":true,"confidence":5},{"trial_n":29,"n_dots":3.75,"target":"left","response":"left","rt":563.60000000149,"correct":true,"confidence":5},{"trial_n":30,"n_dots":3.75,"target":"left","response":"left","rt":45635.6,"correct":true,"confidence":3},{"trial_n":31,"n_dots":3.65,"target":"left","response":"right","rt":515.80000000075,"correct":false,"confidence":5},{"trial_n":32,"n_dots":3.75,"target":"left","response":"left","rt":743.90000000037,"correct":true,"confidence":3},{"trial_n":33,"n_dots":3.75,"target":"right","response":"left","rt":301,"correct":false,"confidence":4},{"trial_n":34,"n_dots":3.85,"target":"left","response":"left","rt":855.29999999888,"correct":true,"confidence":4},{"trial_n":35,"n_dots":3.85,"target":"right","response":"right","rt":56515,"correct":true,"confidence":3},{"trial_n":36,"n_dots":3.75,"target":"right","response":"right","rt":403.39999999851,"correct":true,"confidence":5},{"trial_n":37,"n_dots":3.75,"target":"right","response":"right","rt":1244.6999999993,"correct":true,"confidence":4},{"trial_n":38,"n_dots":3.65,"target":"left","response":"right","rt":383.30000000075,"correct":false,"confidence":5},{"trial_n":39,"n_dots":3.75,"target":"left","response":"left","rt":650.09999999963,"correct":true,"confidence":5},{"trial_n":40,"n_dots":3.75,"target":"left","response":"left","rt":632,"correct":true,"confidence":4},{"trial_n":41,"n_dots":3.65,"target":"left","response":"right","rt":556.70000000112,"correct":false,"confidence":5},{"trial_n":42,"n_dots":3.75,"target":"left","response":"left","rt":671.80000000075,"correct":true,"confidence":5},{"trial_n":43,"n_dots":3.75,"target":"right","response":"right","rt":399.29999999888,"correct":true,"confidence":5},{"trial_n":44,"n_dots":3.65,"target":"right","response":"right","rt":331.5,"correct":true,"confidence":5},{"trial_n":45,"n_dots":3.65,"target":"right","response":"right","rt":391,"correct":true,"confidence":5},{"trial_n":46,"n_dots":3.55,"target":"right","response":"right","rt":865.30000000075,"correct":true,"confidence":4},{"trial_n":47,"n_dots":3.55,"target":"left","response":"right","rt":562.80000000075,"correct":false,"confidence":5},{"trial_n":48,"n_dots":3.65,"target":"right","response":"right","rt":441.40000000037,"correct":true,"confidence":5},{"trial_n":49,"n_dots":3.65,"target":"left","response":"right","rt":530.70000000112,"correct":false,"confidence":5},{"trial_n":50,"n_dots":3.75,"target":"right","response":"right","rt":504.79999999888,"correct":true,"confidence":5},{"trial_n":51,"n_dots":3.75,"target":"left","response":"right","rt":417.89999999851,"correct":false,"confidence":4},{"trial_n":52,"n_dots":3.85,"target":"right","response":"right","rt":369,"correct":true,"confidence":5},{"trial_n":53,"n_dots":3.85,"target":"right","response":"right","rt":274,"correct":true,"confidence":5},{"trial_n":54,"n_dots":3.75,"target":"left","response":"left","rt":647.70000000112,"correct":true,"confidence":5},{"trial_n":55,"n_dots":3.75,"target":"right","response":"right","rt":333.20000000112,"correct":true,"confidence":5},{"trial_n":56,"n_dots":3.65,"target":"left","response":"left","rt":480.09999999963,"correct":true,"confidence":5},{"trial_n":57,"n_dots":3.65,"target":"left","response":"right","rt":548.40000000037,"correct":false,"confidence":5},{"trial_n":58,"n_dots":3.75,"target":"right","response":"right","rt":360.39999999851,"correct":true,"confidence":5},{"trial_n":59,"n_dots":3.75,"target":"right","response":"right","rt":450.20000000112,"correct":true,"confidence":5},{"trial_n":60,"n_dots":3.65,"target":"right","response":"right","rt":302.09999999963,"correct":true,"confidence":5},{"trial_n":61,"n_dots":3.65,"target":"right","response":"left","rt":602.40000000037,"correct":false,"confidence":5},{"trial_n":62,"n_dots":3.75,"target":"left","response":"left","rt":457.29999999888,"correct":true,"confidence":4},{"trial_n":63,"n_dots":3.75,"target":"right","response":"left","rt":519.69999999925,"correct":false,"confidence":4},{"trial_n":64,"n_dots":3.85,"target":"left","response":"left","rt":472.89999999851,"correct":true,"confidence":4},{"trial_n":65,"n_dots":3.85,"target":"left","response":"left","rt":358.19999999925,"correct":true,"confidence":5},{"trial_n":66,"n_dots":3.75,"target":"left","response":"left","rt":1039,"correct":true,"confidence":4},{"trial_n":67,"n_dots":3.75,"target":"left","response":"right","rt":851.5,"correct":false,"confidence":5},{"trial_n":68,"n_dots":3.85,"target":"left","response":"left","rt":807.59999999963,"correct":true,"confidence":4},{"trial_n":69,"n_dots":3.85,"target":"right","response":"right","rt":856.5,"correct":true,"confidence":5},{"trial_n":70,"n_dots":3.75,"target":"right","response":"right","rt":501,"correct":true,"confidence":4},{"trial_n":71,"n_dots":3.75,"target":"left","response":"left","rt":413.59999999963,"correct":true,"confidence":4},{"trial_n":72,"n_dots":3.65,"target":"left","response":"left","rt":637.60000000149,"correct":true,"confidence":4},{"trial_n":73,"n_dots":3.65,"target":"left","response":"left","rt":516.90000000037,"correct":true,"confidence":5},{"trial_n":74,"n_dots":3.55,"target":"right","response":"right","rt":285.79999999888,"correct":true,"confidence":5},{"trial_n":75,"n_dots":3.55,"target":"right","response":"left","rt":737.5,"correct":false,"confidence":4},{"trial_n":76,"n_dots":3.65,"target":"right","response":"left","rt":851.29999999888,"correct":false,"confidence":4},{"trial_n":77,"n_dots":3.75,"target":"left","response":"right","rt":1460.5999999996,"correct":false,"confidence":2},{"trial_n":78,"n_dots":3.85,"target":"left","response":"left","rt":388,"correct":true,"confidence":4},{"trial_n":79,"n_dots":3.85,"target":"right","response":"left","rt":559.29999999888,"correct":false,"confidence":4},{"trial_n":80,"n_dots":3.95,"target":"right","response":"right","rt":317.59999999963,"correct":true,"confidence":5},{"trial_n":81,"n_dots":3.95,"target":"left","response":"left","rt":610.10000000149,"correct":true,"confidence":3},{"trial_n":82,"n_dots":3.85,"target":"right","response":"right","rt":369.79999999888,"correct":true,"confidence":4},{"trial_n":83,"n_dots":3.85,"target":"left","response":"right","rt":394.5,"correct":false,"confidence":4},{"trial_n":84,"n_dots":3.95,"target":"left","response":"left","rt":403.59999999963,"correct":true,"confidence":4},{"trial_n":85,"n_dots":3.95,"target":"right","response":"right","rt":353.59999999963,"correct":true,"confidence":4},{"trial_n":86,"n_dots":3.85,"target":"right","response":"right","rt":1160.4000000004,"correct":true,"confidence":4},{"trial_n":87,"n_dots":3.85,"target":"right","response":"right","rt":262.59999999963,"correct":true,"confidence":4},{"trial_n":88,"n_dots":3.75,"target":"left","response":"left","rt":431.79999999888,"correct":true,"confidence":4},{"trial_n":89,"n_dots":3.75,"target":"right","response":"right","rt":558.40000000037,"correct":true,"confidence":4},{"trial_n":90,"n_dots":3.65,"target":"left","response":"left","rt":467.79999999888,"correct":true,"confidence":5},{"trial_n":91,"n_dots":3.65,"target":"right","response":"right","rt":475.70000000112,"correct":true,"confidence":5},{"trial_n":92,"n_dots":3.55,"target":"right","response":"right","rt":624.80000000075,"correct":true,"confidence":4},{"trial_n":93,"n_dots":3.55,"target":"left","response":"left","rt":330.09999999963,"correct":true,"confidence":5},{"trial_n":94,"n_dots":3.45,"target":"right","response":"right","rt":1827.5,"correct":true,"confidence":5},{"trial_n":95,"n_dots":3.45,"target":"left","response":"right","rt":514.20000000112,"correct":false,"confidence":5},{"trial_n":96,"n_dots":3.55,"target":"right","response":"left","rt":503.09999999963,"correct":false,"confidence":5},{"trial_n":97,"n_dots":3.65,"target":"right","response":"left","rt":34.699999999255,"correct":false,"confidence":3},{"trial_n":98,"n_dots":3.75,"target":"left","response":"left","rt":607.20000000112,"correct":true,"confidence":5},{"trial_n":99,"n_dots":3.75,"target":"left","response":"left","rt":452.20000000112,"correct":true,"confidence":3},{"trial_n":100,"n_dots":3.65,"target":"right","response":"left","rt":261.09999999963,"correct":false,"confidence":2},{"trial_n":101,"n_dots":3.75,"target":"right","response":"right","rt":700.09999999963,"correct":true,"confidence":4},{"trial_n":102,"n_dots":3.75,"target":"left","response":"left","rt":219.5,"correct":true,"confidence":4},{"trial_n":103,"n_dots":3.65,"target":"left","response":"left","rt":329.30000000075,"correct":true,"confidence":4},{"trial_n":104,"n_dots":3.65,"target":"left","response":"left","rt":785.60000000149,"correct":true,"confidence":4},{"trial_n":105,"n_dots":3.55,"target":"left","response":"left","rt":358.60000000149,"correct":true,"confidence":4},{"trial_n":106,"n_dots":3.55,"target":"left","response":"right","rt":790.30000000075,"correct":false,"confidence":4},{"trial_n":107,"n_dots":3.65,"target":"right","response":"left","rt":420.59999999963,"correct":false,"confidence":4},{"trial_n":108,"n_dots":3.75,"target":"left","response":"left","rt":62.800000000745,"correct":true,"confidence":1},{"trial_n":109,"n_dots":3.75,"target":"left","response":"left","rt":605.40000000037,"correct":true,"confidence":4},{"trial_n":110,"n_dots":3.65,"target":"right","response":"right","rt":467.09999999963,"correct":true,"confidence":4},{"trial_n":111,"n_dots":3.65,"target":"right","response":"right","rt":967.30000000075,"correct":true,"confidence":5},{"trial_n":112,"n_dots":3.55,"target":"left","response":"left","rt":530.59999999963,"correct":true,"confidence":5},{"trial_n":113,"n_dots":3.55,"target":"right","response":"right","rt":359.79999999888,"correct":true,"confidence":5},{"trial_n":114,"n_dots":3.45,"target":"right","response":"right","rt":354.09999999963,"correct":true,"confidence":5},{"trial_n":115,"n_dots":3.45,"target":"left","response":"right","rt":425.40000000037,"correct":false,"confidence":5},{"trial_n":116,"n_dots":3.55,"target":"left","response":"left","rt":544.90000000037,"correct":true,"confidence":4},{"trial_n":117,"n_dots":3.55,"target":"right","response":"right","rt":329.70000000112,"correct":true,"confidence":5},{"trial_n":118,"n_dots":3.45,"target":"left","response":"right","rt":416.5,"correct":false,"confidence":5},{"trial_n":119,"n_dots":3.55,"target":"right","response":"right","rt":122.90000000037,"correct":true,"confidence":5},{"trial_n":120,"n_dots":3.55,"target":"right","response":"right","rt":366.69999999925,"correct":true,"confidence":5}]