[{"trial_n":1,"min":25,"max":230,"target":"present","response":"absent","rt":8334.3000000119,"correct":false,"confidence":-1},{"trial_n":2,"min":25,"max":230,"target":"present","response":"present","rt":1881.5,"correct":true,"confidence":-1},{"trial_n":3,"min":25,"max":230,"target":"absent","response":"present","rt":928.19999998808,"correct":false,"confidence":-1},{"trial_n":4,"min":9,"max":246,"target":"absent","response":"present","rt":819.40000000596,"correct":false,"confidence":-1},{"trial_n":5,"min":0,"max":255,"target":"present","response":"present","rt":1620,"correct":true,"confidence":-1},{"trial_n":6,"min":0,"max":255,"target":"absent","response":"absent","rt":1023.6999999881,"correct":true,"confidence":-1},{"trial_n":7,"min":16,"max":239,"target":"absent","response":"absent","rt":1004.099999994,"correct":true,"confidence":-1},{"trial_n":8,"min":16,"max":239,"target":"absent","response":"absent","rt":605.70000001788,"correct":true,"confidence":-1},{"trial_n":9,"min":32,"max":223,"target":"present","response":"present","rt":923.30000001192,"correct":true,"confidence":-1},{"trial_n":10,"min":32,"max":223,"target":"absent","response":"absent","rt":6788,"correct":true,"confidence":-1},{"trial_n":11,"min":40,"max":215,"target":"absent","response":"absent","rt":399.70000001788,"correct":true,"confidence":-1},{"trial_n":12,"min":40,"max":215,"target":"absent","response":"present","rt":609.09999999404,"correct":false,"confidence":-1},{"trial_n":13,"min":32,"max":223,"target":"absent","response":"absent","rt":404.90000000596,"correct":true,"confidence":-1},{"trial_n":14,"min":32,"max":223,"target":"absent","response":"absent","rt":346.10000002384,"correct":true,"confidence":-1},{"trial_n":15,"min":40,"max":215,"target":"absent","response":"absent","rt":286.19999998808,"correct":true,"confidence":-1},{"trial_n":16,"min":40,"max":215,"target":"absent","response":"absent","rt":599.40000000596,"correct":true,"confidence":-1},{"trial_n":17,"min":48,"max":207,"target":"absent","response":"absent","rt":319.40000000596,"correct":true,"confidence":-1},{"trial_n":18,"min":48,"max":207,"target":"absent","response":"absent","rt":441.30000001192,"correct":true,"confidence":-1},{"trial_n":19,"min":56,"max":199,"target":"present","response":"present","rt":476.80000001192,"correct":true,"confidence":-1},{"trial_n":20,"min":56,"max":199,"target":"absent","response":"absent","rt":301.79999998212,"correct":true,"confidence":-1},{"trial_n":21,"min":60,"max":195,"target":"present","response":"absent","rt":1897.900000006,"correct":false,"confidence":1},{"trial_n":22,"min":56,"max":199,"target":"present","response":"absent","rt":12874.800000012,"correct":false,"confidence":1},{"trial_n":23,"min":52,"max":203,"target":"absent","response":"absent","rt":595.30000001192,"correct":true,"confidence":4},{"trial_n":24,"min":52,"max":203,"target":"present","response":"present","rt":2046.8000000119,"correct":true,"confidence":3},{"trial_n":25,"min":56,"max":199,"target":"present","response":"present","rt":1930.6999999881,"correct":true,"confidence":5},{"trial_n":26,"min":56,"max":199,"target":"present","response":"present","rt":831.19999998808,"correct":true,"confidence":5},{"trial_n":27,"min":60,"max":195,"target":"present","response":"present","rt":512.19999998808,"correct":true,"confidence":5},{"trial_n":28,"min":60,"max":195,"target":"absent","response":"absent","rt":519.60000002384,"correct":true,"confidence":5},{"trial_n":29,"min":64,"max":191,"target":"present","response":"present","rt":807.59999999404,"correct":true,"confidence":3},{"trial_n":30,"min":64,"max":191,"target":"present","response":"present","rt":654.10000002384,"correct":true,"confidence":5},{"trial_n":31,"min":66,"max":189,"target":"present","response":"present","rt":621.19999998808,"correct":true,"confidence":5},{"trial_n":32,"min":66,"max":189,"target":"absent","response":"absent","rt":353.90000000596,"correct":true,"confidence":5},{"trial_n":33,"min":68,"max":187,"target":"absent","response":"absent","rt":1420.400000006,"correct":true,"confidence":4},{"trial_n":34,"min":68,"max":187,"target":"present","response":"present","rt":2091.900000006,"correct":true,"confidence":3},{"trial_n":35,"min":70,"max":185,"target":"present","response":"present","rt":1148.7000000179,"correct":true,"confidence":4},{"trial_n":36,"min":70,"max":185,"target":"absent","response":"absent","rt":602.69999998808,"correct":true,"confidence":5},{"trial_n":37,"min":72,"max":183,"target":"absent","response":"absent","rt":769.59999999404,"correct":true,"confidence":5},{"trial_n":38,"min":72,"max":183,"target":"absent","response":"absent","rt":487.40000000596,"correct":true,"confidence":5},{"trial_n":39,"min":74,"max":181,"target":"absent","response":"absent","rt":640.09999999404,"correct":true,"confidence":5},{"trial_n":40,"min":74,"max":181,"target":"present","response":"present","rt":1029.400000006,"correct":true,"confidence":3},{"trial_n":41,"min":75,"max":180,"target":"absent","response":"absent","rt":738,"correct":true,"confidence":4},{"trial_n":42,"min":75,"max":180,"target":"present","response":"present","rt":1359.6000000238,"correct":true,"confidence":3},{"trial_n":43,"min":76,"max":179,"target":"absent","response":"absent","rt":587.19999998808,"correct":true,"confidence":4},{"trial_n":44,"min":76,"max":179,"target":"present","response":"present","rt":539.90000000596,"correct":true,"confidence":4},{"trial_n":45,"min":77,"max":178,"target":"present","response":"present","rt":481.69999998808,"correct":true,"confidence":5},{"trial_n":46,"min":77,"max":178,"target":"present","response":"present","rt":753.5,"correct":true,"confidence":3},{"trial_n":47,"min":78,"max":177,"target":"absent","response":"absent","rt":486.09999999404,"correct":true,"confidence":4},{"trial_n":48,"min":78,"max":177,"target":"present","response":"present","rt":545.80000001192,"correct":true,"confidence":4},{"trial_n":49,"min":79,"max":176,"target":"present","response":"present","rt":2103.5,"correct":true,"confidence":2},{"trial_n":50,"min":79,"max":176,"target":"present","response":"absent","rt":1657.599999994,"correct":false,"confidence":2},{"trial_n":51,"min":78,"max":177,"target":"absent","response":"absent","rt":539.59999999404,"correct":true,"confidence":4},{"trial_n":52,"min":78,"max":177,"target":"present","response":"present","rt":4290.6999999881,"correct":true,"confidence":4},{"trial_n":53,"min":79,"max":176,"target":"absent","response":"absent","rt":2415.5,"correct":true,"confidence":3},{"trial_n":54,"min":79,"max":176,"target":"absent","response":"absent","rt":3104.5,"correct":true,"confidence":3},{"trial_n":55,"min":80,"max":175,"target":"present","response":"present","rt":620.40000000596,"correct":true,"confidence":3},{"trial_n":56,"min":80,"max":175,"target":"present","response":"absent","rt":666.09999999404,"correct":false,"confidence":3},{"trial_n":57,"min":79,"max":176,"target":"absent","response":"absent","rt":555.90000000596,"correct":true,"confidence":5},{"trial_n":58,"min":79,"max":176,"target":"absent","response":"absent","rt":992.29999998212,"correct":true,"confidence":4},{"trial_n":59,"min":80,"max":175,"target":"present","response":"present","rt":1305.900000006,"correct":true,"confidence":2},{"trial_n":60,"min":80,"max":175,"target":"present","response":"present","rt":763.5,"correct":true,"confidence":3},{"trial_n":61,"min":81,"max":174,"target":"absent","response":"absent","rt":621.80000001192,"correct":true,"confidence":4},{"trial_n":62,"min":81,"max":174,"target":"present","response":"present","rt":388.29999998212,"correct":true,"confidence":4},{"trial_n":63,"min":82,"max":173,"target":"present","response":"present","rt":673.70000001788,"correct":true,"confidence":3},{"trial_n":64,"min":82,"max":173,"target":"present","response":"present","rt":740.59999999404,"correct":true,"confidence":4},{"trial_n":65,"min":83,"max":172,"target":"present","response":"present","rt":732.80000001192,"correct":true,"confidence":4},{"trial_n":66,"min":83,"max":172,"target":"present","response":"present","rt":723.70000001788,"correct":true,"confidence":3},{"trial_n":67,"min":84,"max":171,"target":"absent","response":"absent","rt":1170.6999999881,"correct":true,"confidence":2},{"trial_n":68,"min":84,"max":171,"target":"present","response":"present","rt":583.90000000596,"correct":true,"confidence":4},{"trial_n":69,"min":85,"max":170,"target":"absent","response":"present","rt":968.69999998808,"correct":false,"confidence":3},{"trial_n":70,"min":84,"max":171,"target":"present","response":"present","rt":572.5,"correct":true,"confidence":4},{"trial_n":71,"min":41,"max":214,"target":"present","response":"present","rt":3976.7000000179,"correct":true,"confidence":-1},{"trial_n":72,"min":41,"max":214,"target":"present","response":"present","rt":1202.6000000238,"correct":true,"confidence":-1},{"trial_n":73,"min":57,"max":198,"target":"absent","response":"absent","rt":2745,"correct":true,"confidence":-1},{"trial_n":74,"min":57,"max":198,"target":"absent","response":"absent","rt":601.19999998808,"correct":true,"confidence":-1},{"trial_n":75,"min":73,"max":182,"target":"present","response":"present","rt":451.09999999404,"correct":true,"confidence":-1},{"trial_n":76,"min":73,"max":182,"target":"present","response":"present","rt":587.70000001788,"correct":true,"confidence":-1},{"trial_n":77,"min":89,"max":166,"target":"present","response":"absent","rt":592.90000000596,"correct":false,"confidence":-1},{"trial_n":78,"min":73,"max":182,"target":"absent","response":"present","rt":912.80000001192,"correct":false,"confidence":-1},{"trial_n":79,"min":57,"max":198,"target":"present","response":"present","rt":359.09999999404,"correct":true,"confidence":-1},{"trial_n":80,"min":57,"max":198,"target":"absent","response":"present","rt":616,"correct":false,"confidence":-1},{"trial_n":81,"min":49,"max":206,"target":"present","response":"present","rt":566.40000000596,"correct":true,"confidence":-1},{"trial_n":82,"min":49,"max":206,"target":"present","response":"present","rt":301.09999999404,"correct":true,"confidence":-1},{"trial_n":83,"min":57,"max":198,"target":"absent","response":"absent","rt":377.80000001192,"correct":true,"confidence":-1},{"trial_n":84,"min":57,"max":198,"target":"present","response":"present","rt":317.59999999404,"correct":true,"confidence":-1},{"trial_n":85,"min":65,"max":190,"target":"absent","response":"absent","rt":1001.7000000179,"correct":true,"confidence":-1},{"trial_n":86,"min":65,"max":190,"target":"present","response":"present","rt":118.39999997616,"correct":true,"confidence":-1},{"trial_n":87,"min":73,"max":182,"target":"present","response":"present","rt":333.79999998212,"correct":true,"confidence":-1},{"trial_n":88,"min":73,"max":182,"target":"absent","response":"absent","rt":623.39999997616,"correct":true,"confidence":-1},{"trial_n":89,"min":81,"max":174,"target":"present","response":"present","rt":1811.7999999821,"correct":true,"confidence":-1},{"trial_n":90,"min":81,"max":174,"target":"present","response":"present","rt":423.70000001788,"correct":true,"confidence":-1},{"trial_n":91,"min":85,"max":170,"target":"present","response":"present","rt":270.39999997616,"correct":true,"confidence":4},{"trial_n":92,"min":85,"max":170,"target":"absent","response":"present","rt":891.59999999404,"correct":false,"confidence":3},{"trial_n":93,"min":81,"max":174,"target":"absent","response":"absent","rt":589,"correct":true,"confidence":5},{"trial_n":94,"min":81,"max":174,"target":"present","response":"present","rt":443.5,"correct":true,"confidence":5},{"trial_n":95,"min":85,"max":170,"target":"present","response":"present","rt":543.69999998808,"correct":true,"confidence":4},{"trial_n":96,"min":85,"max":170,"target":"absent","response":"absent","rt":437.09999999404,"correct":true,"confidence":4},{"trial_n":97,"min":89,"max":166,"target":"present","response":"present","rt":364.09999999404,"correct":true,"confidence":4},{"trial_n":98,"min":89,"max":166,"target":"present","response":"present","rt":612.70000001788,"correct":true,"confidence":5},{"trial_n":99,"min":93,"max":162,"target":"present","response":"present","rt":1147.2000000179,"correct":true,"confidence":2},{"trial_n":100,"min":93,"max":162,"target":"present","response":"present","rt":3257,"correct":true,"confidence":2},{"trial_n":101,"min":95,"max":160,"target":"absent","response":"present","rt":1278.7999999821,"correct":false,"confidence":2},{"trial_n":102,"min":93,"max":162,"target":"absent","response":"present","rt":685.59999999404,"correct":false,"confidence":2},{"trial_n":103,"min":91,"max":164,"target":"absent","response":"absent","rt":1396.2999999821,"correct":true,"confidence":2},{"trial_n":104,"min":91,"max":164,"target":"absent","response":"present","rt":1521.7999999821,"correct":false,"confidence":1},{"trial_n":105,"min":89,"max":166,"target":"absent","response":"absent","rt":808.69999998808,"correct":true,"confidence":1},{"trial_n":106,"min":89,"max":166,"target":"absent","response":"absent","rt":1576.8000000119,"correct":true,"confidence":2},{"trial_n":107,"min":91,"max":164,"target":"present","response":"present","rt":963,"correct":true,"confidence":3},{"trial_n":108,"min":91,"max":164,"target":"absent","response":"absent","rt":791,"correct":true,"confidence":3},{"trial_n":109,"min":93,"max":162,"target":"present","response":"absent","rt":1361.2000000179,"correct":false,"confidence":2},{"trial_n":110,"min":91,"max":164,"target":"present","response":"present","rt":502.19999998808,"correct":true,"confidence":3},{"trial_n":111,"min":91,"max":164,"target":"absent","response":"present","rt":676.40000000596,"correct":false,"confidence":1},{"trial_n":112,"min":90,"max":165,"target":"present","response":"present","rt":409.09999999404,"correct":true,"confidence":4},{"trial_n":113,"min":90,"max":165,"target":"absent","response":"present","rt":441.40000000596,"correct":false,"confidence":2},{"trial_n":114,"min":89,"max":166,"target":"present","response":"present","rt":403.59999999404,"correct":true,"confidence":3},{"trial_n":115,"min":89,"max":166,"target":"absent","response":"present","rt":619.69999998808,"correct":false,"confidence":3},{"trial_n":116,"min":88,"max":167,"target":"present","response":"present","rt":757.59999999404,"correct":true,"confidence":3},{"trial_n":117,"min":88,"max":167,"target":"absent","response":"absent","rt":722.5,"correct":true,"confidence":2},{"trial_n":118,"min":89,"max":166,"target":"present","response":"present","rt":480.19999998808,"correct":true,"confidence":4},{"trial_n":119,"min":89,"max":166,"target":"present","response":"present","rt":551.09999999404,"correct":true,"confidence":4},{"trial_n":120,"min":90,"max":165,"target":"present","response":"absent","rt":983.5,"correct":false,"confidence":3},{"trial_n":121,"min":89,"max":166,"target":"present","response":"present","rt":606.29999998212,"correct":true,"confidence":3},{"trial_n":122,"min":89,"max":166,"target":"absent","response":"present","rt":302.39999997616,"correct":false,"confidence":3},{"trial_n":123,"min":88,"max":167,"target":"absent","response":"present","rt":692.89999997616,"correct":false,"confidence":3},{"trial_n":124,"min":87,"max":168,"target":"present","response":"present","rt":260.40000000596,"correct":true,"confidence":5},{"trial_n":125,"min":87,"max":168,"target":"absent","response":"absent","rt":2860.1999999881,"correct":true,"confidence":2},{"trial_n":126,"min":88,"max":167,"target":"present","response":"present","rt":922,"correct":true,"confidence":4},{"trial_n":127,"min":88,"max":167,"target":"absent","response":"present","rt":920.90000000596,"correct":false,"confidence":4},{"trial_n":128,"min":87,"max":168,"target":"absent","response":"present","rt":448.59999999404,"correct":false,"confidence":5},{"trial_n":129,"min":86,"max":169,"target":"absent","response":"present","rt":812.59999999404,"correct":false,"confidence":2},{"trial_n":130,"min":85,"max":170,"target":"present","response":"present","rt":432.20000001788,"correct":true,"confidence":5},{"trial_n":131,"min":85,"max":170,"target":"present","response":"present","rt":757.90000000596,"correct":true,"confidence":3},{"trial_n":132,"min":86,"max":169,"target":"absent","response":"absent","rt":1816.099999994,"correct":true,"confidence":2},{"trial_n":133,"min":86,"max":169,"target":"absent","response":"present","rt":641.09999999404,"correct":false,"confidence":4},{"trial_n":134,"min":85,"max":170,"target":"absent","response":"present","rt":855.5,"correct":false,"confidence":5},{"trial_n":135,"min":84,"max":171,"target":"absent","response":"present","rt":522.19999998808,"correct":false,"confidence":2},{"trial_n":136,"min":83,"max":172,"target":"present","response":"present","rt":486.09999999404,"correct":true,"confidence":3},{"trial_n":137,"min":83,"max":172,"target":"absent","response":"absent","rt":845.90000000596,"correct":true,"confidence":4},{"trial_n":138,"min":84,"max":171,"target":"absent","response":"present","rt":366.40000000596,"correct":false,"confidence":4},{"trial_n":139,"min":83,"max":172,"target":"present","response":"present","rt":734.90000000596,"correct":true,"confidence":3},{"trial_n":140,"min":83,"max":172,"target":"absent","response":"absent","rt":1137.7999999821,"correct":true,"confidence":1}]