[{"trial_n":1,"n_dots":4.25,"target":"right","response":"right","rt":10656,"correct":true,"confidence":-1},{"trial_n":2,"n_dots":4.25,"target":"right","response":"left","rt":1930,"correct":false,"confidence":-1},{"trial_n":3,"n_dots":4.65,"target":"left","response":"right","rt":688,"correct":false,"confidence":-1},{"trial_n":4,"n_dots":5.05,"target":"right","response":"left","rt":2145,"correct":false,"confidence":-1},{"trial_n":5,"n_dots":5.45,"target":"left","response":"left","rt":1364,"correct":true,"confidence":-1},{"trial_n":6,"n_dots":5.45,"target":"left","response":"left","rt":563,"correct":true,"confidence":-1},{"trial_n":7,"n_dots":5.05,"target":"right","response":"right","rt":1239,"correct":true,"confidence":-1},{"trial_n":8,"n_dots":5.05,"target":"left","response":"left","rt":737,"correct":true,"confidence":-1},{"trial_n":9,"n_dots":4.85,"target":"right","response":"left","rt":631,"correct":false,"confidence":-1},{"trial_n":10,"n_dots":5.05,"target":"right","response":"right","rt":1768,"correct":true,"confidence":-1},{"trial_n":11,"n_dots":5.05,"target":"right","response":"right","rt":711,"correct":true,"confidence":-1},{"trial_n":12,"n_dots":4.85,"target":"left","response":"left","rt":989,"correct":true,"confidence":-1},{"trial_n":13,"n_dots":4.85,"target":"right","response":"right","rt":2528,"correct":true,"confidence":-1},{"trial_n":14,"n_dots":4.75,"target":"left","response":"left","rt":572.00000000001,"correct":true,"confidence":-1},{"trial_n":15,"n_dots":4.75,"target":"left","response":"left","rt":242,"correct":true,"confidence":-1},{"trial_n":16,"n_dots":4.65,"target":"left","response":"left","rt":605,"correct":true,"confidence":-1},{"trial_n":17,"n_dots":4.65,"target":"right","response":"right","rt":277.00000000001,"correct":true,"confidence":-1},{"trial_n":18,"n_dots":4.55,"target":"right","response":"right","rt":157.00000000001,"correct":true,"confidence":-1},{"trial_n":19,"n_dots":4.55,"target":"right","response":"right","rt":2249,"correct":true,"confidence":-1},{"trial_n":20,"n_dots":4.45,"target":"left","response":"left","rt":235,"correct":true,"confidence":-1},{"trial_n":21,"n_dots":4.45,"target":"right","response":"right","rt":788,"correct":true,"confidence":3},{"trial_n":22,"n_dots":4.35,"target":"left","response":"left","rt":579,"correct":true,"confidence":4},{"trial_n":23,"n_dots":4.35,"target":"left","response":"right","rt":1297,"correct":false,"confidence":3},{"trial_n":24,"n_dots":4.45,"target":"right","response":"right","rt":895,"correct":true,"confidence":4},{"trial_n":25,"n_dots":4.45,"target":"right","response":"right","rt":526,"correct":true,"confidence":4},{"trial_n":26,"n_dots":4.35,"target":"left","response":"right","rt":426,"correct":false,"confidence":4},{"trial_n":27,"n_dots":4.45,"target":"left","response":"left","rt":512,"correct":true,"confidence":4},{"trial_n":28,"n_dots":4.45,"target":"left","response":"left","rt":1001,"correct":true,"confidence":4},{"trial_n":29,"n_dots":4.35,"target":"right","response":"left","rt":723,"correct":false,"confidence":3},{"trial_n":30,"n_dots":4.45,"target":"left","response":"left","rt":618,"correct":true,"confidence":3},{"trial_n":31,"n_dots":4.45,"target":"right","response":"right","rt":1597,"correct":true,"confidence":4},{"trial_n":32,"n_dots":4.35,"target":"right","response":"right","rt":1188,"correct":true,"confidence":3},{"trial_n":33,"n_dots":4.35,"target":"left","response":"left","rt":406,"correct":true,"confidence":4},{"trial_n":34,"n_dots":4.25,"target":"right","response":"right","rt":658,"correct":true,"confidence":4},{"trial_n":35,"n_dots":4.25,"target":"left","response":"left","rt":82,"correct":true,"confidence":4},{"trial_n":36,"n_dots":4.15,"target":"left","response":"left","rt":147,"correct":true,"confidence":4},{"trial_n":37,"n_dots":4.15,"target":"right","response":"right","rt":171,"correct":true,"confidence":4},{"trial_n":38,"n_dots":4.05,"target":"right","response":"right","rt":184,"correct":true,"confidence":4},{"trial_n":39,"n_dots":4.05,"target":"right","response":"right","rt":134,"correct":true,"confidence":4},{"trial_n":40,"n_dots":3.95,"target":"right","response":"right","rt":255,"correct":true,"confidence":4},{"trial_n":41,"n_dots":3.95,"target":"left","response":"left","rt":1042,"correct":true,"confidence":4},{"trial_n":42,"n_dots":3.85,"target":"left","response":"left","rt":468,"correct":true,"confidence":4},{"trial_n":43,"n_dots":3.85,"target":"right","response":"right","rt":417,"correct":true,"confidence":4},{"trial_n":44,"n_dots":3.75,"target":"right","response":"right","rt":674.99999999997,"correct":true,"confidence":3},{"trial_n":45,"n_dots":3.75,"target":"right","response":"right","rt":195.00000000003,"correct":true,"confidence":3},{"trial_n":46,"n_dots":3.65,"target":"left","response":"left","rt":418,"correct":true,"confidence":4},{"trial_n":47,"n_dots":3.65,"target":"right","response":"right","rt":141,"correct":true,"confidence":3},{"trial_n":48,"n_dots":3.55,"target":"right","response":"right","rt":301.00000000003,"correct":true,"confidence":3},{"trial_n":49,"n_dots":3.55,"target":"right","response":"left","rt":232,"correct":false,"confidence":3},{"trial_n":50,"n_dots":3.65,"target":"right","response":"right","rt":851,"correct":true,"confidence":3},{"trial_n":51,"n_dots":3.65,"target":"right","response":"left","rt":354,"correct":false,"confidence":3},{"trial_n":52,"n_dots":3.75,"target":"left","response":"left","rt":107,"correct":true,"confidence":3},{"trial_n":53,"n_dots":3.75,"target":"right","response":"left","rt":324,"correct":false,"confidence":3},{"trial_n":54,"n_dots":3.85,"target":"right","response":"right","rt":112,"correct":true,"confidence":4},{"trial_n":55,"n_dots":3.85,"target":"right","response":"right","rt":714,"correct":true,"confidence":4},{"trial_n":56,"n_dots":3.75,"target":"right","response":"left","rt":360,"correct":false,"confidence":3},{"trial_n":57,"n_dots":3.85,"target":"right","response":"right","rt":510,"correct":true,"confidence":4},{"trial_n":58,"n_dots":3.85,"target":"right","response":"left","rt":1071,"correct":false,"confidence":3},{"trial_n":59,"n_dots":3.95,"target":"left","response":"left","rt":400,"correct":true,"confidence":3},{"trial_n":60,"n_dots":3.95,"target":"right","response":"right","rt":873,"correct":true,"confidence":3},{"trial_n":61,"n_dots":3.85,"target":"left","response":"left","rt":245,"correct":true,"confidence":3},{"trial_n":62,"n_dots":3.85,"target":"right","response":"right","rt":138,"correct":true,"confidence":3},{"trial_n":63,"n_dots":3.75,"target":"right","response":"right","rt":286.00000000003,"correct":true,"confidence":4},{"trial_n":64,"n_dots":3.75,"target":"left","response":"left","rt":150,"correct":true,"confidence":3},{"trial_n":65,"n_dots":3.65,"target":"right","response":"right","rt":119,"correct":true,"confidence":3},{"trial_n":66,"n_dots":3.65,"target":"left","response":"left","rt":1653,"correct":true,"confidence":3},{"trial_n":67,"n_dots":3.55,"target":"right","response":"right","rt":132.00000000003,"correct":true,"confidence":3},{"trial_n":68,"n_dots":3.55,"target":"left","response":"left","rt":170,"correct":true,"confidence":3},{"trial_n":69,"n_dots":3.45,"target":"left","response":"left","rt":81.999999999971,"correct":true,"confidence":4},{"trial_n":70,"n_dots":3.45,"target":"left","response":"left","rt":112,"correct":true,"confidence":4},{"trial_n":71,"n_dots":3.35,"target":"right","response":"left","rt":225,"correct":false,"confidence":4},{"trial_n":72,"n_dots":3.45,"target":"left","response":"left","rt":157,"correct":true,"confidence":3},{"trial_n":73,"n_dots":3.45,"target":"left","response":"left","rt":706.99999999997,"correct":true,"confidence":3},{"trial_n":74,"n_dots":3.35,"target":"right","response":"left","rt":267,"correct":false,"confidence":3},{"trial_n":75,"n_dots":3.45,"target":"left","response":"left","rt":210,"correct":true,"confidence":3},{"trial_n":76,"n_dots":3.45,"target":"left","response":"left","rt":1258,"correct":true,"confidence":3},{"trial_n":77,"n_dots":3.35,"target":"right","response":"left","rt":698,"correct":false,"confidence":3},{"trial_n":78,"n_dots":3.45,"target":"right","response":"right","rt":1149,"correct":true,"confidence":3},{"trial_n":79,"n_dots":3.45,"target":"left","response":"left","rt":716.00000000003,"correct":true,"confidence":3},{"trial_n":80,"n_dots":3.35,"target":"right","response":"right","rt":560,"correct":true,"confidence":3},{"trial_n":81,"n_dots":3.35,"target":"left","response":"right","rt":94,"correct":false,"confidence":3},{"trial_n":82,"n_dots":3.45,"target":"right","response":"left","rt":219,"correct":false,"confidence":3},{"trial_n":83,"n_dots":3.55,"target":"right","response":"left","rt":448.00000000006,"correct":false,"confidence":3},{"trial_n":84,"n_dots":3.65,"target":"right","response":"right","rt":496,"correct":true,"confidence":3},{"trial_n":85,"n_dots":3.65,"target":"left","response":"left","rt":698,"correct":true,"confidence":4},{"trial_n":86,"n_dots":3.55,"target":"left","response":"left","rt":231,"correct":true,"confidence":4},{"trial_n":87,"n_dots":3.55,"target":"left","response":"left","rt":590,"correct":true,"confidence":4},{"trial_n":88,"n_dots":3.45,"target":"right","response":"right","rt":439,"correct":true,"confidence":3},{"trial_n":89,"n_dots":3.45,"target":"left","response":"left","rt":80,"correct":true,"confidence":4},{"trial_n":90,"n_dots":3.35,"target":"left","response":"left","rt":80,"correct":true,"confidence":4},{"trial_n":91,"n_dots":3.35,"target":"left","response":"left","rt":872,"correct":true,"confidence":4},{"trial_n":92,"n_dots":3.25,"target":"right","response":"left","rt":812.99999999994,"correct":false,"confidence":4},{"trial_n":93,"n_dots":3.35,"target":"right","response":"right","rt":1220,"correct":true,"confidence":4},{"trial_n":94,"n_dots":3.35,"target":"left","response":"left","rt":868,"correct":true,"confidence":4},{"trial_n":95,"n_dots":3.25,"target":"right","response":"left","rt":828,"correct":false,"confidence":3},{"trial_n":96,"n_dots":3.35,"target":"right","response":"right","rt":676,"correct":true,"confidence":3},{"trial_n":97,"n_dots":3.35,"target":"left","response":"left","rt":381.99999999994,"correct":true,"confidence":3},{"trial_n":98,"n_dots":3.25,"target":"left","response":"left","rt":727,"correct":true,"confidence":3},{"trial_n":99,"n_dots":3.25,"target":"left","response":"left","rt":443,"correct":true,"confidence":2},{"trial_n":100,"n_dots":3.15,"target":"left","response":"left","rt":370,"correct":true,"confidence":4},{"trial_n":101,"n_dots":3.15,"target":"right","response":"left","rt":351,"correct":false,"confidence":3},{"trial_n":102,"n_dots":3.25,"target":"left","response":"left","rt":747,"correct":true,"confidence":3},{"trial_n":103,"n_dots":3.25,"target":"left","response":"left","rt":338,"correct":true,"confidence":3},{"trial_n":104,"n_dots":3.15,"target":"left","response":"left","rt":114,"correct":true,"confidence":4},{"trial_n":105,"n_dots":3.15,"target":"right","response":"right","rt":766,"correct":true,"confidence":3},{"trial_n":106,"n_dots":3.05,"target":"left","response":"left","rt":548,"correct":true,"confidence":3},{"trial_n":107,"n_dots":3.05,"target":"left","response":"left","rt":401,"correct":true,"confidence":3},{"trial_n":108,"n_dots":2.95,"target":"left","response":"left","rt":566,"correct":true,"confidence":3},{"trial_n":109,"n_dots":2.95,"target":"left","response":"left","rt":436.00000000006,"correct":true,"confidence":3},{"trial_n":110,"n_dots":2.85,"target":"right","response":"left","rt":330,"correct":false,"confidence":3},{"trial_n":111,"n_dots":2.95,"target":"right","response":"left","rt":167.00000000006,"correct":false,"confidence":3},{"trial_n":112,"n_dots":3.05,"target":"left","response":"left","rt":205,"correct":true,"confidence":3},{"trial_n":113,"n_dots":3.05,"target":"right","response":"right","rt":360,"correct":true,"confidence":4},{"trial_n":114,"n_dots":2.95,"target":"left","response":"left","rt":612,"correct":true,"confidence":4},{"trial_n":115,"n_dots":2.95,"target":"left","response":"left","rt":408,"correct":true,"confidence":4},{"trial_n":116,"n_dots":2.85,"target":"left","response":"left","rt":285.00000000006,"correct":true,"confidence":3},{"trial_n":117,"n_dots":2.85,"target":"right","response":"right","rt":393,"correct":true,"confidence":3},{"trial_n":118,"n_dots":2.75,"target":"left","response":"left","rt":732,"correct":true,"confidence":3},{"trial_n":119,"n_dots":2.75,"target":"left","response":"left","rt":399,"correct":true,"confidence":4},{"trial_n":120,"n_dots":2.65,"target":"left","response":"left","rt":283,"correct":true,"confidence":4}]