[{"trial_n":1,"span":8,"encoder":"53910616","distractor":"53010616","target":"present","response":"present","rt":"2968.8999999985","correct":true,"confidence":-1},{"trial_n":2,"span":8,"encoder":"21120861","distractor":"21120761","target":"present","response":"present","rt":"3991.1999999955","correct":true,"confidence":-1},{"trial_n":3,"span":10,"encoder":"2105679642","distractor":"2105679692","target":"absent","response":"absent","rt":"1526.799999997","correct":true,"confidence":-1},{"trial_n":4,"span":10,"encoder":"7805834872","distractor":"7805834876","target":"absent","response":"absent","rt":"1430.799999997","correct":true,"confidence":-1},{"trial_n":5,"span":12,"encoder":"895065558911","distractor":"795065558911","target":"present","response":"absent","rt":"5389.099999994","correct":false,"confidence":-1},{"trial_n":6,"span":10,"encoder":"0243476447","distractor":"0243473447","target":"present","response":"present","rt":"1105.5","correct":true,"confidence":-1},{"trial_n":7,"span":10,"encoder":"2666348768","distractor":"2661348768","target":"present","response":"present","rt":"549.30000000447","correct":true,"confidence":-1},{"trial_n":8,"span":12,"encoder":"565310927757","distractor":"565312927757","target":"present","response":"present","rt":"716","correct":true,"confidence":-1},{"trial_n":9,"span":12,"encoder":"484161229579","distractor":"484361229579","target":"present","response":"absent","rt":"2482.6000000015","correct":false,"confidence":-1},{"trial_n":10,"span":10,"encoder":"1565599646","distractor":"1565559646","target":"absent","response":"present","rt":"560.69999999553","correct":false,"confidence":-1},{"trial_n":11,"span":8,"encoder":"66868577","distractor":"66068577","target":"absent","response":"absent","rt":"1607.099999994","correct":true,"confidence":-1},{"trial_n":12,"span":8,"encoder":"05797689","distractor":"05897689","target":"present","response":"present","rt":"757.09999999404","correct":true,"confidence":-1},{"trial_n":13,"span":9,"encoder":"924002384","distractor":"924002684","target":"absent","response":"present","rt":"768","correct":false,"confidence":-1},{"trial_n":14,"span":8,"encoder":"83652394","distractor":"73652394","target":"present","response":"present","rt":"362.39999999851","correct":true,"confidence":-1},{"trial_n":15,"span":8,"encoder":"99559433","distractor":"99554433","target":"absent","response":"present","rt":"504.60000000149","correct":false,"confidence":-1},{"trial_n":16,"span":7,"encoder":"1509108","distractor":"1579108","target":"present","response":"absent","rt":"386.89999999851","correct":false,"confidence":-1},{"trial_n":17,"span":6,"encoder":"326490","distractor":"336490","target":"absent","response":"present","rt":"666.39999999851","correct":false,"confidence":-1},{"trial_n":18,"span":5,"encoder":"94182","distractor":"94185","target":"present","response":"present","rt":"390.59999999404","correct":true,"confidence":-1},{"trial_n":19,"span":5,"encoder":"53854","distractor":"43854","target":"absent","response":"present","rt":"712.39999999851","correct":false,"confidence":-1},{"trial_n":20,"span":4,"encoder":"1964","distractor":"1934","target":"present","response":"absent","rt":"362.89999999851","correct":false,"confidence":-1},{"trial_n":21,"span":3,"encoder":"981","distractor":"971","target":"present","response":"present","rt":"1953.900000006","correct":true,"confidence":5},{"trial_n":22,"span":3,"encoder":"351","distractor":"301","target":"absent","response":"absent","rt":"1281.3000000045","correct":true,"confidence":5},{"trial_n":23,"span":4,"encoder":"6601","distractor":"6101","target":"absent","response":"absent","rt":"1460.200000003","correct":true,"confidence":5},{"trial_n":24,"span":4,"encoder":"5084","distractor":"5484","target":"present","response":"present","rt":"1549.200000003","correct":true,"confidence":4},{"trial_n":25,"span":5,"encoder":"47021","distractor":"47022","target":"absent","response":"absent","rt":"1349.200000003","correct":true,"confidence":5},{"trial_n":26,"span":5,"encoder":"21790","distractor":"21795","target":"present","response":"present","rt":"2079.299999997","correct":true,"confidence":5},{"trial_n":27,"span":6,"encoder":"631082","distractor":"631182","target":"absent","response":"absent","rt":"1227.3999999985","correct":true,"confidence":5},{"trial_n":28,"span":6,"encoder":"817828","distractor":"812828","target":"absent","response":"present","rt":"4801.8999999985","correct":false,"confidence":4},{"trial_n":29,"span":5,"encoder":"85519","distractor":"85518","target":"absent","response":"absent","rt":"1559.299999997","correct":true,"confidence":5},{"trial_n":30,"span":5,"encoder":"03604","distractor":"73604","target":"absent","response":"present","rt":"2760","correct":false,"confidence":5},{"trial_n":31,"span":4,"encoder":"6492","distractor":"6422","target":"present","response":"present","rt":"1305.6000000015","correct":true,"confidence":5},{"trial_n":32,"span":4,"encoder":"0479","distractor":"0419","target":"absent","response":"absent","rt":"1005","correct":true,"confidence":5},{"trial_n":33,"span":5,"encoder":"84564","distractor":"84554","target":"absent","response":"absent","rt":"1019.8999999985","correct":true,"confidence":5},{"trial_n":34,"span":5,"encoder":"82042","distractor":"82012","target":"present","response":"present","rt":"2268.700000003","correct":true,"confidence":5},{"trial_n":35,"span":6,"encoder":"418538","distractor":"418536","target":"present","response":"absent","rt":"2245.5","correct":false,"confidence":5},{"trial_n":36,"span":5,"encoder":"37560","distractor":"37568","target":"absent","response":"absent","rt":"1470.200000003","correct":true,"confidence":5},{"trial_n":37,"span":5,"encoder":"19444","distractor":"19844","target":"present","response":"present","rt":"2742.8999999985","correct":true,"confidence":4},{"trial_n":38,"span":6,"encoder":"796885","distractor":"797885","target":"present","response":"present","rt":"1609","correct":true,"confidence":5},{"trial_n":39,"span":6,"encoder":"483443","distractor":"383443","target":"absent","response":"present","rt":"989.79999999702","correct":false,"confidence":5},{"trial_n":40,"span":5,"encoder":"90813","distractor":"90613","target":"absent","response":"absent","rt":"1017","correct":true,"confidence":5},{"trial_n":41,"span":5,"encoder":"94641","distractor":"94541","target":"present","response":"present","rt":"1459.6000000015","correct":true,"confidence":5},{"trial_n":42,"span":6,"encoder":"055781","distractor":"055780","target":"absent","response":"present","rt":"2394","correct":false,"confidence":5},{"trial_n":43,"span":5,"encoder":"69509","distractor":"69559","target":"present","response":"present","rt":"1047.6000000015","correct":true,"confidence":5},{"trial_n":44,"span":5,"encoder":"97111","distractor":"90111","target":"present","response":"present","rt":"875.89999999851","correct":true,"confidence":5},{"trial_n":45,"span":6,"encoder":"635659","distractor":"675659","target":"absent","response":"absent","rt":"2032.3999999985","correct":true,"confidence":4},{"trial_n":46,"span":6,"encoder":"665111","distractor":"665131","target":"present","response":"present","rt":"1464.1000000015","correct":true,"confidence":5},{"trial_n":47,"span":7,"encoder":"8409955","distractor":"8449955","target":"present","response":"present","rt":"2065.3999999985","correct":true,"confidence":5},{"trial_n":48,"span":7,"encoder":"9952172","distractor":"9952072","target":"absent","response":"present","rt":"1493.700000003","correct":false,"confidence":5},{"trial_n":49,"span":6,"encoder":"186654","distractor":"146654","target":"present","response":"present","rt":"2400.1000000015","correct":true,"confidence":5},{"trial_n":50,"span":6,"encoder":"554906","distractor":"554907","target":"absent","response":"absent","rt":"1310.3999999985","correct":true,"confidence":5},{"trial_n":51,"span":7,"encoder":"2711873","distractor":"2511873","target":"absent","response":"absent","rt":"7943","correct":true,"confidence":1},{"trial_n":52,"span":7,"encoder":"1478712","distractor":"1478713","target":"present","response":"present","rt":"2885.1000000015","correct":true,"confidence":4},{"trial_n":53,"span":8,"encoder":"91499605","distractor":"11499605","target":"present","response":"absent","rt":"2854.8999999985","correct":false,"confidence":3},{"trial_n":54,"span":7,"encoder":"7074241","distractor":"7084241","target":"absent","response":"absent","rt":"1387","correct":true,"confidence":5},{"trial_n":55,"span":7,"encoder":"8848521","distractor":"8838521","target":"absent","response":"absent","rt":"1345.200000003","correct":true,"confidence":5},{"trial_n":56,"span":8,"encoder":"13417692","distractor":"15417692","target":"absent","response":"absent","rt":"1332.599999994","correct":true,"confidence":5},{"trial_n":57,"span":8,"encoder":"04734586","distractor":"04754586","target":"present","response":"present","rt":"4326.799999997","correct":true,"confidence":3},{"trial_n":58,"span":9,"encoder":"840226643","distractor":"840227643","target":"present","response":"absent","rt":"3380","correct":false,"confidence":3},{"trial_n":59,"span":8,"encoder":"10325475","distractor":"10325575","target":"present","response":"present","rt":"1682.3999999985","correct":true,"confidence":5},{"trial_n":60,"span":8,"encoder":"33376410","distractor":"33376430","target":"absent","response":"absent","rt":"1684.3000000045","correct":true,"confidence":5},{"trial_n":61,"span":9,"encoder":"042245513","distractor":"042245503","target":"present","response":"present","rt":"1623.6999999955","correct":true,"confidence":5},{"trial_n":62,"span":9,"encoder":"056676373","distractor":"056670373","target":"present","response":"present","rt":"1094.3000000045","correct":true,"confidence":5},{"trial_n":63,"span":10,"encoder":"3820425648","distractor":"3820425948","target":"present","response":"absent","rt":"54767.399999999","correct":false,"confidence":1},{"trial_n":64,"span":9,"encoder":"354603039","distractor":"354603038","target":"absent","response":"absent","rt":"1525.5","correct":true,"confidence":3},{"trial_n":65,"span":9,"encoder":"655281206","distractor":"655281906","target":"present","response":"present","rt":"1598.700000003","correct":true,"confidence":5},{"trial_n":66,"span":10,"encoder":"8433671479","distractor":"8433671475","target":"absent","response":"absent","rt":"1088.200000003","correct":true,"confidence":3},{"trial_n":67,"span":10,"encoder":"7044035292","distractor":"7044035792","target":"present","response":"present","rt":"1271.799999997","correct":true,"confidence":5},{"trial_n":68,"span":11,"encoder":"10040462449","distractor":"10040462429","target":"absent","response":"present","rt":"1115.5","correct":false,"confidence":4},{"trial_n":69,"span":10,"encoder":"9228815344","distractor":"9228815244","target":"absent","response":"present","rt":"1187.799999997","correct":false,"confidence":4},{"trial_n":70,"span":9,"encoder":"832300563","distractor":"832380563","target":"absent","response":"present","rt":"1481.5","correct":false,"confidence":1},{"trial_n":71,"span":8,"encoder":"00632046","distractor":"00632047","target":"present","response":"present","rt":"2709.099999994","correct":true,"confidence":-1},{"trial_n":72,"span":8,"encoder":"59897614","distractor":"59847614","target":"present","response":"present","rt":"4080.5","correct":true,"confidence":-1},{"trial_n":73,"span":9,"encoder":"284838579","distractor":"284838599","target":"absent","response":"present","rt":"1904.5","correct":false,"confidence":-1},{"trial_n":74,"span":8,"encoder":"66711421","distractor":"66711491","target":"absent","response":"absent","rt":"880","correct":true,"confidence":-1},{"trial_n":75,"span":8,"encoder":"35272579","distractor":"30272579","target":"present","response":"absent","rt":"348","correct":false,"confidence":-1},{"trial_n":76,"span":7,"encoder":"5105992","distractor":"5105922","target":"absent","response":"present","rt":"482.90000000596","correct":false,"confidence":-1},{"trial_n":77,"span":6,"encoder":"326368","distractor":"326668","target":"absent","response":"absent","rt":"630.29999999702","correct":true,"confidence":-1},{"trial_n":78,"span":6,"encoder":"269867","distractor":"269817","target":"absent","response":"absent","rt":"1098.6000000015","correct":true,"confidence":-1},{"trial_n":79,"span":7,"encoder":"4250116","distractor":"4252116","target":"absent","response":"absent","rt":"1907.299999997","correct":true,"confidence":-1},{"trial_n":80,"span":7,"encoder":"7708989","distractor":"8708989","target":"absent","response":"absent","rt":"3220.700000003","correct":true,"confidence":-1},{"trial_n":81,"span":8,"encoder":"04677105","distractor":"54677105","target":"absent","response":"absent","rt":"1288.200000003","correct":true,"confidence":-1},{"trial_n":82,"span":8,"encoder":"57601533","distractor":"57621533","target":"present","response":"absent","rt":"326.19999999553","correct":false,"confidence":-1},{"trial_n":83,"span":7,"encoder":"1421209","distractor":"9421209","target":"present","response":"present","rt":"1376.6999999955","correct":true,"confidence":-1},{"trial_n":84,"span":7,"encoder":"5840741","distractor":"5840761","target":"absent","response":"absent","rt":"2784.200000003","correct":true,"confidence":-1},{"trial_n":85,"span":8,"encoder":"15757581","distractor":"15457581","target":"absent","response":"absent","rt":"3516.1000000015","correct":true,"confidence":-1},{"trial_n":86,"span":8,"encoder":"71084726","distractor":"71004726","target":"present","response":"present","rt":"6408.8999999985","correct":true,"confidence":-1},{"trial_n":87,"span":9,"encoder":"066457770","distractor":"366457770","target":"absent","response":"absent","rt":"2558.3000000045","correct":true,"confidence":-1},{"trial_n":88,"span":9,"encoder":"542626734","distractor":"542696734","target":"present","response":"absent","rt":"488.79999999702","correct":false,"confidence":-1},{"trial_n":89,"span":8,"encoder":"09826269","distractor":"09829269","target":"absent","response":"absent","rt":"386.60000000149","correct":true,"confidence":-1},{"trial_n":90,"span":8,"encoder":"67741487","distractor":"67741482","target":"present","response":"present","rt":"1476.6999999955","correct":true,"confidence":-1},{"trial_n":91,"span":9,"encoder":"127055003","distractor":"127055001","target":"present","response":"present","rt":"1223.3999999985","correct":true,"confidence":3},{"trial_n":92,"span":9,"encoder":"596462923","distractor":"396462923","target":"absent","response":"absent","rt":"3130.1000000015","correct":true,"confidence":4},{"trial_n":93,"span":10,"encoder":"6686585026","distractor":"6682585026","target":"absent","response":"present","rt":"7648.6000000015","correct":false,"confidence":3},{"trial_n":94,"span":9,"encoder":"144589926","distractor":"144389926","target":"present","response":"present","rt":"3001.200000003","correct":true,"confidence":5},{"trial_n":95,"span":9,"encoder":"718525190","distractor":"718525590","target":"absent","response":"absent","rt":"11072","correct":true,"confidence":4},{"trial_n":96,"span":10,"encoder":"9936220131","distractor":"7936220131","target":"present","response":"present","rt":"640.10000000149","correct":true,"confidence":3},{"trial_n":97,"span":10,"encoder":"1678381939","distractor":"1678381934","target":"present","response":"absent","rt":"506.89999999851","correct":false,"confidence":3},{"trial_n":98,"span":9,"encoder":"303935707","distractor":"303735707","target":"absent","response":"present","rt":"602.79999999702","correct":false,"confidence":3},{"trial_n":99,"span":8,"encoder":"35223864","distractor":"35223064","target":"absent","response":"absent","rt":"466.79999999702","correct":true,"confidence":4},{"trial_n":100,"span":8,"encoder":"48502507","distractor":"48505507","target":"absent","response":"absent","rt":"4088.799999997","correct":true,"confidence":5},{"trial_n":101,"span":9,"encoder":"671262905","distractor":"871262905","target":"absent","response":"present","rt":"600.5","correct":false,"confidence":4},{"trial_n":102,"span":8,"encoder":"64770277","distractor":"63770277","target":"present","response":"present","rt":"858.89999999851","correct":true,"confidence":3},{"trial_n":103,"span":8,"encoder":"38285356","distractor":"38285352","target":"present","response":"present","rt":"606.69999999553","correct":true,"confidence":3},{"trial_n":104,"span":9,"encoder":"786371423","distractor":"787371423","target":"present","response":"absent","rt":"1137.8999999985","correct":false,"confidence":4},{"trial_n":105,"span":8,"encoder":"05856881","distractor":"05756881","target":"absent","response":"present","rt":"661.20000000298","correct":false,"confidence":3},{"trial_n":106,"span":7,"encoder":"0130194","distractor":"0930194","target":"present","response":"present","rt":"617","correct":true,"confidence":3},{"trial_n":107,"span":7,"encoder":"3082141","distractor":"3482141","target":"present","response":"present","rt":"756.90000000596","correct":true,"confidence":5},{"trial_n":108,"span":8,"encoder":"13788309","distractor":"13784309","target":"absent","response":"present","rt":"641.60000000149","correct":false,"confidence":4},{"trial_n":109,"span":7,"encoder":"8462208","distractor":"8462508","target":"present","response":"present","rt":"3004","correct":true,"confidence":4},{"trial_n":110,"span":7,"encoder":"9424630","distractor":"6424630","target":"present","response":"absent","rt":"1990.099999994","correct":false,"confidence":3},{"trial_n":111,"span":6,"encoder":"056825","distractor":"056525","target":"absent","response":"absent","rt":"4528.1999999955","correct":true,"confidence":5},{"trial_n":112,"span":6,"encoder":"666272","distractor":"166272","target":"absent","response":"absent","rt":"4334.200000003","correct":true,"confidence":4},{"trial_n":113,"span":7,"encoder":"3125082","distractor":"6125082","target":"absent","response":"absent","rt":"2722.6000000015","correct":true,"confidence":4},{"trial_n":114,"span":7,"encoder":"5223544","distractor":"5723544","target":"absent","response":"present","rt":"7341.6000000015","correct":false,"confidence":4},{"trial_n":115,"span":6,"encoder":"739490","distractor":"732490","target":"absent","response":"absent","rt":"4606.6000000015","correct":true,"confidence":5},{"trial_n":116,"span":6,"encoder":"568233","distractor":"568230","target":"present","response":"absent","rt":"5730.799999997","correct":false,"confidence":4},{"trial_n":117,"span":5,"encoder":"16686","distractor":"16186","target":"present","response":"present","rt":"2767.1000000015","correct":true,"confidence":3},{"trial_n":118,"span":5,"encoder":"72150","distractor":"72250","target":"present","response":"present","rt":"1953.1000000015","correct":true,"confidence":3},{"trial_n":119,"span":6,"encoder":"869456","distractor":"869426","target":"absent","response":"absent","rt":"6043.200000003","correct":true,"confidence":3},{"trial_n":120,"span":6,"encoder":"454401","distractor":"494401","target":"absent","response":"absent","rt":"2826.900000006","correct":true,"confidence":5},{"trial_n":121,"span":7,"encoder":"8088802","distractor":"8388802","target":"present","response":"present","rt":"4792.700000003","correct":true,"confidence":4},{"trial_n":122,"span":7,"encoder":"3547709","distractor":"3543709","target":"absent","response":"present","rt":"1035.6000000015","correct":false,"confidence":4},{"trial_n":123,"span":6,"encoder":"427602","distractor":"427609","target":"present","response":"absent","rt":"3239.6999999955","correct":false,"confidence":4},{"trial_n":124,"span":5,"encoder":"95560","distractor":"95561","target":"present","response":"present","rt":"704.89999999851","correct":true,"confidence":4},{"trial_n":125,"span":5,"encoder":"31775","distractor":"39775","target":"present","response":"present","rt":"2555.8999999985","correct":true,"confidence":3},{"trial_n":126,"span":6,"encoder":"630331","distractor":"430331","target":"present","response":"present","rt":"2417.8999999985","correct":true,"confidence":3},{"trial_n":127,"span":6,"encoder":"760987","distractor":"760985","target":"present","response":"present","rt":"2225.8999999985","correct":true,"confidence":4},{"trial_n":128,"span":7,"encoder":"2511049","distractor":"2511019","target":"present","response":"absent","rt":"2374.5","correct":false,"confidence":4},{"trial_n":129,"span":6,"encoder":"263249","distractor":"263299","target":"present","response":"present","rt":"3829.5","correct":true,"confidence":4},{"trial_n":130,"span":6,"encoder":"519723","distractor":"819723","target":"absent","response":"present","rt":"2133.700000003","correct":false,"confidence":1},{"trial_n":131,"span":5,"encoder":"38280","distractor":"38680","target":"present","response":"present","rt":"3284.8000000045","correct":true,"confidence":3},{"trial_n":132,"span":5,"encoder":"40498","distractor":"30498","target":"present","response":"absent","rt":"2306.599999994","correct":false,"confidence":4},{"trial_n":133,"span":4,"encoder":"8156","distractor":"3156","target":"present","response":"present","rt":"806.59999999404","correct":true,"confidence":4},{"trial_n":134,"span":4,"encoder":"6107","distractor":"6103","target":"absent","response":"absent","rt":"1833.3999999985","correct":true,"confidence":4},{"trial_n":135,"span":5,"encoder":"61642","distractor":"61242","target":"absent","response":"absent","rt":"1315","correct":true,"confidence":4},{"trial_n":136,"span":5,"encoder":"34021","distractor":"34221","target":"present","response":"absent","rt":"5313.8999999985","correct":false,"confidence":4},{"trial_n":137,"span":4,"encoder":"0122","distractor":"0132","target":"present","response":"present","rt":"2907.8000000045","correct":true,"confidence":3},{"trial_n":138,"span":4,"encoder":"5498","distractor":"4498","target":"absent","response":"absent","rt":"2083","correct":true,"confidence":5},{"trial_n":139,"span":5,"encoder":"55787","distractor":"53787","target":"present","response":"present","rt":"3472.799999997","correct":true,"confidence":4},{"trial_n":140,"span":5,"encoder":"26544","distractor":"26564","target":"absent","response":"absent","rt":"4399.6999999955","correct":true,"confidence":4}]