[{"trial_n":1,"min":25,"max":230,"target":"present","response":"present","rt":11551,"correct":true,"confidence":-1},{"trial_n":2,"min":25,"max":230,"target":"present","response":"present","rt":618,"correct":true,"confidence":-1},{"trial_n":3,"min":41,"max":214,"target":"absent","response":"present","rt":708,"correct":false,"confidence":-1},{"trial_n":4,"min":25,"max":230,"target":"absent","response":"present","rt":3426,"correct":false,"confidence":-1},{"trial_n":5,"min":9,"max":246,"target":"present","response":"absent","rt":971,"correct":false,"confidence":-1},{"trial_n":6,"min":0,"max":255,"target":"absent","response":"present","rt":650.00000000001,"correct":false,"confidence":-1},{"trial_n":7,"min":0,"max":255,"target":"absent","response":"present","rt":576,"correct":false,"confidence":-1},{"trial_n":8,"min":0,"max":255,"target":"present","response":"absent","rt":1111,"correct":false,"confidence":-1},{"trial_n":9,"min":0,"max":255,"target":"present","response":"present","rt":943,"correct":true,"confidence":-1},{"trial_n":10,"min":0,"max":255,"target":"present","response":"present","rt":996,"correct":true,"confidence":-1},{"trial_n":11,"min":8,"max":247,"target":"present","response":"present","rt":968,"correct":true,"confidence":-1},{"trial_n":12,"min":8,"max":247,"target":"present","response":"present","rt":431,"correct":true,"confidence":-1},{"trial_n":13,"min":16,"max":239,"target":"absent","response":"absent","rt":747,"correct":true,"confidence":-1},{"trial_n":14,"min":16,"max":239,"target":"absent","response":"absent","rt":517,"correct":true,"confidence":-1},{"trial_n":15,"min":24,"max":231,"target":"absent","response":"absent","rt":1761,"correct":true,"confidence":-1},{"trial_n":16,"min":24,"max":231,"target":"present","response":"present","rt":585,"correct":true,"confidence":-1},{"trial_n":17,"min":32,"max":223,"target":"present","response":"absent","rt":1213,"correct":false,"confidence":-1},{"trial_n":18,"min":24,"max":231,"target":"absent","response":"absent","rt":686,"correct":true,"confidence":-1},{"trial_n":19,"min":24,"max":231,"target":"absent","response":"absent","rt":492,"correct":true,"confidence":-1},{"trial_n":20,"min":32,"max":223,"target":"absent","response":"absent","rt":535,"correct":true,"confidence":-1},{"trial_n":21,"min":32,"max":223,"target":"absent","response":"absent","rt":875,"correct":true,"confidence":4},{"trial_n":22,"min":36,"max":219,"target":"absent","response":"absent","rt":893,"correct":true,"confidence":4},{"trial_n":23,"min":36,"max":219,"target":"present","response":"present","rt":1920,"correct":true,"confidence":3},{"trial_n":24,"min":40,"max":215,"target":"present","response":"present","rt":1260,"correct":true,"confidence":3},{"trial_n":25,"min":40,"max":215,"target":"present","response":"present","rt":1110,"correct":true,"confidence":3},{"trial_n":26,"min":44,"max":211,"target":"absent","response":"present","rt":1803,"correct":false,"confidence":2},{"trial_n":27,"min":40,"max":215,"target":"absent","response":"absent","rt":1246,"correct":true,"confidence":4},{"trial_n":28,"min":40,"max":215,"target":"present","response":"present","rt":1203,"correct":true,"confidence":4},{"trial_n":29,"min":44,"max":211,"target":"absent","response":"absent","rt":1021,"correct":true,"confidence":3},{"trial_n":30,"min":44,"max":211,"target":"absent","response":"absent","rt":1718,"correct":true,"confidence":3},{"trial_n":31,"min":46,"max":209,"target":"absent","response":"absent","rt":843.00000000003,"correct":true,"confidence":3},{"trial_n":32,"min":46,"max":209,"target":"present","response":"present","rt":955,"correct":true,"confidence":3},{"trial_n":33,"min":48,"max":207,"target":"present","response":"absent","rt":1665,"correct":false,"confidence":3},{"trial_n":34,"min":46,"max":209,"target":"present","response":"present","rt":999,"correct":true,"confidence":3},{"trial_n":35,"min":46,"max":209,"target":"present","response":"present","rt":1630,"correct":true,"confidence":4},{"trial_n":36,"min":48,"max":207,"target":"present","response":"absent","rt":1872,"correct":false,"confidence":3},{"trial_n":37,"min":46,"max":209,"target":"present","response":"present","rt":1676,"correct":true,"confidence":3},{"trial_n":38,"min":46,"max":209,"target":"present","response":"absent","rt":1166,"correct":false,"confidence":3},{"trial_n":39,"min":44,"max":211,"target":"absent","response":"absent","rt":1064,"correct":true,"confidence":4},{"trial_n":40,"min":44,"max":211,"target":"present","response":"present","rt":1655,"correct":true,"confidence":3},{"trial_n":41,"min":45,"max":210,"target":"absent","response":"absent","rt":878.00000000003,"correct":true,"confidence":3},{"trial_n":42,"min":45,"max":210,"target":"absent","response":"absent","rt":1086,"correct":true,"confidence":4},{"trial_n":43,"min":46,"max":209,"target":"present","response":"present","rt":2386,"correct":true,"confidence":3},{"trial_n":44,"min":46,"max":209,"target":"absent","response":"present","rt":1074,"correct":false,"confidence":3},{"trial_n":45,"min":45,"max":210,"target":"absent","response":"absent","rt":1056,"correct":true,"confidence":1},{"trial_n":46,"min":45,"max":210,"target":"absent","response":"absent","rt":595,"correct":true,"confidence":1},{"trial_n":47,"min":46,"max":209,"target":"absent","response":"absent","rt":428,"correct":true,"confidence":1},{"trial_n":48,"min":46,"max":209,"target":"present","response":"absent","rt":3377,"correct":false,"confidence":3},{"trial_n":49,"min":45,"max":210,"target":"absent","response":"absent","rt":1872,"correct":true,"confidence":3},{"trial_n":50,"min":45,"max":210,"target":"present","response":"present","rt":1264,"correct":true,"confidence":4},{"trial_n":51,"min":46,"max":209,"target":"present","response":"present","rt":1109,"correct":true,"confidence":4},{"trial_n":52,"min":46,"max":209,"target":"present","response":"present","rt":1600,"correct":true,"confidence":3},{"trial_n":53,"min":47,"max":208,"target":"absent","response":"absent","rt":1141,"correct":true,"confidence":4},{"trial_n":54,"min":47,"max":208,"target":"absent","response":"absent","rt":1185,"correct":true,"confidence":4},{"trial_n":55,"min":48,"max":207,"target":"present","response":"absent","rt":3204,"correct":false,"confidence":3},{"trial_n":56,"min":47,"max":208,"target":"absent","response":"absent","rt":845,"correct":true,"confidence":4},{"trial_n":57,"min":47,"max":208,"target":"present","response":"present","rt":1108,"correct":true,"confidence":4},{"trial_n":58,"min":48,"max":207,"target":"present","response":"absent","rt":2776,"correct":false,"confidence":3},{"trial_n":59,"min":47,"max":208,"target":"present","response":"present","rt":1006,"correct":true,"confidence":4},{"trial_n":60,"min":47,"max":208,"target":"present","response":"absent","rt":1712.9999999999,"correct":false,"confidence":3},{"trial_n":61,"min":46,"max":209,"target":"absent","response":"absent","rt":2375,"correct":true,"confidence":3},{"trial_n":62,"min":46,"max":209,"target":"absent","response":"absent","rt":846,"correct":true,"confidence":4},{"trial_n":63,"min":47,"max":208,"target":"present","response":"present","rt":894,"correct":true,"confidence":4},{"trial_n":64,"min":47,"max":208,"target":"present","response":"present","rt":953,"correct":true,"confidence":4},{"trial_n":65,"min":48,"max":207,"target":"absent","response":"absent","rt":850,"correct":true,"confidence":4},{"trial_n":66,"min":48,"max":207,"target":"absent","response":"absent","rt":2594,"correct":true,"confidence":4},{"trial_n":67,"min":49,"max":206,"target":"present","response":"present","rt":1105,"correct":true,"confidence":3},{"trial_n":68,"min":49,"max":206,"target":"present","response":"present","rt":899,"correct":true,"confidence":3},{"trial_n":69,"min":50,"max":205,"target":"absent","response":"absent","rt":803,"correct":true,"confidence":4},{"trial_n":70,"min":50,"max":205,"target":"absent","response":"absent","rt":1572,"correct":true,"confidence":4},{"trial_n":71,"min":41,"max":214,"target":"present","response":"absent","rt":6425,"correct":false,"confidence":-1},{"trial_n":72,"min":41,"max":214,"target":"present","response":"absent","rt":1504,"correct":false,"confidence":-1},{"trial_n":73,"min":25,"max":230,"target":"absent","response":"absent","rt":1505,"correct":true,"confidence":-1},{"trial_n":74,"min":25,"max":230,"target":"absent","response":"absent","rt":852,"correct":true,"confidence":-1},{"trial_n":75,"min":41,"max":214,"target":"present","response":"absent","rt":512,"correct":false,"confidence":-1},{"trial_n":76,"min":25,"max":230,"target":"present","response":"present","rt":909,"correct":true,"confidence":-1},{"trial_n":77,"min":25,"max":230,"target":"present","response":"present","rt":556,"correct":true,"confidence":-1},{"trial_n":78,"min":41,"max":214,"target":"absent","response":"absent","rt":562,"correct":true,"confidence":-1},{"trial_n":79,"min":41,"max":214,"target":"present","response":"present","rt":711,"correct":true,"confidence":-1},{"trial_n":80,"min":57,"max":198,"target":"absent","response":"absent","rt":465,"correct":true,"confidence":-1},{"trial_n":81,"min":57,"max":198,"target":"present","response":"present","rt":871,"correct":true,"confidence":-1},{"trial_n":82,"min":65,"max":190,"target":"present","response":"present","rt":723,"correct":true,"confidence":-1},{"trial_n":83,"min":65,"max":190,"target":"present","response":"absent","rt":1018,"correct":false,"confidence":-1},{"trial_n":84,"min":57,"max":198,"target":"present","response":"present","rt":457,"correct":true,"confidence":-1},{"trial_n":85,"min":57,"max":198,"target":"present","response":"present","rt":733,"correct":true,"confidence":-1},{"trial_n":86,"min":65,"max":190,"target":"present","response":"present","rt":694,"correct":true,"confidence":-1},{"trial_n":87,"min":65,"max":190,"target":"present","response":"present","rt":545,"correct":true,"confidence":-1},{"trial_n":88,"min":73,"max":182,"target":"absent","response":"absent","rt":795.99999999994,"correct":true,"confidence":-1},{"trial_n":89,"min":73,"max":182,"target":"absent","response":"absent","rt":527,"correct":true,"confidence":-1},{"trial_n":90,"min":81,"max":174,"target":"absent","response":"absent","rt":467,"correct":true,"confidence":-1},{"trial_n":91,"min":81,"max":174,"target":"present","response":"absent","rt":1317,"correct":false,"confidence":3},{"trial_n":92,"min":77,"max":178,"target":"absent","response":"absent","rt":745,"correct":true,"confidence":3},{"trial_n":93,"min":77,"max":178,"target":"absent","response":"absent","rt":1744,"correct":true,"confidence":3},{"trial_n":94,"min":81,"max":174,"target":"absent","response":"absent","rt":883,"correct":true,"confidence":3},{"trial_n":95,"min":81,"max":174,"target":"absent","response":"absent","rt":717.00000000006,"correct":true,"confidence":4},{"trial_n":96,"min":85,"max":170,"target":"absent","response":"absent","rt":686,"correct":true,"confidence":3},{"trial_n":97,"min":85,"max":170,"target":"absent","response":"absent","rt":1107,"correct":true,"confidence":3},{"trial_n":98,"min":89,"max":166,"target":"absent","response":"absent","rt":713.99999999994,"correct":true,"confidence":4},{"trial_n":99,"min":89,"max":166,"target":"absent","response":"absent","rt":676.99999999994,"correct":true,"confidence":3},{"trial_n":100,"min":93,"max":162,"target":"present","response":"absent","rt":2061,"correct":false,"confidence":3},{"trial_n":101,"min":91,"max":164,"target":"absent","response":"absent","rt":834,"correct":true,"confidence":3},{"trial_n":102,"min":91,"max":164,"target":"present","response":"absent","rt":949,"correct":false,"confidence":4},{"trial_n":103,"min":89,"max":166,"target":"present","response":"absent","rt":761.00000000006,"correct":false,"confidence":3},{"trial_n":104,"min":87,"max":168,"target":"absent","response":"absent","rt":779,"correct":true,"confidence":4},{"trial_n":105,"min":87,"max":168,"target":"present","response":"absent","rt":1725,"correct":false,"confidence":4},{"trial_n":106,"min":85,"max":170,"target":"absent","response":"absent","rt":755.99999999994,"correct":true,"confidence":4},{"trial_n":107,"min":85,"max":170,"target":"absent","response":"absent","rt":778.00000000006,"correct":true,"confidence":4},{"trial_n":108,"min":87,"max":168,"target":"present","response":"present","rt":994,"correct":true,"confidence":3},{"trial_n":109,"min":87,"max":168,"target":"absent","response":"absent","rt":825,"correct":true,"confidence":4},{"trial_n":110,"min":89,"max":166,"target":"absent","response":"absent","rt":833,"correct":true,"confidence":4},{"trial_n":111,"min":89,"max":166,"target":"present","response":"present","rt":1480,"correct":true,"confidence":3},{"trial_n":112,"min":90,"max":165,"target":"absent","response":"absent","rt":770.00000000012,"correct":true,"confidence":4},{"trial_n":113,"min":90,"max":165,"target":"present","response":"absent","rt":1498,"correct":false,"confidence":3},{"trial_n":114,"min":89,"max":166,"target":"absent","response":"absent","rt":781,"correct":true,"confidence":4},{"trial_n":115,"min":89,"max":166,"target":"absent","response":"absent","rt":671.99999999988,"correct":true,"confidence":4},{"trial_n":116,"min":90,"max":165,"target":"absent","response":"absent","rt":633,"correct":true,"confidence":4},{"trial_n":117,"min":90,"max":165,"target":"absent","response":"absent","rt":784,"correct":true,"confidence":4},{"trial_n":118,"min":91,"max":164,"target":"absent","response":"absent","rt":740.99999999988,"correct":true,"confidence":4},{"trial_n":119,"min":91,"max":164,"target":"present","response":"absent","rt":554,"correct":false,"confidence":4},{"trial_n":120,"min":90,"max":165,"target":"present","response":"absent","rt":472.00000000012,"correct":false,"confidence":4},{"trial_n":121,"min":89,"max":166,"target":"present","response":"absent","rt":980,"correct":false,"confidence":3},{"trial_n":122,"min":88,"max":167,"target":"absent","response":"absent","rt":587,"correct":true,"confidence":4},{"trial_n":123,"min":88,"max":167,"target":"absent","response":"absent","rt":662,"correct":true,"confidence":4},{"trial_n":124,"min":89,"max":166,"target":"present","response":"absent","rt":681,"correct":false,"confidence":3},{"trial_n":125,"min":88,"max":167,"target":"absent","response":"present","rt":1245,"correct":false,"confidence":3},{"trial_n":126,"min":87,"max":168,"target":"present","response":"absent","rt":547,"correct":false,"confidence":4},{"trial_n":127,"min":86,"max":169,"target":"present","response":"absent","rt":1220,"correct":false,"confidence":4},{"trial_n":128,"min":85,"max":170,"target":"present","response":"absent","rt":705,"correct":false,"confidence":4},{"trial_n":129,"min":84,"max":171,"target":"present","response":"absent","rt":639,"correct":false,"confidence":3},{"trial_n":130,"min":83,"max":172,"target":"present","response":"absent","rt":366,"correct":false,"confidence":4},{"trial_n":131,"min":82,"max":173,"target":"present","response":"present","rt":474,"correct":true,"confidence":4},{"trial_n":132,"min":82,"max":173,"target":"present","response":"absent","rt":649,"correct":false,"confidence":4},{"trial_n":133,"min":81,"max":174,"target":"absent","response":"absent","rt":688,"correct":true,"confidence":4},{"trial_n":134,"min":81,"max":174,"target":"present","response":"absent","rt":592,"correct":false,"confidence":4},{"trial_n":135,"min":80,"max":175,"target":"absent","response":"absent","rt":790,"correct":true,"confidence":3},{"trial_n":136,"min":80,"max":175,"target":"absent","response":"absent","rt":551,"correct":true,"confidence":4},{"trial_n":137,"min":81,"max":174,"target":"present","response":"absent","rt":756,"correct":false,"confidence":3},{"trial_n":138,"min":80,"max":175,"target":"present","response":"absent","rt":440,"correct":false,"confidence":3},{"trial_n":139,"min":79,"max":176,"target":"absent","response":"present","rt":1105,"correct":false,"confidence":3},{"trial_n":140,"min":78,"max":177,"target":"present","response":"absent","rt":400.99999999988,"correct":false,"confidence":3}]