[{"trial_n":1,"span":8,"encoder":"89583700","distractor":"09583700","target":"present","response":"present","rt":"4096.099999994","correct":true,"confidence":-1},{"trial_n":2,"span":8,"encoder":"71037294","distractor":"71037194","target":"present","response":"present","rt":"3524.599999994","correct":true,"confidence":-1},{"trial_n":3,"span":10,"encoder":"7268300544","distractor":"7268100544","target":"absent","response":"absent","rt":"4408.3000000119","correct":true,"confidence":-1},{"trial_n":4,"span":10,"encoder":"9060720450","distractor":"9063720450","target":"absent","response":"present","rt":"3427.3999999762","correct":false,"confidence":-1},{"trial_n":5,"span":8,"encoder":"16060782","distractor":"16067782","target":"present","response":"absent","rt":"2437.5","correct":false,"confidence":-1},{"trial_n":6,"span":6,"encoder":"948806","distractor":"947806","target":"absent","response":"absent","rt":"2315.5","correct":true,"confidence":-1},{"trial_n":7,"span":6,"encoder":"952494","distractor":"912494","target":"present","response":"present","rt":"2777.2999999821","correct":true,"confidence":-1},{"trial_n":8,"span":8,"encoder":"70171329","distractor":"70671329","target":"present","response":"present","rt":"3282.3999999762","correct":true,"confidence":-1},{"trial_n":9,"span":8,"encoder":"01783958","distractor":"01783956","target":"absent","response":"present","rt":"4282.599999994","correct":false,"confidence":-1},{"trial_n":10,"span":6,"encoder":"883690","distractor":"883790","target":"present","response":"present","rt":"3135.599999994","correct":true,"confidence":-1},{"trial_n":11,"span":6,"encoder":"198452","distractor":"798452","target":"absent","response":"absent","rt":"1840.2000000179","correct":true,"confidence":-1},{"trial_n":12,"span":7,"encoder":"5862843","distractor":"9862843","target":"present","response":"present","rt":"1925.6000000238","correct":true,"confidence":-1},{"trial_n":13,"span":7,"encoder":"3876069","distractor":"3176069","target":"present","response":"present","rt":"3591","correct":true,"confidence":-1},{"trial_n":14,"span":8,"encoder":"46513962","distractor":"46513062","target":"absent","response":"absent","rt":"3752.2000000179","correct":true,"confidence":-1},{"trial_n":15,"span":8,"encoder":"07748957","distractor":"07748955","target":"present","response":"present","rt":"4423.900000006","correct":true,"confidence":-1},{"trial_n":16,"span":9,"encoder":"403195816","distractor":"405195816","target":"present","response":"present","rt":"2807.7000000179","correct":true,"confidence":-1},{"trial_n":17,"span":9,"encoder":"397624738","distractor":"997624738","target":"present","response":"present","rt":"1928.1999999881","correct":true,"confidence":-1},{"trial_n":18,"span":10,"encoder":"9720133301","distractor":"9720133351","target":"present","response":"present","rt":"2408.599999994","correct":true,"confidence":-1},{"trial_n":19,"span":10,"encoder":"0919316444","distractor":"0919316441","target":"absent","response":"absent","rt":"1857","correct":true,"confidence":-1},{"trial_n":20,"span":11,"encoder":"57391634185","distractor":"57391638185","target":"absent","response":"absent","rt":"2672.1999999881","correct":true,"confidence":-1},{"trial_n":21,"span":11,"encoder":"80334061252","distractor":"40334061252","target":"present","response":"present","rt":"2329.5","correct":true,"confidence":3},{"trial_n":22,"span":12,"encoder":"862411683082","distractor":"862411680082","target":"absent","response":"present","rt":"2821.7000000179","correct":false,"confidence":4},{"trial_n":23,"span":11,"encoder":"18847676650","distractor":"18847636650","target":"present","response":"present","rt":"1916","correct":true,"confidence":3},{"trial_n":24,"span":11,"encoder":"77504307988","distractor":"77504107988","target":"present","response":"present","rt":"1707.8000000119","correct":true,"confidence":4},{"trial_n":25,"span":12,"encoder":"093302850312","distractor":"093372850312","target":"present","response":"present","rt":"3005.099999994","correct":true,"confidence":5},{"trial_n":26,"span":12,"encoder":"158082370589","distractor":"158002370589","target":"present","response":"present","rt":"2825.2999999821","correct":true,"confidence":4},{"trial_n":27,"span":13,"encoder":"5865379122636","distractor":"5865379112636","target":"present","response":"present","rt":"4071.599999994","correct":true,"confidence":3},{"trial_n":28,"span":13,"encoder":"9952691182821","distractor":"9952691582821","target":"present","response":"present","rt":"5081.6000000238","correct":true,"confidence":3},{"trial_n":29,"span":14,"encoder":"38047415346648","distractor":"38047415341648","target":"absent","response":"absent","rt":"2243","correct":true,"confidence":5},{"trial_n":30,"span":14,"encoder":"80698710882122","distractor":"80698710882152","target":"absent","response":"present","rt":"4353.3000000119","correct":false,"confidence":3},{"trial_n":31,"span":13,"encoder":"7102001502482","distractor":"7102011502482","target":"absent","response":"absent","rt":"5222.099999994","correct":true,"confidence":3},{"trial_n":32,"span":13,"encoder":"6144945111708","distractor":"6144949111708","target":"absent","response":"present","rt":"3452","correct":false,"confidence":5},{"trial_n":33,"span":12,"encoder":"471969508441","distractor":"471969508471","target":"present","response":"absent","rt":"5278.2999999821","correct":false,"confidence":3},{"trial_n":34,"span":11,"encoder":"91145739388","distractor":"91125739388","target":"absent","response":"absent","rt":"3721.6999999881","correct":true,"confidence":4},{"trial_n":35,"span":11,"encoder":"12831114040","distractor":"32831114040","target":"absent","response":"present","rt":"2847.400000006","correct":false,"confidence":4},{"trial_n":36,"span":10,"encoder":"5800002893","distractor":"5800002898","target":"absent","response":"present","rt":"6353.8999999762","correct":false,"confidence":3},{"trial_n":37,"span":9,"encoder":"084984074","distractor":"084987074","target":"present","response":"present","rt":"31744.400000006","correct":true,"confidence":3},{"trial_n":38,"span":9,"encoder":"810609003","distractor":"810609803","target":"present","response":"present","rt":"4554.2999999821","correct":true,"confidence":1},{"trial_n":39,"span":10,"encoder":"2681351130","distractor":"2689351130","target":"present","response":"present","rt":"2502.5","correct":true,"confidence":4},{"trial_n":40,"span":10,"encoder":"6331078576","distractor":"6321078576","target":"absent","response":"absent","rt":"3823","correct":true,"confidence":3},{"trial_n":41,"span":11,"encoder":"48691772077","distractor":"48391772077","target":"absent","response":"absent","rt":"8309.099999994","correct":true,"confidence":3},{"trial_n":42,"span":11,"encoder":"37709506095","distractor":"37706506095","target":"present","response":"present","rt":"3778.900000006","correct":true,"confidence":2},{"trial_n":43,"span":12,"encoder":"412832272493","distractor":"412932272493","target":"absent","response":"absent","rt":"8528","correct":true,"confidence":4},{"trial_n":44,"span":12,"encoder":"429325926593","distractor":"429385926593","target":"absent","response":"present","rt":"2509.1999999881","correct":false,"confidence":4},{"trial_n":45,"span":11,"encoder":"29677856863","distractor":"19677856863","target":"present","response":"present","rt":"2562.2999999821","correct":true,"confidence":4},{"trial_n":46,"span":11,"encoder":"70453534986","distractor":"70453534386","target":"absent","response":"present","rt":"2965.6999999881","correct":false,"confidence":5},{"trial_n":47,"span":10,"encoder":"4794143323","distractor":"4794149323","target":"absent","response":"absent","rt":"2646.7999999821","correct":true,"confidence":4},{"trial_n":48,"span":10,"encoder":"5113894626","distractor":"9113894626","target":"present","response":"present","rt":"3026.900000006","correct":true,"confidence":4},{"trial_n":49,"span":11,"encoder":"45729618634","distractor":"45729618631","target":"absent","response":"absent","rt":"3502.900000006","correct":true,"confidence":4},{"trial_n":50,"span":11,"encoder":"99393124040","distractor":"99393123040","target":"present","response":"present","rt":"6597.5","correct":true,"confidence":3},{"trial_n":51,"span":12,"encoder":"158304600293","distractor":"158304600292","target":"absent","response":"absent","rt":"2683.6999999881","correct":true,"confidence":3},{"trial_n":52,"span":12,"encoder":"728889069101","distractor":"728789069101","target":"present","response":"present","rt":"3287.1000000238","correct":true,"confidence":5},{"trial_n":53,"span":13,"encoder":"0135469105644","distractor":"0135469105544","target":"absent","response":"absent","rt":"5039.1999999881","correct":true,"confidence":2},{"trial_n":54,"span":13,"encoder":"5730631398517","distractor":"5730631398537","target":"present","response":"present","rt":"1606","correct":true,"confidence":3},{"trial_n":55,"span":14,"encoder":"21537614923418","distractor":"21537610923418","target":"absent","response":"present","rt":"4100.8000000119","correct":false,"confidence":3},{"trial_n":56,"span":13,"encoder":"5590422315828","distractor":"5590422365828","target":"absent","response":"present","rt":"2099.599999994","correct":false,"confidence":2},{"trial_n":57,"span":12,"encoder":"361977897526","distractor":"361977897506","target":"present","response":"present","rt":"1659.3000000119","correct":true,"confidence":4},{"trial_n":58,"span":12,"encoder":"503205048831","distractor":"503205048531","target":"absent","response":"present","rt":"3162","correct":false,"confidence":3},{"trial_n":59,"span":11,"encoder":"27039188861","distractor":"27032188861","target":"present","response":"present","rt":"3272.5","correct":true,"confidence":4},{"trial_n":60,"span":11,"encoder":"18206773768","distractor":"18206773758","target":"absent","response":"present","rt":"2649.3000000119","correct":false,"confidence":4},{"trial_n":61,"span":10,"encoder":"7076749785","distractor":"7876749785","target":"absent","response":"present","rt":"3184.8999999762","correct":false,"confidence":5},{"trial_n":62,"span":9,"encoder":"146506859","distractor":"146506059","target":"present","response":"present","rt":"2037.599999994","correct":true,"confidence":1},{"trial_n":63,"span":9,"encoder":"361363574","distractor":"361663574","target":"absent","response":"present","rt":"2464.3000000119","correct":false,"confidence":3},{"trial_n":64,"span":8,"encoder":"77156331","distractor":"77156341","target":"present","response":"present","rt":"2490.1999999881","correct":true,"confidence":3},{"trial_n":65,"span":8,"encoder":"91822188","distractor":"91872188","target":"present","response":"present","rt":"2933.900000006","correct":true,"confidence":5},{"trial_n":66,"span":9,"encoder":"879043514","distractor":"889043514","target":"absent","response":"present","rt":"1562.900000006","correct":false,"confidence":1},{"trial_n":67,"span":8,"encoder":"55596631","distractor":"55592631","target":"present","response":"present","rt":"1831.3000000119","correct":true,"confidence":3},{"trial_n":68,"span":8,"encoder":"87998525","distractor":"87998524","target":"present","response":"present","rt":"1155.2000000179","correct":true,"confidence":3},{"trial_n":69,"span":9,"encoder":"093484286","distractor":"093484246","target":"absent","response":"present","rt":"2941","correct":false,"confidence":3},{"trial_n":70,"span":8,"encoder":"47699896","distractor":"47599896","target":"absent","response":"present","rt":"2170","correct":false,"confidence":4},{"trial_n":71,"span":8,"encoder":"17681338","distractor":"17681538","target":"present","response":"present","rt":"3416.5","correct":true,"confidence":-1},{"trial_n":72,"span":8,"encoder":"34320685","distractor":"34330685","target":"present","response":"present","rt":"2775.6000000238","correct":true,"confidence":-1},{"trial_n":73,"span":9,"encoder":"184177067","distractor":"184377067","target":"absent","response":"present","rt":"1415.5","correct":false,"confidence":-1},{"trial_n":74,"span":8,"encoder":"13259171","distractor":"13259181","target":"absent","response":"absent","rt":"2558.7000000179","correct":true,"confidence":-1},{"trial_n":75,"span":8,"encoder":"76339154","distractor":"74339154","target":"present","response":"present","rt":"5654.599999994","correct":true,"confidence":-1},{"trial_n":76,"span":9,"encoder":"427672140","distractor":"427672340","target":"present","response":"present","rt":"116020.90000001","correct":true,"confidence":-1},{"trial_n":77,"span":9,"encoder":"206953606","distractor":"806953606","target":"absent","response":"absent","rt":"2803.1999999881","correct":true,"confidence":-1},{"trial_n":78,"span":10,"encoder":"3686569203","distractor":"3686560203","target":"absent","response":"absent","rt":"4543.099999994","correct":true,"confidence":-1},{"trial_n":79,"span":10,"encoder":"1218519665","distractor":"1218517665","target":"absent","response":"absent","rt":"6003.6999999881","correct":true,"confidence":-1},{"trial_n":80,"span":11,"encoder":"91381207081","distractor":"11381207081","target":"present","response":"present","rt":"2836.3999999762","correct":true,"confidence":-1},{"trial_n":81,"span":11,"encoder":"24337753437","distractor":"24337653437","target":"present","response":"present","rt":"5732.900000006","correct":true,"confidence":-1},{"trial_n":82,"span":12,"encoder":"079321693714","distractor":"079381693714","target":"present","response":"absent","rt":"2671.7000000179","correct":false,"confidence":-1},{"trial_n":83,"span":11,"encoder":"97707269099","distractor":"97407269099","target":"absent","response":"present","rt":"6764.599999994","correct":false,"confidence":-1},{"trial_n":84,"span":10,"encoder":"2533466435","distractor":"1533466435","target":"absent","response":"present","rt":"6947","correct":false,"confidence":-1},{"trial_n":85,"span":9,"encoder":"970103246","distractor":"970153246","target":"absent","response":"present","rt":"7092.2000000179","correct":false,"confidence":-1},{"trial_n":86,"span":8,"encoder":"22748402","distractor":"22748412","target":"present","response":"absent","rt":"4274.2999999821","correct":false,"confidence":-1},{"trial_n":87,"span":7,"encoder":"1389012","distractor":"1386012","target":"absent","response":"absent","rt":"3090.7000000179","correct":true,"confidence":-1},{"trial_n":88,"span":7,"encoder":"5896076","distractor":"5892076","target":"absent","response":"absent","rt":"2118.5","correct":true,"confidence":-1},{"trial_n":89,"span":8,"encoder":"01372986","distractor":"01372985","target":"absent","response":"absent","rt":"4280.099999994","correct":true,"confidence":-1},{"trial_n":90,"span":8,"encoder":"91525410","distractor":"91535410","target":"present","response":"present","rt":"3038.2000000179","correct":true,"confidence":-1},{"trial_n":91,"span":9,"encoder":"434374522","distractor":"434374122","target":"absent","response":"present","rt":"5251.2999999821","correct":false,"confidence":4},{"trial_n":92,"span":8,"encoder":"63440348","distractor":"63440548","target":"absent","response":"absent","rt":"3085.599999994","correct":true,"confidence":5},{"trial_n":93,"span":8,"encoder":"45461369","distractor":"41461369","target":"present","response":"absent","rt":"4009.6999999881","correct":false,"confidence":5},{"trial_n":94,"span":7,"encoder":"8521521","distractor":"8525521","target":"present","response":"present","rt":"3857.7000000179","correct":true,"confidence":3},{"trial_n":95,"span":7,"encoder":"5535471","distractor":"5535971","target":"present","response":"present","rt":"3441.3000000119","correct":true,"confidence":5},{"trial_n":96,"span":8,"encoder":"72504208","distractor":"12504208","target":"present","response":"absent","rt":"3372.900000006","correct":false,"confidence":3},{"trial_n":97,"span":7,"encoder":"1465942","distractor":"4465942","target":"present","response":"present","rt":"3910.1999999881","correct":true,"confidence":3},{"trial_n":98,"span":7,"encoder":"6010062","distractor":"6110062","target":"present","response":"present","rt":"4165.6999999881","correct":true,"confidence":3},{"trial_n":99,"span":8,"encoder":"20750120","distractor":"24750120","target":"absent","response":"absent","rt":"6177.099999994","correct":true,"confidence":5},{"trial_n":100,"span":8,"encoder":"37156418","distractor":"37158418","target":"absent","response":"absent","rt":"7414.6999999881","correct":true,"confidence":5},{"trial_n":101,"span":9,"encoder":"182609638","distractor":"182009638","target":"present","response":"present","rt":"7168.1000000238","correct":true,"confidence":5},{"trial_n":102,"span":9,"encoder":"551724865","distractor":"551124865","target":"present","response":"present","rt":"4637.7999999821","correct":true,"confidence":4},{"trial_n":103,"span":10,"encoder":"0983159234","distractor":"0983159237","target":"absent","response":"absent","rt":"1983.900000006","correct":true,"confidence":4},{"trial_n":104,"span":10,"encoder":"5765836867","distractor":"5775836867","target":"present","response":"present","rt":"5310.599999994","correct":true,"confidence":3},{"trial_n":105,"span":11,"encoder":"31705708260","distractor":"31705708560","target":"present","response":"present","rt":"12765.400000006","correct":true,"confidence":4},{"trial_n":106,"span":11,"encoder":"54879646579","distractor":"54879646519","target":"absent","response":"absent","rt":"7985.400000006","correct":true,"confidence":2},{"trial_n":107,"span":12,"encoder":"898499257092","distractor":"598499257092","target":"present","response":"present","rt":"5866.900000006","correct":true,"confidence":4},{"trial_n":108,"span":12,"encoder":"594234116269","distractor":"594294116269","target":"absent","response":"absent","rt":"5952","correct":true,"confidence":3},{"trial_n":109,"span":13,"encoder":"3628173285849","distractor":"3628873285849","target":"present","response":"present","rt":"7277.900000006","correct":true,"confidence":4},{"trial_n":110,"span":13,"encoder":"3250210841296","distractor":"3250210841256","target":"present","response":"present","rt":"1715.6000000238","correct":true,"confidence":5},{"trial_n":111,"span":14,"encoder":"70525533644485","distractor":"70525933644485","target":"absent","response":"present","rt":"16517.099999994","correct":false,"confidence":2},{"trial_n":112,"span":13,"encoder":"9713415375583","distractor":"9713415376583","target":"present","response":"present","rt":"4938.6000000238","correct":true,"confidence":2},{"trial_n":113,"span":13,"encoder":"6880636965137","distractor":"6800636965137","target":"absent","response":"absent","rt":"4500.3999999762","correct":true,"confidence":3},{"trial_n":114,"span":14,"encoder":"73370887654325","distractor":"73370887454325","target":"present","response":"absent","rt":"4464.400000006","correct":false,"confidence":2},{"trial_n":115,"span":13,"encoder":"7477027966125","distractor":"7477027766125","target":"present","response":"present","rt":"11811.5","correct":true,"confidence":3},{"trial_n":116,"span":13,"encoder":"3457205497932","distractor":"7457205497932","target":"absent","response":"present","rt":"6198.6999999881","correct":false,"confidence":4},{"trial_n":117,"span":12,"encoder":"470150512267","distractor":"470150519267","target":"absent","response":"present","rt":"4807.400000006","correct":false,"confidence":2},{"trial_n":118,"span":11,"encoder":"90239168194","distractor":"90139168194","target":"present","response":"present","rt":"3892.2999999821","correct":true,"confidence":5},{"trial_n":119,"span":11,"encoder":"26005639800","distractor":"26005639830","target":"present","response":"present","rt":"2712.599999994","correct":true,"confidence":5},{"trial_n":120,"span":12,"encoder":"406590719994","distractor":"806590719994","target":"present","response":"present","rt":"5716.099999994","correct":true,"confidence":5},{"trial_n":121,"span":12,"encoder":"596901370337","distractor":"596901300337","target":"absent","response":"absent","rt":"8110.5","correct":true,"confidence":2},{"trial_n":122,"span":13,"encoder":"1911309609177","distractor":"1951309609177","target":"absent","response":"absent","rt":"3261","correct":true,"confidence":5},{"trial_n":123,"span":13,"encoder":"5218803882819","distractor":"5218803882849","target":"present","response":"present","rt":"4400.8000000119","correct":true,"confidence":4},{"trial_n":124,"span":14,"encoder":"37926812423137","distractor":"87926812423137","target":"absent","response":"absent","rt":"3594.5","correct":true,"confidence":5},{"trial_n":125,"span":14,"encoder":"91627561951239","distractor":"91627561951229","target":"present","response":"present","rt":"2566.7999999821","correct":true,"confidence":5},{"trial_n":126,"span":15,"encoder":"506970156935036","distractor":"506978156935036","target":"absent","response":"absent","rt":"4310.400000006","correct":true,"confidence":5},{"trial_n":127,"span":15,"encoder":"109941802340331","distractor":"109945802340331","target":"present","response":"present","rt":"6300.400000006","correct":true,"confidence":5},{"trial_n":128,"span":16,"encoder":"4442893026149611","distractor":"4442893016149611","target":"absent","response":"present","rt":"15074.800000012","correct":false,"confidence":3},{"trial_n":129,"span":15,"encoder":"602702411475528","distractor":"602709411475528","target":"present","response":"present","rt":"4653.900000006","correct":true,"confidence":3},{"trial_n":130,"span":15,"encoder":"908942642558072","distractor":"908942642558062","target":"present","response":"present","rt":"7877.3000000119","correct":true,"confidence":2},{"trial_n":131,"span":16,"encoder":"9946121237143702","distractor":"9946121237143782","target":"absent","response":"absent","rt":"3150","correct":true,"confidence":4},{"trial_n":132,"span":16,"encoder":"7121053976958328","distractor":"7121053977958328","target":"present","response":"present","rt":"11689.900000006","correct":true,"confidence":4},{"trial_n":133,"span":17,"encoder":"13232054478751887","distractor":"12232054478751887","target":"absent","response":"absent","rt":"5049.7000000179","correct":true,"confidence":5},{"trial_n":134,"span":17,"encoder":"78901675296723379","distractor":"78901675296723399","target":"present","response":"present","rt":"8936.5","correct":true,"confidence":4},{"trial_n":135,"span":18,"encoder":"254720718456795314","distractor":"254726718456795314","target":"absent","response":"present","rt":"9816.2000000179","correct":false,"confidence":2},{"trial_n":136,"span":17,"encoder":"82402116980977855","distractor":"82402816980977855","target":"absent","response":"present","rt":"8393.3999999762","correct":false,"confidence":3},{"trial_n":137,"span":16,"encoder":"2490515167716681","distractor":"2490515667716681","target":"absent","response":"absent","rt":"10284.200000018","correct":true,"confidence":2},{"trial_n":138,"span":16,"encoder":"6965398368141640","distractor":"6965998368141640","target":"absent","response":"present","rt":"6034.7000000179","correct":false,"confidence":2},{"trial_n":139,"span":15,"encoder":"518829666294737","distractor":"218829666294737","target":"present","response":"present","rt":"6281.6999999881","correct":true,"confidence":4},{"trial_n":140,"span":15,"encoder":"916237622209408","distractor":"916237622209405","target":"absent","response":"present","rt":"10980.799999982","correct":false,"confidence":2}]