[{"trial_n":1,"min":25,"max":230,"target":"present","response":"present","rt":8121.1999999881,"correct":true,"confidence":-1},{"trial_n":2,"min":25,"max":230,"target":"present","response":"present","rt":1485.6999999881,"correct":true,"confidence":-1},{"trial_n":3,"min":41,"max":214,"target":"absent","response":"absent","rt":1119.2999999523,"correct":true,"confidence":-1},{"trial_n":4,"min":41,"max":214,"target":"absent","response":"absent","rt":950.69999998808,"correct":true,"confidence":-1},{"trial_n":5,"min":57,"max":198,"target":"present","response":"present","rt":633.90000003576,"correct":true,"confidence":-1},{"trial_n":6,"min":57,"max":198,"target":"absent","response":"absent","rt":606.80000001192,"correct":true,"confidence":-1},{"trial_n":7,"min":73,"max":182,"target":"present","response":"absent","rt":732.5,"correct":false,"confidence":-1},{"trial_n":8,"min":57,"max":198,"target":"absent","response":"absent","rt":535.10000002384,"correct":true,"confidence":-1},{"trial_n":9,"min":57,"max":198,"target":"present","response":"absent","rt":767.5,"correct":false,"confidence":-1},{"trial_n":10,"min":41,"max":214,"target":"present","response":"present","rt":646.19999998808,"correct":true,"confidence":-1},{"trial_n":11,"min":41,"max":214,"target":"present","response":"present","rt":491.60000002384,"correct":true,"confidence":-1},{"trial_n":12,"min":49,"max":206,"target":"present","response":"present","rt":596.39999997616,"correct":true,"confidence":-1},{"trial_n":13,"min":49,"max":206,"target":"absent","response":"absent","rt":556.70000004768,"correct":true,"confidence":-1},{"trial_n":14,"min":57,"max":198,"target":"present","response":"absent","rt":733.09999996424,"correct":false,"confidence":-1},{"trial_n":15,"min":49,"max":206,"target":"absent","response":"absent","rt":686.10000002384,"correct":true,"confidence":-1},{"trial_n":16,"min":49,"max":206,"target":"present","response":"present","rt":551.29999995232,"correct":true,"confidence":-1},{"trial_n":17,"min":57,"max":198,"target":"absent","response":"absent","rt":1905.7000000477,"correct":true,"confidence":-1},{"trial_n":18,"min":57,"max":198,"target":"present","response":"present","rt":702.59999996424,"correct":true,"confidence":-1},{"trial_n":19,"min":65,"max":190,"target":"present","response":"present","rt":625.79999995232,"correct":true,"confidence":-1},{"trial_n":20,"min":65,"max":190,"target":"present","response":"present","rt":2357.8000000119,"correct":true,"confidence":-1},{"trial_n":21,"min":69,"max":186,"target":"present","response":"present","rt":713.30000001192,"correct":true,"confidence":3},{"trial_n":22,"min":69,"max":186,"target":"absent","response":"absent","rt":1044.3999999762,"correct":true,"confidence":4},{"trial_n":23,"min":73,"max":182,"target":"present","response":"present","rt":1335.6999999881,"correct":true,"confidence":5},{"trial_n":24,"min":73,"max":182,"target":"absent","response":"absent","rt":1619.6999999881,"correct":true,"confidence":3},{"trial_n":25,"min":77,"max":178,"target":"absent","response":"absent","rt":1304.5,"correct":true,"confidence":5},{"trial_n":26,"min":77,"max":178,"target":"absent","response":"absent","rt":1103.3000000119,"correct":true,"confidence":5},{"trial_n":27,"min":81,"max":174,"target":"absent","response":"absent","rt":1309.9000000358,"correct":true,"confidence":5},{"trial_n":28,"min":81,"max":174,"target":"present","response":"present","rt":1004.6000000238,"correct":true,"confidence":3},{"trial_n":29,"min":85,"max":170,"target":"present","response":"absent","rt":1158.3999999762,"correct":false,"confidence":4},{"trial_n":30,"min":81,"max":174,"target":"absent","response":"absent","rt":1021.3999999762,"correct":true,"confidence":5},{"trial_n":31,"min":81,"max":174,"target":"absent","response":"absent","rt":1183.5,"correct":true,"confidence":5},{"trial_n":32,"min":83,"max":172,"target":"present","response":"absent","rt":955.5,"correct":false,"confidence":5},{"trial_n":33,"min":81,"max":174,"target":"present","response":"absent","rt":1089.5,"correct":false,"confidence":5},{"trial_n":34,"min":79,"max":176,"target":"absent","response":"absent","rt":955.29999995232,"correct":true,"confidence":5},{"trial_n":35,"min":79,"max":176,"target":"absent","response":"absent","rt":1033.8000000119,"correct":true,"confidence":5},{"trial_n":36,"min":81,"max":174,"target":"absent","response":"absent","rt":784.29999995232,"correct":true,"confidence":5},{"trial_n":37,"min":81,"max":174,"target":"present","response":"absent","rt":902.70000004768,"correct":false,"confidence":5},{"trial_n":38,"min":79,"max":176,"target":"absent","response":"present","rt":4929.4000000358,"correct":false,"confidence":2},{"trial_n":39,"min":77,"max":178,"target":"absent","response":"absent","rt":2147.1999999881,"correct":true,"confidence":4},{"trial_n":40,"min":77,"max":178,"target":"absent","response":"absent","rt":3855.1999999881,"correct":true,"confidence":4},{"trial_n":41,"min":78,"max":177,"target":"present","response":"present","rt":1149.3999999762,"correct":true,"confidence":3},{"trial_n":42,"min":78,"max":177,"target":"absent","response":"absent","rt":811.80000001192,"correct":true,"confidence":5},{"trial_n":43,"min":79,"max":176,"target":"absent","response":"present","rt":2159.5999999642,"correct":false,"confidence":3},{"trial_n":44,"min":78,"max":177,"target":"present","response":"present","rt":2556.1999999881,"correct":true,"confidence":2},{"trial_n":45,"min":78,"max":177,"target":"present","response":"absent","rt":2134.0999999642,"correct":false,"confidence":3},{"trial_n":46,"min":77,"max":178,"target":"present","response":"present","rt":827.69999998808,"correct":true,"confidence":5},{"trial_n":47,"min":77,"max":178,"target":"present","response":"absent","rt":1032.8000000119,"correct":false,"confidence":4},{"trial_n":48,"min":76,"max":179,"target":"absent","response":"absent","rt":1224.9000000358,"correct":true,"confidence":4},{"trial_n":49,"min":76,"max":179,"target":"absent","response":"present","rt":1566.1999999881,"correct":false,"confidence":3},{"trial_n":50,"min":75,"max":180,"target":"present","response":"present","rt":1234.1999999881,"correct":true,"confidence":3},{"trial_n":51,"min":75,"max":180,"target":"present","response":"present","rt":1914.0999999642,"correct":true,"confidence":2},{"trial_n":52,"min":76,"max":179,"target":"present","response":"present","rt":661.5,"correct":true,"confidence":4},{"trial_n":53,"min":76,"max":179,"target":"absent","response":"absent","rt":789,"correct":true,"confidence":4},{"trial_n":54,"min":77,"max":178,"target":"absent","response":"absent","rt":1107.7999999523,"correct":true,"confidence":4},{"trial_n":55,"min":77,"max":178,"target":"present","response":"present","rt":619.60000002384,"correct":true,"confidence":5},{"trial_n":56,"min":78,"max":177,"target":"present","response":"present","rt":676.19999998808,"correct":true,"confidence":5},{"trial_n":57,"min":78,"max":177,"target":"present","response":"present","rt":1749.8000000119,"correct":true,"confidence":3},{"trial_n":58,"min":79,"max":176,"target":"present","response":"present","rt":466.20000004768,"correct":true,"confidence":5},{"trial_n":59,"min":79,"max":176,"target":"present","response":"present","rt":739.40000003576,"correct":true,"confidence":4},{"trial_n":60,"min":80,"max":175,"target":"present","response":"present","rt":999.90000003576,"correct":true,"confidence":5},{"trial_n":61,"min":80,"max":175,"target":"absent","response":"absent","rt":514.30000001192,"correct":true,"confidence":5},{"trial_n":62,"min":81,"max":174,"target":"present","response":"absent","rt":859.10000002384,"correct":false,"confidence":5},{"trial_n":63,"min":80,"max":175,"target":"absent","response":"absent","rt":1765,"correct":true,"confidence":5},{"trial_n":64,"min":80,"max":175,"target":"absent","response":"absent","rt":536.09999996424,"correct":true,"confidence":5},{"trial_n":65,"min":81,"max":174,"target":"absent","response":"absent","rt":1478.3000000119,"correct":true,"confidence":3},{"trial_n":66,"min":81,"max":174,"target":"absent","response":"absent","rt":1513.4000000358,"correct":true,"confidence":3},{"trial_n":67,"min":82,"max":173,"target":"present","response":"absent","rt":2221.3000000119,"correct":false,"confidence":2},{"trial_n":68,"min":81,"max":174,"target":"absent","response":"present","rt":934.69999998808,"correct":false,"confidence":3},{"trial_n":69,"min":80,"max":175,"target":"absent","response":"absent","rt":965.19999998808,"correct":true,"confidence":5},{"trial_n":70,"min":80,"max":175,"target":"absent","response":"absent","rt":1493.4000000358,"correct":true,"confidence":4},{"trial_n":71,"min":41,"max":214,"target":"present","response":"present","rt":2171.3999999762,"correct":true,"confidence":-1},{"trial_n":72,"min":41,"max":214,"target":"present","response":"present","rt":874.39999997616,"correct":true,"confidence":-1},{"trial_n":73,"min":57,"max":198,"target":"absent","response":"absent","rt":524.5,"correct":true,"confidence":-1},{"trial_n":74,"min":57,"max":198,"target":"absent","response":"absent","rt":552.69999998808,"correct":true,"confidence":-1},{"trial_n":75,"min":73,"max":182,"target":"present","response":"present","rt":341.39999997616,"correct":true,"confidence":-1},{"trial_n":76,"min":73,"max":182,"target":"present","response":"absent","rt":2579.7999999523,"correct":false,"confidence":-1},{"trial_n":77,"min":57,"max":198,"target":"present","response":"present","rt":410.19999998808,"correct":true,"confidence":-1},{"trial_n":78,"min":57,"max":198,"target":"absent","response":"absent","rt":1212.9000000358,"correct":true,"confidence":-1},{"trial_n":79,"min":73,"max":182,"target":"absent","response":"absent","rt":565.69999998808,"correct":true,"confidence":-1},{"trial_n":80,"min":73,"max":182,"target":"present","response":"absent","rt":506.5,"correct":false,"confidence":-1},{"trial_n":81,"min":65,"max":190,"target":"present","response":"present","rt":561.80000001192,"correct":true,"confidence":-1},{"trial_n":82,"min":65,"max":190,"target":"absent","response":"absent","rt":836.5,"correct":true,"confidence":-1},{"trial_n":83,"min":73,"max":182,"target":"present","response":"present","rt":1737,"correct":true,"confidence":-1},{"trial_n":84,"min":73,"max":182,"target":"absent","response":"absent","rt":1304.3000000119,"correct":true,"confidence":-1},{"trial_n":85,"min":81,"max":174,"target":"absent","response":"present","rt":765.5,"correct":false,"confidence":-1},{"trial_n":86,"min":73,"max":182,"target":"present","response":"present","rt":437.69999998808,"correct":true,"confidence":-1},{"trial_n":87,"min":73,"max":182,"target":"absent","response":"absent","rt":2034,"correct":true,"confidence":-1},{"trial_n":88,"min":81,"max":174,"target":"absent","response":"present","rt":874,"correct":false,"confidence":-1},{"trial_n":89,"min":73,"max":182,"target":"absent","response":"absent","rt":959.89999997616,"correct":true,"confidence":-1},{"trial_n":90,"min":73,"max":182,"target":"present","response":"present","rt":902.80000001192,"correct":true,"confidence":-1},{"trial_n":91,"min":77,"max":178,"target":"present","response":"present","rt":383.5,"correct":true,"confidence":5},{"trial_n":92,"min":77,"max":178,"target":"absent","response":"absent","rt":1753.5,"correct":true,"confidence":5},{"trial_n":93,"min":81,"max":174,"target":"absent","response":"present","rt":566.79999995232,"correct":false,"confidence":4},{"trial_n":94,"min":77,"max":178,"target":"present","response":"present","rt":288.19999998808,"correct":true,"confidence":5},{"trial_n":95,"min":77,"max":178,"target":"absent","response":"present","rt":1646.5,"correct":false,"confidence":3},{"trial_n":96,"min":73,"max":182,"target":"absent","response":"absent","rt":569.80000001192,"correct":true,"confidence":4},{"trial_n":97,"min":73,"max":182,"target":"present","response":"present","rt":412.5,"correct":true,"confidence":5},{"trial_n":98,"min":77,"max":178,"target":"absent","response":"absent","rt":779.10000002384,"correct":true,"confidence":4},{"trial_n":99,"min":77,"max":178,"target":"absent","response":"absent","rt":2465.6999999881,"correct":true,"confidence":2},{"trial_n":100,"min":81,"max":174,"target":"present","response":"present","rt":360.5,"correct":true,"confidence":5},{"trial_n":101,"min":81,"max":174,"target":"present","response":"present","rt":410.69999998808,"correct":true,"confidence":5},{"trial_n":102,"min":83,"max":172,"target":"present","response":"present","rt":517,"correct":true,"confidence":5},{"trial_n":103,"min":83,"max":172,"target":"absent","response":"present","rt":1872,"correct":false,"confidence":1},{"trial_n":104,"min":81,"max":174,"target":"present","response":"present","rt":400.69999998808,"correct":true,"confidence":5},{"trial_n":105,"min":81,"max":174,"target":"absent","response":"absent","rt":1702.6999999881,"correct":true,"confidence":2},{"trial_n":106,"min":83,"max":172,"target":"absent","response":"present","rt":1575.5999999642,"correct":false,"confidence":2},{"trial_n":107,"min":81,"max":174,"target":"absent","response":"present","rt":688.30000001192,"correct":false,"confidence":3},{"trial_n":108,"min":79,"max":176,"target":"present","response":"present","rt":844.90000003576,"correct":true,"confidence":3},{"trial_n":109,"min":79,"max":176,"target":"present","response":"present","rt":549.09999996424,"correct":true,"confidence":4},{"trial_n":110,"min":81,"max":174,"target":"present","response":"present","rt":1888.3999999762,"correct":true,"confidence":4},{"trial_n":111,"min":81,"max":174,"target":"present","response":"present","rt":1041,"correct":true,"confidence":1},{"trial_n":112,"min":82,"max":173,"target":"present","response":"present","rt":673.5,"correct":true,"confidence":5},{"trial_n":113,"min":82,"max":173,"target":"present","response":"present","rt":602.5,"correct":true,"confidence":5},{"trial_n":114,"min":83,"max":172,"target":"present","response":"present","rt":576.69999998808,"correct":true,"confidence":5},{"trial_n":115,"min":83,"max":172,"target":"present","response":"present","rt":279.10000002384,"correct":true,"confidence":5},{"trial_n":116,"min":84,"max":171,"target":"present","response":"present","rt":1403.6000000238,"correct":true,"confidence":4},{"trial_n":117,"min":84,"max":171,"target":"present","response":"absent","rt":877.80000001192,"correct":false,"confidence":1},{"trial_n":118,"min":83,"max":172,"target":"absent","response":"present","rt":3311.1000000238,"correct":false,"confidence":1},{"trial_n":119,"min":82,"max":173,"target":"absent","response":"present","rt":1263.1000000238,"correct":false,"confidence":2},{"trial_n":120,"min":81,"max":174,"target":"absent","response":"present","rt":2150.1999999881,"correct":false,"confidence":2},{"trial_n":121,"min":80,"max":175,"target":"absent","response":"absent","rt":981.69999998808,"correct":true,"confidence":3},{"trial_n":122,"min":80,"max":175,"target":"absent","response":"absent","rt":1331.5,"correct":true,"confidence":2},{"trial_n":123,"min":81,"max":174,"target":"absent","response":"absent","rt":1231.6999999881,"correct":true,"confidence":2},{"trial_n":124,"min":81,"max":174,"target":"absent","response":"present","rt":567.19999998808,"correct":false,"confidence":2},{"trial_n":125,"min":80,"max":175,"target":"absent","response":"present","rt":4000.8999999762,"correct":false,"confidence":1},{"trial_n":126,"min":79,"max":176,"target":"present","response":"present","rt":353.40000003576,"correct":true,"confidence":5},{"trial_n":127,"min":79,"max":176,"target":"present","response":"present","rt":445.10000002384,"correct":true,"confidence":5},{"trial_n":128,"min":80,"max":175,"target":"absent","response":"absent","rt":1263.6000000238,"correct":true,"confidence":3},{"trial_n":129,"min":80,"max":175,"target":"present","response":"present","rt":1017.6999999881,"correct":true,"confidence":3},{"trial_n":130,"min":81,"max":174,"target":"present","response":"absent","rt":687.19999998808,"correct":false,"confidence":1},{"trial_n":131,"min":80,"max":175,"target":"present","response":"absent","rt":3695.6000000238,"correct":false,"confidence":1},{"trial_n":132,"min":79,"max":176,"target":"present","response":"present","rt":560.60000002384,"correct":true,"confidence":3},{"trial_n":133,"min":79,"max":176,"target":"present","response":"present","rt":242.20000004768,"correct":true,"confidence":5},{"trial_n":134,"min":80,"max":175,"target":"present","response":"present","rt":1111.0999999642,"correct":true,"confidence":5},{"trial_n":135,"min":80,"max":175,"target":"absent","response":"present","rt":1072.4000000358,"correct":false,"confidence":5},{"trial_n":136,"min":79,"max":176,"target":"absent","response":"absent","rt":3013.0999999642,"correct":true,"confidence":3},{"trial_n":137,"min":79,"max":176,"target":"absent","response":"absent","rt":719.19999998808,"correct":true,"confidence":4},{"trial_n":138,"min":80,"max":175,"target":"absent","response":"absent","rt":4796,"correct":true,"confidence":3},{"trial_n":139,"min":80,"max":175,"target":"present","response":"present","rt":385.80000001192,"correct":true,"confidence":5},{"trial_n":140,"min":81,"max":174,"target":"absent","response":"absent","rt":2973.8000000119,"correct":true,"confidence":2}]