[{"trial_n":1,"n_dots":4.25,"target":"right","response":"left","rt":9177.2999999523,"correct":false,"confidence":-1},{"trial_n":2,"n_dots":4.25,"target":"right","response":"left","rt":4478.5,"correct":false,"confidence":-1},{"trial_n":3,"n_dots":4.65,"target":"right","response":"right","rt":560.09999996424,"correct":true,"confidence":-1},{"trial_n":4,"n_dots":4.65,"target":"right","response":"right","rt":489.79999995232,"correct":true,"confidence":-1},{"trial_n":5,"n_dots":4.25,"target":"left","response":"left","rt":604.80000001192,"correct":true,"confidence":-1},{"trial_n":6,"n_dots":4.25,"target":"right","response":"right","rt":4763.6999999881,"correct":true,"confidence":-1},{"trial_n":7,"n_dots":3.85,"target":"right","response":"right","rt":1705.7999999523,"correct":true,"confidence":-1},{"trial_n":8,"n_dots":3.85,"target":"right","response":"right","rt":792.60000002384,"correct":true,"confidence":-1},{"trial_n":9,"n_dots":3.65,"target":"left","response":"left","rt":565.5,"correct":true,"confidence":-1},{"trial_n":10,"n_dots":3.65,"target":"left","response":"left","rt":391.59999996424,"correct":true,"confidence":-1},{"trial_n":11,"n_dots":3.45,"target":"right","response":"right","rt":520.10000002384,"correct":true,"confidence":-1},{"trial_n":12,"n_dots":3.45,"target":"right","response":"right","rt":706.79999995232,"correct":true,"confidence":-1},{"trial_n":13,"n_dots":3.35,"target":"right","response":"left","rt":2236.5,"correct":false,"confidence":-1},{"trial_n":14,"n_dots":3.45,"target":"right","response":"right","rt":383.40000003576,"correct":true,"confidence":-1},{"trial_n":15,"n_dots":3.45,"target":"right","response":"right","rt":389.5,"correct":true,"confidence":-1},{"trial_n":16,"n_dots":3.35,"target":"right","response":"left","rt":1042.0999999642,"correct":false,"confidence":-1},{"trial_n":17,"n_dots":3.45,"target":"right","response":"right","rt":371.90000003576,"correct":true,"confidence":-1},{"trial_n":18,"n_dots":3.45,"target":"left","response":"left","rt":435.20000004768,"correct":true,"confidence":-1},{"trial_n":19,"n_dots":3.35,"target":"left","response":"left","rt":299.39999997616,"correct":true,"confidence":-1},{"trial_n":20,"n_dots":3.35,"target":"right","response":"left","rt":974.10000002384,"correct":false,"confidence":-1},{"trial_n":21,"n_dots":3.45,"target":"right","response":"right","rt":1065.5,"correct":true,"confidence":3},{"trial_n":22,"n_dots":3.45,"target":"left","response":"right","rt":2131.1999999881,"correct":false,"confidence":3},{"trial_n":23,"n_dots":3.55,"target":"right","response":"right","rt":846.89999997616,"correct":true,"confidence":5},{"trial_n":24,"n_dots":3.55,"target":"left","response":"left","rt":847.29999995232,"correct":true,"confidence":5},{"trial_n":25,"n_dots":3.45,"target":"left","response":"left","rt":1294.0999999642,"correct":true,"confidence":4},{"trial_n":26,"n_dots":3.45,"target":"right","response":"right","rt":658.60000002384,"correct":true,"confidence":5},{"trial_n":27,"n_dots":3.35,"target":"right","response":"right","rt":4697,"correct":true,"confidence":3},{"trial_n":28,"n_dots":3.35,"target":"right","response":"left","rt":2800.0999999642,"correct":false,"confidence":2},{"trial_n":29,"n_dots":3.45,"target":"right","response":"left","rt":1009.1999999881,"correct":false,"confidence":3},{"trial_n":30,"n_dots":3.55,"target":"right","response":"right","rt":878.59999996424,"correct":true,"confidence":5},{"trial_n":31,"n_dots":3.55,"target":"right","response":"left","rt":1230.6999999881,"correct":false,"confidence":3},{"trial_n":32,"n_dots":3.65,"target":"left","response":"left","rt":476.5,"correct":true,"confidence":5},{"trial_n":33,"n_dots":3.65,"target":"left","response":"left","rt":606.79999995232,"correct":true,"confidence":5},{"trial_n":34,"n_dots":3.55,"target":"left","response":"left","rt":580,"correct":true,"confidence":5},{"trial_n":35,"n_dots":3.55,"target":"right","response":"right","rt":2210.8000000119,"correct":true,"confidence":3},{"trial_n":36,"n_dots":3.45,"target":"left","response":"left","rt":301,"correct":true,"confidence":5},{"trial_n":37,"n_dots":3.45,"target":"left","response":"left","rt":444.60000002384,"correct":true,"confidence":5},{"trial_n":38,"n_dots":3.35,"target":"right","response":"left","rt":1327.6999999881,"correct":false,"confidence":4},{"trial_n":39,"n_dots":3.45,"target":"left","response":"left","rt":351.79999995232,"correct":true,"confidence":5},{"trial_n":40,"n_dots":3.45,"target":"left","response":"left","rt":794.19999998808,"correct":true,"confidence":5},{"trial_n":41,"n_dots":3.35,"target":"right","response":"right","rt":828.5,"correct":true,"confidence":5},{"trial_n":42,"n_dots":3.35,"target":"right","response":"left","rt":2216.4000000358,"correct":false,"confidence":3},{"trial_n":43,"n_dots":3.45,"target":"left","response":"left","rt":414.30000001192,"correct":true,"confidence":5},{"trial_n":44,"n_dots":3.45,"target":"left","response":"left","rt":544,"correct":true,"confidence":5},{"trial_n":45,"n_dots":3.35,"target":"left","response":"left","rt":387.60000002384,"correct":true,"confidence":5},{"trial_n":46,"n_dots":3.35,"target":"left","response":"left","rt":351.89999997616,"correct":true,"confidence":5},{"trial_n":47,"n_dots":3.25,"target":"left","response":"left","rt":542.19999998808,"correct":true,"confidence":5},{"trial_n":48,"n_dots":3.25,"target":"right","response":"right","rt":638.90000003576,"correct":true,"confidence":5},{"trial_n":49,"n_dots":3.15,"target":"left","response":"left","rt":941.60000002384,"correct":true,"confidence":5},{"trial_n":50,"n_dots":3.15,"target":"right","response":"right","rt":301.80000001192,"correct":true,"confidence":4},{"trial_n":51,"n_dots":3.05,"target":"right","response":"left","rt":1389.1000000238,"correct":false,"confidence":3},{"trial_n":52,"n_dots":3.15,"target":"right","response":"right","rt":359.89999997616,"correct":true,"confidence":4},{"trial_n":53,"n_dots":3.15,"target":"left","response":"left","rt":482.59999996424,"correct":true,"confidence":5},{"trial_n":54,"n_dots":3.05,"target":"left","response":"left","rt":772.60000002384,"correct":true,"confidence":4},{"trial_n":55,"n_dots":3.05,"target":"right","response":"left","rt":474.39999997616,"correct":false,"confidence":4},{"trial_n":56,"n_dots":3.15,"target":"left","response":"left","rt":594.29999995232,"correct":true,"confidence":4},{"trial_n":57,"n_dots":3.15,"target":"right","response":"right","rt":1071,"correct":true,"confidence":3},{"trial_n":58,"n_dots":3.05,"target":"right","response":"right","rt":900.19999998808,"correct":true,"confidence":3},{"trial_n":59,"n_dots":3.05,"target":"left","response":"left","rt":816.59999996424,"correct":true,"confidence":5},{"trial_n":60,"n_dots":2.95,"target":"left","response":"left","rt":189.69999998808,"correct":true,"confidence":5},{"trial_n":61,"n_dots":2.95,"target":"left","response":"right","rt":922.30000001192,"correct":false,"confidence":4},{"trial_n":62,"n_dots":3.05,"target":"right","response":"left","rt":435.60000002384,"correct":false,"confidence":4},{"trial_n":63,"n_dots":3.15,"target":"left","response":"left","rt":315.20000004768,"correct":true,"confidence":5},{"trial_n":64,"n_dots":3.15,"target":"right","response":"left","rt":457,"correct":false,"confidence":4},{"trial_n":65,"n_dots":3.25,"target":"right","response":"left","rt":1107.3000000119,"correct":false,"confidence":3},{"trial_n":66,"n_dots":3.35,"target":"right","response":"right","rt":661.10000002384,"correct":true,"confidence":3},{"trial_n":67,"n_dots":3.35,"target":"left","response":"left","rt":277.39999997616,"correct":true,"confidence":5},{"trial_n":68,"n_dots":3.25,"target":"left","response":"left","rt":341.10000002384,"correct":true,"confidence":5},{"trial_n":69,"n_dots":3.25,"target":"right","response":"left","rt":1481.6999999881,"correct":false,"confidence":3},{"trial_n":70,"n_dots":3.35,"target":"left","response":"left","rt":318.30000001192,"correct":true,"confidence":5},{"trial_n":71,"n_dots":3.35,"target":"left","response":"left","rt":786,"correct":true,"confidence":5},{"trial_n":72,"n_dots":3.25,"target":"right","response":"right","rt":422.5,"correct":true,"confidence":5},{"trial_n":73,"n_dots":3.25,"target":"right","response":"left","rt":512.80000001192,"correct":false,"confidence":5},{"trial_n":74,"n_dots":3.35,"target":"left","response":"left","rt":329,"correct":true,"confidence":5},{"trial_n":75,"n_dots":3.35,"target":"right","response":"right","rt":352,"correct":true,"confidence":3},{"trial_n":76,"n_dots":3.25,"target":"left","response":"left","rt":280.5,"correct":true,"confidence":5},{"trial_n":77,"n_dots":3.25,"target":"left","response":"left","rt":704.39999997616,"correct":true,"confidence":5},{"trial_n":78,"n_dots":3.15,"target":"left","response":"left","rt":533,"correct":true,"confidence":5},{"trial_n":79,"n_dots":3.15,"target":"right","response":"left","rt":452.39999997616,"correct":false,"confidence":5},{"trial_n":80,"n_dots":3.25,"target":"left","response":"left","rt":608.5,"correct":true,"confidence":5},{"trial_n":81,"n_dots":3.25,"target":"left","response":"left","rt":807.89999997616,"correct":true,"confidence":4},{"trial_n":82,"n_dots":3.15,"target":"left","response":"left","rt":355.19999998808,"correct":true,"confidence":4},{"trial_n":83,"n_dots":3.15,"target":"left","response":"left","rt":308.89999997616,"correct":true,"confidence":5},{"trial_n":84,"n_dots":3.05,"target":"left","response":"left","rt":340.09999996424,"correct":true,"confidence":5},{"trial_n":85,"n_dots":3.05,"target":"right","response":"left","rt":746.09999996424,"correct":false,"confidence":3},{"trial_n":86,"n_dots":3.15,"target":"left","response":"right","rt":673.5,"correct":false,"confidence":3},{"trial_n":87,"n_dots":3.25,"target":"right","response":"left","rt":662,"correct":false,"confidence":3},{"trial_n":88,"n_dots":3.35,"target":"right","response":"right","rt":640.10000002384,"correct":true,"confidence":4},{"trial_n":89,"n_dots":3.35,"target":"left","response":"left","rt":530.80000001192,"correct":true,"confidence":4},{"trial_n":90,"n_dots":3.25,"target":"left","response":"left","rt":1284.6999999881,"correct":true,"confidence":5},{"trial_n":91,"n_dots":3.25,"target":"right","response":"right","rt":345.5,"correct":true,"confidence":5},{"trial_n":92,"n_dots":3.15,"target":"left","response":"left","rt":330.60000002384,"correct":true,"confidence":5},{"trial_n":93,"n_dots":3.15,"target":"left","response":"left","rt":362.80000001192,"correct":true,"confidence":5},{"trial_n":94,"n_dots":3.05,"target":"left","response":"left","rt":361,"correct":true,"confidence":5},{"trial_n":95,"n_dots":3.05,"target":"right","response":"right","rt":601.19999998808,"correct":true,"confidence":5},{"trial_n":96,"n_dots":2.95,"target":"left","response":"left","rt":455,"correct":true,"confidence":5},{"trial_n":97,"n_dots":2.95,"target":"left","response":"left","rt":683.5,"correct":true,"confidence":5},{"trial_n":98,"n_dots":2.85,"target":"left","response":"left","rt":539.19999998808,"correct":true,"confidence":5},{"trial_n":99,"n_dots":2.85,"target":"right","response":"left","rt":518.60000002384,"correct":false,"confidence":5},{"trial_n":100,"n_dots":2.95,"target":"left","response":"left","rt":441.60000002384,"correct":true,"confidence":5},{"trial_n":101,"n_dots":2.95,"target":"left","response":"right","rt":1662.6000000238,"correct":false,"confidence":3},{"trial_n":102,"n_dots":3.05,"target":"left","response":"left","rt":849.30000001192,"correct":true,"confidence":4},{"trial_n":103,"n_dots":3.05,"target":"right","response":"right","rt":327.09999996424,"correct":true,"confidence":4},{"trial_n":104,"n_dots":2.95,"target":"right","response":"right","rt":3292.3000000119,"correct":true,"confidence":3},{"trial_n":105,"n_dots":2.95,"target":"right","response":"left","rt":401.30000001192,"correct":false,"confidence":4},{"trial_n":106,"n_dots":3.05,"target":"right","response":"right","rt":916.80000001192,"correct":true,"confidence":4},{"trial_n":107,"n_dots":3.05,"target":"left","response":"left","rt":366.70000004768,"correct":true,"confidence":5},{"trial_n":108,"n_dots":2.95,"target":"right","response":"right","rt":857.19999998808,"correct":true,"confidence":4},{"trial_n":109,"n_dots":2.95,"target":"right","response":"right","rt":889.5,"correct":true,"confidence":4},{"trial_n":110,"n_dots":2.85,"target":"right","response":"left","rt":851.80000001192,"correct":false,"confidence":4},{"trial_n":111,"n_dots":2.95,"target":"left","response":"left","rt":793.09999996424,"correct":true,"confidence":5},{"trial_n":112,"n_dots":2.95,"target":"right","response":"left","rt":884.5,"correct":false,"confidence":3},{"trial_n":113,"n_dots":3.05,"target":"left","response":"left","rt":1701.3000000119,"correct":true,"confidence":3},{"trial_n":114,"n_dots":3.05,"target":"right","response":"left","rt":644.60000002384,"correct":false,"confidence":3},{"trial_n":115,"n_dots":3.15,"target":"left","response":"right","rt":3023.6000000238,"correct":false,"confidence":2},{"trial_n":116,"n_dots":3.25,"target":"left","response":"left","rt":314.20000004768,"correct":true,"confidence":5},{"trial_n":117,"n_dots":3.25,"target":"left","response":"left","rt":396.39999997616,"correct":true,"confidence":5},{"trial_n":118,"n_dots":3.15,"target":"right","response":"right","rt":442.39999997616,"correct":true,"confidence":5},{"trial_n":119,"n_dots":3.15,"target":"right","response":"left","rt":1370,"correct":false,"confidence":2},{"trial_n":120,"n_dots":3.25,"target":"left","response":"left","rt":368.10000002384,"correct":true,"confidence":5}]