[{"trial_n":1,"n_dots":4.25,"target":"left","response":"right","rt":15870.299999982,"correct":false,"confidence":-1},{"trial_n":2,"n_dots":4.25,"target":"left","response":"right","rt":1536.6000000238,"correct":false,"confidence":-1},{"trial_n":3,"n_dots":4.65,"target":"left","response":"left","rt":1408.6999999881,"correct":true,"confidence":-1},{"trial_n":4,"n_dots":4.65,"target":"left","response":"left","rt":595.69999998808,"correct":true,"confidence":-1},{"trial_n":5,"n_dots":4.25,"target":"right","response":"right","rt":236.79999998212,"correct":true,"confidence":-1},{"trial_n":6,"n_dots":4.25,"target":"right","response":"right","rt":435,"correct":true,"confidence":-1},{"trial_n":7,"n_dots":3.85,"target":"right","response":"right","rt":535.90000000596,"correct":true,"confidence":-1},{"trial_n":8,"n_dots":3.85,"target":"right","response":"right","rt":474,"correct":true,"confidence":-1},{"trial_n":9,"n_dots":3.65,"target":"right","response":"left","rt":298.5,"correct":false,"confidence":-1},{"trial_n":10,"n_dots":3.85,"target":"left","response":"left","rt":282.20000001788,"correct":true,"confidence":-1},{"trial_n":11,"n_dots":3.85,"target":"left","response":"left","rt":607,"correct":true,"confidence":-1},{"trial_n":12,"n_dots":3.65,"target":"left","response":"right","rt":796.59999999404,"correct":false,"confidence":-1},{"trial_n":13,"n_dots":3.75,"target":"right","response":"right","rt":1056.099999994,"correct":true,"confidence":-1},{"trial_n":14,"n_dots":3.75,"target":"right","response":"left","rt":437.80000001192,"correct":false,"confidence":-1},{"trial_n":15,"n_dots":3.85,"target":"right","response":"right","rt":216.59999999404,"correct":true,"confidence":-1},{"trial_n":16,"n_dots":3.85,"target":"left","response":"left","rt":387.5,"correct":true,"confidence":-1},{"trial_n":17,"n_dots":3.75,"target":"left","response":"right","rt":440.39999997616,"correct":false,"confidence":-1},{"trial_n":18,"n_dots":3.85,"target":"left","response":"left","rt":423,"correct":true,"confidence":-1},{"trial_n":19,"n_dots":3.85,"target":"left","response":"right","rt":254.30000001192,"correct":false,"confidence":-1},{"trial_n":20,"n_dots":3.95,"target":"right","response":"right","rt":322.59999999404,"correct":true,"confidence":-1},{"trial_n":21,"n_dots":3.95,"target":"right","response":"right","rt":383.40000000596,"correct":true,"confidence":4},{"trial_n":22,"n_dots":3.85,"target":"right","response":"right","rt":276.70000001788,"correct":true,"confidence":4},{"trial_n":23,"n_dots":3.85,"target":"left","response":"left","rt":408,"correct":true,"confidence":4},{"trial_n":24,"n_dots":3.75,"target":"right","response":"right","rt":240.09999999404,"correct":true,"confidence":4},{"trial_n":25,"n_dots":3.75,"target":"left","response":"left","rt":280.40000000596,"correct":true,"confidence":4},{"trial_n":26,"n_dots":3.65,"target":"right","response":"right","rt":239.80000001192,"correct":true,"confidence":5},{"trial_n":27,"n_dots":3.65,"target":"left","response":"left","rt":837.40000000596,"correct":true,"confidence":3},{"trial_n":28,"n_dots":3.55,"target":"right","response":"right","rt":3746.900000006,"correct":true,"confidence":3},{"trial_n":29,"n_dots":3.55,"target":"left","response":"left","rt":3563,"correct":true,"confidence":1},{"trial_n":30,"n_dots":3.45,"target":"left","response":"left","rt":6641,"correct":true,"confidence":1},{"trial_n":31,"n_dots":3.45,"target":"left","response":"right","rt":1794.7999999821,"correct":false,"confidence":3},{"trial_n":32,"n_dots":3.55,"target":"left","response":"left","rt":596.90000000596,"correct":true,"confidence":3},{"trial_n":33,"n_dots":3.55,"target":"left","response":"right","rt":1724.400000006,"correct":false,"confidence":3},{"trial_n":34,"n_dots":3.65,"target":"right","response":"right","rt":657.5,"correct":true,"confidence":4},{"trial_n":35,"n_dots":3.65,"target":"left","response":"left","rt":333.89999997616,"correct":true,"confidence":3},{"trial_n":36,"n_dots":3.55,"target":"right","response":"right","rt":320.60000002384,"correct":true,"confidence":3},{"trial_n":37,"n_dots":3.55,"target":"left","response":"right","rt":272.80000001192,"correct":false,"confidence":2},{"trial_n":38,"n_dots":3.65,"target":"right","response":"right","rt":435,"correct":true,"confidence":4},{"trial_n":39,"n_dots":3.65,"target":"right","response":"right","rt":437.09999999404,"correct":true,"confidence":3},{"trial_n":40,"n_dots":3.55,"target":"left","response":"left","rt":269.79999998212,"correct":true,"confidence":2},{"trial_n":41,"n_dots":3.55,"target":"right","response":"right","rt":244.70000001788,"correct":true,"confidence":4},{"trial_n":42,"n_dots":3.45,"target":"right","response":"right","rt":405.30000001192,"correct":true,"confidence":4},{"trial_n":43,"n_dots":3.45,"target":"right","response":"left","rt":478.10000002384,"correct":false,"confidence":3},{"trial_n":44,"n_dots":3.55,"target":"right","response":"right","rt":380.79999998212,"correct":true,"confidence":3},{"trial_n":45,"n_dots":3.55,"target":"left","response":"right","rt":2469.599999994,"correct":false,"confidence":3},{"trial_n":46,"n_dots":3.65,"target":"left","response":"left","rt":1367.400000006,"correct":true,"confidence":4},{"trial_n":47,"n_dots":3.65,"target":"right","response":"right","rt":906.5,"correct":true,"confidence":4},{"trial_n":48,"n_dots":3.55,"target":"left","response":"left","rt":564.80000001192,"correct":true,"confidence":3},{"trial_n":49,"n_dots":3.55,"target":"left","response":"left","rt":249.39999997616,"correct":true,"confidence":3},{"trial_n":50,"n_dots":3.45,"target":"right","response":"left","rt":749.5,"correct":false,"confidence":3},{"trial_n":51,"n_dots":3.55,"target":"left","response":"left","rt":274.70000001788,"correct":true,"confidence":3},{"trial_n":52,"n_dots":3.55,"target":"right","response":"right","rt":402.70000001788,"correct":true,"confidence":3},{"trial_n":53,"n_dots":3.45,"target":"right","response":"right","rt":347.79999998212,"correct":true,"confidence":3},{"trial_n":54,"n_dots":3.45,"target":"right","response":"right","rt":591.59999999404,"correct":true,"confidence":3},{"trial_n":55,"n_dots":3.35,"target":"right","response":"right","rt":509.59999999404,"correct":true,"confidence":3},{"trial_n":56,"n_dots":3.35,"target":"right","response":"left","rt":1039.900000006,"correct":false,"confidence":3},{"trial_n":57,"n_dots":3.45,"target":"right","response":"right","rt":340.80000001192,"correct":true,"confidence":2},{"trial_n":58,"n_dots":3.45,"target":"right","response":"left","rt":600.30000001192,"correct":false,"confidence":3},{"trial_n":59,"n_dots":3.55,"target":"left","response":"left","rt":1573.900000006,"correct":true,"confidence":1},{"trial_n":60,"n_dots":3.55,"target":"left","response":"left","rt":1031.7000000179,"correct":true,"confidence":2},{"trial_n":61,"n_dots":3.45,"target":"right","response":"right","rt":1087,"correct":true,"confidence":3},{"trial_n":62,"n_dots":3.45,"target":"left","response":"left","rt":241.59999999404,"correct":true,"confidence":4},{"trial_n":63,"n_dots":3.35,"target":"left","response":"left","rt":620,"correct":true,"confidence":4},{"trial_n":64,"n_dots":3.35,"target":"right","response":"left","rt":1098.2000000179,"correct":false,"confidence":3},{"trial_n":65,"n_dots":3.45,"target":"left","response":"right","rt":1679.3000000119,"correct":false,"confidence":2},{"trial_n":66,"n_dots":3.55,"target":"left","response":"left","rt":292.09999999404,"correct":true,"confidence":4},{"trial_n":67,"n_dots":3.55,"target":"left","response":"left","rt":1952,"correct":true,"confidence":3},{"trial_n":68,"n_dots":3.45,"target":"right","response":"right","rt":446.40000000596,"correct":true,"confidence":3},{"trial_n":69,"n_dots":3.45,"target":"right","response":"left","rt":207.29999998212,"correct":false,"confidence":3},{"trial_n":70,"n_dots":3.55,"target":"right","response":"right","rt":231.19999998808,"correct":true,"confidence":3},{"trial_n":71,"n_dots":3.55,"target":"left","response":"left","rt":233.20000001788,"correct":true,"confidence":3},{"trial_n":72,"n_dots":3.45,"target":"left","response":"left","rt":317.90000000596,"correct":true,"confidence":4},{"trial_n":73,"n_dots":3.45,"target":"left","response":"left","rt":241.90000000596,"correct":true,"confidence":4},{"trial_n":74,"n_dots":3.35,"target":"left","response":"left","rt":250.59999999404,"correct":true,"confidence":4},{"trial_n":75,"n_dots":3.35,"target":"left","response":"left","rt":217.59999999404,"correct":true,"confidence":3},{"trial_n":76,"n_dots":3.25,"target":"right","response":"left","rt":425,"correct":false,"confidence":3},{"trial_n":77,"n_dots":3.35,"target":"right","response":"right","rt":222.30000001192,"correct":true,"confidence":4},{"trial_n":78,"n_dots":3.35,"target":"left","response":"left","rt":272.09999999404,"correct":true,"confidence":3},{"trial_n":79,"n_dots":3.25,"target":"left","response":"left","rt":716.59999999404,"correct":true,"confidence":3},{"trial_n":80,"n_dots":3.25,"target":"left","response":"left","rt":217.79999998212,"correct":true,"confidence":3},{"trial_n":81,"n_dots":3.15,"target":"left","response":"left","rt":212.09999999404,"correct":true,"confidence":4},{"trial_n":82,"n_dots":3.15,"target":"right","response":"right","rt":261.09999999404,"correct":true,"confidence":3},{"trial_n":83,"n_dots":3.05,"target":"right","response":"right","rt":2248,"correct":true,"confidence":2},{"trial_n":84,"n_dots":3.05,"target":"right","response":"right","rt":1287.6000000238,"correct":true,"confidence":3},{"trial_n":85,"n_dots":2.95,"target":"left","response":"left","rt":328.10000002384,"correct":true,"confidence":4},{"trial_n":86,"n_dots":2.95,"target":"right","response":"right","rt":273.20000001788,"correct":true,"confidence":3},{"trial_n":87,"n_dots":2.85,"target":"left","response":"left","rt":471.79999998212,"correct":true,"confidence":3},{"trial_n":88,"n_dots":2.85,"target":"right","response":"right","rt":30.5,"correct":true,"confidence":4},{"trial_n":89,"n_dots":2.75,"target":"right","response":"left","rt":266.5,"correct":false,"confidence":4},{"trial_n":90,"n_dots":2.85,"target":"left","response":"right","rt":964.89999997616,"correct":false,"confidence":2},{"trial_n":91,"n_dots":2.95,"target":"right","response":"left","rt":576.09999999404,"correct":false,"confidence":3},{"trial_n":92,"n_dots":3.05,"target":"right","response":"left","rt":603.40000000596,"correct":false,"confidence":3},{"trial_n":93,"n_dots":3.15,"target":"right","response":"right","rt":403.90000000596,"correct":true,"confidence":3},{"trial_n":94,"n_dots":3.15,"target":"left","response":"left","rt":320.70000001788,"correct":true,"confidence":4},{"trial_n":95,"n_dots":3.05,"target":"left","response":"left","rt":304.19999998808,"correct":true,"confidence":4},{"trial_n":96,"n_dots":3.05,"target":"right","response":"right","rt":7863.3000000119,"correct":true,"confidence":3},{"trial_n":97,"n_dots":2.95,"target":"right","response":"left","rt":502.69999998808,"correct":false,"confidence":3},{"trial_n":98,"n_dots":3.05,"target":"right","response":"left","rt":243.90000000596,"correct":false,"confidence":3},{"trial_n":99,"n_dots":3.15,"target":"left","response":"left","rt":259.59999999404,"correct":true,"confidence":3},{"trial_n":100,"n_dots":3.15,"target":"left","response":"left","rt":738.89999997616,"correct":true,"confidence":3},{"trial_n":101,"n_dots":3.05,"target":"right","response":"right","rt":544.69999998808,"correct":true,"confidence":3},{"trial_n":102,"n_dots":3.05,"target":"right","response":"left","rt":246.59999999404,"correct":false,"confidence":4},{"trial_n":103,"n_dots":3.15,"target":"left","response":"left","rt":88.59999999404,"correct":true,"confidence":4},{"trial_n":104,"n_dots":3.15,"target":"right","response":"right","rt":1.8000000119209,"correct":true,"confidence":4},{"trial_n":105,"n_dots":3.05,"target":"left","response":"left","rt":1116.5,"correct":true,"confidence":4},{"trial_n":106,"n_dots":3.05,"target":"left","response":"left","rt":206.5,"correct":true,"confidence":5},{"trial_n":107,"n_dots":2.95,"target":"right","response":"left","rt":693,"correct":false,"confidence":4},{"trial_n":108,"n_dots":3.05,"target":"left","response":"right","rt":821,"correct":false,"confidence":3},{"trial_n":109,"n_dots":3.15,"target":"left","response":"left","rt":1311.3000000119,"correct":true,"confidence":2},{"trial_n":110,"n_dots":3.15,"target":"right","response":"right","rt":207.90000000596,"correct":true,"confidence":4},{"trial_n":111,"n_dots":3.05,"target":"left","response":"left","rt":21.600000023842,"correct":true,"confidence":4},{"trial_n":112,"n_dots":3.05,"target":"left","response":"left","rt":67.399999976158,"correct":true,"confidence":3},{"trial_n":113,"n_dots":2.95,"target":"right","response":"right","rt":363.80000001192,"correct":true,"confidence":3},{"trial_n":114,"n_dots":2.95,"target":"right","response":"right","rt":569.59999999404,"correct":true,"confidence":3},{"trial_n":115,"n_dots":2.85,"target":"right","response":"left","rt":109.70000001788,"correct":false,"confidence":3},{"trial_n":116,"n_dots":2.95,"target":"left","response":"left","rt":399.5,"correct":true,"confidence":4},{"trial_n":117,"n_dots":2.95,"target":"right","response":"right","rt":1259.3000000119,"correct":true,"confidence":3},{"trial_n":118,"n_dots":2.85,"target":"left","response":"left","rt":225.5,"correct":true,"confidence":3},{"trial_n":119,"n_dots":2.85,"target":"right","response":"right","rt":386.5,"correct":true,"confidence":3},{"trial_n":120,"n_dots":2.75,"target":"left","response":"left","rt":147.70000001788,"correct":true,"confidence":3}]