[{"trial_n":1,"span":8,"encoder":"92967371","distractor":"92967321","target":"present","response":"present","rt":"5458.1000000238","correct":true,"confidence":-1},{"trial_n":2,"span":8,"encoder":"13429338","distractor":"13429339","target":"present","response":"present","rt":"4734.1999999881","correct":true,"confidence":-1},{"trial_n":3,"span":10,"encoder":"5186019933","distractor":"5786019933","target":"absent","response":"present","rt":"3115.3000000119","correct":false,"confidence":-1},{"trial_n":4,"span":8,"encoder":"75396713","distractor":"75326713","target":"absent","response":"absent","rt":"5131.9000000358","correct":true,"confidence":-1},{"trial_n":5,"span":8,"encoder":"63651932","distractor":"67651932","target":"present","response":"present","rt":"3885.6999999881","correct":true,"confidence":-1},{"trial_n":6,"span":10,"encoder":"4455131200","distractor":"4455132200","target":"absent","response":"absent","rt":"4608.3000000119","correct":true,"confidence":-1},{"trial_n":7,"span":10,"encoder":"9675908428","distractor":"9675908728","target":"present","response":"absent","rt":"4228.6999999881","correct":false,"confidence":-1},{"trial_n":8,"span":8,"encoder":"59880144","distractor":"59810144","target":"present","response":"absent","rt":"2822","correct":false,"confidence":-1},{"trial_n":9,"span":6,"encoder":"275486","distractor":"275487","target":"present","response":"absent","rt":"1932.3999999762","correct":false,"confidence":-1},{"trial_n":10,"span":4,"encoder":"7165","distractor":"8165","target":"absent","response":"present","rt":"1955.1999999881","correct":false,"confidence":-1},{"trial_n":11,"span":2,"encoder":"07","distractor":"09","target":"absent","response":"absent","rt":"1228","correct":true,"confidence":-1},{"trial_n":12,"span":2,"encoder":"74","distractor":"84","target":"present","response":"absent","rt":"5087.1999999881","correct":false,"confidence":-1},{"trial_n":13,"span":2,"encoder":"78","distractor":"68","target":"absent","response":"absent","rt":"870.60000002384","correct":true,"confidence":-1},{"trial_n":14,"span":2,"encoder":"88","distractor":"84","target":"present","response":"present","rt":"647.30000001192","correct":true,"confidence":-1},{"trial_n":15,"span":3,"encoder":"605","distractor":"305","target":"absent","response":"absent","rt":"941.89999997616","correct":true,"confidence":-1},{"trial_n":16,"span":3,"encoder":"600","distractor":"604","target":"absent","response":"absent","rt":"713.80000001192","correct":true,"confidence":-1},{"trial_n":17,"span":4,"encoder":"6266","distractor":"6766","target":"present","response":"present","rt":"867.39999997616","correct":true,"confidence":-1},{"trial_n":18,"span":4,"encoder":"3567","distractor":"3569","target":"absent","response":"absent","rt":"1121.6999999881","correct":true,"confidence":-1},{"trial_n":19,"span":5,"encoder":"79156","distractor":"79155","target":"absent","response":"absent","rt":"2657.6000000238","correct":true,"confidence":-1},{"trial_n":20,"span":5,"encoder":"05339","distractor":"15339","target":"present","response":"present","rt":"1204.8999999762","correct":true,"confidence":-1},{"trial_n":21,"span":6,"encoder":"160538","distractor":"160532","target":"absent","response":"absent","rt":"1001.8000000119","correct":true,"confidence":5},{"trial_n":22,"span":6,"encoder":"324771","distractor":"324471","target":"present","response":"present","rt":"1779.6000000238","correct":true,"confidence":5},{"trial_n":23,"span":7,"encoder":"4456288","distractor":"4406288","target":"present","response":"present","rt":"3874.1999999881","correct":true,"confidence":4},{"trial_n":24,"span":7,"encoder":"5763132","distractor":"5763732","target":"absent","response":"present","rt":"4349.5999999642","correct":false,"confidence":5},{"trial_n":25,"span":6,"encoder":"535405","distractor":"535005","target":"present","response":"present","rt":"1679.0999999642","correct":true,"confidence":5},{"trial_n":26,"span":6,"encoder":"973548","distractor":"970548","target":"absent","response":"absent","rt":"3032.6000000238","correct":true,"confidence":5},{"trial_n":27,"span":7,"encoder":"1369995","distractor":"1969995","target":"present","response":"present","rt":"2094.8000000119","correct":true,"confidence":5},{"trial_n":28,"span":7,"encoder":"2313044","distractor":"0313044","target":"present","response":"present","rt":"2357.9000000358","correct":true,"confidence":5},{"trial_n":29,"span":8,"encoder":"87681434","distractor":"87281434","target":"present","response":"present","rt":"2244","correct":true,"confidence":5},{"trial_n":30,"span":8,"encoder":"97953337","distractor":"97957337","target":"present","response":"present","rt":"1593.6999999881","correct":true,"confidence":5},{"trial_n":31,"span":9,"encoder":"230145203","distractor":"230145205","target":"absent","response":"absent","rt":"3722.6999999881","correct":true,"confidence":3},{"trial_n":32,"span":9,"encoder":"092991606","distractor":"092691606","target":"absent","response":"absent","rt":"3115.5","correct":true,"confidence":5},{"trial_n":33,"span":10,"encoder":"1408166991","distractor":"1408176991","target":"present","response":"present","rt":"2990.7000000477","correct":true,"confidence":5},{"trial_n":34,"span":10,"encoder":"6529454361","distractor":"6529454368","target":"absent","response":"absent","rt":"5871.3999999762","correct":true,"confidence":5},{"trial_n":35,"span":11,"encoder":"32787694853","distractor":"32187694853","target":"absent","response":"absent","rt":"2721.1000000238","correct":true,"confidence":2},{"trial_n":36,"span":11,"encoder":"02703050474","distractor":"02703050174","target":"absent","response":"present","rt":"3800.8999999762","correct":false,"confidence":3},{"trial_n":37,"span":10,"encoder":"9732781243","distractor":"9432781243","target":"absent","response":"absent","rt":"2144.4000000358","correct":true,"confidence":4},{"trial_n":38,"span":10,"encoder":"9708281377","distractor":"9708280377","target":"present","response":"absent","rt":"5541.4000000358","correct":false,"confidence":3},{"trial_n":39,"span":9,"encoder":"483816640","distractor":"483016640","target":"present","response":"present","rt":"2560.5","correct":true,"confidence":4},{"trial_n":40,"span":9,"encoder":"579094785","distractor":"579094745","target":"absent","response":"absent","rt":"2931.3999999762","correct":true,"confidence":5},{"trial_n":41,"span":10,"encoder":"9696435771","distractor":"9296435771","target":"absent","response":"absent","rt":"2340.5","correct":true,"confidence":5},{"trial_n":42,"span":10,"encoder":"2333343615","distractor":"0333343615","target":"absent","response":"present","rt":"2970.8000000119","correct":false,"confidence":5},{"trial_n":43,"span":9,"encoder":"018378653","distractor":"010378653","target":"absent","response":"absent","rt":"2814","correct":true,"confidence":5},{"trial_n":44,"span":9,"encoder":"643766802","distractor":"643566802","target":"present","response":"present","rt":"2935.0999999642","correct":true,"confidence":5},{"trial_n":45,"span":10,"encoder":"0593352787","distractor":"0593352887","target":"present","response":"present","rt":"6094.6999999881","correct":true,"confidence":4},{"trial_n":46,"span":10,"encoder":"4986359212","distractor":"4986359217","target":"present","response":"present","rt":"4731.1999999881","correct":true,"confidence":4},{"trial_n":47,"span":11,"encoder":"41209818204","distractor":"41209818244","target":"absent","response":"absent","rt":"2031.8999999762","correct":true,"confidence":5},{"trial_n":48,"span":11,"encoder":"11265588313","distractor":"51265588313","target":"present","response":"present","rt":"3120.9000000358","correct":true,"confidence":5},{"trial_n":49,"span":12,"encoder":"302872905435","distractor":"300872905435","target":"absent","response":"absent","rt":"3064","correct":true,"confidence":5},{"trial_n":50,"span":12,"encoder":"443593779398","distractor":"443543779398","target":"present","response":"absent","rt":"3390.8000000119","correct":false,"confidence":4},{"trial_n":51,"span":11,"encoder":"75851078424","distractor":"75251078424","target":"absent","response":"present","rt":"3329.8999999762","correct":false,"confidence":3},{"trial_n":52,"span":10,"encoder":"7234518275","distractor":"7234508275","target":"present","response":"present","rt":"3219.5999999642","correct":true,"confidence":4},{"trial_n":53,"span":10,"encoder":"3440692734","distractor":"3440694734","target":"present","response":"absent","rt":"3172.5","correct":false,"confidence":3},{"trial_n":54,"span":9,"encoder":"121771817","distractor":"128771817","target":"absent","response":"absent","rt":"2721.3000000119","correct":true,"confidence":3},{"trial_n":55,"span":9,"encoder":"309167107","distractor":"309167157","target":"present","response":"present","rt":"7066.1000000238","correct":true,"confidence":3},{"trial_n":56,"span":10,"encoder":"6007454177","distractor":"6002454177","target":"absent","response":"absent","rt":"1725.3000000119","correct":true,"confidence":5},{"trial_n":57,"span":10,"encoder":"0981684771","distractor":"0981684571","target":"absent","response":"absent","rt":"3053.6999999881","correct":true,"confidence":3},{"trial_n":58,"span":11,"encoder":"47428301921","distractor":"47428301321","target":"absent","response":"absent","rt":"1807.3999999762","correct":true,"confidence":5},{"trial_n":59,"span":11,"encoder":"47234133406","distractor":"47234133401","target":"absent","response":"absent","rt":"1508.1000000238","correct":true,"confidence":5},{"trial_n":60,"span":12,"encoder":"073871140632","distractor":"573871140632","target":"present","response":"present","rt":"2844","correct":true,"confidence":3},{"trial_n":61,"span":12,"encoder":"887647416388","distractor":"887647411388","target":"absent","response":"present","rt":"3986.6000000238","correct":false,"confidence":3},{"trial_n":62,"span":11,"encoder":"86775189689","distractor":"82775189689","target":"present","response":"present","rt":"1837.3000000119","correct":true,"confidence":4},{"trial_n":63,"span":11,"encoder":"70116634011","distractor":"70116134011","target":"present","response":"present","rt":"2305.1999999881","correct":true,"confidence":5},{"trial_n":64,"span":12,"encoder":"331434139187","distractor":"331434189187","target":"absent","response":"present","rt":"3012.1999999881","correct":false,"confidence":3},{"trial_n":65,"span":11,"encoder":"15757412507","distractor":"15767412507","target":"present","response":"present","rt":"1700.1000000238","correct":true,"confidence":5},{"trial_n":66,"span":11,"encoder":"66094298936","distractor":"66094298938","target":"present","response":"absent","rt":"7769.7999999523","correct":false,"confidence":3},{"trial_n":67,"span":10,"encoder":"2220266987","distractor":"2220266980","target":"present","response":"present","rt":"1923.9000000358","correct":true,"confidence":5},{"trial_n":68,"span":10,"encoder":"9823386392","distractor":"9823386397","target":"present","response":"absent","rt":"9383.8999999762","correct":false,"confidence":2},{"trial_n":69,"span":9,"encoder":"213089746","distractor":"213089744","target":"absent","response":"absent","rt":"1189.9000000358","correct":true,"confidence":5},{"trial_n":70,"span":9,"encoder":"597129839","distractor":"587129839","target":"present","response":"present","rt":"3495","correct":true,"confidence":3},{"trial_n":71,"span":8,"encoder":"98004711","distractor":"94004711","target":"present","response":"present","rt":"4966","correct":true,"confidence":-1},{"trial_n":72,"span":8,"encoder":"19897474","distractor":"19892474","target":"present","response":"present","rt":"4232.6999999881","correct":true,"confidence":-1},{"trial_n":73,"span":9,"encoder":"664673416","distractor":"664673816","target":"absent","response":"absent","rt":"7075.3999999762","correct":true,"confidence":-1},{"trial_n":74,"span":9,"encoder":"108331819","distractor":"108331818","target":"absent","response":"absent","rt":"1668.7999999523","correct":true,"confidence":-1},{"trial_n":75,"span":10,"encoder":"4092170855","distractor":"4092170850","target":"present","response":"present","rt":"1599.5","correct":true,"confidence":-1},{"trial_n":76,"span":10,"encoder":"5976898409","distractor":"5976898403","target":"present","response":"present","rt":"2674.8999999762","correct":true,"confidence":-1},{"trial_n":77,"span":11,"encoder":"87352488012","distractor":"87352482012","target":"absent","response":"absent","rt":"2441","correct":true,"confidence":-1},{"trial_n":78,"span":11,"encoder":"71603630939","distractor":"41603630939","target":"present","response":"present","rt":"5286.8000000119","correct":true,"confidence":-1},{"trial_n":79,"span":12,"encoder":"890512505411","distractor":"890712505411","target":"present","response":"present","rt":"4974.1000000238","correct":true,"confidence":-1},{"trial_n":80,"span":12,"encoder":"294781615692","distractor":"294781615672","target":"absent","response":"absent","rt":"11275.199999988","correct":true,"confidence":-1},{"trial_n":81,"span":13,"encoder":"2371850643783","distractor":"2371850645783","target":"present","response":"present","rt":"4406.2999999523","correct":true,"confidence":-1},{"trial_n":82,"span":13,"encoder":"9941799603907","distractor":"9921799603907","target":"present","response":"absent","rt":"8190.3000000119","correct":false,"confidence":-1},{"trial_n":83,"span":12,"encoder":"818672608982","distractor":"818672508982","target":"absent","response":"present","rt":"6891.8000000119","correct":false,"confidence":-1},{"trial_n":84,"span":11,"encoder":"81684912167","distractor":"81664912167","target":"present","response":"present","rt":"4853.5","correct":true,"confidence":-1},{"trial_n":85,"span":11,"encoder":"17296250292","distractor":"17296250291","target":"absent","response":"absent","rt":"1378.6999999881","correct":true,"confidence":-1},{"trial_n":86,"span":12,"encoder":"122705861356","distractor":"122705868356","target":"absent","response":"absent","rt":"6877.1999999881","correct":true,"confidence":-1},{"trial_n":87,"span":12,"encoder":"006918314559","distractor":"006912314559","target":"absent","response":"absent","rt":"5273.8000000119","correct":true,"confidence":-1},{"trial_n":88,"span":13,"encoder":"8433685556182","distractor":"8433685550182","target":"present","response":"present","rt":"3877.8999999762","correct":true,"confidence":-1},{"trial_n":89,"span":13,"encoder":"8138356734714","distractor":"8138356234714","target":"present","response":"present","rt":"7621.1000000238","correct":true,"confidence":-1},{"trial_n":90,"span":14,"encoder":"28916971478808","distractor":"28916971478858","target":"present","response":"present","rt":"1820.5","correct":true,"confidence":-1},{"trial_n":91,"span":14,"encoder":"12373813309974","distractor":"12373813209974","target":"absent","response":"absent","rt":"16271","correct":true,"confidence":3},{"trial_n":92,"span":15,"encoder":"960882531412998","distractor":"960882531412958","target":"present","response":"present","rt":"5606.3000000119","correct":true,"confidence":5},{"trial_n":93,"span":15,"encoder":"198880856907473","distractor":"198830856907473","target":"present","response":"absent","rt":"10674.199999988","correct":false,"confidence":5},{"trial_n":94,"span":14,"encoder":"76373167854121","distractor":"76373167854123","target":"absent","response":"absent","rt":"4337.8000000119","correct":true,"confidence":4},{"trial_n":95,"span":14,"encoder":"30913571289569","distractor":"30913571249569","target":"absent","response":"absent","rt":"8694.8999999762","correct":true,"confidence":5},{"trial_n":96,"span":15,"encoder":"026688063004173","distractor":"076688063004173","target":"absent","response":"present","rt":"10251.5","correct":false,"confidence":4},{"trial_n":97,"span":14,"encoder":"95588344779158","distractor":"95588364779158","target":"absent","response":"absent","rt":"10431.199999988","correct":true,"confidence":5},{"trial_n":98,"span":14,"encoder":"56389289064506","distractor":"26389289064506","target":"absent","response":"absent","rt":"12416.800000012","correct":true,"confidence":5},{"trial_n":99,"span":15,"encoder":"794239848710075","distractor":"794239848710045","target":"present","response":"present","rt":"2688.4000000358","correct":true,"confidence":5},{"trial_n":100,"span":15,"encoder":"022211306809107","distractor":"042211306809107","target":"present","response":"absent","rt":"6507.8000000119","correct":false,"confidence":4},{"trial_n":101,"span":14,"encoder":"81978135403583","distractor":"81978135403783","target":"absent","response":"absent","rt":"10360.299999952","correct":true,"confidence":4},{"trial_n":102,"span":14,"encoder":"71421149103973","distractor":"11421149103973","target":"present","response":"present","rt":"11252","correct":true,"confidence":5},{"trial_n":103,"span":15,"encoder":"102613593200122","distractor":"102613593200622","target":"absent","response":"absent","rt":"2949.1000000238","correct":true,"confidence":5},{"trial_n":104,"span":15,"encoder":"140456848410408","distractor":"140456848412408","target":"present","response":"present","rt":"9093.3999999762","correct":true,"confidence":3},{"trial_n":105,"span":16,"encoder":"5130785564741907","distractor":"5130785564701907","target":"present","response":"present","rt":"4373.0999999642","correct":true,"confidence":5},{"trial_n":106,"span":16,"encoder":"8724326855701945","distractor":"8724326855771945","target":"absent","response":"present","rt":"6073.7000000477","correct":false,"confidence":5},{"trial_n":107,"span":15,"encoder":"722890021453645","distractor":"722890021453625","target":"absent","response":"absent","rt":"4592.6999999881","correct":true,"confidence":5},{"trial_n":108,"span":15,"encoder":"803829583494451","distractor":"806829583494451","target":"absent","response":"absent","rt":"10159.600000024","correct":true,"confidence":4},{"trial_n":109,"span":16,"encoder":"0179969968383017","distractor":"0179969960383017","target":"present","response":"absent","rt":"13556.800000012","correct":false,"confidence":2},{"trial_n":110,"span":15,"encoder":"142319651377967","distractor":"142310651377967","target":"absent","response":"absent","rt":"23911.5","correct":true,"confidence":3},{"trial_n":111,"span":15,"encoder":"818015584622885","distractor":"818015584625885","target":"absent","response":"absent","rt":"2828.5","correct":true,"confidence":5},{"trial_n":112,"span":16,"encoder":"6718786480277092","distractor":"6715786480277092","target":"present","response":"present","rt":"13918.899999976","correct":true,"confidence":4},{"trial_n":113,"span":16,"encoder":"4407695465719833","distractor":"4407595465719833","target":"present","response":"present","rt":"11622.200000048","correct":true,"confidence":4},{"trial_n":114,"span":17,"encoder":"39343738434249956","distractor":"39343838434249956","target":"absent","response":"absent","rt":"17275.100000024","correct":true,"confidence":3},{"trial_n":115,"span":17,"encoder":"21514360216096177","distractor":"21514360216096117","target":"present","response":"present","rt":"33143.199999988","correct":true,"confidence":1},{"trial_n":116,"span":18,"encoder":"646693960905226535","distractor":"046693960905226535","target":"absent","response":"absent","rt":"20703.600000024","correct":true,"confidence":2},{"trial_n":117,"span":18,"encoder":"404639205990844515","distractor":"404639215990844515","target":"absent","response":"absent","rt":"7992.3000000119","correct":true,"confidence":3},{"trial_n":118,"span":19,"encoder":"1351773825290849278","distractor":"1351773821290849278","target":"present","response":"present","rt":"8327.5999999642","correct":true,"confidence":3},{"trial_n":119,"span":19,"encoder":"0247126415797693589","distractor":"0247126495797693589","target":"absent","response":"present","rt":"22320.199999988","correct":false,"confidence":3},{"trial_n":120,"span":18,"encoder":"143155922769416309","distractor":"143155922765416309","target":"present","response":"absent","rt":"12529.299999952","correct":false,"confidence":2},{"trial_n":121,"span":17,"encoder":"88338655232928244","distractor":"88338655232958244","target":"present","response":"absent","rt":"14120.600000024","correct":false,"confidence":3},{"trial_n":122,"span":16,"encoder":"0862345484503160","distractor":"0862345484543160","target":"present","response":"absent","rt":"12368.100000024","correct":false,"confidence":3},{"trial_n":123,"span":15,"encoder":"371227543880765","distractor":"351227543880765","target":"present","response":"absent","rt":"5040.1000000238","correct":false,"confidence":2},{"trial_n":124,"span":14,"encoder":"53744912810801","distractor":"53744919810801","target":"absent","response":"absent","rt":"4812","correct":true,"confidence":3},{"trial_n":125,"span":14,"encoder":"99356284028784","distractor":"99356284088784","target":"present","response":"present","rt":"3545.3000000119","correct":true,"confidence":4},{"trial_n":126,"span":15,"encoder":"389024344516792","distractor":"389024344526792","target":"absent","response":"present","rt":"10707","correct":false,"confidence":3},{"trial_n":127,"span":14,"encoder":"78554005928529","distractor":"78554005928129","target":"absent","response":"absent","rt":"2337","correct":true,"confidence":5},{"trial_n":128,"span":14,"encoder":"43139465160669","distractor":"43139469160669","target":"present","response":"present","rt":"7563.0999999642","correct":true,"confidence":4},{"trial_n":129,"span":15,"encoder":"761506543173134","distractor":"861506543173134","target":"absent","response":"absent","rt":"5456.1999999881","correct":true,"confidence":3},{"trial_n":130,"span":15,"encoder":"799141747802450","distractor":"799141047802450","target":"absent","response":"absent","rt":"9589.8999999762","correct":true,"confidence":2},{"trial_n":131,"span":16,"encoder":"9958389190495170","distractor":"9358389190495170","target":"present","response":"absent","rt":"8486.1000000238","correct":false,"confidence":3},{"trial_n":132,"span":15,"encoder":"341309767766664","distractor":"341309767766164","target":"present","response":"present","rt":"2693.8000000119","correct":true,"confidence":5},{"trial_n":133,"span":15,"encoder":"484142256585550","distractor":"484145256585550","target":"present","response":"present","rt":"5781.6000000238","correct":true,"confidence":4},{"trial_n":134,"span":16,"encoder":"0202371001061230","distractor":"0202371001961230","target":"present","response":"present","rt":"10319.099999964","correct":true,"confidence":5},{"trial_n":135,"span":16,"encoder":"9082992519676230","distractor":"9083992519676230","target":"absent","response":"absent","rt":"10650.900000036","correct":true,"confidence":5},{"trial_n":136,"span":17,"encoder":"68053681536762713","distractor":"68053881536762713","target":"present","response":"present","rt":"4751.4000000358","correct":true,"confidence":4},{"trial_n":137,"span":17,"encoder":"75614199009137974","distractor":"75614199509137974","target":"absent","response":"present","rt":"4594.1999999881","correct":false,"confidence":5},{"trial_n":138,"span":16,"encoder":"3909806653153900","distractor":"3909806653653900","target":"absent","response":"absent","rt":"9848.3000000119","correct":true,"confidence":1},{"trial_n":139,"span":16,"encoder":"2675205287430898","distractor":"2675205287420898","target":"absent","response":"present","rt":"5421.6999999881","correct":false,"confidence":2},{"trial_n":140,"span":15,"encoder":"726840549539999","distractor":"726840549539959","target":"present","response":"present","rt":"3087.6000000238","correct":true,"confidence":5}]