[{"trial_n":1,"min":25,"max":230,"target":"present","response":"present","rt":3938.3999999911,"correct":true,"confidence":-1},{"trial_n":2,"min":25,"max":230,"target":"present","response":"present","rt":577.5,"correct":true,"confidence":-1},{"trial_n":3,"min":41,"max":214,"target":"absent","response":"absent","rt":909.70000000298,"correct":true,"confidence":-1},{"trial_n":4,"min":41,"max":214,"target":"absent","response":"absent","rt":492.20000000298,"correct":true,"confidence":-1},{"trial_n":5,"min":57,"max":198,"target":"present","response":"present","rt":593.79999999702,"correct":true,"confidence":-1},{"trial_n":6,"min":57,"max":198,"target":"absent","response":"absent","rt":233.09999999404,"correct":true,"confidence":-1},{"trial_n":7,"min":73,"max":182,"target":"absent","response":"absent","rt":263.19999998808,"correct":true,"confidence":-1},{"trial_n":8,"min":73,"max":182,"target":"absent","response":"absent","rt":224.09999999404,"correct":true,"confidence":-1},{"trial_n":9,"min":89,"max":166,"target":"absent","response":"absent","rt":181,"correct":true,"confidence":-1},{"trial_n":10,"min":89,"max":166,"target":"present","response":"absent","rt":82,"correct":false,"confidence":-1},{"trial_n":11,"min":81,"max":174,"target":"present","response":"absent","rt":752.09999999404,"correct":false,"confidence":-1},{"trial_n":12,"min":73,"max":182,"target":"absent","response":"absent","rt":3964,"correct":true,"confidence":-1},{"trial_n":13,"min":73,"max":182,"target":"absent","response":"absent","rt":584.09999999404,"correct":true,"confidence":-1},{"trial_n":14,"min":81,"max":174,"target":"absent","response":"absent","rt":609.70000000298,"correct":true,"confidence":-1},{"trial_n":15,"min":81,"max":174,"target":"present","response":"absent","rt":512.80000001192,"correct":false,"confidence":-1},{"trial_n":16,"min":73,"max":182,"target":"present","response":"absent","rt":832.90000000596,"correct":false,"confidence":-1},{"trial_n":17,"min":65,"max":190,"target":"present","response":"present","rt":902.59999999404,"correct":true,"confidence":-1},{"trial_n":18,"min":65,"max":190,"target":"present","response":"present","rt":476.90000000596,"correct":true,"confidence":-1},{"trial_n":19,"min":73,"max":182,"target":"present","response":"absent","rt":692.89999999106,"correct":false,"confidence":-1},{"trial_n":20,"min":65,"max":190,"target":"present","response":"present","rt":608.29999999702,"correct":true,"confidence":-1},{"trial_n":21,"min":65,"max":190,"target":"present","response":"present","rt":854.29999999702,"correct":true,"confidence":5},{"trial_n":22,"min":69,"max":186,"target":"absent","response":"absent","rt":1053,"correct":true,"confidence":4},{"trial_n":23,"min":69,"max":186,"target":"absent","response":"absent","rt":1549.799999997,"correct":true,"confidence":3},{"trial_n":24,"min":73,"max":182,"target":"absent","response":"absent","rt":794.20000000298,"correct":true,"confidence":1},{"trial_n":25,"min":73,"max":182,"target":"absent","response":"absent","rt":2278.200000003,"correct":true,"confidence":3},{"trial_n":26,"min":77,"max":178,"target":"present","response":"present","rt":865.5,"correct":true,"confidence":1},{"trial_n":27,"min":77,"max":178,"target":"present","response":"absent","rt":5497.400000006,"correct":false,"confidence":4},{"trial_n":28,"min":73,"max":182,"target":"present","response":"present","rt":884.09999999404,"correct":true,"confidence":5},{"trial_n":29,"min":73,"max":182,"target":"absent","response":"absent","rt":749.59999999404,"correct":true,"confidence":4},{"trial_n":30,"min":77,"max":178,"target":"absent","response":"absent","rt":781.5,"correct":true,"confidence":4},{"trial_n":31,"min":77,"max":178,"target":"present","response":"present","rt":1092.5,"correct":true,"confidence":5},{"trial_n":32,"min":79,"max":176,"target":"absent","response":"absent","rt":566.60000000894,"correct":true,"confidence":4},{"trial_n":33,"min":79,"max":176,"target":"absent","response":"absent","rt":765.79999999702,"correct":true,"confidence":4},{"trial_n":34,"min":81,"max":174,"target":"present","response":"present","rt":604.09999999404,"correct":true,"confidence":4},{"trial_n":35,"min":81,"max":174,"target":"present","response":"present","rt":1444.900000006,"correct":true,"confidence":5},{"trial_n":36,"min":83,"max":172,"target":"present","response":"present","rt":1042.200000003,"correct":true,"confidence":5},{"trial_n":37,"min":83,"max":172,"target":"present","response":"present","rt":3196.8999999911,"correct":true,"confidence":5},{"trial_n":38,"min":85,"max":170,"target":"absent","response":"absent","rt":700.89999999106,"correct":true,"confidence":1},{"trial_n":39,"min":85,"max":170,"target":"absent","response":"absent","rt":2220.599999994,"correct":true,"confidence":5},{"trial_n":40,"min":87,"max":168,"target":"absent","response":"present","rt":2078.8999999911,"correct":false,"confidence":5},{"trial_n":41,"min":86,"max":169,"target":"present","response":"present","rt":730,"correct":true,"confidence":5},{"trial_n":42,"min":86,"max":169,"target":"present","response":"present","rt":597.20000000298,"correct":true,"confidence":5},{"trial_n":43,"min":87,"max":168,"target":"present","response":"absent","rt":625.89999999106,"correct":false,"confidence":5},{"trial_n":44,"min":86,"max":169,"target":"present","response":"present","rt":734.39999999106,"correct":true,"confidence":5},{"trial_n":45,"min":86,"max":169,"target":"present","response":"present","rt":965.29999999702,"correct":true,"confidence":5},{"trial_n":46,"min":87,"max":168,"target":"present","response":"present","rt":654.39999999106,"correct":true,"confidence":5},{"trial_n":47,"min":87,"max":168,"target":"absent","response":"absent","rt":743.39999999106,"correct":true,"confidence":5},{"trial_n":48,"min":88,"max":167,"target":"absent","response":"present","rt":702,"correct":false,"confidence":5},{"trial_n":49,"min":87,"max":168,"target":"absent","response":"absent","rt":616.79999999702,"correct":true,"confidence":5},{"trial_n":50,"min":87,"max":168,"target":"absent","response":"present","rt":1018.5,"correct":false,"confidence":5},{"trial_n":51,"min":86,"max":169,"target":"present","response":"present","rt":1248.099999994,"correct":true,"confidence":5},{"trial_n":52,"min":86,"max":169,"target":"absent","response":"absent","rt":746.79999999702,"correct":true,"confidence":5},{"trial_n":53,"min":87,"max":168,"target":"absent","response":"present","rt":1249.200000003,"correct":false,"confidence":5},{"trial_n":54,"min":86,"max":169,"target":"present","response":"present","rt":819.29999999702,"correct":true,"confidence":5},{"trial_n":55,"min":86,"max":169,"target":"absent","response":"absent","rt":1044.8999999911,"correct":true,"confidence":5},{"trial_n":56,"min":87,"max":168,"target":"present","response":"absent","rt":675.09999999404,"correct":false,"confidence":4},{"trial_n":57,"min":86,"max":169,"target":"absent","response":"absent","rt":1468.6000000089,"correct":true,"confidence":5},{"trial_n":58,"min":86,"max":169,"target":"present","response":"present","rt":662.5,"correct":true,"confidence":5},{"trial_n":59,"min":87,"max":168,"target":"absent","response":"absent","rt":848.90000000596,"correct":true,"confidence":5},{"trial_n":60,"min":87,"max":168,"target":"present","response":"present","rt":751.69999998808,"correct":true,"confidence":5},{"trial_n":61,"min":88,"max":167,"target":"present","response":"present","rt":804.79999999702,"correct":true,"confidence":5},{"trial_n":62,"min":88,"max":167,"target":"absent","response":"absent","rt":712.29999999702,"correct":true,"confidence":5},{"trial_n":63,"min":89,"max":166,"target":"present","response":"absent","rt":921.29999999702,"correct":false,"confidence":5},{"trial_n":64,"min":88,"max":167,"target":"present","response":"present","rt":1008.799999997,"correct":true,"confidence":5},{"trial_n":65,"min":88,"max":167,"target":"absent","response":"present","rt":714.5,"correct":false,"confidence":5},{"trial_n":66,"min":87,"max":168,"target":"absent","response":"absent","rt":545.29999999702,"correct":true,"confidence":5},{"trial_n":67,"min":87,"max":168,"target":"absent","response":"absent","rt":636.5,"correct":true,"confidence":4},{"trial_n":68,"min":88,"max":167,"target":"present","response":"present","rt":791.60000000894,"correct":true,"confidence":5},{"trial_n":69,"min":88,"max":167,"target":"absent","response":"absent","rt":1041,"correct":true,"confidence":5},{"trial_n":70,"min":89,"max":166,"target":"present","response":"present","rt":814.40000000596,"correct":true,"confidence":3},{"trial_n":71,"min":41,"max":214,"target":"present","response":"present","rt":3910.799999997,"correct":true,"confidence":-1},{"trial_n":72,"min":41,"max":214,"target":"present","response":"absent","rt":21435.599999994,"correct":false,"confidence":-1},{"trial_n":73,"min":25,"max":230,"target":"absent","response":"absent","rt":2125.200000003,"correct":true,"confidence":-1},{"trial_n":74,"min":25,"max":230,"target":"absent","response":"absent","rt":654,"correct":true,"confidence":-1},{"trial_n":75,"min":41,"max":214,"target":"present","response":"present","rt":463.79999999702,"correct":true,"confidence":-1},{"trial_n":76,"min":41,"max":214,"target":"present","response":"present","rt":491.70000000298,"correct":true,"confidence":-1},{"trial_n":77,"min":57,"max":198,"target":"absent","response":"absent","rt":443.39999999106,"correct":true,"confidence":-1},{"trial_n":78,"min":57,"max":198,"target":"absent","response":"absent","rt":1546.5,"correct":true,"confidence":-1},{"trial_n":79,"min":73,"max":182,"target":"absent","response":"absent","rt":659.79999999702,"correct":true,"confidence":-1},{"trial_n":80,"min":73,"max":182,"target":"present","response":"present","rt":446.20000000298,"correct":true,"confidence":-1},{"trial_n":81,"min":81,"max":174,"target":"present","response":"absent","rt":5277.3999999911,"correct":false,"confidence":-1},{"trial_n":82,"min":73,"max":182,"target":"absent","response":"absent","rt":1037.599999994,"correct":true,"confidence":-1},{"trial_n":83,"min":73,"max":182,"target":"present","response":"present","rt":668.69999998808,"correct":true,"confidence":-1},{"trial_n":84,"min":81,"max":174,"target":"present","response":"present","rt":1037,"correct":true,"confidence":-1},{"trial_n":85,"min":81,"max":174,"target":"absent","response":"absent","rt":1119.900000006,"correct":true,"confidence":-1},{"trial_n":86,"min":89,"max":166,"target":"absent","response":"absent","rt":705.5,"correct":true,"confidence":-1},{"trial_n":87,"min":89,"max":166,"target":"absent","response":"absent","rt":594.10000000894,"correct":true,"confidence":-1},{"trial_n":88,"min":97,"max":158,"target":"present","response":"present","rt":944.20000000298,"correct":true,"confidence":-1},{"trial_n":89,"min":97,"max":158,"target":"present","response":"present","rt":695.30000001192,"correct":true,"confidence":-1},{"trial_n":90,"min":105,"max":150,"target":"absent","response":"present","rt":601.09999999404,"correct":false,"confidence":-1},{"trial_n":91,"min":101,"max":154,"target":"present","response":"absent","rt":946.5,"correct":false,"confidence":3},{"trial_n":92,"min":97,"max":158,"target":"absent","response":"absent","rt":746,"correct":true,"confidence":3},{"trial_n":93,"min":97,"max":158,"target":"present","response":"absent","rt":1958.299999997,"correct":false,"confidence":1},{"trial_n":94,"min":93,"max":162,"target":"absent","response":"absent","rt":3617.3000000119,"correct":true,"confidence":1},{"trial_n":95,"min":93,"max":162,"target":"absent","response":"absent","rt":764.5,"correct":true,"confidence":1},{"trial_n":96,"min":97,"max":158,"target":"absent","response":"absent","rt":1838.700000003,"correct":true,"confidence":3},{"trial_n":97,"min":97,"max":158,"target":"present","response":"absent","rt":546.70000000298,"correct":false,"confidence":1},{"trial_n":98,"min":93,"max":162,"target":"present","response":"absent","rt":2523.799999997,"correct":false,"confidence":1},{"trial_n":99,"min":89,"max":166,"target":"absent","response":"present","rt":1531,"correct":false,"confidence":4},{"trial_n":100,"min":85,"max":170,"target":"absent","response":"absent","rt":981.60000000894,"correct":true,"confidence":5},{"trial_n":101,"min":85,"max":170,"target":"present","response":"present","rt":3047.8999999911,"correct":true,"confidence":5},{"trial_n":102,"min":87,"max":168,"target":"absent","response":"absent","rt":1191,"correct":true,"confidence":5},{"trial_n":103,"min":87,"max":168,"target":"present","response":"present","rt":1551.1999999881,"correct":true,"confidence":1},{"trial_n":104,"min":89,"max":166,"target":"present","response":"absent","rt":2177.799999997,"correct":false,"confidence":2},{"trial_n":105,"min":87,"max":168,"target":"present","response":"absent","rt":285.20000000298,"correct":false,"confidence":2},{"trial_n":106,"min":85,"max":170,"target":"absent","response":"absent","rt":692.5,"correct":true,"confidence":1},{"trial_n":107,"min":85,"max":170,"target":"present","response":"absent","rt":1916.5,"correct":false,"confidence":3},{"trial_n":108,"min":83,"max":172,"target":"present","response":"absent","rt":114231.5,"correct":false,"confidence":1},{"trial_n":109,"min":81,"max":174,"target":"present","response":"present","rt":595.90000000596,"correct":true,"confidence":3},{"trial_n":110,"min":81,"max":174,"target":"absent","response":"absent","rt":902.39999999106,"correct":true,"confidence":3},{"trial_n":111,"min":82,"max":173,"target":"absent","response":"absent","rt":9512.3999999911,"correct":true,"confidence":1},{"trial_n":112,"min":82,"max":173,"target":"absent","response":"present","rt":1124.6000000089,"correct":false,"confidence":1},{"trial_n":113,"min":81,"max":174,"target":"absent","response":"present","rt":673.39999999106,"correct":false,"confidence":1},{"trial_n":114,"min":80,"max":175,"target":"present","response":"present","rt":668.29999999702,"correct":true,"confidence":1},{"trial_n":115,"min":80,"max":175,"target":"present","response":"absent","rt":344.39999999106,"correct":false,"confidence":1},{"trial_n":116,"min":79,"max":176,"target":"absent","response":"absent","rt":267.89999999106,"correct":true,"confidence":1},{"trial_n":117,"min":79,"max":176,"target":"present","response":"present","rt":143,"correct":true,"confidence":1},{"trial_n":118,"min":80,"max":175,"target":"absent","response":"absent","rt":658,"correct":true,"confidence":1},{"trial_n":119,"min":80,"max":175,"target":"absent","response":"absent","rt":1048.200000003,"correct":true,"confidence":3},{"trial_n":120,"min":81,"max":174,"target":"present","response":"present","rt":944.79999999702,"correct":true,"confidence":3},{"trial_n":121,"min":81,"max":174,"target":"absent","response":"present","rt":580.20000000298,"correct":false,"confidence":1},{"trial_n":122,"min":80,"max":175,"target":"present","response":"absent","rt":389.5,"correct":false,"confidence":3},{"trial_n":123,"min":79,"max":176,"target":"absent","response":"absent","rt":1241.400000006,"correct":true,"confidence":1},{"trial_n":124,"min":79,"max":176,"target":"present","response":"present","rt":540.89999999106,"correct":true,"confidence":4},{"trial_n":125,"min":80,"max":175,"target":"present","response":"absent","rt":490.89999999106,"correct":false,"confidence":1},{"trial_n":126,"min":79,"max":176,"target":"present","response":"present","rt":758.70000000298,"correct":true,"confidence":4},{"trial_n":127,"min":79,"max":176,"target":"present","response":"absent","rt":1548.5,"correct":false,"confidence":1},{"trial_n":128,"min":78,"max":177,"target":"absent","response":"absent","rt":927,"correct":true,"confidence":3},{"trial_n":129,"min":78,"max":177,"target":"absent","response":"present","rt":672.59999999404,"correct":false,"confidence":3},{"trial_n":130,"min":77,"max":178,"target":"present","response":"present","rt":515.19999998808,"correct":true,"confidence":1},{"trial_n":131,"min":77,"max":178,"target":"present","response":"present","rt":569.20000000298,"correct":true,"confidence":2},{"trial_n":132,"min":78,"max":177,"target":"present","response":"present","rt":545.10000000894,"correct":true,"confidence":3},{"trial_n":133,"min":78,"max":177,"target":"absent","response":"present","rt":33350.099999994,"correct":false,"confidence":3},{"trial_n":134,"min":77,"max":178,"target":"present","response":"present","rt":475.70000000298,"correct":true,"confidence":2},{"trial_n":135,"min":77,"max":178,"target":"absent","response":"absent","rt":880.5,"correct":true,"confidence":3},{"trial_n":136,"min":78,"max":177,"target":"present","response":"absent","rt":5390.099999994,"correct":false,"confidence":1},{"trial_n":137,"min":77,"max":178,"target":"absent","response":"absent","rt":810.79999999702,"correct":true,"confidence":1},{"trial_n":138,"min":77,"max":178,"target":"present","response":"present","rt":580.70000000298,"correct":true,"confidence":4},{"trial_n":139,"min":78,"max":177,"target":"absent","response":"absent","rt":872.5,"correct":true,"confidence":1},{"trial_n":140,"min":78,"max":177,"target":"absent","response":"absent","rt":939.09999999404,"correct":true,"confidence":3}]