[{"trial_n":1,"span":8,"encoder":"66942894","distractor":"66942898","target":"present","response":"absent","rt":"3578","correct":false,"confidence":-1},{"trial_n":2,"span":6,"encoder":"407889","distractor":"407859","target":"present","response":"present","rt":"1259","correct":true,"confidence":-1},{"trial_n":3,"span":6,"encoder":"845327","distractor":"845127","target":"absent","response":"absent","rt":"1420","correct":true,"confidence":-1},{"trial_n":4,"span":8,"encoder":"50874493","distractor":"50874499","target":"absent","response":"absent","rt":"2154","correct":true,"confidence":-1},{"trial_n":5,"span":8,"encoder":"98747822","distractor":"92747822","target":"present","response":"present","rt":"1464","correct":true,"confidence":-1},{"trial_n":6,"span":10,"encoder":"5052682429","distractor":"5252682429","target":"present","response":"present","rt":"1526","correct":true,"confidence":-1},{"trial_n":7,"span":10,"encoder":"3471256235","distractor":"3431256235","target":"absent","response":"present","rt":"2159","correct":false,"confidence":-1},{"trial_n":8,"span":8,"encoder":"32483522","distractor":"52483522","target":"present","response":"absent","rt":"1611","correct":false,"confidence":-1},{"trial_n":9,"span":6,"encoder":"646994","distractor":"846994","target":"present","response":"present","rt":"1390","correct":true,"confidence":-1},{"trial_n":10,"span":6,"encoder":"666079","distractor":"676079","target":"present","response":"present","rt":"2372","correct":true,"confidence":-1},{"trial_n":11,"span":8,"encoder":"00111689","distractor":"01111689","target":"present","response":"present","rt":"792","correct":true,"confidence":-1},{"trial_n":12,"span":8,"encoder":"48712800","distractor":"48712805","target":"absent","response":"absent","rt":"1077","correct":true,"confidence":-1},{"trial_n":13,"span":9,"encoder":"366365154","distractor":"366365254","target":"present","response":"present","rt":"1007","correct":true,"confidence":-1},{"trial_n":14,"span":9,"encoder":"318396372","distractor":"315396372","target":"absent","response":"present","rt":"1689","correct":false,"confidence":-1},{"trial_n":15,"span":8,"encoder":"94548707","distractor":"94348707","target":"absent","response":"present","rt":"1346","correct":false,"confidence":-1},{"trial_n":16,"span":7,"encoder":"7315836","distractor":"7315806","target":"present","response":"present","rt":"1271","correct":true,"confidence":-1},{"trial_n":17,"span":7,"encoder":"0788070","distractor":"6788070","target":"present","response":"present","rt":"815","correct":true,"confidence":-1},{"trial_n":18,"span":8,"encoder":"36209292","distractor":"36809292","target":"absent","response":"present","rt":"1070","correct":false,"confidence":-1},{"trial_n":19,"span":7,"encoder":"4169494","distractor":"4169491","target":"absent","response":"present","rt":"1120","correct":false,"confidence":-1},{"trial_n":20,"span":6,"encoder":"600285","distractor":"600585","target":"present","response":"present","rt":"761","correct":true,"confidence":-1},{"trial_n":21,"span":6,"encoder":"398766","distractor":"398768","target":"present","response":"present","rt":"1309","correct":true,"confidence":3},{"trial_n":22,"span":7,"encoder":"6957843","distractor":"5957843","target":"present","response":"present","rt":"1468","correct":true,"confidence":4},{"trial_n":23,"span":7,"encoder":"6995262","distractor":"6995269","target":"absent","response":"absent","rt":"1494","correct":true,"confidence":3},{"trial_n":24,"span":8,"encoder":"05340843","distractor":"05340844","target":"absent","response":"absent","rt":"1522","correct":true,"confidence":4},{"trial_n":25,"span":8,"encoder":"97513679","distractor":"07513679","target":"present","response":"present","rt":"1456","correct":true,"confidence":3},{"trial_n":26,"span":9,"encoder":"930890076","distractor":"930840076","target":"present","response":"present","rt":"1770","correct":true,"confidence":4},{"trial_n":27,"span":9,"encoder":"243888132","distractor":"243888832","target":"present","response":"present","rt":"1321","correct":true,"confidence":4},{"trial_n":28,"span":10,"encoder":"2944644453","distractor":"2944444453","target":"absent","response":"present","rt":"1522","correct":false,"confidence":3},{"trial_n":29,"span":9,"encoder":"978796320","distractor":"978196320","target":"absent","response":"present","rt":"1332","correct":false,"confidence":4},{"trial_n":30,"span":8,"encoder":"39922384","distractor":"39922394","target":"absent","response":"absent","rt":"3213","correct":true,"confidence":4},{"trial_n":31,"span":8,"encoder":"27756465","distractor":"22756465","target":"present","response":"absent","rt":"1817","correct":false,"confidence":3},{"trial_n":32,"span":7,"encoder":"7595621","distractor":"7595625","target":"absent","response":"absent","rt":"1595","correct":true,"confidence":4},{"trial_n":33,"span":7,"encoder":"6848430","distractor":"6842430","target":"present","response":"present","rt":"1232","correct":true,"confidence":3},{"trial_n":34,"span":8,"encoder":"98028056","distractor":"98058056","target":"present","response":"absent","rt":"1418","correct":false,"confidence":3},{"trial_n":35,"span":7,"encoder":"8791791","distractor":"8793791","target":"present","response":"present","rt":"1107","correct":true,"confidence":4},{"trial_n":36,"span":7,"encoder":"6063807","distractor":"6067807","target":"present","response":"present","rt":"1071","correct":true,"confidence":4},{"trial_n":37,"span":8,"encoder":"43777726","distractor":"43777226","target":"absent","response":"present","rt":"1461","correct":false,"confidence":3},{"trial_n":38,"span":7,"encoder":"2153126","distractor":"2153121","target":"present","response":"present","rt":"1136","correct":true,"confidence":3},{"trial_n":39,"span":7,"encoder":"6617426","distractor":"6617428","target":"absent","response":"absent","rt":"1241","correct":true,"confidence":4},{"trial_n":40,"span":8,"encoder":"49441299","distractor":"49401299","target":"absent","response":"present","rt":"1679","correct":false,"confidence":4},{"trial_n":41,"span":7,"encoder":"0738145","distractor":"0738155","target":"absent","response":"absent","rt":"2647.0000000001","correct":true,"confidence":2},{"trial_n":42,"span":7,"encoder":"5933914","distractor":"5903914","target":"present","response":"present","rt":"1459","correct":true,"confidence":3},{"trial_n":43,"span":8,"encoder":"90503880","distractor":"90803880","target":"absent","response":"present","rt":"1600","correct":false,"confidence":3},{"trial_n":44,"span":7,"encoder":"6324249","distractor":"6324247","target":"present","response":"absent","rt":"1135","correct":false,"confidence":3},{"trial_n":45,"span":6,"encoder":"536015","distractor":"536014","target":"present","response":"present","rt":"1733.9999999999","correct":true,"confidence":3},{"trial_n":46,"span":6,"encoder":"877559","distractor":"877555","target":"present","response":"present","rt":"1550","correct":true,"confidence":4},{"trial_n":47,"span":7,"encoder":"9273776","distractor":"2273776","target":"present","response":"present","rt":"1844","correct":true,"confidence":4},{"trial_n":48,"span":7,"encoder":"8958698","distractor":"5958698","target":"absent","response":"absent","rt":"1167","correct":true,"confidence":3},{"trial_n":49,"span":8,"encoder":"76416603","distractor":"76416608","target":"absent","response":"absent","rt":"6664","correct":true,"confidence":3},{"trial_n":50,"span":8,"encoder":"17873724","distractor":"17875724","target":"absent","response":"absent","rt":"2026.9999999999","correct":true,"confidence":4},{"trial_n":51,"span":9,"encoder":"928372427","distractor":"928375427","target":"absent","response":"present","rt":"1640.9999999999","correct":false,"confidence":3},{"trial_n":52,"span":8,"encoder":"17427729","distractor":"17457729","target":"absent","response":"absent","rt":"1360.0000000001","correct":true,"confidence":2},{"trial_n":53,"span":8,"encoder":"46196093","distractor":"40196093","target":"absent","response":"present","rt":"2072.9999999999","correct":false,"confidence":3},{"trial_n":54,"span":7,"encoder":"5895456","distractor":"5895426","target":"present","response":"present","rt":"2732","correct":true,"confidence":3},{"trial_n":55,"span":7,"encoder":"3064461","distractor":"3064468","target":"absent","response":"absent","rt":"1703","correct":true,"confidence":5},{"trial_n":56,"span":8,"encoder":"94964299","distractor":"54964299","target":"absent","response":"absent","rt":"2401","correct":true,"confidence":3},{"trial_n":57,"span":8,"encoder":"74155464","distractor":"73155464","target":"present","response":"absent","rt":"1297.0000000001","correct":false,"confidence":3},{"trial_n":58,"span":7,"encoder":"9295680","distractor":"9297680","target":"present","response":"present","rt":"1521","correct":true,"confidence":2},{"trial_n":59,"span":7,"encoder":"5317990","distractor":"5397990","target":"absent","response":"present","rt":"1629","correct":false,"confidence":3},{"trial_n":60,"span":6,"encoder":"788347","distractor":"688347","target":"absent","response":"present","rt":"1606","correct":false,"confidence":3},{"trial_n":61,"span":5,"encoder":"84724","distractor":"89724","target":"absent","response":"present","rt":"1586","correct":false,"confidence":3},{"trial_n":62,"span":4,"encoder":"1675","distractor":"1605","target":"present","response":"present","rt":"1263.9999999999","correct":true,"confidence":5},{"trial_n":63,"span":4,"encoder":"2909","distractor":"2906","target":"absent","response":"absent","rt":"1769","correct":true,"confidence":5},{"trial_n":64,"span":5,"encoder":"78675","distractor":"78475","target":"present","response":"present","rt":"1276","correct":true,"confidence":5},{"trial_n":65,"span":5,"encoder":"78318","distractor":"78718","target":"absent","response":"absent","rt":"1488","correct":true,"confidence":5},{"trial_n":66,"span":6,"encoder":"403893","distractor":"403873","target":"absent","response":"present","rt":"1844","correct":false,"confidence":3},{"trial_n":67,"span":5,"encoder":"98741","distractor":"98541","target":"absent","response":"absent","rt":"1760.0000000001","correct":true,"confidence":5},{"trial_n":68,"span":5,"encoder":"06925","distractor":"06995","target":"present","response":"absent","rt":"1140","correct":false,"confidence":4},{"trial_n":69,"span":4,"encoder":"3996","distractor":"3936","target":"present","response":"absent","rt":"1550","correct":false,"confidence":3},{"trial_n":70,"span":3,"encoder":"102","distractor":"132","target":"present","response":"present","rt":"1171.9999999999","correct":true,"confidence":5},{"trial_n":71,"span":8,"encoder":"67636413","distractor":"67634413","target":"present","response":"present","rt":"2750.9999999999","correct":true,"confidence":-1},{"trial_n":72,"span":8,"encoder":"85974513","distractor":"85274513","target":"present","response":"absent","rt":"1838","correct":false,"confidence":-1},{"trial_n":73,"span":7,"encoder":"4164697","distractor":"4164687","target":"absent","response":"absent","rt":"5955.0000000001","correct":true,"confidence":-1},{"trial_n":74,"span":7,"encoder":"8656095","distractor":"8656097","target":"absent","response":"absent","rt":"2637","correct":true,"confidence":-1},{"trial_n":75,"span":8,"encoder":"30638165","distractor":"20638165","target":"present","response":"absent","rt":"17291","correct":false,"confidence":-1},{"trial_n":76,"span":7,"encoder":"1602329","distractor":"1602729","target":"absent","response":"present","rt":"861.99999999988","correct":false,"confidence":-1},{"trial_n":77,"span":6,"encoder":"423853","distractor":"423850","target":"present","response":"present","rt":"1558","correct":true,"confidence":-1},{"trial_n":78,"span":6,"encoder":"107525","distractor":"107521","target":"present","response":"present","rt":"1280","correct":true,"confidence":-1},{"trial_n":79,"span":7,"encoder":"8624970","distractor":"8624990","target":"present","response":"present","rt":"282.99999999988","correct":true,"confidence":-1},{"trial_n":80,"span":7,"encoder":"8040712","distractor":"8070712","target":"absent","response":"absent","rt":"2652.0000000001","correct":true,"confidence":-1},{"trial_n":81,"span":8,"encoder":"47920270","distractor":"47990270","target":"absent","response":"present","rt":"1882","correct":false,"confidence":-1},{"trial_n":82,"span":7,"encoder":"0159258","distractor":"0159278","target":"absent","response":"absent","rt":"1597","correct":true,"confidence":-1},{"trial_n":83,"span":7,"encoder":"2413842","distractor":"2416842","target":"absent","response":"absent","rt":"3025","correct":true,"confidence":-1},{"trial_n":84,"span":8,"encoder":"05931348","distractor":"05931748","target":"present","response":"present","rt":"3584","correct":true,"confidence":-1},{"trial_n":85,"span":8,"encoder":"44293838","distractor":"44292838","target":"absent","response":"absent","rt":"4484.9999999999","correct":true,"confidence":-1},{"trial_n":86,"span":9,"encoder":"352533626","distractor":"352563626","target":"absent","response":"absent","rt":"1994","correct":true,"confidence":-1},{"trial_n":87,"span":9,"encoder":"474886828","distractor":"474886820","target":"present","response":"absent","rt":"543","correct":false,"confidence":-1},{"trial_n":88,"span":8,"encoder":"06532186","distractor":"06432186","target":"absent","response":"present","rt":"642","correct":false,"confidence":-1},{"trial_n":89,"span":7,"encoder":"3627323","distractor":"3629323","target":"absent","response":"absent","rt":"1517","correct":true,"confidence":-1},{"trial_n":90,"span":7,"encoder":"1173727","distractor":"1143727","target":"present","response":"present","rt":"2727.0000000001","correct":true,"confidence":-1},{"trial_n":91,"span":8,"encoder":"75141672","distractor":"75141612","target":"present","response":"present","rt":"3696","correct":true,"confidence":3},{"trial_n":92,"span":8,"encoder":"98071077","distractor":"98071074","target":"absent","response":"absent","rt":"56828","correct":true,"confidence":3},{"trial_n":93,"span":9,"encoder":"030812561","distractor":"034812561","target":"absent","response":"present","rt":"2034.0000000001","correct":false,"confidence":3},{"trial_n":94,"span":8,"encoder":"79237521","distractor":"79237021","target":"absent","response":"absent","rt":"2961","correct":true,"confidence":4},{"trial_n":95,"span":8,"encoder":"89241941","distractor":"89541941","target":"absent","response":"absent","rt":"2488","correct":true,"confidence":3},{"trial_n":96,"span":9,"encoder":"898043071","distractor":"098043071","target":"absent","response":"absent","rt":"1815.9999999999","correct":true,"confidence":3},{"trial_n":97,"span":9,"encoder":"214326198","distractor":"214321198","target":"absent","response":"absent","rt":"2091","correct":true,"confidence":3},{"trial_n":98,"span":10,"encoder":"7833809394","distractor":"7833809794","target":"present","response":"present","rt":"2254","correct":true,"confidence":3},{"trial_n":99,"span":10,"encoder":"6547724567","distractor":"1547724567","target":"present","response":"present","rt":"1539","correct":true,"confidence":3},{"trial_n":100,"span":11,"encoder":"27695532339","distractor":"24695532339","target":"present","response":"absent","rt":"2622","correct":false,"confidence":3},{"trial_n":101,"span":10,"encoder":"0281889494","distractor":"0221889494","target":"present","response":"absent","rt":"2134","correct":false,"confidence":3},{"trial_n":102,"span":9,"encoder":"097634880","distractor":"091634880","target":"present","response":"absent","rt":"2879","correct":false,"confidence":3},{"trial_n":103,"span":8,"encoder":"89667848","distractor":"89667868","target":"present","response":"absent","rt":"2634","correct":false,"confidence":4},{"trial_n":104,"span":7,"encoder":"6162308","distractor":"6166308","target":"present","response":"absent","rt":"2048","correct":false,"confidence":3},{"trial_n":105,"span":6,"encoder":"341488","distractor":"341468","target":"absent","response":"absent","rt":"2670","correct":true,"confidence":4},{"trial_n":106,"span":6,"encoder":"802225","distractor":"302225","target":"absent","response":"absent","rt":"2599","correct":true,"confidence":5},{"trial_n":107,"span":7,"encoder":"4369482","distractor":"4369487","target":"present","response":"present","rt":"1982.0000000001","correct":true,"confidence":5},{"trial_n":108,"span":7,"encoder":"2284502","distractor":"2284532","target":"present","response":"present","rt":"1909.9999999999","correct":true,"confidence":4},{"trial_n":109,"span":8,"encoder":"84572604","distractor":"74572604","target":"absent","response":"absent","rt":"3083","correct":true,"confidence":4},{"trial_n":110,"span":8,"encoder":"63945262","distractor":"23945262","target":"present","response":"absent","rt":"1341","correct":false,"confidence":4},{"trial_n":111,"span":7,"encoder":"2499498","distractor":"2496498","target":"present","response":"present","rt":"1328","correct":true,"confidence":3},{"trial_n":112,"span":7,"encoder":"8928781","distractor":"8924781","target":"present","response":"present","rt":"1972","correct":true,"confidence":3},{"trial_n":113,"span":8,"encoder":"86390787","distractor":"86390737","target":"absent","response":"absent","rt":"1115","correct":true,"confidence":3},{"trial_n":114,"span":8,"encoder":"21090080","distractor":"11090080","target":"present","response":"present","rt":"1393","correct":true,"confidence":3},{"trial_n":115,"span":9,"encoder":"653623566","distractor":"653723566","target":"present","response":"absent","rt":"2212","correct":false,"confidence":3},{"trial_n":116,"span":8,"encoder":"03630921","distractor":"03620921","target":"present","response":"present","rt":"1129.0000000001","correct":true,"confidence":3},{"trial_n":117,"span":8,"encoder":"20718514","distractor":"26718514","target":"absent","response":"present","rt":"4983","correct":false,"confidence":4},{"trial_n":118,"span":7,"encoder":"8384812","distractor":"8184812","target":"absent","response":"present","rt":"2609","correct":false,"confidence":3},{"trial_n":119,"span":6,"encoder":"889938","distractor":"888938","target":"absent","response":"absent","rt":"4552","correct":true,"confidence":3},{"trial_n":120,"span":6,"encoder":"986210","distractor":"956210","target":"present","response":"absent","rt":"722","correct":false,"confidence":3},{"trial_n":121,"span":5,"encoder":"10415","distractor":"10405","target":"absent","response":"absent","rt":"3348.9999999999","correct":true,"confidence":4},{"trial_n":122,"span":5,"encoder":"56691","distractor":"56791","target":"present","response":"present","rt":"1785","correct":true,"confidence":5},{"trial_n":123,"span":6,"encoder":"409739","distractor":"409749","target":"absent","response":"present","rt":"2379","correct":false,"confidence":5},{"trial_n":124,"span":5,"encoder":"93627","distractor":"63627","target":"present","response":"present","rt":"5792","correct":true,"confidence":5},{"trial_n":125,"span":5,"encoder":"86038","distractor":"86538","target":"present","response":"present","rt":"3649","correct":true,"confidence":3},{"trial_n":126,"span":6,"encoder":"591233","distractor":"591243","target":"present","response":"present","rt":"3256.0000000001","correct":true,"confidence":4},{"trial_n":127,"span":6,"encoder":"163845","distractor":"168845","target":"present","response":"present","rt":"1322","correct":true,"confidence":4},{"trial_n":128,"span":7,"encoder":"1912195","distractor":"1982195","target":"present","response":"present","rt":"1866.9999999999","correct":true,"confidence":5},{"trial_n":129,"span":7,"encoder":"7231370","distractor":"7232370","target":"absent","response":"present","rt":"1654","correct":false,"confidence":3},{"trial_n":130,"span":6,"encoder":"720962","distractor":"728962","target":"present","response":"present","rt":"2012","correct":true,"confidence":4},{"trial_n":131,"span":6,"encoder":"653025","distractor":"653625","target":"present","response":"present","rt":"1813","correct":true,"confidence":3},{"trial_n":132,"span":7,"encoder":"9639503","distractor":"9639507","target":"absent","response":"absent","rt":"3020.0000000001","correct":true,"confidence":5},{"trial_n":133,"span":7,"encoder":"7598488","distractor":"7578488","target":"absent","response":"present","rt":"2355","correct":false,"confidence":3},{"trial_n":134,"span":6,"encoder":"202426","distractor":"202626","target":"absent","response":"present","rt":"3407","correct":false,"confidence":4},{"trial_n":135,"span":5,"encoder":"48663","distractor":"42663","target":"present","response":"present","rt":"1660.0000000001","correct":true,"confidence":3},{"trial_n":136,"span":5,"encoder":"07180","distractor":"07120","target":"absent","response":"absent","rt":"2406.9999999999","correct":true,"confidence":5},{"trial_n":137,"span":6,"encoder":"510452","distractor":"510459","target":"present","response":"present","rt":"1223","correct":true,"confidence":3},{"trial_n":138,"span":6,"encoder":"170188","distractor":"180188","target":"absent","response":"absent","rt":"2666.0000000001","correct":true,"confidence":5},{"trial_n":139,"span":7,"encoder":"3902890","distractor":"3902899","target":"absent","response":"absent","rt":"1652","correct":true,"confidence":3},{"trial_n":140,"span":7,"encoder":"0886155","distractor":"1886155","target":"absent","response":"present","rt":"2516.9999999999","correct":false,"confidence":4}]