[{"trial_n":1,"span":8,"encoder":"15776624","distractor":"15176624","target":"present","response":"present","rt":"5850.0999999999","correct":true,"confidence":-1},{"trial_n":2,"span":8,"encoder":"88286788","distractor":"88286786","target":"present","response":"absent","rt":"6205.7","correct":false,"confidence":-1},{"trial_n":3,"span":6,"encoder":"980236","distractor":"980232","target":"absent","response":"absent","rt":"3073.8999999999","correct":true,"confidence":-1},{"trial_n":4,"span":6,"encoder":"619837","distractor":"619737","target":"absent","response":"absent","rt":"4078.1000000001","correct":true,"confidence":-1},{"trial_n":5,"span":8,"encoder":"23355813","distractor":"23355810","target":"present","response":"present","rt":"3284.2","correct":true,"confidence":-1},{"trial_n":6,"span":8,"encoder":"10777838","distractor":"10777738","target":"present","response":"present","rt":"1467.9000000001","correct":true,"confidence":-1},{"trial_n":7,"span":10,"encoder":"5266826183","distractor":"5266825183","target":"present","response":"present","rt":"1860.2","correct":true,"confidence":-1},{"trial_n":8,"span":10,"encoder":"4747449819","distractor":"8747449819","target":"present","response":"present","rt":"2571.5999999999","correct":true,"confidence":-1},{"trial_n":9,"span":12,"encoder":"429523611349","distractor":"429503611349","target":"present","response":"absent","rt":"2512.9000000001","correct":false,"confidence":-1},{"trial_n":10,"span":10,"encoder":"3811138849","distractor":"3815138849","target":"absent","response":"present","rt":"4152.3","correct":false,"confidence":-1},{"trial_n":11,"span":8,"encoder":"48842041","distractor":"48842741","target":"absent","response":"absent","rt":"1863.5","correct":true,"confidence":-1},{"trial_n":12,"span":8,"encoder":"24655941","distractor":"24655931","target":"present","response":"present","rt":"1618.9000000001","correct":true,"confidence":-1},{"trial_n":13,"span":9,"encoder":"018325508","distractor":"018325608","target":"present","response":"absent","rt":"2800.2","correct":false,"confidence":-1},{"trial_n":14,"span":8,"encoder":"03600376","distractor":"03100376","target":"present","response":"present","rt":"1577.8999999999","correct":true,"confidence":-1},{"trial_n":15,"span":8,"encoder":"57428077","distractor":"57418077","target":"absent","response":"absent","rt":"2104.7000000002","correct":true,"confidence":-1},{"trial_n":16,"span":9,"encoder":"028019093","distractor":"028019092","target":"absent","response":"absent","rt":"2300.3","correct":true,"confidence":-1},{"trial_n":17,"span":9,"encoder":"409275809","distractor":"409276809","target":"present","response":"present","rt":"2811.7","correct":true,"confidence":-1},{"trial_n":18,"span":10,"encoder":"5525421827","distractor":"5525421828","target":"absent","response":"absent","rt":"2566.7000000002","correct":true,"confidence":-1},{"trial_n":19,"span":10,"encoder":"3580464426","distractor":"8580464426","target":"absent","response":"present","rt":"3078.3","correct":false,"confidence":-1},{"trial_n":20,"span":9,"encoder":"857674386","distractor":"817674386","target":"present","response":"present","rt":"1635.4000000001","correct":true,"confidence":-1},{"trial_n":21,"span":9,"encoder":"849652610","distractor":"849659610","target":"present","response":"present","rt":"2567.5","correct":true,"confidence":3},{"trial_n":22,"span":10,"encoder":"1421916180","distractor":"1421916140","target":"present","response":"present","rt":"3340.2999999998","correct":true,"confidence":5},{"trial_n":23,"span":10,"encoder":"2825241978","distractor":"2855241978","target":"absent","response":"absent","rt":"3745.3999999999","correct":true,"confidence":5},{"trial_n":24,"span":11,"encoder":"09128255060","distractor":"09128255860","target":"absent","response":"absent","rt":"7202.2000000002","correct":true,"confidence":3},{"trial_n":25,"span":11,"encoder":"54253283971","distractor":"54253263971","target":"absent","response":"present","rt":"3336.5","correct":false,"confidence":4},{"trial_n":26,"span":10,"encoder":"1339439167","distractor":"1339439177","target":"present","response":"present","rt":"2452.3","correct":true,"confidence":5},{"trial_n":27,"span":10,"encoder":"2773566771","distractor":"2073566771","target":"present","response":"absent","rt":"7827.3999999999","correct":false,"confidence":2},{"trial_n":28,"span":9,"encoder":"028137161","distractor":"028137361","target":"absent","response":"absent","rt":"3895.6000000001","correct":true,"confidence":4},{"trial_n":29,"span":9,"encoder":"582123706","distractor":"582723706","target":"present","response":"present","rt":"7260.2999999998","correct":true,"confidence":4},{"trial_n":30,"span":10,"encoder":"8546725299","distractor":"8546425299","target":"absent","response":"present","rt":"4860","correct":false,"confidence":3},{"trial_n":31,"span":9,"encoder":"290158590","distractor":"290158550","target":"absent","response":"absent","rt":"3012.2","correct":true,"confidence":3},{"trial_n":32,"span":9,"encoder":"729587374","distractor":"029587374","target":"absent","response":"present","rt":"2662.1000000001","correct":false,"confidence":3},{"trial_n":33,"span":8,"encoder":"62442798","distractor":"42442798","target":"present","response":"present","rt":"3131.2000000002","correct":true,"confidence":2},{"trial_n":34,"span":8,"encoder":"39894482","distractor":"39894472","target":"present","response":"present","rt":"2102","correct":true,"confidence":5},{"trial_n":35,"span":9,"encoder":"486617425","distractor":"386617425","target":"present","response":"absent","rt":"6726.4000000001","correct":false,"confidence":3},{"trial_n":36,"span":8,"encoder":"22565817","distractor":"12565817","target":"present","response":"present","rt":"2513","correct":true,"confidence":5},{"trial_n":37,"span":8,"encoder":"27283673","distractor":"27483673","target":"present","response":"present","rt":"2195.8","correct":true,"confidence":5},{"trial_n":38,"span":9,"encoder":"706719018","distractor":"708719018","target":"absent","response":"present","rt":"2426.3","correct":false,"confidence":4},{"trial_n":39,"span":8,"encoder":"65280991","distractor":"65280981","target":"absent","response":"absent","rt":"2751.6000000001","correct":true,"confidence":5},{"trial_n":40,"span":8,"encoder":"52901866","distractor":"53901866","target":"present","response":"absent","rt":"6218.8000000003","correct":false,"confidence":4},{"trial_n":41,"span":7,"encoder":"9580729","distractor":"9590729","target":"absent","response":"present","rt":"5710.5","correct":false,"confidence":3},{"trial_n":42,"span":6,"encoder":"365526","distractor":"965526","target":"absent","response":"present","rt":"1906.7000000002","correct":false,"confidence":5},{"trial_n":43,"span":5,"encoder":"71541","distractor":"71641","target":"absent","response":"absent","rt":"2346.1000000001","correct":true,"confidence":5},{"trial_n":44,"span":5,"encoder":"90561","distractor":"90566","target":"absent","response":"absent","rt":"2160","correct":true,"confidence":5},{"trial_n":45,"span":6,"encoder":"248287","distractor":"248286","target":"present","response":"present","rt":"1920.1000000001","correct":true,"confidence":5},{"trial_n":46,"span":6,"encoder":"163314","distractor":"163334","target":"present","response":"present","rt":"1553.8000000003","correct":true,"confidence":5},{"trial_n":47,"span":7,"encoder":"9233748","distractor":"9233708","target":"absent","response":"absent","rt":"29217.1","correct":true,"confidence":4},{"trial_n":48,"span":7,"encoder":"2419634","distractor":"8419634","target":"present","response":"present","rt":"2371.7000000002","correct":true,"confidence":5},{"trial_n":49,"span":8,"encoder":"07002603","distractor":"07102603","target":"absent","response":"absent","rt":"6082.7000000002","correct":true,"confidence":5},{"trial_n":50,"span":8,"encoder":"04947208","distractor":"04940208","target":"present","response":"present","rt":"2527","correct":true,"confidence":5},{"trial_n":51,"span":9,"encoder":"670681050","distractor":"670881050","target":"present","response":"present","rt":"4741.5","correct":true,"confidence":4},{"trial_n":52,"span":9,"encoder":"488987315","distractor":"488987313","target":"present","response":"present","rt":"3596.5","correct":true,"confidence":4},{"trial_n":53,"span":10,"encoder":"2201503201","distractor":"2208503201","target":"absent","response":"absent","rt":"2592.7000000002","correct":true,"confidence":5},{"trial_n":54,"span":10,"encoder":"2678592061","distractor":"2678792061","target":"present","response":"present","rt":"2411.1000000001","correct":true,"confidence":1},{"trial_n":55,"span":11,"encoder":"15984203055","distractor":"15984003055","target":"absent","response":"present","rt":"2510.5","correct":false,"confidence":2},{"trial_n":56,"span":10,"encoder":"1474483144","distractor":"1474485144","target":"absent","response":"present","rt":"2308.6000000001","correct":false,"confidence":3},{"trial_n":57,"span":9,"encoder":"578220736","distractor":"578210736","target":"absent","response":"absent","rt":"2285.3999999999","correct":true,"confidence":5},{"trial_n":58,"span":9,"encoder":"702968763","distractor":"702968703","target":"absent","response":"absent","rt":"3495.3999999999","correct":true,"confidence":4},{"trial_n":59,"span":10,"encoder":"8868260138","distractor":"8868460138","target":"absent","response":"present","rt":"2198.6000000001","correct":false,"confidence":4},{"trial_n":60,"span":9,"encoder":"010609189","distractor":"010607189","target":"absent","response":"present","rt":"1776.3999999999","correct":false,"confidence":3},{"trial_n":61,"span":8,"encoder":"29681992","distractor":"21681992","target":"absent","response":"present","rt":"1517.3000000003","correct":false,"confidence":4},{"trial_n":62,"span":7,"encoder":"0451412","distractor":"0451462","target":"present","response":"present","rt":"1249.3999999999","correct":true,"confidence":5},{"trial_n":63,"span":7,"encoder":"6562093","distractor":"6562098","target":"present","response":"present","rt":"2105","correct":true,"confidence":2},{"trial_n":64,"span":8,"encoder":"75618499","distractor":"75617499","target":"absent","response":"absent","rt":"6565.6000000001","correct":true,"confidence":4},{"trial_n":65,"span":8,"encoder":"09412180","distractor":"09416180","target":"absent","response":"absent","rt":"5502.3999999999","correct":true,"confidence":2},{"trial_n":66,"span":9,"encoder":"293512529","distractor":"213512529","target":"present","response":"present","rt":"1865.5","correct":true,"confidence":4},{"trial_n":67,"span":9,"encoder":"487679846","distractor":"287679846","target":"absent","response":"present","rt":"4496.5","correct":false,"confidence":1},{"trial_n":68,"span":8,"encoder":"44171719","distractor":"44971719","target":"present","response":"present","rt":"2866.1000000001","correct":true,"confidence":4},{"trial_n":69,"span":8,"encoder":"40460720","distractor":"43460720","target":"present","response":"present","rt":"2723.1000000001","correct":true,"confidence":4},{"trial_n":70,"span":9,"encoder":"270433663","distractor":"270433653","target":"present","response":"present","rt":"1711.2000000002","correct":true,"confidence":5},{"trial_n":71,"span":8,"encoder":"98358516","distractor":"98358518","target":"present","response":"present","rt":"5158","correct":true,"confidence":-1},{"trial_n":72,"span":8,"encoder":"76361463","distractor":"76366463","target":"present","response":"present","rt":"3284.3999999999","correct":true,"confidence":-1},{"trial_n":73,"span":9,"encoder":"039294695","distractor":"030294695","target":"absent","response":"absent","rt":"7622.7000000002","correct":true,"confidence":-1},{"trial_n":74,"span":9,"encoder":"622371499","distractor":"622375499","target":"absent","response":"absent","rt":"6937.8000000003","correct":true,"confidence":-1},{"trial_n":75,"span":10,"encoder":"4678342050","distractor":"4678342054","target":"present","response":"present","rt":"2414.7000000002","correct":true,"confidence":-1},{"trial_n":76,"span":10,"encoder":"7011929538","distractor":"7011929638","target":"present","response":"present","rt":"5461.6000000001","correct":true,"confidence":-1},{"trial_n":77,"span":11,"encoder":"69345186471","distractor":"89345186471","target":"present","response":"present","rt":"2965.8999999999","correct":true,"confidence":-1},{"trial_n":78,"span":11,"encoder":"32206371606","distractor":"32209371606","target":"absent","response":"present","rt":"3741","correct":false,"confidence":-1},{"trial_n":79,"span":10,"encoder":"0196673282","distractor":"0196676282","target":"present","response":"absent","rt":"32210.7","correct":false,"confidence":-1},{"trial_n":80,"span":9,"encoder":"132292444","distractor":"132592444","target":"present","response":"present","rt":"7719.1000000001","correct":true,"confidence":-1},{"trial_n":81,"span":9,"encoder":"010270247","distractor":"080270247","target":"absent","response":"absent","rt":"2481.8999999999","correct":true,"confidence":-1},{"trial_n":82,"span":10,"encoder":"7309747240","distractor":"7309745240","target":"absent","response":"absent","rt":"4731.8000000003","correct":true,"confidence":-1},{"trial_n":83,"span":10,"encoder":"9947378001","distractor":"9948378001","target":"present","response":"absent","rt":"194797.3","correct":false,"confidence":-1},{"trial_n":84,"span":9,"encoder":"911629694","distractor":"911629394","target":"present","response":"present","rt":"4713.5","correct":true,"confidence":-1},{"trial_n":85,"span":9,"encoder":"560871161","distractor":"560871151","target":"present","response":"present","rt":"2025.7000000002","correct":true,"confidence":-1},{"trial_n":86,"span":10,"encoder":"3302134571","distractor":"3302034571","target":"present","response":"present","rt":"4840.1000000001","correct":true,"confidence":-1},{"trial_n":87,"span":10,"encoder":"1148447604","distractor":"1148447607","target":"present","response":"present","rt":"3938","correct":true,"confidence":-1},{"trial_n":88,"span":11,"encoder":"61252822690","distractor":"61262822690","target":"present","response":"absent","rt":"4452.6000000001","correct":false,"confidence":-1},{"trial_n":89,"span":10,"encoder":"5683433647","distractor":"5683433642","target":"absent","response":"absent","rt":"1275.3999999999","correct":true,"confidence":-1},{"trial_n":90,"span":10,"encoder":"8184470211","distractor":"8184970211","target":"absent","response":"absent","rt":"6083.3999999999","correct":true,"confidence":-1},{"trial_n":91,"span":11,"encoder":"27580689442","distractor":"27580689432","target":"present","response":"present","rt":"1938.6000000001","correct":true,"confidence":5},{"trial_n":92,"span":11,"encoder":"57560708250","distractor":"57500708250","target":"absent","response":"absent","rt":"3478.1000000001","correct":true,"confidence":2},{"trial_n":93,"span":12,"encoder":"951572019082","distractor":"951572014082","target":"present","response":"present","rt":"3518.8000000003","correct":true,"confidence":5},{"trial_n":94,"span":12,"encoder":"771352610678","distractor":"771357610678","target":"present","response":"present","rt":"7292.5999999996","correct":true,"confidence":4},{"trial_n":95,"span":13,"encoder":"6404613349514","distractor":"0404613349514","target":"present","response":"present","rt":"4281.1000000001","correct":true,"confidence":2},{"trial_n":96,"span":13,"encoder":"0532440224840","distractor":"0532440254840","target":"absent","response":"absent","rt":"2644","correct":true,"confidence":5},{"trial_n":97,"span":14,"encoder":"19103851006846","distractor":"19193851006846","target":"present","response":"present","rt":"8263.1999999997","correct":true,"confidence":2},{"trial_n":98,"span":14,"encoder":"56066773700003","distractor":"56066773708003","target":"absent","response":"absent","rt":"2379.5999999996","correct":true,"confidence":5},{"trial_n":99,"span":15,"encoder":"373560717836674","distractor":"373560717866674","target":"absent","response":"absent","rt":"9073.5999999996","correct":true,"confidence":3},{"trial_n":100,"span":15,"encoder":"060321203505529","distractor":"060321209505529","target":"present","response":"present","rt":"6279.9000000004","correct":true,"confidence":2},{"trial_n":101,"span":16,"encoder":"7061023782626703","distractor":"7061023782226703","target":"absent","response":"absent","rt":"4422.7000000002","correct":true,"confidence":5},{"trial_n":102,"span":16,"encoder":"8022937622183419","distractor":"8022937623183419","target":"absent","response":"absent","rt":"3903.9000000004","correct":true,"confidence":4},{"trial_n":103,"span":17,"encoder":"53205864138657192","distractor":"53202864138657192","target":"present","response":"absent","rt":"11475.2","correct":false,"confidence":4},{"trial_n":104,"span":16,"encoder":"3892688613437717","distractor":"3892688613437217","target":"absent","response":"absent","rt":"2275.7000000002","correct":true,"confidence":3},{"trial_n":105,"span":16,"encoder":"5750821505922889","distractor":"5750821405922889","target":"present","response":"absent","rt":"8774.6999999997","correct":false,"confidence":4},{"trial_n":106,"span":15,"encoder":"417729590293631","distractor":"413729590293631","target":"present","response":"present","rt":"10304.1","correct":true,"confidence":2},{"trial_n":107,"span":15,"encoder":"010656449026116","distractor":"010696449026116","target":"absent","response":"present","rt":"5313","correct":false,"confidence":1},{"trial_n":108,"span":14,"encoder":"93704436943628","distractor":"93704436943626","target":"present","response":"present","rt":"7550.2999999998","correct":true,"confidence":3},{"trial_n":109,"span":14,"encoder":"99252985767698","distractor":"89252985767698","target":"present","response":"absent","rt":"4191.7999999998","correct":false,"confidence":3},{"trial_n":110,"span":13,"encoder":"0771696802769","distractor":"0771695802769","target":"present","response":"absent","rt":"6156.8999999999","correct":false,"confidence":1},{"trial_n":111,"span":12,"encoder":"400584212225","distractor":"410584212225","target":"absent","response":"present","rt":"3346.7000000002","correct":false,"confidence":2},{"trial_n":112,"span":11,"encoder":"73783001185","distractor":"73783091185","target":"present","response":"present","rt":"4721.1000000001","correct":true,"confidence":2},{"trial_n":113,"span":11,"encoder":"46086447346","distractor":"46086457346","target":"present","response":"absent","rt":"266351.3","correct":false,"confidence":2},{"trial_n":114,"span":10,"encoder":"9996020347","distractor":"9916020347","target":"absent","response":"absent","rt":"2829.2000000002","correct":true,"confidence":4},{"trial_n":115,"span":10,"encoder":"0215279763","distractor":"0715279763","target":"present","response":"present","rt":"6339.1000000001","correct":true,"confidence":2},{"trial_n":116,"span":11,"encoder":"14843950182","distractor":"14843950186","target":"absent","response":"present","rt":"2637.8999999999","correct":false,"confidence":1},{"trial_n":117,"span":10,"encoder":"2880062558","distractor":"2880062550","target":"present","response":"present","rt":"2429.6000000001","correct":true,"confidence":5},{"trial_n":118,"span":10,"encoder":"0931693014","distractor":"0931693314","target":"absent","response":"absent","rt":"4863","correct":true,"confidence":4},{"trial_n":119,"span":11,"encoder":"79570841761","distractor":"79570841791","target":"absent","response":"absent","rt":"1729.5","correct":true,"confidence":5},{"trial_n":120,"span":11,"encoder":"35724242394","distractor":"35224242394","target":"absent","response":"present","rt":"23924","correct":false,"confidence":1},{"trial_n":121,"span":10,"encoder":"0586863450","distractor":"5586863450","target":"absent","response":"absent","rt":"8871.5999999996","correct":true,"confidence":3},{"trial_n":122,"span":10,"encoder":"5287916549","distractor":"5287913549","target":"present","response":"present","rt":"10445.8","correct":true,"confidence":2},{"trial_n":123,"span":11,"encoder":"12432855851","distractor":"12132855851","target":"present","response":"absent","rt":"4805.5","correct":false,"confidence":2},{"trial_n":124,"span":10,"encoder":"2367145743","distractor":"2467145743","target":"absent","response":"absent","rt":"4355.3000000003","correct":true,"confidence":2},{"trial_n":125,"span":10,"encoder":"7496077408","distractor":"5496077408","target":"absent","response":"present","rt":"5538.6000000001","correct":false,"confidence":1},{"trial_n":126,"span":9,"encoder":"711658250","distractor":"711358250","target":"absent","response":"absent","rt":"4410.9000000004","correct":true,"confidence":2},{"trial_n":127,"span":9,"encoder":"492154385","distractor":"792154385","target":"absent","response":"absent","rt":"8196.6000000001","correct":true,"confidence":2},{"trial_n":128,"span":10,"encoder":"7013958944","distractor":"7013958914","target":"absent","response":"absent","rt":"2088.2999999998","correct":true,"confidence":5},{"trial_n":129,"span":10,"encoder":"4133098344","distractor":"4183098344","target":"absent","response":"present","rt":"10840.8","correct":false,"confidence":2},{"trial_n":130,"span":9,"encoder":"486394232","distractor":"486194232","target":"present","response":"absent","rt":"5025.8999999999","correct":false,"confidence":2},{"trial_n":131,"span":8,"encoder":"93913093","distractor":"93813093","target":"absent","response":"absent","rt":"7346.7000000002","correct":true,"confidence":2},{"trial_n":132,"span":8,"encoder":"56713343","distractor":"56713340","target":"absent","response":"absent","rt":"2648.8999999999","correct":true,"confidence":5},{"trial_n":133,"span":9,"encoder":"599814548","distractor":"529814548","target":"present","response":"present","rt":"5696.5999999996","correct":true,"confidence":4},{"trial_n":134,"span":9,"encoder":"750591555","distractor":"750391555","target":"absent","response":"absent","rt":"7226.5","correct":true,"confidence":2},{"trial_n":135,"span":10,"encoder":"8774461901","distractor":"8778461901","target":"present","response":"present","rt":"4555.6000000001","correct":true,"confidence":5},{"trial_n":136,"span":10,"encoder":"7050103098","distractor":"7050703098","target":"absent","response":"absent","rt":"5629.6999999997","correct":true,"confidence":4},{"trial_n":137,"span":11,"encoder":"84927050559","distractor":"81927050559","target":"present","response":"present","rt":"4224.2999999998","correct":true,"confidence":4},{"trial_n":138,"span":11,"encoder":"81107657572","distractor":"41107657572","target":"present","response":"present","rt":"2543.5","correct":true,"confidence":5},{"trial_n":139,"span":12,"encoder":"526580188436","distractor":"426580188436","target":"absent","response":"absent","rt":"6253.6000000001","correct":true,"confidence":5},{"trial_n":140,"span":12,"encoder":"772581042917","distractor":"672581042917","target":"absent","response":"present","rt":"4088.5","correct":false,"confidence":3}]