[{"trial_n":1,"span":8,"encoder":"99443953","distractor":"99443903","target":"present","response":"present","rt":"10932.200000048","correct":true,"confidence":-1},{"trial_n":2,"span":8,"encoder":"67180868","distractor":"87180868","target":"present","response":"present","rt":"1676.2999999523","correct":true,"confidence":-1},{"trial_n":3,"span":10,"encoder":"3055550733","distractor":"3255550733","target":"absent","response":"present","rt":"1686.9000000954","correct":false,"confidence":-1},{"trial_n":4,"span":8,"encoder":"15353175","distractor":"17353175","target":"absent","response":"present","rt":"1059.2999999523","correct":false,"confidence":-1},{"trial_n":5,"span":6,"encoder":"417641","distractor":"417661","target":"present","response":"present","rt":"1317.9000000954","correct":true,"confidence":-1},{"trial_n":6,"span":6,"encoder":"739287","distractor":"732287","target":"present","response":"present","rt":"1413.0999999046","correct":true,"confidence":-1},{"trial_n":7,"span":8,"encoder":"09709046","distractor":"09909046","target":"absent","response":"present","rt":"1761.7000000477","correct":false,"confidence":-1},{"trial_n":8,"span":6,"encoder":"070853","distractor":"075853","target":"absent","response":"absent","rt":"566","correct":true,"confidence":-1},{"trial_n":9,"span":6,"encoder":"218910","distractor":"219910","target":"present","response":"absent","rt":"505.79999995232","correct":false,"confidence":-1},{"trial_n":10,"span":4,"encoder":"5171","distractor":"5571","target":"absent","response":"present","rt":"458.40000009537","correct":false,"confidence":-1},{"trial_n":11,"span":2,"encoder":"52","distractor":"51","target":"present","response":"present","rt":"1504.5999999046","correct":true,"confidence":-1},{"trial_n":12,"span":2,"encoder":"60","distractor":"20","target":"present","response":"present","rt":"510.5","correct":true,"confidence":-1},{"trial_n":13,"span":3,"encoder":"566","distractor":"536","target":"present","response":"present","rt":"785","correct":true,"confidence":-1},{"trial_n":14,"span":3,"encoder":"874","distractor":"876","target":"present","response":"present","rt":"619.90000009537","correct":true,"confidence":-1},{"trial_n":15,"span":4,"encoder":"1918","distractor":"2918","target":"absent","response":"absent","rt":"1241","correct":true,"confidence":-1},{"trial_n":16,"span":4,"encoder":"9540","distractor":"9520","target":"present","response":"present","rt":"936.89999985695","correct":true,"confidence":-1},{"trial_n":17,"span":5,"encoder":"82230","distractor":"82430","target":"present","response":"present","rt":"682.10000014305","correct":true,"confidence":-1},{"trial_n":18,"span":5,"encoder":"49162","distractor":"19162","target":"absent","response":"absent","rt":"1378.7000000477","correct":true,"confidence":-1},{"trial_n":19,"span":6,"encoder":"646965","distractor":"646935","target":"absent","response":"absent","rt":"1471.1000001431","correct":true,"confidence":-1},{"trial_n":20,"span":6,"encoder":"256542","distractor":"956542","target":"present","response":"present","rt":"1439.7000000477","correct":true,"confidence":-1},{"trial_n":21,"span":7,"encoder":"7589247","distractor":"7589240","target":"absent","response":"absent","rt":"1191.9000000954","correct":true,"confidence":3},{"trial_n":22,"span":7,"encoder":"5872555","distractor":"5872535","target":"absent","response":"absent","rt":"1779.4000000954","correct":true,"confidence":4},{"trial_n":23,"span":8,"encoder":"88284529","distractor":"88284524","target":"absent","response":"absent","rt":"2699.5","correct":true,"confidence":3},{"trial_n":24,"span":8,"encoder":"05188282","distractor":"05188262","target":"absent","response":"present","rt":"2231.2000000477","correct":false,"confidence":2},{"trial_n":25,"span":7,"encoder":"5412004","distractor":"5412104","target":"present","response":"present","rt":"1939.2000000477","correct":true,"confidence":2},{"trial_n":26,"span":7,"encoder":"2341813","distractor":"2341913","target":"present","response":"present","rt":"2311.0999999046","correct":true,"confidence":4},{"trial_n":27,"span":8,"encoder":"64119430","distractor":"64149430","target":"present","response":"absent","rt":"2646.6000001431","correct":false,"confidence":3},{"trial_n":28,"span":7,"encoder":"8902368","distractor":"8900368","target":"present","response":"present","rt":"1894.0999999046","correct":true,"confidence":3},{"trial_n":29,"span":7,"encoder":"4685097","distractor":"4684097","target":"absent","response":"present","rt":"1160.9000000954","correct":false,"confidence":3},{"trial_n":30,"span":6,"encoder":"240911","distractor":"240511","target":"present","response":"present","rt":"1387.9000000954","correct":true,"confidence":3},{"trial_n":31,"span":6,"encoder":"653360","distractor":"653365","target":"present","response":"absent","rt":"2032.5999999046","correct":false,"confidence":4},{"trial_n":32,"span":5,"encoder":"19619","distractor":"19613","target":"present","response":"present","rt":"1476.5","correct":true,"confidence":3},{"trial_n":33,"span":5,"encoder":"40079","distractor":"40077","target":"present","response":"present","rt":"1127.8999998569","correct":true,"confidence":4},{"trial_n":34,"span":6,"encoder":"692895","distractor":"691895","target":"absent","response":"present","rt":"2504","correct":false,"confidence":3},{"trial_n":35,"span":5,"encoder":"81281","distractor":"81286","target":"absent","response":"absent","rt":"1582.2999999523","correct":true,"confidence":5},{"trial_n":36,"span":5,"encoder":"39681","distractor":"59681","target":"absent","response":"present","rt":"1722.4000000954","correct":false,"confidence":3},{"trial_n":37,"span":4,"encoder":"2753","distractor":"2752","target":"absent","response":"absent","rt":"1413.4000000954","correct":true,"confidence":5},{"trial_n":38,"span":4,"encoder":"7272","distractor":"7172","target":"absent","response":"absent","rt":"1326.8000001907","correct":true,"confidence":5},{"trial_n":39,"span":5,"encoder":"74476","distractor":"74474","target":"present","response":"present","rt":"1640.5","correct":true,"confidence":4},{"trial_n":40,"span":5,"encoder":"11100","distractor":"18100","target":"absent","response":"absent","rt":"1711.0999999046","correct":true,"confidence":5},{"trial_n":41,"span":6,"encoder":"741628","distractor":"744628","target":"present","response":"present","rt":"2287.5","correct":true,"confidence":3},{"trial_n":42,"span":6,"encoder":"326899","distractor":"326879","target":"present","response":"present","rt":"1398.8999998569","correct":true,"confidence":3},{"trial_n":43,"span":7,"encoder":"6552486","distractor":"6522486","target":"present","response":"absent","rt":"1504.2000000477","correct":false,"confidence":1},{"trial_n":44,"span":6,"encoder":"962636","distractor":"966636","target":"present","response":"present","rt":"1041.6000001431","correct":true,"confidence":3},{"trial_n":45,"span":6,"encoder":"989061","distractor":"959061","target":"absent","response":"present","rt":"1759.1000001431","correct":false,"confidence":3},{"trial_n":46,"span":5,"encoder":"55441","distractor":"55442","target":"present","response":"present","rt":"1313.5999999046","correct":true,"confidence":4},{"trial_n":47,"span":5,"encoder":"50028","distractor":"80028","target":"present","response":"present","rt":"1010.7999999523","correct":true,"confidence":5},{"trial_n":48,"span":6,"encoder":"297640","distractor":"297040","target":"absent","response":"absent","rt":"1389","correct":true,"confidence":2},{"trial_n":49,"span":6,"encoder":"208413","distractor":"208410","target":"present","response":"present","rt":"1306.0999999046","correct":true,"confidence":3},{"trial_n":50,"span":7,"encoder":"8237876","distractor":"5237876","target":"present","response":"present","rt":"1120.7000000477","correct":true,"confidence":3},{"trial_n":51,"span":7,"encoder":"8718405","distractor":"8714405","target":"absent","response":"absent","rt":"2514.2000000477","correct":true,"confidence":3},{"trial_n":52,"span":8,"encoder":"01601382","distractor":"01608382","target":"present","response":"present","rt":"1394.7999999523","correct":true,"confidence":3},{"trial_n":53,"span":8,"encoder":"87617384","distractor":"87617684","target":"present","response":"absent","rt":"1920.7999999523","correct":false,"confidence":1},{"trial_n":54,"span":7,"encoder":"1961417","distractor":"1961410","target":"present","response":"absent","rt":"1670.7999999523","correct":false,"confidence":2},{"trial_n":55,"span":6,"encoder":"707735","distractor":"707755","target":"absent","response":"absent","rt":"1370.7999999523","correct":true,"confidence":5},{"trial_n":56,"span":6,"encoder":"686982","distractor":"886982","target":"absent","response":"absent","rt":"1491.2000000477","correct":true,"confidence":4},{"trial_n":57,"span":7,"encoder":"8040346","distractor":"8048346","target":"present","response":"present","rt":"2937.6000001431","correct":true,"confidence":4},{"trial_n":58,"span":7,"encoder":"5787573","distractor":"6787573","target":"present","response":"absent","rt":"1699.2000000477","correct":false,"confidence":2},{"trial_n":59,"span":6,"encoder":"737524","distractor":"732524","target":"absent","response":"present","rt":"1659.7000000477","correct":false,"confidence":4},{"trial_n":60,"span":5,"encoder":"83909","distractor":"83969","target":"absent","response":"absent","rt":"1293.5999999046","correct":true,"confidence":5},{"trial_n":61,"span":5,"encoder":"66914","distractor":"06914","target":"absent","response":"absent","rt":"1587.5999999046","correct":true,"confidence":5},{"trial_n":62,"span":6,"encoder":"492273","distractor":"492473","target":"absent","response":"absent","rt":"1237.5999999046","correct":true,"confidence":5},{"trial_n":63,"span":6,"encoder":"122937","distractor":"124937","target":"absent","response":"present","rt":"1493.7000000477","correct":false,"confidence":3},{"trial_n":64,"span":5,"encoder":"74138","distractor":"14138","target":"present","response":"present","rt":"1142.7999999523","correct":true,"confidence":3},{"trial_n":65,"span":5,"encoder":"54760","distractor":"54960","target":"absent","response":"absent","rt":"1572.2999999523","correct":true,"confidence":4},{"trial_n":66,"span":6,"encoder":"428824","distractor":"424824","target":"present","response":"present","rt":"1208.5999999046","correct":true,"confidence":3},{"trial_n":67,"span":6,"encoder":"895750","distractor":"395750","target":"absent","response":"absent","rt":"1770.5999999046","correct":true,"confidence":2},{"trial_n":68,"span":7,"encoder":"0307675","distractor":"0357675","target":"absent","response":"absent","rt":"1832.5","correct":true,"confidence":4},{"trial_n":69,"span":7,"encoder":"9856242","distractor":"9846242","target":"absent","response":"present","rt":"1672.5","correct":false,"confidence":4},{"trial_n":70,"span":6,"encoder":"290334","distractor":"295334","target":"absent","response":"absent","rt":"1362.4000000954","correct":true,"confidence":5},{"trial_n":71,"span":8,"encoder":"77038665","distractor":"77338665","target":"present","response":"present","rt":"11093.400000095","correct":true,"confidence":-1},{"trial_n":72,"span":8,"encoder":"07485224","distractor":"07489224","target":"present","response":"absent","rt":"3346.1000001431","correct":false,"confidence":-1},{"trial_n":73,"span":7,"encoder":"6348296","distractor":"6345296","target":"absent","response":"present","rt":"3924.4000000954","correct":false,"confidence":-1},{"trial_n":74,"span":6,"encoder":"837125","distractor":"837175","target":"absent","response":"absent","rt":"559","correct":true,"confidence":-1},{"trial_n":75,"span":6,"encoder":"349599","distractor":"359599","target":"present","response":"absent","rt":"2639.5","correct":false,"confidence":-1},{"trial_n":76,"span":5,"encoder":"92604","distractor":"42604","target":"absent","response":"absent","rt":"5056.7000000477","correct":true,"confidence":-1},{"trial_n":77,"span":5,"encoder":"16428","distractor":"17428","target":"present","response":"present","rt":"2050.5","correct":true,"confidence":-1},{"trial_n":78,"span":6,"encoder":"661640","distractor":"661620","target":"absent","response":"present","rt":"1526.0999999046","correct":false,"confidence":-1},{"trial_n":79,"span":5,"encoder":"68986","distractor":"68286","target":"present","response":"absent","rt":"730","correct":false,"confidence":-1},{"trial_n":80,"span":4,"encoder":"6485","distractor":"6585","target":"absent","response":"present","rt":"901.20000004768","correct":false,"confidence":-1},{"trial_n":81,"span":3,"encoder":"555","distractor":"550","target":"absent","response":"absent","rt":"959.10000014305","correct":true,"confidence":-1},{"trial_n":82,"span":3,"encoder":"974","distractor":"972","target":"present","response":"present","rt":"849.40000009537","correct":true,"confidence":-1},{"trial_n":83,"span":4,"encoder":"3357","distractor":"6357","target":"present","response":"present","rt":"1276.2000000477","correct":true,"confidence":-1},{"trial_n":84,"span":4,"encoder":"2621","distractor":"2021","target":"present","response":"present","rt":"797.70000004768","correct":true,"confidence":-1},{"trial_n":85,"span":5,"encoder":"82927","distractor":"82925","target":"present","response":"present","rt":"1114.5999999046","correct":true,"confidence":-1},{"trial_n":86,"span":5,"encoder":"84221","distractor":"84321","target":"absent","response":"absent","rt":"1157.3999998569","correct":true,"confidence":-1},{"trial_n":87,"span":6,"encoder":"293827","distractor":"293897","target":"present","response":"absent","rt":"1890.0999999046","correct":false,"confidence":-1},{"trial_n":88,"span":5,"encoder":"26642","distractor":"66642","target":"present","response":"present","rt":"617","correct":true,"confidence":-1},{"trial_n":89,"span":5,"encoder":"30387","distractor":"90387","target":"present","response":"present","rt":"519.70000004768","correct":true,"confidence":-1},{"trial_n":90,"span":6,"encoder":"836418","distractor":"836498","target":"absent","response":"absent","rt":"1627.4000000954","correct":true,"confidence":-1},{"trial_n":91,"span":6,"encoder":"621251","distractor":"621651","target":"present","response":"absent","rt":"2270.0999999046","correct":false,"confidence":3},{"trial_n":92,"span":5,"encoder":"11634","distractor":"31634","target":"present","response":"present","rt":"3364.6999998093","correct":true,"confidence":1},{"trial_n":93,"span":5,"encoder":"94592","distractor":"14592","target":"absent","response":"absent","rt":"1078.2999999523","correct":true,"confidence":4},{"trial_n":94,"span":6,"encoder":"054114","distractor":"084114","target":"absent","response":"absent","rt":"1804.5999999046","correct":true,"confidence":4},{"trial_n":95,"span":6,"encoder":"139054","distractor":"136054","target":"absent","response":"absent","rt":"1859.4000000954","correct":true,"confidence":3},{"trial_n":96,"span":7,"encoder":"6030396","distractor":"6030196","target":"present","response":"present","rt":"2199.2999999523","correct":true,"confidence":3},{"trial_n":97,"span":7,"encoder":"9030898","distractor":"9830898","target":"present","response":"present","rt":"1804.2999999523","correct":true,"confidence":4},{"trial_n":98,"span":8,"encoder":"27862841","distractor":"57862841","target":"absent","response":"present","rt":"752.90000009537","correct":false,"confidence":1},{"trial_n":99,"span":7,"encoder":"1206776","distractor":"1286776","target":"absent","response":"absent","rt":"1512.2999999523","correct":true,"confidence":4},{"trial_n":100,"span":7,"encoder":"5524427","distractor":"5534427","target":"present","response":"present","rt":"1888","correct":true,"confidence":3},{"trial_n":101,"span":8,"encoder":"20976140","distractor":"20978140","target":"absent","response":"present","rt":"2317.2999999523","correct":false,"confidence":1},{"trial_n":102,"span":7,"encoder":"7539528","distractor":"7539828","target":"present","response":"absent","rt":"1020.7999999523","correct":false,"confidence":3},{"trial_n":103,"span":6,"encoder":"804677","distractor":"804637","target":"absent","response":"absent","rt":"1134.2000000477","correct":true,"confidence":4},{"trial_n":104,"span":6,"encoder":"849923","distractor":"849913","target":"absent","response":"absent","rt":"1878.5","correct":true,"confidence":3},{"trial_n":105,"span":7,"encoder":"4673500","distractor":"4603500","target":"present","response":"absent","rt":"2370.7999999523","correct":false,"confidence":3},{"trial_n":106,"span":6,"encoder":"322693","distractor":"326693","target":"present","response":"present","rt":"1868.4000000954","correct":true,"confidence":2},{"trial_n":107,"span":6,"encoder":"870871","distractor":"870879","target":"absent","response":"absent","rt":"1806.9000000954","correct":true,"confidence":5},{"trial_n":108,"span":7,"encoder":"5793357","distractor":"9793357","target":"present","response":"absent","rt":"3468.7000000477","correct":false,"confidence":4},{"trial_n":109,"span":6,"encoder":"540196","distractor":"240196","target":"absent","response":"absent","rt":"1187.4000000954","correct":true,"confidence":5},{"trial_n":110,"span":6,"encoder":"598275","distractor":"598245","target":"present","response":"present","rt":"2522.2999999523","correct":true,"confidence":4},{"trial_n":111,"span":7,"encoder":"3524387","distractor":"3524587","target":"absent","response":"absent","rt":"2140.5","correct":true,"confidence":1},{"trial_n":112,"span":7,"encoder":"2824482","distractor":"2827482","target":"present","response":"present","rt":"2120.7000000477","correct":true,"confidence":3},{"trial_n":113,"span":8,"encoder":"23188600","distractor":"23187600","target":"present","response":"absent","rt":"2187.1999998093","correct":false,"confidence":4},{"trial_n":114,"span":7,"encoder":"3464548","distractor":"3434548","target":"absent","response":"absent","rt":"3637.5999999046","correct":true,"confidence":3},{"trial_n":115,"span":7,"encoder":"2431879","distractor":"3431879","target":"present","response":"present","rt":"2876.7999999523","correct":true,"confidence":1},{"trial_n":116,"span":8,"encoder":"52763886","distractor":"52763887","target":"absent","response":"absent","rt":"1333.2000000477","correct":true,"confidence":4},{"trial_n":117,"span":8,"encoder":"49566029","distractor":"49566929","target":"absent","response":"absent","rt":"2016.5999999046","correct":true,"confidence":4},{"trial_n":118,"span":9,"encoder":"585229694","distractor":"185229694","target":"absent","response":"absent","rt":"2136.5999999046","correct":true,"confidence":1},{"trial_n":119,"span":9,"encoder":"699213891","distractor":"699214891","target":"present","response":"absent","rt":"2554.2000000477","correct":false,"confidence":2},{"trial_n":120,"span":8,"encoder":"37479446","distractor":"37489446","target":"present","response":"absent","rt":"731.90000009537","correct":false,"confidence":3},{"trial_n":121,"span":7,"encoder":"0082422","distractor":"0082022","target":"absent","response":"absent","rt":"2987.5","correct":true,"confidence":3},{"trial_n":122,"span":7,"encoder":"4108478","distractor":"4308478","target":"present","response":"present","rt":"1637.4000000954","correct":true,"confidence":4},{"trial_n":123,"span":8,"encoder":"72581115","distractor":"72581185","target":"absent","response":"present","rt":"2104.2999999523","correct":false,"confidence":3},{"trial_n":124,"span":7,"encoder":"4606689","distractor":"4606989","target":"absent","response":"absent","rt":"1821","correct":true,"confidence":3},{"trial_n":125,"span":7,"encoder":"7544092","distractor":"7544192","target":"present","response":"absent","rt":"2220.9000000954","correct":false,"confidence":3},{"trial_n":126,"span":6,"encoder":"751390","distractor":"701390","target":"absent","response":"absent","rt":"5004.2000000477","correct":true,"confidence":3},{"trial_n":127,"span":6,"encoder":"964871","distractor":"964861","target":"absent","response":"present","rt":"3004.2000000477","correct":false,"confidence":1},{"trial_n":128,"span":5,"encoder":"89852","distractor":"89872","target":"absent","response":"present","rt":"3611.2999999523","correct":false,"confidence":3},{"trial_n":129,"span":4,"encoder":"8633","distractor":"8637","target":"absent","response":"absent","rt":"1762.2999999523","correct":true,"confidence":3},{"trial_n":130,"span":4,"encoder":"2017","distractor":"3017","target":"present","response":"present","rt":"1296.7000000477","correct":true,"confidence":5},{"trial_n":131,"span":5,"encoder":"64406","distractor":"64706","target":"absent","response":"absent","rt":"1172.4000000954","correct":true,"confidence":5},{"trial_n":132,"span":5,"encoder":"42466","distractor":"42866","target":"absent","response":"absent","rt":"1160.5","correct":true,"confidence":5},{"trial_n":133,"span":6,"encoder":"123080","distractor":"723080","target":"present","response":"present","rt":"1437.6000001431","correct":true,"confidence":5},{"trial_n":134,"span":6,"encoder":"484129","distractor":"684129","target":"present","response":"present","rt":"1359.8000001907","correct":true,"confidence":3},{"trial_n":135,"span":7,"encoder":"5665128","distractor":"5660128","target":"present","response":"present","rt":"1587.5","correct":true,"confidence":4},{"trial_n":136,"span":7,"encoder":"2301329","distractor":"2361329","target":"present","response":"present","rt":"1817.7999999523","correct":true,"confidence":2},{"trial_n":137,"span":8,"encoder":"40208677","distractor":"40206677","target":"absent","response":"absent","rt":"2954.3999998569","correct":true,"confidence":3},{"trial_n":138,"span":8,"encoder":"71167150","distractor":"11167150","target":"present","response":"present","rt":"2613.0999999046","correct":true,"confidence":4},{"trial_n":139,"span":9,"encoder":"742791238","distractor":"742793238","target":"absent","response":"present","rt":"3011","correct":false,"confidence":1},{"trial_n":140,"span":8,"encoder":"26734243","distractor":"26764243","target":"present","response":"absent","rt":"3687.5","correct":false,"confidence":1}]