[{"trial_n":1,"n_dots":4.25,"target":"left","response":"left","rt":7189.3000000119,"correct":true,"confidence":-1},{"trial_n":2,"n_dots":4.25,"target":"right","response":"right","rt":1002.1999999881,"correct":true,"confidence":-1},{"trial_n":3,"n_dots":3.85,"target":"right","response":"left","rt":627.5,"correct":false,"confidence":-1},{"trial_n":4,"n_dots":4.25,"target":"left","response":"left","rt":486.70000004768,"correct":true,"confidence":-1},{"trial_n":5,"n_dots":4.25,"target":"right","response":"right","rt":526.09999996424,"correct":true,"confidence":-1},{"trial_n":6,"n_dots":3.85,"target":"right","response":"left","rt":609.30000001192,"correct":false,"confidence":-1},{"trial_n":7,"n_dots":4.25,"target":"left","response":"left","rt":392.20000004768,"correct":true,"confidence":-1},{"trial_n":8,"n_dots":4.25,"target":"right","response":"right","rt":346.69999998808,"correct":true,"confidence":-1},{"trial_n":9,"n_dots":4.05,"target":"right","response":"right","rt":432.5,"correct":true,"confidence":-1},{"trial_n":10,"n_dots":4.05,"target":"left","response":"left","rt":133.10000002384,"correct":true,"confidence":-1},{"trial_n":11,"n_dots":3.85,"target":"left","response":"left","rt":409.40000003576,"correct":true,"confidence":-1},{"trial_n":12,"n_dots":3.85,"target":"left","response":"left","rt":432.90000003576,"correct":true,"confidence":-1},{"trial_n":13,"n_dots":3.75,"target":"left","response":"left","rt":439.89999997616,"correct":true,"confidence":-1},{"trial_n":14,"n_dots":3.75,"target":"left","response":"left","rt":422.30000001192,"correct":true,"confidence":-1},{"trial_n":15,"n_dots":3.65,"target":"right","response":"right","rt":41.899999976158,"correct":true,"confidence":-1},{"trial_n":16,"n_dots":3.65,"target":"right","response":"right","rt":391.40000003576,"correct":true,"confidence":-1},{"trial_n":17,"n_dots":3.55,"target":"right","response":"right","rt":313.39999997616,"correct":true,"confidence":-1},{"trial_n":18,"n_dots":3.55,"target":"right","response":"left","rt":133.39999997616,"correct":false,"confidence":-1},{"trial_n":19,"n_dots":3.65,"target":"left","response":"right","rt":117.10000002384,"correct":false,"confidence":-1},{"trial_n":20,"n_dots":3.75,"target":"left","response":"left","rt":785.19999998808,"correct":true,"confidence":-1},{"trial_n":21,"n_dots":3.75,"target":"right","response":"right","rt":1480.8999999762,"correct":true,"confidence":3},{"trial_n":22,"n_dots":3.65,"target":"left","response":"left","rt":1244.1000000238,"correct":true,"confidence":4},{"trial_n":23,"n_dots":3.65,"target":"right","response":"right","rt":1264.9000000358,"correct":true,"confidence":3},{"trial_n":24,"n_dots":3.55,"target":"left","response":"left","rt":907.39999997616,"correct":true,"confidence":3},{"trial_n":25,"n_dots":3.55,"target":"right","response":"right","rt":521.80000001192,"correct":true,"confidence":3},{"trial_n":26,"n_dots":3.45,"target":"left","response":"left","rt":394.69999998808,"correct":true,"confidence":3},{"trial_n":27,"n_dots":3.45,"target":"right","response":"right","rt":386.40000003576,"correct":true,"confidence":1},{"trial_n":28,"n_dots":3.35,"target":"right","response":"right","rt":368.69999998808,"correct":true,"confidence":3},{"trial_n":29,"n_dots":3.35,"target":"right","response":"left","rt":1072.6000000238,"correct":false,"confidence":2},{"trial_n":30,"n_dots":3.45,"target":"left","response":"left","rt":595.70000004768,"correct":true,"confidence":4},{"trial_n":31,"n_dots":3.45,"target":"right","response":"left","rt":480.09999996424,"correct":false,"confidence":1},{"trial_n":32,"n_dots":3.55,"target":"right","response":"right","rt":873.60000002384,"correct":true,"confidence":3},{"trial_n":33,"n_dots":3.55,"target":"left","response":"left","rt":1003.1999999881,"correct":true,"confidence":4},{"trial_n":34,"n_dots":3.45,"target":"right","response":"right","rt":1144.2000000477,"correct":true,"confidence":1},{"trial_n":35,"n_dots":3.45,"target":"right","response":"right","rt":935.29999995232,"correct":true,"confidence":3},{"trial_n":36,"n_dots":3.35,"target":"right","response":"left","rt":703.60000002384,"correct":false,"confidence":3},{"trial_n":37,"n_dots":3.45,"target":"left","response":"left","rt":658.90000003576,"correct":true,"confidence":4},{"trial_n":38,"n_dots":3.45,"target":"left","response":"left","rt":623.59999996424,"correct":true,"confidence":4},{"trial_n":39,"n_dots":3.35,"target":"left","response":"left","rt":549.60000002384,"correct":true,"confidence":4},{"trial_n":40,"n_dots":3.35,"target":"right","response":"right","rt":595,"correct":true,"confidence":4},{"trial_n":41,"n_dots":3.25,"target":"right","response":"right","rt":349.40000003576,"correct":true,"confidence":5},{"trial_n":42,"n_dots":3.25,"target":"right","response":"right","rt":1204.3000000119,"correct":true,"confidence":4},{"trial_n":43,"n_dots":3.15,"target":"left","response":"left","rt":811.90000003576,"correct":true,"confidence":2},{"trial_n":44,"n_dots":3.15,"target":"left","response":"left","rt":538.10000002384,"correct":true,"confidence":3},{"trial_n":45,"n_dots":3.05,"target":"left","response":"left","rt":279.69999998808,"correct":true,"confidence":4},{"trial_n":46,"n_dots":3.05,"target":"right","response":"right","rt":478.40000003576,"correct":true,"confidence":4},{"trial_n":47,"n_dots":2.95,"target":"right","response":"right","rt":1074.5,"correct":true,"confidence":4},{"trial_n":48,"n_dots":2.95,"target":"right","response":"right","rt":613.19999998808,"correct":true,"confidence":2},{"trial_n":49,"n_dots":2.85,"target":"right","response":"left","rt":1193.8999999762,"correct":false,"confidence":2},{"trial_n":50,"n_dots":2.95,"target":"left","response":"left","rt":770.39999997616,"correct":true,"confidence":4},{"trial_n":51,"n_dots":2.95,"target":"right","response":"left","rt":389.10000002384,"correct":false,"confidence":4},{"trial_n":52,"n_dots":3.05,"target":"left","response":"left","rt":550.40000003576,"correct":true,"confidence":4},{"trial_n":53,"n_dots":3.05,"target":"left","response":"left","rt":469.19999998808,"correct":true,"confidence":4},{"trial_n":54,"n_dots":2.95,"target":"left","response":"left","rt":190.79999995232,"correct":true,"confidence":3},{"trial_n":55,"n_dots":2.95,"target":"right","response":"right","rt":369.79999995232,"correct":true,"confidence":3},{"trial_n":56,"n_dots":2.85,"target":"right","response":"left","rt":349.69999998808,"correct":false,"confidence":2},{"trial_n":57,"n_dots":2.95,"target":"left","response":"left","rt":695.30000001192,"correct":true,"confidence":2},{"trial_n":58,"n_dots":2.95,"target":"left","response":"left","rt":750,"correct":true,"confidence":4},{"trial_n":59,"n_dots":2.85,"target":"right","response":"left","rt":796.60000002384,"correct":false,"confidence":3},{"trial_n":60,"n_dots":2.95,"target":"right","response":"right","rt":111.59999996424,"correct":true,"confidence":3},{"trial_n":61,"n_dots":2.95,"target":"right","response":"left","rt":1036.1999999881,"correct":false,"confidence":3},{"trial_n":62,"n_dots":3.05,"target":"left","response":"left","rt":1168.3000000119,"correct":true,"confidence":3},{"trial_n":63,"n_dots":3.05,"target":"right","response":"right","rt":1084.6999999881,"correct":true,"confidence":2},{"trial_n":64,"n_dots":2.95,"target":"right","response":"right","rt":900.79999995232,"correct":true,"confidence":4},{"trial_n":65,"n_dots":2.95,"target":"right","response":"left","rt":1233.4000000358,"correct":false,"confidence":1},{"trial_n":66,"n_dots":3.05,"target":"left","response":"left","rt":1446.8999999762,"correct":true,"confidence":1},{"trial_n":67,"n_dots":3.05,"target":"right","response":"right","rt":862.40000003576,"correct":true,"confidence":4},{"trial_n":68,"n_dots":2.95,"target":"right","response":"right","rt":983.60000002384,"correct":true,"confidence":3},{"trial_n":69,"n_dots":2.95,"target":"left","response":"left","rt":772,"correct":true,"confidence":4},{"trial_n":70,"n_dots":2.85,"target":"left","response":"right","rt":617.60000002384,"correct":false,"confidence":1},{"trial_n":71,"n_dots":2.95,"target":"right","response":"left","rt":753.59999996424,"correct":false,"confidence":1},{"trial_n":72,"n_dots":3.05,"target":"right","response":"left","rt":1263.3000000119,"correct":false,"confidence":2},{"trial_n":73,"n_dots":3.15,"target":"left","response":"left","rt":977.60000002384,"correct":true,"confidence":1},{"trial_n":74,"n_dots":3.15,"target":"right","response":"right","rt":1782.6999999881,"correct":true,"confidence":3},{"trial_n":75,"n_dots":3.05,"target":"left","response":"left","rt":1042.0999999642,"correct":true,"confidence":4},{"trial_n":76,"n_dots":3.05,"target":"left","response":"left","rt":468.19999998808,"correct":true,"confidence":4},{"trial_n":77,"n_dots":2.95,"target":"right","response":"left","rt":306,"correct":false,"confidence":4},{"trial_n":78,"n_dots":3.05,"target":"left","response":"left","rt":316.30000001192,"correct":true,"confidence":3},{"trial_n":79,"n_dots":3.05,"target":"left","response":"left","rt":51.599999964237,"correct":true,"confidence":3},{"trial_n":80,"n_dots":2.95,"target":"right","response":"right","rt":919.80000001192,"correct":true,"confidence":2},{"trial_n":81,"n_dots":2.95,"target":"left","response":"left","rt":872.10000002384,"correct":true,"confidence":4},{"trial_n":82,"n_dots":2.85,"target":"right","response":"left","rt":119.90000003576,"correct":false,"confidence":2},{"trial_n":83,"n_dots":2.95,"target":"left","response":"left","rt":865.60000002384,"correct":true,"confidence":3},{"trial_n":84,"n_dots":2.95,"target":"left","response":"left","rt":579.40000003576,"correct":true,"confidence":2},{"trial_n":85,"n_dots":2.85,"target":"right","response":"left","rt":554.30000001192,"correct":false,"confidence":2},{"trial_n":86,"n_dots":2.95,"target":"right","response":"right","rt":740.5,"correct":true,"confidence":3},{"trial_n":87,"n_dots":2.95,"target":"left","response":"left","rt":282.60000002384,"correct":true,"confidence":2},{"trial_n":88,"n_dots":2.85,"target":"left","response":"left","rt":1187.5,"correct":true,"confidence":1},{"trial_n":89,"n_dots":2.85,"target":"right","response":"right","rt":491.10000002384,"correct":true,"confidence":3},{"trial_n":90,"n_dots":2.75,"target":"right","response":"left","rt":391.20000004768,"correct":false,"confidence":4},{"trial_n":91,"n_dots":2.85,"target":"left","response":"left","rt":389.09999996424,"correct":true,"confidence":3},{"trial_n":92,"n_dots":2.85,"target":"left","response":"left","rt":515,"correct":true,"confidence":3},{"trial_n":93,"n_dots":2.75,"target":"left","response":"left","rt":262.10000002384,"correct":true,"confidence":3},{"trial_n":94,"n_dots":2.75,"target":"left","response":"left","rt":159.09999996424,"correct":true,"confidence":4},{"trial_n":95,"n_dots":2.65,"target":"left","response":"left","rt":376.70000004768,"correct":true,"confidence":1},{"trial_n":96,"n_dots":2.65,"target":"left","response":"left","rt":331.69999998808,"correct":true,"confidence":4},{"trial_n":97,"n_dots":2.55,"target":"left","response":"left","rt":255,"correct":true,"confidence":4},{"trial_n":98,"n_dots":2.55,"target":"right","response":"right","rt":1259.1000000238,"correct":true,"confidence":3},{"trial_n":99,"n_dots":2.45,"target":"left","response":"left","rt":299.90000003576,"correct":true,"confidence":3},{"trial_n":100,"n_dots":2.45,"target":"right","response":"right","rt":722.59999996424,"correct":true,"confidence":4},{"trial_n":101,"n_dots":2.35,"target":"left","response":"right","rt":627.79999995232,"correct":false,"confidence":3},{"trial_n":102,"n_dots":2.45,"target":"left","response":"left","rt":583.19999998808,"correct":true,"confidence":3},{"trial_n":103,"n_dots":2.45,"target":"right","response":"right","rt":908.19999998808,"correct":true,"confidence":3},{"trial_n":104,"n_dots":2.35,"target":"right","response":"right","rt":768.40000003576,"correct":true,"confidence":3},{"trial_n":105,"n_dots":2.35,"target":"right","response":"left","rt":1128.1999999881,"correct":false,"confidence":2},{"trial_n":106,"n_dots":2.45,"target":"left","response":"left","rt":377.59999996424,"correct":true,"confidence":2},{"trial_n":107,"n_dots":2.45,"target":"left","response":"right","rt":522.5,"correct":false,"confidence":3},{"trial_n":108,"n_dots":2.55,"target":"left","response":"left","rt":544.39999997616,"correct":true,"confidence":4},{"trial_n":109,"n_dots":2.55,"target":"right","response":"right","rt":1773.3000000119,"correct":true,"confidence":1},{"trial_n":110,"n_dots":2.45,"target":"left","response":"left","rt":601.69999998808,"correct":true,"confidence":4},{"trial_n":111,"n_dots":2.45,"target":"right","response":"left","rt":1186.8000000119,"correct":false,"confidence":4},{"trial_n":112,"n_dots":2.55,"target":"right","response":"left","rt":926.39999997616,"correct":false,"confidence":3},{"trial_n":113,"n_dots":2.65,"target":"left","response":"right","rt":522.10000002384,"correct":false,"confidence":2},{"trial_n":114,"n_dots":2.75,"target":"left","response":"left","rt":961.80000001192,"correct":true,"confidence":3},{"trial_n":115,"n_dots":2.75,"target":"right","response":"left","rt":799.90000003576,"correct":false,"confidence":2},{"trial_n":116,"n_dots":2.85,"target":"right","response":"right","rt":1096.4000000358,"correct":true,"confidence":4},{"trial_n":117,"n_dots":2.85,"target":"left","response":"left","rt":247.70000004768,"correct":true,"confidence":2},{"trial_n":118,"n_dots":2.75,"target":"left","response":"right","rt":457.39999997616,"correct":false,"confidence":3},{"trial_n":119,"n_dots":2.85,"target":"left","response":"left","rt":1032.8000000119,"correct":true,"confidence":3},{"trial_n":120,"n_dots":2.85,"target":"right","response":"right","rt":1714.5,"correct":true,"confidence":3}]