[{"trial_n":1,"min":25,"max":230,"target":"present","response":"absent","rt":6240.0999999642,"correct":false,"confidence":-1},{"trial_n":2,"min":25,"max":230,"target":"present","response":"present","rt":1419.6999999881,"correct":true,"confidence":-1},{"trial_n":3,"min":25,"max":230,"target":"absent","response":"absent","rt":1229.8999999762,"correct":true,"confidence":-1},{"trial_n":4,"min":41,"max":214,"target":"absent","response":"absent","rt":1014.5,"correct":true,"confidence":-1},{"trial_n":5,"min":41,"max":214,"target":"present","response":"present","rt":1098.1000000238,"correct":true,"confidence":-1},{"trial_n":6,"min":57,"max":198,"target":"present","response":"present","rt":787.19999998808,"correct":true,"confidence":-1},{"trial_n":7,"min":57,"max":198,"target":"absent","response":"absent","rt":1209.9000000358,"correct":true,"confidence":-1},{"trial_n":8,"min":73,"max":182,"target":"absent","response":"absent","rt":751.5,"correct":true,"confidence":-1},{"trial_n":9,"min":73,"max":182,"target":"present","response":"present","rt":1128,"correct":true,"confidence":-1},{"trial_n":10,"min":89,"max":166,"target":"present","response":"absent","rt":911.30000001192,"correct":false,"confidence":-1},{"trial_n":11,"min":81,"max":174,"target":"absent","response":"absent","rt":690.19999998808,"correct":true,"confidence":-1},{"trial_n":12,"min":81,"max":174,"target":"present","response":"absent","rt":585,"correct":false,"confidence":-1},{"trial_n":13,"min":73,"max":182,"target":"present","response":"absent","rt":773.69999998808,"correct":false,"confidence":-1},{"trial_n":14,"min":65,"max":190,"target":"present","response":"present","rt":1340.5,"correct":true,"confidence":-1},{"trial_n":15,"min":65,"max":190,"target":"absent","response":"present","rt":1056,"correct":false,"confidence":-1},{"trial_n":16,"min":57,"max":198,"target":"present","response":"present","rt":568.5,"correct":true,"confidence":-1},{"trial_n":17,"min":57,"max":198,"target":"present","response":"present","rt":1157.3000000119,"correct":true,"confidence":-1},{"trial_n":18,"min":65,"max":190,"target":"absent","response":"absent","rt":1208.5999999642,"correct":true,"confidence":-1},{"trial_n":19,"min":65,"max":190,"target":"absent","response":"absent","rt":842.09999996424,"correct":true,"confidence":-1},{"trial_n":20,"min":73,"max":182,"target":"absent","response":"present","rt":974.5,"correct":false,"confidence":-1},{"trial_n":21,"min":69,"max":186,"target":"absent","response":"present","rt":860.89999997616,"correct":false,"confidence":3},{"trial_n":22,"min":65,"max":190,"target":"present","response":"present","rt":973.10000002384,"correct":true,"confidence":5},{"trial_n":23,"min":65,"max":190,"target":"absent","response":"absent","rt":1705,"correct":true,"confidence":3},{"trial_n":24,"min":69,"max":186,"target":"absent","response":"present","rt":2063,"correct":false,"confidence":2},{"trial_n":25,"min":65,"max":190,"target":"present","response":"present","rt":853.60000002384,"correct":true,"confidence":4},{"trial_n":26,"min":65,"max":190,"target":"absent","response":"absent","rt":1429.5,"correct":true,"confidence":3},{"trial_n":27,"min":69,"max":186,"target":"present","response":"present","rt":869.89999997616,"correct":true,"confidence":5},{"trial_n":28,"min":69,"max":186,"target":"absent","response":"present","rt":5604.4000000358,"correct":false,"confidence":2},{"trial_n":29,"min":65,"max":190,"target":"absent","response":"absent","rt":1085.3999999762,"correct":true,"confidence":3},{"trial_n":30,"min":65,"max":190,"target":"absent","response":"present","rt":1016.5999999642,"correct":false,"confidence":3},{"trial_n":31,"min":63,"max":192,"target":"present","response":"present","rt":1070.3000000119,"correct":true,"confidence":5},{"trial_n":32,"min":63,"max":192,"target":"present","response":"present","rt":934.20000004768,"correct":true,"confidence":5},{"trial_n":33,"min":65,"max":190,"target":"absent","response":"present","rt":1484.1999999881,"correct":false,"confidence":2},{"trial_n":34,"min":63,"max":192,"target":"present","response":"present","rt":889.19999998808,"correct":true,"confidence":5},{"trial_n":35,"min":63,"max":192,"target":"absent","response":"absent","rt":984.5,"correct":true,"confidence":3},{"trial_n":36,"min":65,"max":190,"target":"present","response":"present","rt":1000.6999999881,"correct":true,"confidence":5},{"trial_n":37,"min":65,"max":190,"target":"present","response":"present","rt":792.30000001192,"correct":true,"confidence":5},{"trial_n":38,"min":67,"max":188,"target":"absent","response":"absent","rt":1970.3000000119,"correct":true,"confidence":2},{"trial_n":39,"min":67,"max":188,"target":"present","response":"present","rt":781.89999997616,"correct":true,"confidence":4},{"trial_n":40,"min":69,"max":186,"target":"absent","response":"absent","rt":1023.7999999523,"correct":true,"confidence":4},{"trial_n":41,"min":69,"max":186,"target":"absent","response":"absent","rt":2729.5999999642,"correct":true,"confidence":2},{"trial_n":42,"min":70,"max":185,"target":"absent","response":"present","rt":1230.3000000119,"correct":false,"confidence":2},{"trial_n":43,"min":69,"max":186,"target":"absent","response":"absent","rt":867.5,"correct":true,"confidence":3},{"trial_n":44,"min":69,"max":186,"target":"present","response":"present","rt":895,"correct":true,"confidence":5},{"trial_n":45,"min":70,"max":185,"target":"present","response":"present","rt":997.89999997616,"correct":true,"confidence":5},{"trial_n":46,"min":70,"max":185,"target":"present","response":"present","rt":733.5,"correct":true,"confidence":5},{"trial_n":47,"min":71,"max":184,"target":"present","response":"present","rt":748.09999996424,"correct":true,"confidence":5},{"trial_n":48,"min":71,"max":184,"target":"absent","response":"absent","rt":2121.4000000358,"correct":true,"confidence":4},{"trial_n":49,"min":72,"max":183,"target":"present","response":"present","rt":742.80000001192,"correct":true,"confidence":4},{"trial_n":50,"min":72,"max":183,"target":"absent","response":"absent","rt":1229.3000000119,"correct":true,"confidence":3},{"trial_n":51,"min":73,"max":182,"target":"present","response":"present","rt":910.80000001192,"correct":true,"confidence":5},{"trial_n":52,"min":73,"max":182,"target":"absent","response":"absent","rt":1151.3999999762,"correct":true,"confidence":4},{"trial_n":53,"min":74,"max":181,"target":"present","response":"present","rt":655.90000003576,"correct":true,"confidence":5},{"trial_n":54,"min":74,"max":181,"target":"absent","response":"absent","rt":1048.9000000358,"correct":true,"confidence":4},{"trial_n":55,"min":75,"max":180,"target":"absent","response":"absent","rt":1113.6000000238,"correct":true,"confidence":4},{"trial_n":56,"min":75,"max":180,"target":"present","response":"present","rt":798.89999997616,"correct":true,"confidence":5},{"trial_n":57,"min":76,"max":179,"target":"present","response":"present","rt":1113.5999999642,"correct":true,"confidence":3},{"trial_n":58,"min":76,"max":179,"target":"present","response":"present","rt":791.39999997616,"correct":true,"confidence":5},{"trial_n":59,"min":77,"max":178,"target":"present","response":"present","rt":717.39999997616,"correct":true,"confidence":5},{"trial_n":60,"min":77,"max":178,"target":"present","response":"present","rt":927.39999997616,"correct":true,"confidence":5},{"trial_n":61,"min":78,"max":177,"target":"absent","response":"absent","rt":909.39999997616,"correct":true,"confidence":4},{"trial_n":62,"min":78,"max":177,"target":"absent","response":"absent","rt":911.89999997616,"correct":true,"confidence":4},{"trial_n":63,"min":79,"max":176,"target":"present","response":"present","rt":863.5,"correct":true,"confidence":4},{"trial_n":64,"min":79,"max":176,"target":"absent","response":"absent","rt":971.5,"correct":true,"confidence":4},{"trial_n":65,"min":80,"max":175,"target":"absent","response":"absent","rt":847.10000002384,"correct":true,"confidence":4},{"trial_n":66,"min":80,"max":175,"target":"present","response":"present","rt":893.70000004768,"correct":true,"confidence":5},{"trial_n":67,"min":81,"max":174,"target":"present","response":"present","rt":2018.9000000358,"correct":true,"confidence":5},{"trial_n":68,"min":81,"max":174,"target":"absent","response":"absent","rt":836.60000002384,"correct":true,"confidence":4},{"trial_n":69,"min":82,"max":173,"target":"absent","response":"absent","rt":1062,"correct":true,"confidence":4},{"trial_n":70,"min":82,"max":173,"target":"present","response":"present","rt":737.09999996424,"correct":true,"confidence":4},{"trial_n":71,"min":41,"max":214,"target":"present","response":"present","rt":3920.6999999881,"correct":true,"confidence":-1},{"trial_n":72,"min":41,"max":214,"target":"present","response":"present","rt":807.69999998808,"correct":true,"confidence":-1},{"trial_n":73,"min":57,"max":198,"target":"absent","response":"absent","rt":1000.4000000358,"correct":true,"confidence":-1},{"trial_n":74,"min":57,"max":198,"target":"absent","response":"absent","rt":887.59999996424,"correct":true,"confidence":-1},{"trial_n":75,"min":73,"max":182,"target":"present","response":"present","rt":806.19999998808,"correct":true,"confidence":-1},{"trial_n":76,"min":73,"max":182,"target":"present","response":"present","rt":1285,"correct":true,"confidence":-1},{"trial_n":77,"min":89,"max":166,"target":"present","response":"present","rt":867.60000002384,"correct":true,"confidence":-1},{"trial_n":78,"min":89,"max":166,"target":"present","response":"present","rt":1655.5,"correct":true,"confidence":-1},{"trial_n":79,"min":105,"max":150,"target":"present","response":"present","rt":1537.3000000119,"correct":true,"confidence":-1},{"trial_n":80,"min":105,"max":150,"target":"absent","response":"present","rt":983.59999996424,"correct":false,"confidence":-1},{"trial_n":81,"min":97,"max":158,"target":"absent","response":"present","rt":1399.2000000477,"correct":false,"confidence":-1},{"trial_n":82,"min":89,"max":166,"target":"absent","response":"absent","rt":1073.3000000119,"correct":true,"confidence":-1},{"trial_n":83,"min":89,"max":166,"target":"absent","response":"absent","rt":2139.8000000119,"correct":true,"confidence":-1},{"trial_n":84,"min":97,"max":158,"target":"absent","response":"present","rt":1391.1999999881,"correct":false,"confidence":-1},{"trial_n":85,"min":89,"max":166,"target":"present","response":"present","rt":733.80000001192,"correct":true,"confidence":-1},{"trial_n":86,"min":89,"max":166,"target":"present","response":"present","rt":1041.1000000238,"correct":true,"confidence":-1},{"trial_n":87,"min":97,"max":158,"target":"present","response":"absent","rt":849.60000002384,"correct":false,"confidence":-1},{"trial_n":88,"min":89,"max":166,"target":"absent","response":"absent","rt":1275.2999999523,"correct":true,"confidence":-1},{"trial_n":89,"min":89,"max":166,"target":"absent","response":"absent","rt":887.40000003576,"correct":true,"confidence":-1},{"trial_n":90,"min":97,"max":158,"target":"present","response":"present","rt":1063.8999999762,"correct":true,"confidence":-1},{"trial_n":91,"min":97,"max":158,"target":"present","response":"present","rt":962.89999997616,"correct":true,"confidence":2},{"trial_n":92,"min":101,"max":154,"target":"absent","response":"present","rt":952,"correct":false,"confidence":3},{"trial_n":93,"min":97,"max":158,"target":"present","response":"present","rt":920.59999996424,"correct":true,"confidence":3},{"trial_n":94,"min":97,"max":158,"target":"absent","response":"present","rt":1122.1999999881,"correct":false,"confidence":2},{"trial_n":95,"min":93,"max":162,"target":"present","response":"present","rt":1051.8999999762,"correct":true,"confidence":2},{"trial_n":96,"min":93,"max":162,"target":"present","response":"present","rt":916.39999997616,"correct":true,"confidence":2},{"trial_n":97,"min":97,"max":158,"target":"absent","response":"present","rt":1814,"correct":false,"confidence":2},{"trial_n":98,"min":93,"max":162,"target":"absent","response":"present","rt":1008.5,"correct":false,"confidence":2},{"trial_n":99,"min":89,"max":166,"target":"present","response":"present","rt":1088.2000000477,"correct":true,"confidence":2},{"trial_n":100,"min":89,"max":166,"target":"absent","response":"absent","rt":942.5,"correct":true,"confidence":1},{"trial_n":101,"min":91,"max":164,"target":"absent","response":"present","rt":1641.6999999881,"correct":false,"confidence":1},{"trial_n":102,"min":89,"max":166,"target":"absent","response":"present","rt":5643,"correct":false,"confidence":1},{"trial_n":103,"min":87,"max":168,"target":"present","response":"present","rt":1406,"correct":true,"confidence":3},{"trial_n":104,"min":87,"max":168,"target":"present","response":"present","rt":1049.6000000238,"correct":true,"confidence":2},{"trial_n":105,"min":89,"max":166,"target":"present","response":"present","rt":1429.5,"correct":true,"confidence":2},{"trial_n":106,"min":89,"max":166,"target":"absent","response":"present","rt":2632.8999999762,"correct":false,"confidence":1},{"trial_n":107,"min":87,"max":168,"target":"present","response":"present","rt":852.19999998808,"correct":true,"confidence":2},{"trial_n":108,"min":87,"max":168,"target":"present","response":"present","rt":780.60000002384,"correct":true,"confidence":3},{"trial_n":109,"min":89,"max":166,"target":"absent","response":"present","rt":847.39999997616,"correct":false,"confidence":2},{"trial_n":110,"min":87,"max":168,"target":"absent","response":"absent","rt":3106,"correct":true,"confidence":1},{"trial_n":111,"min":87,"max":168,"target":"present","response":"present","rt":909.09999996424,"correct":true,"confidence":2},{"trial_n":112,"min":88,"max":167,"target":"absent","response":"absent","rt":926.89999997616,"correct":true,"confidence":2},{"trial_n":113,"min":88,"max":167,"target":"absent","response":"absent","rt":983.30000001192,"correct":true,"confidence":2},{"trial_n":114,"min":89,"max":166,"target":"present","response":"present","rt":644.10000002384,"correct":true,"confidence":3},{"trial_n":115,"min":89,"max":166,"target":"present","response":"present","rt":763,"correct":true,"confidence":2},{"trial_n":116,"min":90,"max":165,"target":"absent","response":"absent","rt":1165.6000000238,"correct":true,"confidence":2},{"trial_n":117,"min":90,"max":165,"target":"present","response":"present","rt":1832.3999999762,"correct":true,"confidence":1},{"trial_n":118,"min":91,"max":164,"target":"absent","response":"present","rt":1079.5,"correct":false,"confidence":1},{"trial_n":119,"min":90,"max":165,"target":"present","response":"absent","rt":887.39999997616,"correct":false,"confidence":1},{"trial_n":120,"min":89,"max":166,"target":"absent","response":"absent","rt":1153.9000000358,"correct":true,"confidence":3},{"trial_n":121,"min":89,"max":166,"target":"absent","response":"absent","rt":1270.1000000238,"correct":true,"confidence":3},{"trial_n":122,"min":90,"max":165,"target":"present","response":"present","rt":586,"correct":true,"confidence":4},{"trial_n":123,"min":90,"max":165,"target":"present","response":"present","rt":739.19999998808,"correct":true,"confidence":3},{"trial_n":124,"min":91,"max":164,"target":"present","response":"present","rt":986.5,"correct":true,"confidence":2},{"trial_n":125,"min":91,"max":164,"target":"present","response":"present","rt":783.89999997616,"correct":true,"confidence":3},{"trial_n":126,"min":92,"max":163,"target":"absent","response":"present","rt":1132.1999999881,"correct":false,"confidence":1},{"trial_n":127,"min":91,"max":164,"target":"absent","response":"absent","rt":1514.8000000119,"correct":true,"confidence":3},{"trial_n":128,"min":91,"max":164,"target":"present","response":"present","rt":798.5,"correct":true,"confidence":4},{"trial_n":129,"min":92,"max":163,"target":"present","response":"present","rt":817.29999995232,"correct":true,"confidence":4},{"trial_n":130,"min":92,"max":163,"target":"absent","response":"present","rt":838,"correct":false,"confidence":3},{"trial_n":131,"min":91,"max":164,"target":"absent","response":"present","rt":1065.8000000119,"correct":false,"confidence":1},{"trial_n":132,"min":90,"max":165,"target":"absent","response":"absent","rt":837.19999998808,"correct":true,"confidence":2},{"trial_n":133,"min":90,"max":165,"target":"absent","response":"present","rt":856.80000001192,"correct":false,"confidence":1},{"trial_n":134,"min":89,"max":166,"target":"present","response":"present","rt":630.5,"correct":true,"confidence":4},{"trial_n":135,"min":89,"max":166,"target":"present","response":"present","rt":1052.0999999642,"correct":true,"confidence":3},{"trial_n":136,"min":90,"max":165,"target":"absent","response":"absent","rt":1399.3000000119,"correct":true,"confidence":1},{"trial_n":137,"min":90,"max":165,"target":"absent","response":"absent","rt":1213.6000000238,"correct":true,"confidence":1},{"trial_n":138,"min":91,"max":164,"target":"absent","response":"present","rt":706.30000001192,"correct":false,"confidence":3},{"trial_n":139,"min":90,"max":165,"target":"present","response":"present","rt":771.5,"correct":true,"confidence":3},{"trial_n":140,"min":90,"max":165,"target":"present","response":"present","rt":1327.5,"correct":true,"confidence":1}]