[{"trial_n":1,"span":8,"encoder":"03444081","distractor":"03144081","target":"present","response":"present","rt":"2741.5","correct":true,"confidence":-1},{"trial_n":2,"span":8,"encoder":"07866699","distractor":"07166699","target":"present","response":"absent","rt":"2907.6000000238","correct":false,"confidence":-1},{"trial_n":3,"span":6,"encoder":"627742","distractor":"627242","target":"absent","response":"absent","rt":"3214.1999999881","correct":true,"confidence":-1},{"trial_n":4,"span":6,"encoder":"887224","distractor":"587224","target":"absent","response":"absent","rt":"2191.5999999642","correct":true,"confidence":-1},{"trial_n":5,"span":8,"encoder":"92538813","distractor":"92531813","target":"present","response":"present","rt":"2650.3999999762","correct":true,"confidence":-1},{"trial_n":6,"span":8,"encoder":"41562640","distractor":"01562640","target":"absent","response":"absent","rt":"2393.3000000119","correct":true,"confidence":-1},{"trial_n":7,"span":10,"encoder":"4106375677","distractor":"4106375672","target":"absent","response":"absent","rt":"4140.1999999881","correct":true,"confidence":-1},{"trial_n":8,"span":10,"encoder":"0409258131","distractor":"0809258131","target":"present","response":"present","rt":"3956.6000000238","correct":true,"confidence":-1},{"trial_n":9,"span":12,"encoder":"900092228075","distractor":"100092228075","target":"absent","response":"absent","rt":"7215.8999999762","correct":true,"confidence":-1},{"trial_n":10,"span":12,"encoder":"464550257854","distractor":"464550257554","target":"present","response":"absent","rt":"3416.8999999762","correct":false,"confidence":-1},{"trial_n":11,"span":10,"encoder":"0724382646","distractor":"0725382646","target":"present","response":"present","rt":"3288.9000000358","correct":true,"confidence":-1},{"trial_n":12,"span":10,"encoder":"6989325269","distractor":"6987325269","target":"absent","response":"absent","rt":"3163.1999999881","correct":true,"confidence":-1},{"trial_n":13,"span":11,"encoder":"61905372229","distractor":"61905372029","target":"absent","response":"absent","rt":"3723.7000000477","correct":true,"confidence":-1},{"trial_n":14,"span":11,"encoder":"13657607079","distractor":"13757607079","target":"absent","response":"present","rt":"4017.1000000238","correct":false,"confidence":-1},{"trial_n":15,"span":10,"encoder":"5597115429","distractor":"5594115429","target":"absent","response":"absent","rt":"2547.6000000238","correct":true,"confidence":-1},{"trial_n":16,"span":10,"encoder":"9600104864","distractor":"9680104864","target":"absent","response":"present","rt":"13056.899999976","correct":false,"confidence":-1},{"trial_n":17,"span":9,"encoder":"748091655","distractor":"708091655","target":"present","response":"present","rt":"3611.8999999762","correct":true,"confidence":-1},{"trial_n":18,"span":9,"encoder":"754775784","distractor":"754775484","target":"present","response":"absent","rt":"2930.3000000119","correct":false,"confidence":-1},{"trial_n":19,"span":8,"encoder":"41740428","distractor":"41740628","target":"present","response":"present","rt":"3861.9000000358","correct":true,"confidence":-1},{"trial_n":20,"span":8,"encoder":"96935554","distractor":"96235554","target":"present","response":"absent","rt":"2969.1000000238","correct":false,"confidence":-1},{"trial_n":21,"span":7,"encoder":"8295635","distractor":"8299635","target":"absent","response":"absent","rt":"3603","correct":true,"confidence":4},{"trial_n":22,"span":7,"encoder":"7891479","distractor":"7891079","target":"present","response":"present","rt":"2168.6000000238","correct":true,"confidence":5},{"trial_n":23,"span":8,"encoder":"63403200","distractor":"60403200","target":"absent","response":"present","rt":"3290.8000000119","correct":false,"confidence":4},{"trial_n":24,"span":7,"encoder":"9215331","distractor":"9215330","target":"present","response":"present","rt":"2566.3999999762","correct":true,"confidence":5},{"trial_n":25,"span":7,"encoder":"3891735","distractor":"3891745","target":"present","response":"present","rt":"3308.7000000477","correct":true,"confidence":4},{"trial_n":26,"span":8,"encoder":"93199555","distractor":"93099555","target":"present","response":"absent","rt":"3951.3000000119","correct":false,"confidence":4},{"trial_n":27,"span":7,"encoder":"5239525","distractor":"5639525","target":"present","response":"present","rt":"2643.1999999881","correct":true,"confidence":5},{"trial_n":28,"span":7,"encoder":"2954717","distractor":"2954777","target":"present","response":"present","rt":"3093.5","correct":true,"confidence":4},{"trial_n":29,"span":8,"encoder":"46942860","distractor":"46982860","target":"present","response":"present","rt":"4518.6999999881","correct":true,"confidence":4},{"trial_n":30,"span":8,"encoder":"84380625","distractor":"88380625","target":"present","response":"present","rt":"3208.3000000119","correct":true,"confidence":4},{"trial_n":31,"span":9,"encoder":"812912105","distractor":"812912205","target":"present","response":"present","rt":"3151.4000000358","correct":true,"confidence":4},{"trial_n":32,"span":9,"encoder":"945291477","distractor":"945291474","target":"present","response":"present","rt":"3095.1999999881","correct":true,"confidence":4},{"trial_n":33,"span":10,"encoder":"0187378938","distractor":"0187398938","target":"present","response":"present","rt":"5189.3999999762","correct":true,"confidence":3},{"trial_n":34,"span":10,"encoder":"0954326700","distractor":"0953326700","target":"absent","response":"absent","rt":"3038.3000000119","correct":true,"confidence":3},{"trial_n":35,"span":11,"encoder":"76959998598","distractor":"76959998597","target":"present","response":"absent","rt":"6834.6999999881","correct":false,"confidence":2},{"trial_n":36,"span":10,"encoder":"8120707192","distractor":"8120707190","target":"absent","response":"absent","rt":"23861.200000048","correct":true,"confidence":2},{"trial_n":37,"span":10,"encoder":"9908491344","distractor":"9908491343","target":"absent","response":"absent","rt":"2544.1999999881","correct":true,"confidence":5},{"trial_n":38,"span":11,"encoder":"44345712573","distractor":"44345715573","target":"absent","response":"absent","rt":"3500.0999999642","correct":true,"confidence":3},{"trial_n":39,"span":11,"encoder":"50587457535","distractor":"50587157535","target":"absent","response":"absent","rt":"7028.3999999762","correct":true,"confidence":2},{"trial_n":40,"span":12,"encoder":"321602056738","distractor":"321602056038","target":"absent","response":"present","rt":"4350.9000000358","correct":false,"confidence":3},{"trial_n":41,"span":11,"encoder":"80155970748","distractor":"80155970742","target":"absent","response":"absent","rt":"6979.6999999881","correct":true,"confidence":3},{"trial_n":42,"span":11,"encoder":"94641797418","distractor":"94631797418","target":"absent","response":"present","rt":"5536.0999999642","correct":false,"confidence":3},{"trial_n":43,"span":10,"encoder":"3565677568","distractor":"3565677168","target":"absent","response":"absent","rt":"4907.8999999762","correct":true,"confidence":3},{"trial_n":44,"span":10,"encoder":"8973005791","distractor":"8973005741","target":"absent","response":"absent","rt":"4766.7000000477","correct":true,"confidence":3},{"trial_n":45,"span":11,"encoder":"89692562100","distractor":"86692562100","target":"present","response":"present","rt":"4207.4000000358","correct":true,"confidence":3},{"trial_n":46,"span":11,"encoder":"59950600162","distractor":"59970600162","target":"absent","response":"present","rt":"4892.3999999762","correct":false,"confidence":3},{"trial_n":47,"span":10,"encoder":"4219671037","distractor":"4299671037","target":"present","response":"absent","rt":"7482","correct":false,"confidence":3},{"trial_n":48,"span":9,"encoder":"117742475","distractor":"117745475","target":"absent","response":"present","rt":"4711.8999999762","correct":false,"confidence":3},{"trial_n":49,"span":8,"encoder":"72661281","distractor":"72661221","target":"present","response":"present","rt":"2508.3000000119","correct":true,"confidence":4},{"trial_n":50,"span":8,"encoder":"97512406","distractor":"97212406","target":"present","response":"present","rt":"2735.0999999642","correct":true,"confidence":4},{"trial_n":51,"span":9,"encoder":"180798083","distractor":"180398083","target":"present","response":"present","rt":"3806.0999999642","correct":true,"confidence":4},{"trial_n":52,"span":9,"encoder":"526693090","distractor":"526693790","target":"absent","response":"present","rt":"4689.1000000238","correct":false,"confidence":2},{"trial_n":53,"span":8,"encoder":"42343444","distractor":"42743444","target":"absent","response":"absent","rt":"2382.2000000477","correct":true,"confidence":5},{"trial_n":54,"span":8,"encoder":"00993289","distractor":"00993209","target":"present","response":"present","rt":"2637.3000000119","correct":true,"confidence":4},{"trial_n":55,"span":9,"encoder":"973412398","distractor":"972412398","target":"present","response":"absent","rt":"5724.5999999642","correct":false,"confidence":3},{"trial_n":56,"span":8,"encoder":"43212043","distractor":"43212040","target":"present","response":"present","rt":"5434.8999999762","correct":true,"confidence":4},{"trial_n":57,"span":8,"encoder":"29510825","distractor":"29510805","target":"present","response":"present","rt":"4215.4000000358","correct":true,"confidence":4},{"trial_n":58,"span":9,"encoder":"248451492","distractor":"258451492","target":"present","response":"present","rt":"3685.8999999762","correct":true,"confidence":3},{"trial_n":59,"span":9,"encoder":"858612083","distractor":"158612083","target":"absent","response":"present","rt":"6160.1999999881","correct":false,"confidence":2},{"trial_n":60,"span":8,"encoder":"66365371","distractor":"65365371","target":"present","response":"present","rt":"2889.9000000358","correct":true,"confidence":4},{"trial_n":61,"span":8,"encoder":"21293681","distractor":"91293681","target":"absent","response":"absent","rt":"4825","correct":true,"confidence":3},{"trial_n":62,"span":9,"encoder":"325344001","distractor":"325334001","target":"absent","response":"absent","rt":"4953.6000000238","correct":true,"confidence":2},{"trial_n":63,"span":9,"encoder":"568601377","distractor":"568601277","target":"absent","response":"absent","rt":"3310.2000000477","correct":true,"confidence":4},{"trial_n":64,"span":10,"encoder":"4366186293","distractor":"4366186693","target":"present","response":"present","rt":"3095","correct":true,"confidence":3},{"trial_n":65,"span":10,"encoder":"7925465289","distractor":"7025465289","target":"absent","response":"absent","rt":"2939","correct":true,"confidence":3},{"trial_n":66,"span":11,"encoder":"36203571712","distractor":"36223571712","target":"present","response":"absent","rt":"4960.1999999881","correct":false,"confidence":2},{"trial_n":67,"span":10,"encoder":"1439726920","distractor":"1432726920","target":"present","response":"present","rt":"6403.6000000238","correct":true,"confidence":2},{"trial_n":68,"span":10,"encoder":"1614181892","distractor":"1694181892","target":"absent","response":"absent","rt":"6785.2999999523","correct":true,"confidence":3},{"trial_n":69,"span":11,"encoder":"60819242877","distractor":"60819242777","target":"absent","response":"absent","rt":"3591.8000000119","correct":true,"confidence":4},{"trial_n":70,"span":11,"encoder":"58349461240","distractor":"58349461245","target":"absent","response":"absent","rt":"3864.8000000119","correct":true,"confidence":5},{"trial_n":71,"span":8,"encoder":"07930634","distractor":"07930630","target":"present","response":"present","rt":"9005","correct":true,"confidence":-1},{"trial_n":72,"span":8,"encoder":"00763557","distractor":"00463557","target":"present","response":"present","rt":"22366","correct":true,"confidence":-1},{"trial_n":73,"span":9,"encoder":"556713244","distractor":"556413244","target":"absent","response":"absent","rt":"2728.3000000119","correct":true,"confidence":-1},{"trial_n":74,"span":9,"encoder":"752104449","distractor":"752104949","target":"absent","response":"absent","rt":"2674.3000000119","correct":true,"confidence":-1},{"trial_n":75,"span":10,"encoder":"7674393395","distractor":"7674393305","target":"present","response":"present","rt":"2073.2000000477","correct":true,"confidence":-1},{"trial_n":76,"span":10,"encoder":"1682479047","distractor":"1622479047","target":"present","response":"absent","rt":"4978","correct":false,"confidence":-1},{"trial_n":77,"span":9,"encoder":"216922310","distractor":"218922310","target":"absent","response":"absent","rt":"4798.5","correct":true,"confidence":-1},{"trial_n":78,"span":9,"encoder":"954318547","distractor":"954378547","target":"absent","response":"absent","rt":"5226.8000000119","correct":true,"confidence":-1},{"trial_n":79,"span":10,"encoder":"4320518912","distractor":"5320518912","target":"absent","response":"absent","rt":"2706.7000000477","correct":true,"confidence":-1},{"trial_n":80,"span":10,"encoder":"4021795368","distractor":"4041795368","target":"present","response":"present","rt":"18255.800000012","correct":true,"confidence":-1},{"trial_n":81,"span":11,"encoder":"51336781098","distractor":"51336781598","target":"absent","response":"absent","rt":"9396.3000000119","correct":true,"confidence":-1},{"trial_n":82,"span":11,"encoder":"79681153669","distractor":"79681153769","target":"absent","response":"absent","rt":"2033.6000000238","correct":true,"confidence":-1},{"trial_n":83,"span":12,"encoder":"919977486703","distractor":"912977486703","target":"absent","response":"absent","rt":"1680.6000000238","correct":true,"confidence":-1},{"trial_n":84,"span":12,"encoder":"779506632967","distractor":"779606632967","target":"absent","response":"absent","rt":"5168.5999999642","correct":true,"confidence":-1},{"trial_n":85,"span":13,"encoder":"4922666843866","distractor":"4942666843866","target":"present","response":"present","rt":"4618.2000000477","correct":true,"confidence":-1},{"trial_n":86,"span":13,"encoder":"3577986547056","distractor":"3577987547056","target":"present","response":"present","rt":"4207.5999999642","correct":true,"confidence":-1},{"trial_n":87,"span":14,"encoder":"45914124711640","distractor":"45954124711640","target":"present","response":"absent","rt":"5291.3000000119","correct":false,"confidence":-1},{"trial_n":88,"span":13,"encoder":"3424773751894","distractor":"3424773751899","target":"present","response":"absent","rt":"6744","correct":false,"confidence":-1},{"trial_n":89,"span":12,"encoder":"518737832410","distractor":"518737832010","target":"present","response":"present","rt":"2047.6999999881","correct":true,"confidence":-1},{"trial_n":90,"span":12,"encoder":"181876345082","distractor":"181876345002","target":"present","response":"present","rt":"1363.4000000358","correct":true,"confidence":-1},{"trial_n":91,"span":13,"encoder":"8343244781442","distractor":"8343444781442","target":"absent","response":"absent","rt":"9390.8000000119","correct":true,"confidence":2},{"trial_n":92,"span":13,"encoder":"6565144429963","distractor":"6565145429963","target":"present","response":"present","rt":"6023.7000000477","correct":true,"confidence":3},{"trial_n":93,"span":14,"encoder":"78686855494527","distractor":"78636855494527","target":"present","response":"present","rt":"5101.6000000238","correct":true,"confidence":4},{"trial_n":94,"span":14,"encoder":"08451136536634","distractor":"08471136536634","target":"absent","response":"absent","rt":"4111","correct":true,"confidence":3},{"trial_n":95,"span":15,"encoder":"058598842364399","distractor":"058598842364329","target":"absent","response":"absent","rt":"1826.2999999523","correct":true,"confidence":4},{"trial_n":96,"span":15,"encoder":"918911153791431","distractor":"918911153791461","target":"absent","response":"absent","rt":"3092.1999999881","correct":true,"confidence":5},{"trial_n":97,"span":16,"encoder":"0933233075446160","distractor":"0933233075486160","target":"absent","response":"absent","rt":"7952.6000000238","correct":true,"confidence":2},{"trial_n":98,"span":16,"encoder":"8566555830734220","distractor":"8566555830794220","target":"present","response":"present","rt":"6684","correct":true,"confidence":2},{"trial_n":99,"span":17,"encoder":"27218141852358902","distractor":"28218141852358902","target":"present","response":"present","rt":"6105.8000000119","correct":true,"confidence":2},{"trial_n":100,"span":17,"encoder":"68994023960908078","distractor":"68994023960900078","target":"absent","response":"absent","rt":"2988.8000000119","correct":true,"confidence":4},{"trial_n":101,"span":18,"encoder":"446478097128258348","distractor":"446478097128288348","target":"absent","response":"present","rt":"9888","correct":false,"confidence":1},{"trial_n":102,"span":17,"encoder":"75131821328679369","distractor":"75131821328479369","target":"absent","response":"absent","rt":"35756.299999952","correct":true,"confidence":2},{"trial_n":103,"span":17,"encoder":"75488445310479839","distractor":"55488445310479839","target":"absent","response":"absent","rt":"2774.1000000238","correct":true,"confidence":3},{"trial_n":104,"span":18,"encoder":"758728257601839149","distractor":"758728257601834149","target":"present","response":"absent","rt":"3338.4000000358","correct":false,"confidence":3},{"trial_n":105,"span":17,"encoder":"17482903305055814","distractor":"17462903305055814","target":"present","response":"present","rt":"6556.8000000119","correct":true,"confidence":3},{"trial_n":106,"span":17,"encoder":"50983341270783569","distractor":"50983341230783569","target":"absent","response":"present","rt":"6006.9000000358","correct":false,"confidence":2},{"trial_n":107,"span":16,"encoder":"2190391847580667","distractor":"2190381847580667","target":"present","response":"absent","rt":"10185.900000036","correct":false,"confidence":1},{"trial_n":108,"span":15,"encoder":"410466141780375","distractor":"410466141780374","target":"absent","response":"absent","rt":"2875.1999999881","correct":true,"confidence":5},{"trial_n":109,"span":15,"encoder":"212439709471918","distractor":"212339709471918","target":"present","response":"present","rt":"3847.7999999523","correct":true,"confidence":2},{"trial_n":110,"span":16,"encoder":"1456851969825638","distractor":"1456851969725638","target":"absent","response":"present","rt":"7769.3000000119","correct":false,"confidence":2},{"trial_n":111,"span":15,"encoder":"992293389558556","distractor":"992293319558556","target":"absent","response":"absent","rt":"5097","correct":true,"confidence":3},{"trial_n":112,"span":15,"encoder":"077557899371962","distractor":"076557899371962","target":"present","response":"present","rt":"3406","correct":true,"confidence":3},{"trial_n":113,"span":16,"encoder":"4822309826244137","distractor":"4822309827244137","target":"present","response":"absent","rt":"8446.0999999642","correct":false,"confidence":2},{"trial_n":114,"span":15,"encoder":"569377550238906","distractor":"569377750238906","target":"present","response":"present","rt":"2956.0999999642","correct":true,"confidence":3},{"trial_n":115,"span":15,"encoder":"615241615463480","distractor":"615241415463480","target":"present","response":"present","rt":"6210.6999999881","correct":true,"confidence":3},{"trial_n":116,"span":16,"encoder":"9164776898415517","distractor":"4164776898415517","target":"present","response":"present","rt":"3228.3000000119","correct":true,"confidence":2},{"trial_n":117,"span":16,"encoder":"6332045450789846","distractor":"6332045455789846","target":"present","response":"present","rt":"5735.6000000238","correct":true,"confidence":2},{"trial_n":118,"span":17,"encoder":"03900912218555341","distractor":"03960912218555341","target":"present","response":"absent","rt":"10752.399999976","correct":false,"confidence":2},{"trial_n":119,"span":16,"encoder":"2365581939809639","distractor":"2367581939809639","target":"absent","response":"absent","rt":"3251.3000000119","correct":true,"confidence":2},{"trial_n":120,"span":16,"encoder":"6005096168316956","distractor":"6005026168316956","target":"present","response":"present","rt":"5285.8000000119","correct":true,"confidence":2},{"trial_n":121,"span":17,"encoder":"51393698822469449","distractor":"51393668822469449","target":"absent","response":"absent","rt":"4229.9000000358","correct":true,"confidence":3},{"trial_n":122,"span":17,"encoder":"84675454450789321","distractor":"84675454450289321","target":"absent","response":"absent","rt":"8664.6000000238","correct":true,"confidence":2},{"trial_n":123,"span":18,"encoder":"578138055042838696","distractor":"578138055742838696","target":"absent","response":"absent","rt":"8336.3999999762","correct":true,"confidence":1},{"trial_n":124,"span":18,"encoder":"549531423011265404","distractor":"549531423011265004","target":"present","response":"present","rt":"2647.3000000119","correct":true,"confidence":4},{"trial_n":125,"span":19,"encoder":"7609549889449713272","distractor":"7609543889449713272","target":"present","response":"present","rt":"8096.9000000358","correct":true,"confidence":1},{"trial_n":126,"span":19,"encoder":"6995715204819498042","distractor":"6995715204819498022","target":"absent","response":"absent","rt":"1434.3000000119","correct":true,"confidence":5},{"trial_n":127,"span":20,"encoder":"82307980270233115658","distractor":"82307780270233115658","target":"present","response":"absent","rt":"9135.5","correct":false,"confidence":2},{"trial_n":128,"span":19,"encoder":"7470970908272389511","distractor":"7470950908272389511","target":"absent","response":"present","rt":"4231.4000000358","correct":false,"confidence":2},{"trial_n":129,"span":18,"encoder":"873031063466694827","distractor":"873031093466694827","target":"present","response":"present","rt":"6104.3999999762","correct":true,"confidence":2},{"trial_n":130,"span":18,"encoder":"333022107623084821","distractor":"333022107623044821","target":"present","response":"present","rt":"5923.3999999762","correct":true,"confidence":2},{"trial_n":131,"span":19,"encoder":"3762491760742586428","distractor":"3762491760742586478","target":"absent","response":"absent","rt":"2301.7000000477","correct":true,"confidence":5},{"trial_n":132,"span":19,"encoder":"8425175964659431108","distractor":"8425175964659231108","target":"absent","response":"absent","rt":"8734.0999999642","correct":true,"confidence":1},{"trial_n":133,"span":20,"encoder":"52498868596457825236","distractor":"52498868596957825236","target":"present","response":"absent","rt":"16321.900000036","correct":false,"confidence":1},{"trial_n":134,"span":19,"encoder":"5149365506711330284","distractor":"5149365006711330284","target":"present","response":"absent","rt":"5585.8000000119","correct":false,"confidence":1},{"trial_n":135,"span":18,"encoder":"143873809148890804","distractor":"143873809145890804","target":"present","response":"present","rt":"6463.9000000358","correct":true,"confidence":2},{"trial_n":136,"span":18,"encoder":"658084012465857685","distractor":"658084012415857685","target":"absent","response":"absent","rt":"7192.8000000119","correct":true,"confidence":1},{"trial_n":137,"span":19,"encoder":"3598394385850636658","distractor":"3598399385850636658","target":"absent","response":"absent","rt":"9926.1999999881","correct":true,"confidence":2},{"trial_n":138,"span":19,"encoder":"9218551585791777147","distractor":"9218551581791777147","target":"present","response":"absent","rt":"6985.8000000119","correct":false,"confidence":2},{"trial_n":139,"span":18,"encoder":"416172546213579391","distractor":"416172546213573391","target":"absent","response":"absent","rt":"5511","correct":true,"confidence":2},{"trial_n":140,"span":18,"encoder":"019276263459433551","distractor":"019276263459333551","target":"absent","response":"absent","rt":"3947.3000000119","correct":true,"confidence":3}]