[{"trial_n":1,"min":25,"max":230,"target":"present","response":"absent","rt":6746.2000000002,"correct":false,"confidence":-1},{"trial_n":2,"min":25,"max":230,"target":"present","response":"present","rt":1395.6000000006,"correct":true,"confidence":-1},{"trial_n":3,"min":25,"max":230,"target":"absent","response":"absent","rt":1364.9000000004,"correct":true,"confidence":-1},{"trial_n":4,"min":41,"max":214,"target":"absent","response":"absent","rt":891.59999999963,"correct":true,"confidence":-1},{"trial_n":5,"min":41,"max":214,"target":"present","response":"present","rt":1087.3000000007,"correct":true,"confidence":-1},{"trial_n":6,"min":57,"max":198,"target":"present","response":"present","rt":1405.6999999993,"correct":true,"confidence":-1},{"trial_n":7,"min":57,"max":198,"target":"present","response":"present","rt":776.40000000037,"correct":true,"confidence":-1},{"trial_n":8,"min":73,"max":182,"target":"absent","response":"absent","rt":860.89999999944,"correct":true,"confidence":-1},{"trial_n":9,"min":73,"max":182,"target":"present","response":"present","rt":1078.0999999996,"correct":true,"confidence":-1},{"trial_n":10,"min":89,"max":166,"target":"absent","response":"absent","rt":1649.8000000007,"correct":true,"confidence":-1},{"trial_n":11,"min":89,"max":166,"target":"present","response":"absent","rt":814,"correct":false,"confidence":-1},{"trial_n":12,"min":81,"max":174,"target":"absent","response":"absent","rt":634.90000000037,"correct":true,"confidence":-1},{"trial_n":13,"min":81,"max":174,"target":"present","response":"present","rt":1348.2000000002,"correct":true,"confidence":-1},{"trial_n":14,"min":89,"max":166,"target":"absent","response":"present","rt":715.70000000019,"correct":false,"confidence":-1},{"trial_n":15,"min":81,"max":174,"target":"absent","response":"present","rt":973.20000000019,"correct":false,"confidence":-1},{"trial_n":16,"min":73,"max":182,"target":"absent","response":"absent","rt":950.40000000037,"correct":true,"confidence":-1},{"trial_n":17,"min":73,"max":182,"target":"present","response":"present","rt":1876.9000000004,"correct":true,"confidence":-1},{"trial_n":18,"min":81,"max":174,"target":"absent","response":"present","rt":669.70000000019,"correct":false,"confidence":-1},{"trial_n":19,"min":73,"max":182,"target":"absent","response":"absent","rt":1093.7000000002,"correct":true,"confidence":-1},{"trial_n":20,"min":73,"max":182,"target":"absent","response":"absent","rt":638.70000000019,"correct":true,"confidence":-1},{"trial_n":21,"min":77,"max":178,"target":"present","response":"present","rt":1069.7999999998,"correct":true,"confidence":3},{"trial_n":22,"min":77,"max":178,"target":"absent","response":"absent","rt":1158.0999999996,"correct":true,"confidence":2},{"trial_n":23,"min":81,"max":174,"target":"present","response":"absent","rt":1712.7000000002,"correct":false,"confidence":2},{"trial_n":24,"min":77,"max":178,"target":"present","response":"present","rt":863.59999999963,"correct":true,"confidence":4},{"trial_n":25,"min":77,"max":178,"target":"absent","response":"absent","rt":1669.6000000006,"correct":true,"confidence":1},{"trial_n":26,"min":81,"max":174,"target":"present","response":"present","rt":1072.2999999998,"correct":true,"confidence":4},{"trial_n":27,"min":81,"max":174,"target":"present","response":"absent","rt":2620,"correct":false,"confidence":1},{"trial_n":28,"min":77,"max":178,"target":"absent","response":"absent","rt":927.29999999981,"correct":true,"confidence":1},{"trial_n":29,"min":77,"max":178,"target":"present","response":"present","rt":934,"correct":true,"confidence":4},{"trial_n":30,"min":81,"max":174,"target":"absent","response":"absent","rt":1785.0999999996,"correct":true,"confidence":1},{"trial_n":31,"min":81,"max":174,"target":"present","response":"present","rt":889.90000000037,"correct":true,"confidence":3},{"trial_n":32,"min":83,"max":172,"target":"absent","response":"absent","rt":1232.4000000004,"correct":true,"confidence":4},{"trial_n":33,"min":83,"max":172,"target":"present","response":"present","rt":925.79999999981,"correct":true,"confidence":4},{"trial_n":34,"min":85,"max":170,"target":"present","response":"absent","rt":1208.2999999998,"correct":false,"confidence":1},{"trial_n":35,"min":83,"max":172,"target":"absent","response":"absent","rt":1727.0999999996,"correct":true,"confidence":1},{"trial_n":36,"min":83,"max":172,"target":"present","response":"absent","rt":1088.2999999998,"correct":false,"confidence":3},{"trial_n":37,"min":81,"max":174,"target":"present","response":"absent","rt":1126,"correct":false,"confidence":3},{"trial_n":38,"min":79,"max":176,"target":"absent","response":"absent","rt":1126.7000000002,"correct":true,"confidence":4},{"trial_n":39,"min":79,"max":176,"target":"absent","response":"absent","rt":1194.7999999998,"correct":true,"confidence":2},{"trial_n":40,"min":81,"max":174,"target":"absent","response":"absent","rt":1197,"correct":true,"confidence":4},{"trial_n":41,"min":81,"max":174,"target":"present","response":"present","rt":1064.5,"correct":true,"confidence":3},{"trial_n":42,"min":82,"max":173,"target":"absent","response":"absent","rt":1814.0999999996,"correct":true,"confidence":2},{"trial_n":43,"min":82,"max":173,"target":"present","response":"present","rt":815.5,"correct":true,"confidence":5},{"trial_n":44,"min":83,"max":172,"target":"present","response":"present","rt":1404.1999999993,"correct":true,"confidence":3},{"trial_n":45,"min":83,"max":172,"target":"absent","response":"absent","rt":1311.2000000002,"correct":true,"confidence":2},{"trial_n":46,"min":84,"max":171,"target":"present","response":"present","rt":785.10000000056,"correct":true,"confidence":5},{"trial_n":47,"min":84,"max":171,"target":"present","response":"present","rt":2713.2000000002,"correct":true,"confidence":2},{"trial_n":48,"min":85,"max":170,"target":"absent","response":"absent","rt":994.79999999981,"correct":true,"confidence":2},{"trial_n":49,"min":85,"max":170,"target":"absent","response":"absent","rt":1046.5,"correct":true,"confidence":3},{"trial_n":50,"min":86,"max":169,"target":"present","response":"present","rt":1759.0999999996,"correct":true,"confidence":3},{"trial_n":51,"min":86,"max":169,"target":"absent","response":"absent","rt":1428.7999999998,"correct":true,"confidence":2},{"trial_n":52,"min":87,"max":168,"target":"absent","response":"absent","rt":1187.5,"correct":true,"confidence":2},{"trial_n":53,"min":87,"max":168,"target":"present","response":"present","rt":858.29999999981,"correct":true,"confidence":3},{"trial_n":54,"min":88,"max":167,"target":"present","response":"absent","rt":1126.2000000002,"correct":false,"confidence":1},{"trial_n":55,"min":87,"max":168,"target":"present","response":"present","rt":1209.7999999998,"correct":true,"confidence":3},{"trial_n":56,"min":87,"max":168,"target":"absent","response":"absent","rt":1065.2999999998,"correct":true,"confidence":3},{"trial_n":57,"min":88,"max":167,"target":"absent","response":"present","rt":1081.4000000004,"correct":false,"confidence":2},{"trial_n":58,"min":87,"max":168,"target":"present","response":"absent","rt":3972.4000000004,"correct":false,"confidence":1},{"trial_n":59,"min":86,"max":169,"target":"absent","response":"absent","rt":1072.3999999994,"correct":true,"confidence":3},{"trial_n":60,"min":86,"max":169,"target":"present","response":"present","rt":2121.5,"correct":true,"confidence":2},{"trial_n":61,"min":87,"max":168,"target":"absent","response":"present","rt":1125.4000000004,"correct":false,"confidence":2},{"trial_n":62,"min":86,"max":169,"target":"absent","response":"absent","rt":1147.5,"correct":true,"confidence":2},{"trial_n":63,"min":86,"max":169,"target":"present","response":"present","rt":1966.6000000006,"correct":true,"confidence":2},{"trial_n":64,"min":87,"max":168,"target":"present","response":"present","rt":967.5,"correct":true,"confidence":3},{"trial_n":65,"min":87,"max":168,"target":"present","response":"absent","rt":956.20000000019,"correct":false,"confidence":3},{"trial_n":66,"min":86,"max":169,"target":"absent","response":"absent","rt":1480.2000000002,"correct":true,"confidence":4},{"trial_n":67,"min":86,"max":169,"target":"absent","response":"absent","rt":1345.9000000004,"correct":true,"confidence":2},{"trial_n":68,"min":87,"max":168,"target":"present","response":"present","rt":2865.4000000004,"correct":true,"confidence":2},{"trial_n":69,"min":87,"max":168,"target":"absent","response":"absent","rt":1609.5,"correct":true,"confidence":3},{"trial_n":70,"min":88,"max":167,"target":"present","response":"present","rt":1053,"correct":true,"confidence":3},{"trial_n":71,"min":41,"max":214,"target":"present","response":"present","rt":1787.5,"correct":true,"confidence":-1},{"trial_n":72,"min":41,"max":214,"target":"present","response":"present","rt":838.69999999925,"correct":true,"confidence":-1},{"trial_n":73,"min":57,"max":198,"target":"absent","response":"absent","rt":967.60000000056,"correct":true,"confidence":-1},{"trial_n":74,"min":57,"max":198,"target":"absent","response":"absent","rt":685,"correct":true,"confidence":-1},{"trial_n":75,"min":73,"max":182,"target":"present","response":"present","rt":932.29999999981,"correct":true,"confidence":-1},{"trial_n":76,"min":73,"max":182,"target":"absent","response":"present","rt":1110.3999999994,"correct":false,"confidence":-1},{"trial_n":77,"min":57,"max":198,"target":"present","response":"present","rt":804.70000000019,"correct":true,"confidence":-1},{"trial_n":78,"min":57,"max":198,"target":"absent","response":"absent","rt":909,"correct":true,"confidence":-1},{"trial_n":79,"min":73,"max":182,"target":"absent","response":"absent","rt":871.40000000037,"correct":true,"confidence":-1},{"trial_n":80,"min":73,"max":182,"target":"present","response":"present","rt":1863.2999999998,"correct":true,"confidence":-1},{"trial_n":81,"min":81,"max":174,"target":"present","response":"present","rt":672.10000000056,"correct":true,"confidence":-1},{"trial_n":82,"min":81,"max":174,"target":"absent","response":"present","rt":618.90000000037,"correct":false,"confidence":-1},{"trial_n":83,"min":73,"max":182,"target":"present","response":"present","rt":388.20000000019,"correct":true,"confidence":-1},{"trial_n":84,"min":73,"max":182,"target":"present","response":"present","rt":472.90000000037,"correct":true,"confidence":-1},{"trial_n":85,"min":81,"max":174,"target":"absent","response":"absent","rt":1236.5,"correct":true,"confidence":-1},{"trial_n":86,"min":81,"max":174,"target":"present","response":"absent","rt":806.5,"correct":false,"confidence":-1},{"trial_n":87,"min":73,"max":182,"target":"present","response":"present","rt":850.70000000019,"correct":true,"confidence":-1},{"trial_n":88,"min":73,"max":182,"target":"present","response":"present","rt":1121.2999999998,"correct":true,"confidence":-1},{"trial_n":89,"min":81,"max":174,"target":"present","response":"present","rt":1070,"correct":true,"confidence":-1},{"trial_n":90,"min":81,"max":174,"target":"absent","response":"absent","rt":1500,"correct":true,"confidence":-1},{"trial_n":91,"min":85,"max":170,"target":"present","response":"present","rt":803.29999999981,"correct":true,"confidence":4},{"trial_n":92,"min":85,"max":170,"target":"absent","response":"absent","rt":1310.9000000004,"correct":true,"confidence":3},{"trial_n":93,"min":89,"max":166,"target":"absent","response":"present","rt":1025.2000000002,"correct":false,"confidence":2},{"trial_n":94,"min":85,"max":170,"target":"absent","response":"present","rt":1110,"correct":false,"confidence":2},{"trial_n":95,"min":81,"max":174,"target":"absent","response":"present","rt":1076.1000000006,"correct":false,"confidence":3},{"trial_n":96,"min":77,"max":178,"target":"present","response":"present","rt":796.5,"correct":true,"confidence":4},{"trial_n":97,"min":77,"max":178,"target":"absent","response":"absent","rt":875.60000000056,"correct":true,"confidence":2},{"trial_n":98,"min":81,"max":174,"target":"absent","response":"absent","rt":1010.5,"correct":true,"confidence":4},{"trial_n":99,"min":81,"max":174,"target":"present","response":"present","rt":1342.7000000002,"correct":true,"confidence":3},{"trial_n":100,"min":85,"max":170,"target":"present","response":"absent","rt":47224.3,"correct":false,"confidence":1},{"trial_n":101,"min":83,"max":172,"target":"present","response":"present","rt":986.20000000019,"correct":true,"confidence":2},{"trial_n":102,"min":83,"max":172,"target":"present","response":"present","rt":859.10000000056,"correct":true,"confidence":3},{"trial_n":103,"min":85,"max":170,"target":"absent","response":"present","rt":992.60000000056,"correct":false,"confidence":2},{"trial_n":104,"min":83,"max":172,"target":"present","response":"present","rt":626.70000000019,"correct":true,"confidence":4},{"trial_n":105,"min":83,"max":172,"target":"absent","response":"present","rt":1178.9000000004,"correct":false,"confidence":1},{"trial_n":106,"min":81,"max":174,"target":"present","response":"present","rt":812.29999999981,"correct":true,"confidence":3},{"trial_n":107,"min":81,"max":174,"target":"present","response":"present","rt":1833.7999999998,"correct":true,"confidence":3},{"trial_n":108,"min":83,"max":172,"target":"present","response":"absent","rt":891.90000000037,"correct":false,"confidence":3},{"trial_n":109,"min":81,"max":174,"target":"present","response":"present","rt":1026,"correct":true,"confidence":3},{"trial_n":110,"min":81,"max":174,"target":"absent","response":"present","rt":895.29999999981,"correct":false,"confidence":2},{"trial_n":111,"min":80,"max":175,"target":"present","response":"present","rt":1219,"correct":true,"confidence":1},{"trial_n":112,"min":80,"max":175,"target":"absent","response":"present","rt":1298.4000000004,"correct":false,"confidence":1},{"trial_n":113,"min":79,"max":176,"target":"present","response":"present","rt":824,"correct":true,"confidence":3},{"trial_n":114,"min":79,"max":176,"target":"absent","response":"present","rt":1396.3000000007,"correct":false,"confidence":1},{"trial_n":115,"min":78,"max":177,"target":"absent","response":"absent","rt":922.39999999944,"correct":true,"confidence":2},{"trial_n":116,"min":78,"max":177,"target":"absent","response":"absent","rt":1204.7999999998,"correct":true,"confidence":2},{"trial_n":117,"min":79,"max":176,"target":"present","response":"present","rt":796.70000000019,"correct":true,"confidence":2},{"trial_n":118,"min":79,"max":176,"target":"absent","response":"absent","rt":1560.3000000007,"correct":true,"confidence":3},{"trial_n":119,"min":80,"max":175,"target":"present","response":"present","rt":741.79999999981,"correct":true,"confidence":5},{"trial_n":120,"min":80,"max":175,"target":"present","response":"present","rt":1098.6000000006,"correct":true,"confidence":5},{"trial_n":121,"min":81,"max":174,"target":"present","response":"present","rt":1169.1000000006,"correct":true,"confidence":3},{"trial_n":122,"min":81,"max":174,"target":"present","response":"present","rt":942,"correct":true,"confidence":4},{"trial_n":123,"min":82,"max":173,"target":"absent","response":"absent","rt":1486.7999999998,"correct":true,"confidence":3},{"trial_n":124,"min":82,"max":173,"target":"absent","response":"present","rt":1674.2999999998,"correct":false,"confidence":1},{"trial_n":125,"min":81,"max":174,"target":"present","response":"present","rt":957.60000000056,"correct":true,"confidence":1},{"trial_n":126,"min":81,"max":174,"target":"absent","response":"absent","rt":1645.7000000002,"correct":true,"confidence":1},{"trial_n":127,"min":82,"max":173,"target":"absent","response":"absent","rt":1463.2999999998,"correct":true,"confidence":2},{"trial_n":128,"min":82,"max":173,"target":"absent","response":"absent","rt":1777.4000000004,"correct":true,"confidence":2},{"trial_n":129,"min":83,"max":172,"target":"absent","response":"absent","rt":1745.6000000006,"correct":true,"confidence":2},{"trial_n":130,"min":83,"max":172,"target":"absent","response":"absent","rt":1228.2000000002,"correct":true,"confidence":3},{"trial_n":131,"min":84,"max":171,"target":"present","response":"present","rt":1263.2999999998,"correct":true,"confidence":4},{"trial_n":132,"min":84,"max":171,"target":"absent","response":"absent","rt":1329.2999999998,"correct":true,"confidence":1},{"trial_n":133,"min":85,"max":170,"target":"present","response":"present","rt":807.59999999963,"correct":true,"confidence":3},{"trial_n":134,"min":85,"max":170,"target":"absent","response":"absent","rt":1142.8999999994,"correct":true,"confidence":3},{"trial_n":135,"min":86,"max":169,"target":"absent","response":"present","rt":2011.1000000006,"correct":false,"confidence":1},{"trial_n":136,"min":85,"max":170,"target":"absent","response":"absent","rt":942.40000000037,"correct":true,"confidence":3},{"trial_n":137,"min":85,"max":170,"target":"present","response":"present","rt":827.40000000037,"correct":true,"confidence":4},{"trial_n":138,"min":86,"max":169,"target":"absent","response":"absent","rt":1078.7000000002,"correct":true,"confidence":1},{"trial_n":139,"min":86,"max":169,"target":"present","response":"present","rt":1260.1000000006,"correct":true,"confidence":3},{"trial_n":140,"min":87,"max":168,"target":"present","response":"absent","rt":3075.1000000006,"correct":false,"confidence":2}]