[{"trial_n":1,"n_dots":4.25,"target":"right","response":"left","rt":8270.5,"correct":false,"confidence":-1},{"trial_n":2,"n_dots":4.25,"target":"right","response":"right","rt":404,"correct":true,"confidence":-1},{"trial_n":3,"n_dots":4.25,"target":"left","response":"left","rt":280.40000009537,"correct":true,"confidence":-1},{"trial_n":4,"n_dots":3.85,"target":"right","response":"right","rt":877.29999995232,"correct":true,"confidence":-1},{"trial_n":5,"n_dots":3.85,"target":"left","response":"left","rt":422.89999985695,"correct":true,"confidence":-1},{"trial_n":6,"n_dots":3.45,"target":"right","response":"right","rt":111.20000004768,"correct":true,"confidence":-1},{"trial_n":7,"n_dots":3.45,"target":"left","response":"left","rt":617.70000004768,"correct":true,"confidence":-1},{"trial_n":8,"n_dots":3.25,"target":"right","response":"right","rt":396.89999985695,"correct":true,"confidence":-1},{"trial_n":9,"n_dots":3.25,"target":"right","response":"left","rt":44.100000143051,"correct":false,"confidence":-1},{"trial_n":10,"n_dots":3.45,"target":"left","response":"left","rt":735.80000019073,"correct":true,"confidence":-1},{"trial_n":11,"n_dots":3.45,"target":"right","response":"right","rt":229.39999985695,"correct":true,"confidence":-1},{"trial_n":12,"n_dots":3.25,"target":"left","response":"left","rt":577.70000004768,"correct":true,"confidence":-1},{"trial_n":13,"n_dots":3.25,"target":"left","response":"right","rt":138.19999980927,"correct":false,"confidence":-1},{"trial_n":14,"n_dots":3.35,"target":"left","response":"left","rt":361.20000004768,"correct":true,"confidence":-1},{"trial_n":15,"n_dots":3.35,"target":"left","response":"left","rt":479.40000009537,"correct":true,"confidence":-1},{"trial_n":16,"n_dots":3.25,"target":"left","response":"left","rt":246.90000009537,"correct":true,"confidence":-1},{"trial_n":17,"n_dots":3.25,"target":"right","response":"right","rt":164,"correct":true,"confidence":-1},{"trial_n":18,"n_dots":3.15,"target":"right","response":"right","rt":13.800000190735,"correct":true,"confidence":-1},{"trial_n":19,"n_dots":3.15,"target":"left","response":"left","rt":490,"correct":true,"confidence":-1},{"trial_n":20,"n_dots":3.05,"target":"left","response":"right","rt":161.79999995232,"correct":false,"confidence":-1},{"trial_n":21,"n_dots":3.15,"target":"left","response":"left","rt":690.5,"correct":true,"confidence":3},{"trial_n":22,"n_dots":3.15,"target":"right","response":"right","rt":325.90000009537,"correct":true,"confidence":2},{"trial_n":23,"n_dots":3.05,"target":"left","response":"right","rt":622.09999990463,"correct":false,"confidence":3},{"trial_n":24,"n_dots":3.15,"target":"right","response":"left","rt":596.29999995232,"correct":false,"confidence":4},{"trial_n":25,"n_dots":3.25,"target":"left","response":"left","rt":668.5,"correct":true,"confidence":4},{"trial_n":26,"n_dots":3.25,"target":"right","response":"right","rt":32.399999856949,"correct":true,"confidence":4},{"trial_n":27,"n_dots":3.15,"target":"left","response":"left","rt":452.59999990463,"correct":true,"confidence":3},{"trial_n":28,"n_dots":3.15,"target":"right","response":"right","rt":51.300000190735,"correct":true,"confidence":3},{"trial_n":29,"n_dots":3.05,"target":"left","response":"right","rt":1030,"correct":false,"confidence":2},{"trial_n":30,"n_dots":3.15,"target":"left","response":"left","rt":162.90000009537,"correct":true,"confidence":2},{"trial_n":31,"n_dots":3.15,"target":"right","response":"right","rt":455.09999990463,"correct":true,"confidence":3},{"trial_n":32,"n_dots":3.05,"target":"left","response":"left","rt":511.70000004768,"correct":true,"confidence":3},{"trial_n":33,"n_dots":3.05,"target":"right","response":"right","rt":573.5,"correct":true,"confidence":4},{"trial_n":34,"n_dots":2.95,"target":"right","response":"right","rt":851.40000009537,"correct":true,"confidence":3},{"trial_n":35,"n_dots":2.95,"target":"left","response":"left","rt":66,"correct":true,"confidence":3},{"trial_n":36,"n_dots":2.85,"target":"right","response":"right","rt":266.70000004768,"correct":true,"confidence":3},{"trial_n":37,"n_dots":2.85,"target":"right","response":"right","rt":362.5,"correct":true,"confidence":3},{"trial_n":38,"n_dots":2.75,"target":"right","response":"right","rt":1190.8999998569,"correct":true,"confidence":4},{"trial_n":39,"n_dots":2.75,"target":"right","response":"left","rt":39.200000047684,"correct":false,"confidence":4},{"trial_n":40,"n_dots":2.85,"target":"right","response":"right","rt":333.59999990463,"correct":true,"confidence":4},{"trial_n":41,"n_dots":2.85,"target":"right","response":"left","rt":47.699999809265,"correct":false,"confidence":2},{"trial_n":42,"n_dots":2.95,"target":"left","response":"right","rt":325.10000014305,"correct":false,"confidence":4},{"trial_n":43,"n_dots":3.05,"target":"right","response":"right","rt":649.19999980927,"correct":true,"confidence":4},{"trial_n":44,"n_dots":3.05,"target":"left","response":"left","rt":420.29999995232,"correct":true,"confidence":4},{"trial_n":45,"n_dots":2.95,"target":"left","response":"right","rt":920.70000004768,"correct":false,"confidence":3},{"trial_n":46,"n_dots":3.05,"target":"right","response":"right","rt":61.200000047684,"correct":true,"confidence":3},{"trial_n":47,"n_dots":3.05,"target":"right","response":"right","rt":156.60000014305,"correct":true,"confidence":3},{"trial_n":48,"n_dots":2.95,"target":"left","response":"left","rt":366.5,"correct":true,"confidence":2},{"trial_n":49,"n_dots":2.95,"target":"right","response":"right","rt":313.19999980927,"correct":true,"confidence":3},{"trial_n":50,"n_dots":2.85,"target":"left","response":"left","rt":521.30000019073,"correct":true,"confidence":3},{"trial_n":51,"n_dots":2.85,"target":"right","response":"right","rt":232.09999990463,"correct":true,"confidence":4},{"trial_n":52,"n_dots":2.75,"target":"left","response":"left","rt":375,"correct":true,"confidence":3},{"trial_n":53,"n_dots":2.75,"target":"left","response":"left","rt":295.60000014305,"correct":true,"confidence":4},{"trial_n":54,"n_dots":2.65,"target":"right","response":"right","rt":37.5,"correct":true,"confidence":3},{"trial_n":55,"n_dots":2.65,"target":"right","response":"right","rt":538.09999990463,"correct":true,"confidence":3},{"trial_n":56,"n_dots":2.55,"target":"right","response":"right","rt":158.20000004768,"correct":true,"confidence":4},{"trial_n":57,"n_dots":2.55,"target":"left","response":"left","rt":309.5,"correct":true,"confidence":2},{"trial_n":58,"n_dots":2.45,"target":"right","response":"right","rt":198.79999995232,"correct":true,"confidence":3},{"trial_n":59,"n_dots":2.45,"target":"right","response":"right","rt":187.80000019073,"correct":true,"confidence":3},{"trial_n":60,"n_dots":2.35,"target":"right","response":"right","rt":91.599999904633,"correct":true,"confidence":3},{"trial_n":61,"n_dots":2.35,"target":"right","response":"right","rt":734.5,"correct":true,"confidence":1},{"trial_n":62,"n_dots":2.25,"target":"right","response":"left","rt":385.20000004768,"correct":false,"confidence":3},{"trial_n":63,"n_dots":2.35,"target":"right","response":"left","rt":441.59999990463,"correct":false,"confidence":4},{"trial_n":64,"n_dots":2.45,"target":"left","response":"right","rt":250.89999985695,"correct":false,"confidence":4},{"trial_n":65,"n_dots":2.55,"target":"right","response":"left","rt":499.70000004768,"correct":false,"confidence":3},{"trial_n":66,"n_dots":2.65,"target":"right","response":"right","rt":384.59999990463,"correct":true,"confidence":4},{"trial_n":67,"n_dots":2.65,"target":"left","response":"left","rt":318.90000009537,"correct":true,"confidence":2},{"trial_n":68,"n_dots":2.55,"target":"left","response":"right","rt":1416.0999999046,"correct":false,"confidence":3},{"trial_n":69,"n_dots":2.65,"target":"left","response":"right","rt":596.89999985695,"correct":false,"confidence":3},{"trial_n":70,"n_dots":2.75,"target":"left","response":"left","rt":551.70000004768,"correct":true,"confidence":3},{"trial_n":71,"n_dots":2.75,"target":"left","response":"left","rt":82.300000190735,"correct":true,"confidence":2},{"trial_n":72,"n_dots":2.65,"target":"left","response":"right","rt":170.20000004768,"correct":false,"confidence":2},{"trial_n":73,"n_dots":2.75,"target":"left","response":"left","rt":17.5,"correct":true,"confidence":3},{"trial_n":74,"n_dots":2.75,"target":"left","response":"left","rt":1068.5,"correct":true,"confidence":2},{"trial_n":75,"n_dots":2.65,"target":"left","response":"right","rt":438.20000004768,"correct":false,"confidence":2},{"trial_n":76,"n_dots":2.75,"target":"left","response":"left","rt":660.90000009537,"correct":true,"confidence":3},{"trial_n":77,"n_dots":2.75,"target":"right","response":"right","rt":404.09999990463,"correct":true,"confidence":3},{"trial_n":78,"n_dots":2.65,"target":"left","response":"left","rt":581.20000004768,"correct":true,"confidence":3},{"trial_n":79,"n_dots":2.65,"target":"right","response":"right","rt":259,"correct":true,"confidence":4},{"trial_n":80,"n_dots":2.55,"target":"right","response":"right","rt":589.79999995232,"correct":true,"confidence":3},{"trial_n":81,"n_dots":2.55,"target":"left","response":"left","rt":384.20000004768,"correct":true,"confidence":3},{"trial_n":82,"n_dots":2.45,"target":"right","response":"right","rt":449.89999985695,"correct":true,"confidence":4},{"trial_n":83,"n_dots":2.45,"target":"left","response":"right","rt":459.10000014305,"correct":false,"confidence":4},{"trial_n":84,"n_dots":2.55,"target":"left","response":"left","rt":454.79999995232,"correct":true,"confidence":4},{"trial_n":85,"n_dots":2.55,"target":"left","response":"right","rt":455.09999990463,"correct":false,"confidence":4},{"trial_n":86,"n_dots":2.65,"target":"right","response":"right","rt":145.29999995232,"correct":true,"confidence":4},{"trial_n":87,"n_dots":2.65,"target":"left","response":"left","rt":657.19999980927,"correct":true,"confidence":4},{"trial_n":88,"n_dots":2.55,"target":"left","response":"right","rt":394.29999995232,"correct":false,"confidence":3},{"trial_n":89,"n_dots":2.65,"target":"left","response":"left","rt":587.80000019073,"correct":true,"confidence":3},{"trial_n":90,"n_dots":2.65,"target":"left","response":"right","rt":517.09999990463,"correct":false,"confidence":3},{"trial_n":91,"n_dots":2.75,"target":"right","response":"right","rt":317.70000004768,"correct":true,"confidence":3},{"trial_n":92,"n_dots":2.75,"target":"right","response":"left","rt":183.29999995232,"correct":false,"confidence":3},{"trial_n":93,"n_dots":2.85,"target":"left","response":"left","rt":434.5,"correct":true,"confidence":4},{"trial_n":94,"n_dots":2.85,"target":"left","response":"left","rt":811.20000004768,"correct":true,"confidence":1},{"trial_n":95,"n_dots":2.75,"target":"left","response":"left","rt":562.60000014305,"correct":true,"confidence":2},{"trial_n":96,"n_dots":2.75,"target":"right","response":"right","rt":1028.5,"correct":true,"confidence":1},{"trial_n":97,"n_dots":2.65,"target":"right","response":"left","rt":96.899999856949,"correct":false,"confidence":2},{"trial_n":98,"n_dots":2.75,"target":"left","response":"right","rt":128.59999990463,"correct":false,"confidence":3},{"trial_n":99,"n_dots":2.85,"target":"right","response":"left","rt":18.199999809265,"correct":false,"confidence":1},{"trial_n":100,"n_dots":2.95,"target":"left","response":"left","rt":151.29999995232,"correct":true,"confidence":3},{"trial_n":101,"n_dots":2.95,"target":"right","response":"left","rt":111.69999980927,"correct":false,"confidence":2},{"trial_n":102,"n_dots":3.05,"target":"left","response":"right","rt":344.5,"correct":false,"confidence":3},{"trial_n":103,"n_dots":3.15,"target":"right","response":"right","rt":1004.2000000477,"correct":true,"confidence":3},{"trial_n":104,"n_dots":3.15,"target":"left","response":"right","rt":531.20000004768,"correct":false,"confidence":3},{"trial_n":105,"n_dots":3.25,"target":"right","response":"left","rt":484.70000004768,"correct":false,"confidence":2},{"trial_n":106,"n_dots":3.35,"target":"left","response":"right","rt":956.29999995232,"correct":false,"confidence":3},{"trial_n":107,"n_dots":3.45,"target":"left","response":"left","rt":552.5,"correct":true,"confidence":4},{"trial_n":108,"n_dots":3.45,"target":"right","response":"right","rt":346.40000009537,"correct":true,"confidence":4},{"trial_n":109,"n_dots":3.35,"target":"right","response":"right","rt":185,"correct":true,"confidence":4},{"trial_n":110,"n_dots":3.35,"target":"right","response":"right","rt":767.39999985695,"correct":true,"confidence":3},{"trial_n":111,"n_dots":3.25,"target":"left","response":"left","rt":654.5,"correct":true,"confidence":3},{"trial_n":112,"n_dots":3.25,"target":"left","response":"right","rt":886.10000014305,"correct":false,"confidence":3},{"trial_n":113,"n_dots":3.35,"target":"right","response":"left","rt":531.40000009537,"correct":false,"confidence":1},{"trial_n":114,"n_dots":3.45,"target":"left","response":"right","rt":510.80000019073,"correct":false,"confidence":1},{"trial_n":115,"n_dots":3.55,"target":"right","response":"right","rt":428,"correct":true,"confidence":4},{"trial_n":116,"n_dots":3.55,"target":"right","response":"right","rt":854.29999995232,"correct":true,"confidence":2},{"trial_n":117,"n_dots":3.45,"target":"right","response":"right","rt":-0.29999995231628,"correct":true,"confidence":3},{"trial_n":118,"n_dots":3.45,"target":"left","response":"left","rt":43.400000095367,"correct":true,"confidence":3},{"trial_n":119,"n_dots":3.35,"target":"right","response":"right","rt":31.200000047684,"correct":true,"confidence":3},{"trial_n":120,"n_dots":3.35,"target":"right","response":"right","rt":663,"correct":true,"confidence":3}]