[{"trial_n":1,"min":25,"max":230,"target":"present","response":"present","rt":8216.0999999642,"correct":true,"confidence":-1},{"trial_n":2,"min":25,"max":230,"target":"present","response":"present","rt":1309.8999999762,"correct":true,"confidence":-1},{"trial_n":3,"min":41,"max":214,"target":"absent","response":"absent","rt":1347.4000000358,"correct":true,"confidence":-1},{"trial_n":4,"min":41,"max":214,"target":"absent","response":"absent","rt":765.10000002384,"correct":true,"confidence":-1},{"trial_n":5,"min":57,"max":198,"target":"present","response":"present","rt":738.09999996424,"correct":true,"confidence":-1},{"trial_n":6,"min":57,"max":198,"target":"present","response":"present","rt":732.89999997616,"correct":true,"confidence":-1},{"trial_n":7,"min":73,"max":182,"target":"absent","response":"absent","rt":538.59999996424,"correct":true,"confidence":-1},{"trial_n":8,"min":73,"max":182,"target":"absent","response":"absent","rt":621.19999998808,"correct":true,"confidence":-1},{"trial_n":9,"min":89,"max":166,"target":"absent","response":"absent","rt":609.59999996424,"correct":true,"confidence":-1},{"trial_n":10,"min":89,"max":166,"target":"absent","response":"absent","rt":698.10000002384,"correct":true,"confidence":-1},{"trial_n":11,"min":97,"max":158,"target":"absent","response":"absent","rt":441.39999997616,"correct":true,"confidence":-1},{"trial_n":12,"min":97,"max":158,"target":"present","response":"absent","rt":444.29999995232,"correct":false,"confidence":-1},{"trial_n":13,"min":89,"max":166,"target":"present","response":"absent","rt":713,"correct":false,"confidence":-1},{"trial_n":14,"min":81,"max":174,"target":"present","response":"present","rt":791.19999998808,"correct":true,"confidence":-1},{"trial_n":15,"min":81,"max":174,"target":"absent","response":"absent","rt":584.09999996424,"correct":true,"confidence":-1},{"trial_n":16,"min":89,"max":166,"target":"present","response":"present","rt":847.19999998808,"correct":true,"confidence":-1},{"trial_n":17,"min":89,"max":166,"target":"absent","response":"present","rt":763.10000002384,"correct":false,"confidence":-1},{"trial_n":18,"min":81,"max":174,"target":"absent","response":"present","rt":892.19999998808,"correct":false,"confidence":-1},{"trial_n":19,"min":73,"max":182,"target":"present","response":"present","rt":738.09999996424,"correct":true,"confidence":-1},{"trial_n":20,"min":73,"max":182,"target":"absent","response":"absent","rt":556.89999997616,"correct":true,"confidence":-1},{"trial_n":21,"min":77,"max":178,"target":"present","response":"present","rt":919.60000002384,"correct":true,"confidence":4},{"trial_n":22,"min":77,"max":178,"target":"present","response":"present","rt":1662.8000000119,"correct":true,"confidence":3},{"trial_n":23,"min":81,"max":174,"target":"absent","response":"absent","rt":980.19999998808,"correct":true,"confidence":3},{"trial_n":24,"min":81,"max":174,"target":"present","response":"present","rt":1328.6000000238,"correct":true,"confidence":2},{"trial_n":25,"min":85,"max":170,"target":"present","response":"present","rt":1180.7000000477,"correct":true,"confidence":3},{"trial_n":26,"min":85,"max":170,"target":"absent","response":"absent","rt":748.69999998808,"correct":true,"confidence":4},{"trial_n":27,"min":89,"max":166,"target":"present","response":"present","rt":1016.6000000238,"correct":true,"confidence":3},{"trial_n":28,"min":89,"max":166,"target":"absent","response":"present","rt":1471.8000000119,"correct":false,"confidence":3},{"trial_n":29,"min":85,"max":170,"target":"present","response":"present","rt":1854.1000000238,"correct":true,"confidence":4},{"trial_n":30,"min":85,"max":170,"target":"present","response":"absent","rt":1068.3999999762,"correct":false,"confidence":2},{"trial_n":31,"min":83,"max":172,"target":"absent","response":"absent","rt":1055.2000000477,"correct":true,"confidence":3},{"trial_n":32,"min":83,"max":172,"target":"present","response":"present","rt":1677,"correct":true,"confidence":3},{"trial_n":33,"min":85,"max":170,"target":"present","response":"absent","rt":2137.6999999881,"correct":false,"confidence":4},{"trial_n":34,"min":83,"max":172,"target":"absent","response":"absent","rt":985.59999996424,"correct":true,"confidence":2},{"trial_n":35,"min":83,"max":172,"target":"absent","response":"absent","rt":1252.3000000119,"correct":true,"confidence":3},{"trial_n":36,"min":85,"max":170,"target":"absent","response":"present","rt":1037,"correct":false,"confidence":4},{"trial_n":37,"min":83,"max":172,"target":"present","response":"present","rt":865.10000002384,"correct":true,"confidence":5},{"trial_n":38,"min":83,"max":172,"target":"present","response":"present","rt":1616.6999999881,"correct":true,"confidence":2},{"trial_n":39,"min":85,"max":170,"target":"absent","response":"absent","rt":788.30000001192,"correct":true,"confidence":4},{"trial_n":40,"min":85,"max":170,"target":"present","response":"present","rt":1244.5,"correct":true,"confidence":4},{"trial_n":41,"min":86,"max":169,"target":"present","response":"absent","rt":1615.3000000119,"correct":false,"confidence":2},{"trial_n":42,"min":85,"max":170,"target":"absent","response":"present","rt":965.09999996424,"correct":false,"confidence":3},{"trial_n":43,"min":84,"max":171,"target":"absent","response":"present","rt":858.39999997616,"correct":false,"confidence":4},{"trial_n":44,"min":83,"max":172,"target":"present","response":"absent","rt":982,"correct":false,"confidence":3},{"trial_n":45,"min":82,"max":173,"target":"present","response":"present","rt":1179.5,"correct":true,"confidence":3},{"trial_n":46,"min":82,"max":173,"target":"present","response":"absent","rt":873.5,"correct":false,"confidence":4},{"trial_n":47,"min":81,"max":174,"target":"present","response":"present","rt":780.5,"correct":true,"confidence":4},{"trial_n":48,"min":81,"max":174,"target":"absent","response":"absent","rt":815.90000003576,"correct":true,"confidence":2},{"trial_n":49,"min":82,"max":173,"target":"present","response":"present","rt":754.09999996424,"correct":true,"confidence":5},{"trial_n":50,"min":82,"max":173,"target":"present","response":"absent","rt":1334.2000000477,"correct":false,"confidence":3},{"trial_n":51,"min":81,"max":174,"target":"present","response":"present","rt":721.09999996424,"correct":true,"confidence":3},{"trial_n":52,"min":81,"max":174,"target":"absent","response":"absent","rt":3092.1000000238,"correct":true,"confidence":1},{"trial_n":53,"min":82,"max":173,"target":"absent","response":"absent","rt":1634.3000000119,"correct":true,"confidence":2},{"trial_n":54,"min":82,"max":173,"target":"absent","response":"absent","rt":2220.6000000238,"correct":true,"confidence":2},{"trial_n":55,"min":83,"max":172,"target":"present","response":"absent","rt":1060.5999999642,"correct":false,"confidence":3},{"trial_n":56,"min":82,"max":173,"target":"present","response":"present","rt":1049.5,"correct":true,"confidence":2},{"trial_n":57,"min":82,"max":173,"target":"absent","response":"absent","rt":1071.5,"correct":true,"confidence":3},{"trial_n":58,"min":83,"max":172,"target":"absent","response":"absent","rt":1086.0999999642,"correct":true,"confidence":3},{"trial_n":59,"min":83,"max":172,"target":"absent","response":"present","rt":1489.4000000358,"correct":false,"confidence":3},{"trial_n":60,"min":82,"max":173,"target":"present","response":"present","rt":863.69999998808,"correct":true,"confidence":4},{"trial_n":61,"min":82,"max":173,"target":"present","response":"present","rt":966.5,"correct":true,"confidence":1},{"trial_n":62,"min":83,"max":172,"target":"absent","response":"present","rt":807.09999996424,"correct":false,"confidence":2},{"trial_n":63,"min":82,"max":173,"target":"absent","response":"absent","rt":1201.3999999762,"correct":true,"confidence":3},{"trial_n":64,"min":82,"max":173,"target":"absent","response":"present","rt":1452.1000000238,"correct":false,"confidence":3},{"trial_n":65,"min":81,"max":174,"target":"absent","response":"absent","rt":751,"correct":true,"confidence":1},{"trial_n":66,"min":81,"max":174,"target":"present","response":"present","rt":992.80000001192,"correct":true,"confidence":3},{"trial_n":67,"min":82,"max":173,"target":"absent","response":"absent","rt":813,"correct":true,"confidence":1},{"trial_n":68,"min":82,"max":173,"target":"present","response":"present","rt":896.69999998808,"correct":true,"confidence":4},{"trial_n":69,"min":83,"max":172,"target":"absent","response":"present","rt":1102,"correct":false,"confidence":3},{"trial_n":70,"min":82,"max":173,"target":"present","response":"present","rt":1144,"correct":true,"confidence":4},{"trial_n":71,"min":41,"max":214,"target":"present","response":"present","rt":2491.3000000119,"correct":true,"confidence":-1},{"trial_n":72,"min":41,"max":214,"target":"present","response":"present","rt":3167.1999999881,"correct":true,"confidence":-1},{"trial_n":73,"min":57,"max":198,"target":"absent","response":"absent","rt":1005.5,"correct":true,"confidence":-1},{"trial_n":74,"min":57,"max":198,"target":"absent","response":"absent","rt":699.69999998808,"correct":true,"confidence":-1},{"trial_n":75,"min":73,"max":182,"target":"present","response":"present","rt":689.60000002384,"correct":true,"confidence":-1},{"trial_n":76,"min":73,"max":182,"target":"present","response":"present","rt":614.89999997616,"correct":true,"confidence":-1},{"trial_n":77,"min":89,"max":166,"target":"present","response":"present","rt":826.5,"correct":true,"confidence":-1},{"trial_n":78,"min":89,"max":166,"target":"present","response":"present","rt":1472,"correct":true,"confidence":-1},{"trial_n":79,"min":105,"max":150,"target":"absent","response":"present","rt":629.09999996424,"correct":false,"confidence":-1},{"trial_n":80,"min":89,"max":166,"target":"present","response":"present","rt":635.30000001192,"correct":true,"confidence":-1},{"trial_n":81,"min":89,"max":166,"target":"absent","response":"absent","rt":1121.8000000119,"correct":true,"confidence":-1},{"trial_n":82,"min":97,"max":158,"target":"present","response":"present","rt":968.89999997616,"correct":true,"confidence":-1},{"trial_n":83,"min":97,"max":158,"target":"absent","response":"present","rt":726.90000003576,"correct":false,"confidence":-1},{"trial_n":84,"min":89,"max":166,"target":"absent","response":"absent","rt":589.80000001192,"correct":true,"confidence":-1},{"trial_n":85,"min":89,"max":166,"target":"present","response":"absent","rt":888.90000003576,"correct":false,"confidence":-1},{"trial_n":86,"min":81,"max":174,"target":"absent","response":"absent","rt":725.69999998808,"correct":true,"confidence":-1},{"trial_n":87,"min":81,"max":174,"target":"absent","response":"present","rt":621.19999998808,"correct":false,"confidence":-1},{"trial_n":88,"min":73,"max":182,"target":"present","response":"present","rt":1000.2000000477,"correct":true,"confidence":-1},{"trial_n":89,"min":73,"max":182,"target":"absent","response":"present","rt":1156.6999999881,"correct":false,"confidence":-1},{"trial_n":90,"min":65,"max":190,"target":"present","response":"absent","rt":831.19999998808,"correct":false,"confidence":-1},{"trial_n":91,"min":61,"max":194,"target":"absent","response":"absent","rt":868,"correct":true,"confidence":4},{"trial_n":92,"min":61,"max":194,"target":"present","response":"present","rt":1028.6000000238,"correct":true,"confidence":3},{"trial_n":93,"min":65,"max":190,"target":"absent","response":"absent","rt":1065.1000000238,"correct":true,"confidence":3},{"trial_n":94,"min":65,"max":190,"target":"present","response":"present","rt":685.79999995232,"correct":true,"confidence":5},{"trial_n":95,"min":69,"max":186,"target":"absent","response":"absent","rt":1496.0999999642,"correct":true,"confidence":3},{"trial_n":96,"min":69,"max":186,"target":"present","response":"present","rt":815.5,"correct":true,"confidence":4},{"trial_n":97,"min":73,"max":182,"target":"present","response":"present","rt":648.59999996424,"correct":true,"confidence":5},{"trial_n":98,"min":73,"max":182,"target":"present","response":"present","rt":757.19999998808,"correct":true,"confidence":2},{"trial_n":99,"min":77,"max":178,"target":"absent","response":"absent","rt":3201.8000000119,"correct":true,"confidence":3},{"trial_n":100,"min":77,"max":178,"target":"present","response":"present","rt":734.19999998808,"correct":true,"confidence":3},{"trial_n":101,"min":79,"max":176,"target":"present","response":"present","rt":3697.8000000119,"correct":true,"confidence":3},{"trial_n":102,"min":79,"max":176,"target":"present","response":"present","rt":889.80000001192,"correct":true,"confidence":5},{"trial_n":103,"min":81,"max":174,"target":"present","response":"present","rt":646.10000002384,"correct":true,"confidence":5},{"trial_n":104,"min":81,"max":174,"target":"absent","response":"absent","rt":849.60000002384,"correct":true,"confidence":4},{"trial_n":105,"min":83,"max":172,"target":"present","response":"present","rt":1124.6999999881,"correct":true,"confidence":4},{"trial_n":106,"min":83,"max":172,"target":"absent","response":"present","rt":703.10000002384,"correct":false,"confidence":3},{"trial_n":107,"min":81,"max":174,"target":"absent","response":"absent","rt":2755.1999999881,"correct":true,"confidence":1},{"trial_n":108,"min":81,"max":174,"target":"absent","response":"absent","rt":895.30000001192,"correct":true,"confidence":1},{"trial_n":109,"min":83,"max":172,"target":"absent","response":"absent","rt":1010,"correct":true,"confidence":1},{"trial_n":110,"min":83,"max":172,"target":"absent","response":"absent","rt":1379.8000000119,"correct":true,"confidence":1},{"trial_n":111,"min":84,"max":171,"target":"present","response":"present","rt":835.80000001192,"correct":true,"confidence":3},{"trial_n":112,"min":84,"max":171,"target":"present","response":"present","rt":1134.1999999881,"correct":true,"confidence":2},{"trial_n":113,"min":85,"max":170,"target":"absent","response":"absent","rt":3077.6000000238,"correct":true,"confidence":3},{"trial_n":114,"min":85,"max":170,"target":"present","response":"present","rt":530.60000002384,"correct":true,"confidence":4},{"trial_n":115,"min":86,"max":169,"target":"present","response":"present","rt":2123.0999999642,"correct":true,"confidence":2},{"trial_n":116,"min":86,"max":169,"target":"present","response":"present","rt":913.69999998808,"correct":true,"confidence":3},{"trial_n":117,"min":87,"max":168,"target":"absent","response":"absent","rt":3694.5,"correct":true,"confidence":2},{"trial_n":118,"min":87,"max":168,"target":"present","response":"present","rt":822.10000002384,"correct":true,"confidence":1},{"trial_n":119,"min":88,"max":167,"target":"absent","response":"absent","rt":1160.5999999642,"correct":true,"confidence":3},{"trial_n":120,"min":88,"max":167,"target":"absent","response":"absent","rt":1982.2999999523,"correct":true,"confidence":3},{"trial_n":121,"min":89,"max":166,"target":"absent","response":"present","rt":1237.0999999642,"correct":false,"confidence":4},{"trial_n":122,"min":88,"max":167,"target":"present","response":"present","rt":726.39999997616,"correct":true,"confidence":3},{"trial_n":123,"min":88,"max":167,"target":"absent","response":"absent","rt":1247.8999999762,"correct":true,"confidence":3},{"trial_n":124,"min":89,"max":166,"target":"present","response":"absent","rt":1341.0999999642,"correct":false,"confidence":1},{"trial_n":125,"min":88,"max":167,"target":"present","response":"absent","rt":1115.8999999762,"correct":false,"confidence":3},{"trial_n":126,"min":87,"max":168,"target":"absent","response":"absent","rt":1850.3000000119,"correct":true,"confidence":3},{"trial_n":127,"min":87,"max":168,"target":"absent","response":"present","rt":695.69999998808,"correct":false,"confidence":1},{"trial_n":128,"min":86,"max":169,"target":"present","response":"present","rt":1428.0999999642,"correct":true,"confidence":1},{"trial_n":129,"min":86,"max":169,"target":"present","response":"absent","rt":1129.5,"correct":false,"confidence":1},{"trial_n":130,"min":85,"max":170,"target":"present","response":"absent","rt":1734.3999999762,"correct":false,"confidence":1},{"trial_n":131,"min":84,"max":171,"target":"present","response":"present","rt":1007.8999999762,"correct":true,"confidence":3},{"trial_n":132,"min":84,"max":171,"target":"absent","response":"absent","rt":2564.9000000358,"correct":true,"confidence":3},{"trial_n":133,"min":85,"max":170,"target":"absent","response":"absent","rt":1217.5,"correct":true,"confidence":3},{"trial_n":134,"min":85,"max":170,"target":"absent","response":"absent","rt":2165.6000000238,"correct":true,"confidence":1},{"trial_n":135,"min":86,"max":169,"target":"absent","response":"present","rt":1298.8000000119,"correct":false,"confidence":1},{"trial_n":136,"min":85,"max":170,"target":"absent","response":"absent","rt":1108.1999999881,"correct":true,"confidence":3},{"trial_n":137,"min":85,"max":170,"target":"absent","response":"absent","rt":1295.5,"correct":true,"confidence":3},{"trial_n":138,"min":86,"max":169,"target":"present","response":"present","rt":967.19999998808,"correct":true,"confidence":1},{"trial_n":139,"min":86,"max":169,"target":"absent","response":"absent","rt":968.5,"correct":true,"confidence":1},{"trial_n":140,"min":87,"max":168,"target":"present","response":"present","rt":2669,"correct":true,"confidence":1}]