[{"trial_n":1,"n_dots":4.25,"target":"right","response":"left","rt":5459,"correct":false,"confidence":-1},{"trial_n":2,"n_dots":4.25,"target":"left","response":"left","rt":1257,"correct":true,"confidence":-1},{"trial_n":3,"n_dots":4.25,"target":"right","response":"right","rt":644,"correct":true,"confidence":-1},{"trial_n":4,"n_dots":3.85,"target":"right","response":"right","rt":1991,"correct":true,"confidence":-1},{"trial_n":5,"n_dots":3.85,"target":"left","response":"left","rt":726,"correct":true,"confidence":-1},{"trial_n":6,"n_dots":3.45,"target":"left","response":"left","rt":3109,"correct":true,"confidence":-1},{"trial_n":7,"n_dots":3.45,"target":"right","response":"right","rt":809.00000000001,"correct":true,"confidence":-1},{"trial_n":8,"n_dots":3.25,"target":"left","response":"right","rt":692,"correct":false,"confidence":-1},{"trial_n":9,"n_dots":3.45,"target":"left","response":"right","rt":675.00000000001,"correct":false,"confidence":-1},{"trial_n":10,"n_dots":3.65,"target":"left","response":"left","rt":575,"correct":true,"confidence":-1},{"trial_n":11,"n_dots":3.65,"target":"left","response":"left","rt":744.00000000001,"correct":true,"confidence":-1},{"trial_n":12,"n_dots":3.45,"target":"left","response":"right","rt":543,"correct":false,"confidence":-1},{"trial_n":13,"n_dots":3.55,"target":"right","response":"right","rt":1143,"correct":true,"confidence":-1},{"trial_n":14,"n_dots":3.55,"target":"left","response":"left","rt":1392,"correct":true,"confidence":-1},{"trial_n":15,"n_dots":3.45,"target":"left","response":"left","rt":1726,"correct":true,"confidence":-1},{"trial_n":16,"n_dots":3.45,"target":"right","response":"right","rt":710,"correct":true,"confidence":-1},{"trial_n":17,"n_dots":3.35,"target":"left","response":"left","rt":745,"correct":true,"confidence":-1},{"trial_n":18,"n_dots":3.35,"target":"right","response":"right","rt":662,"correct":true,"confidence":-1},{"trial_n":19,"n_dots":3.25,"target":"right","response":"right","rt":676,"correct":true,"confidence":-1},{"trial_n":20,"n_dots":3.25,"target":"left","response":"right","rt":512,"correct":false,"confidence":-1},{"trial_n":21,"n_dots":3.35,"target":"right","response":"right","rt":637,"correct":true,"confidence":3},{"trial_n":22,"n_dots":3.35,"target":"right","response":"left","rt":446,"correct":false,"confidence":2},{"trial_n":23,"n_dots":3.45,"target":"right","response":"right","rt":563,"correct":true,"confidence":4},{"trial_n":24,"n_dots":3.45,"target":"left","response":"left","rt":696,"correct":true,"confidence":4},{"trial_n":25,"n_dots":3.35,"target":"left","response":"right","rt":731,"correct":false,"confidence":2},{"trial_n":26,"n_dots":3.45,"target":"left","response":"right","rt":1080,"correct":false,"confidence":3},{"trial_n":27,"n_dots":3.55,"target":"right","response":"right","rt":781.00000000001,"correct":true,"confidence":3},{"trial_n":28,"n_dots":3.55,"target":"right","response":"left","rt":547,"correct":false,"confidence":2},{"trial_n":29,"n_dots":3.65,"target":"left","response":"right","rt":548,"correct":false,"confidence":4},{"trial_n":30,"n_dots":3.75,"target":"right","response":"right","rt":863,"correct":true,"confidence":3},{"trial_n":31,"n_dots":3.75,"target":"right","response":"right","rt":583,"correct":true,"confidence":4},{"trial_n":32,"n_dots":3.65,"target":"left","response":"left","rt":631,"correct":true,"confidence":4},{"trial_n":33,"n_dots":3.65,"target":"left","response":"left","rt":748,"correct":true,"confidence":4},{"trial_n":34,"n_dots":3.55,"target":"left","response":"right","rt":664,"correct":false,"confidence":3},{"trial_n":35,"n_dots":3.65,"target":"right","response":"right","rt":466,"correct":true,"confidence":4},{"trial_n":36,"n_dots":3.65,"target":"right","response":"right","rt":1164,"correct":true,"confidence":4},{"trial_n":37,"n_dots":3.55,"target":"left","response":"left","rt":1098,"correct":true,"confidence":4},{"trial_n":38,"n_dots":3.55,"target":"left","response":"right","rt":832,"correct":false,"confidence":3},{"trial_n":39,"n_dots":3.65,"target":"right","response":"right","rt":715.00000000003,"correct":true,"confidence":3},{"trial_n":40,"n_dots":3.65,"target":"right","response":"left","rt":1315,"correct":false,"confidence":2},{"trial_n":41,"n_dots":3.75,"target":"left","response":"right","rt":635,"correct":false,"confidence":3},{"trial_n":42,"n_dots":3.85,"target":"right","response":"left","rt":783,"correct":false,"confidence":3},{"trial_n":43,"n_dots":3.95,"target":"right","response":"right","rt":549,"correct":true,"confidence":4},{"trial_n":44,"n_dots":3.95,"target":"right","response":"right","rt":666,"correct":true,"confidence":4},{"trial_n":45,"n_dots":3.85,"target":"left","response":"right","rt":634,"correct":false,"confidence":4},{"trial_n":46,"n_dots":3.95,"target":"left","response":"left","rt":534,"correct":true,"confidence":4},{"trial_n":47,"n_dots":3.95,"target":"right","response":"right","rt":468.00000000003,"correct":true,"confidence":4},{"trial_n":48,"n_dots":3.85,"target":"left","response":"left","rt":500,"correct":true,"confidence":4},{"trial_n":49,"n_dots":3.85,"target":"left","response":"left","rt":618,"correct":true,"confidence":4},{"trial_n":50,"n_dots":3.75,"target":"right","response":"right","rt":502,"correct":true,"confidence":3},{"trial_n":51,"n_dots":3.75,"target":"right","response":"right","rt":586,"correct":true,"confidence":4},{"trial_n":52,"n_dots":3.65,"target":"left","response":"left","rt":870.00000000003,"correct":true,"confidence":3},{"trial_n":53,"n_dots":3.65,"target":"right","response":"right","rt":685.00000000003,"correct":true,"confidence":3},{"trial_n":54,"n_dots":3.55,"target":"left","response":"right","rt":220,"correct":false,"confidence":4},{"trial_n":55,"n_dots":3.65,"target":"left","response":"left","rt":437,"correct":true,"confidence":4},{"trial_n":56,"n_dots":3.65,"target":"right","response":"right","rt":503,"correct":true,"confidence":3},{"trial_n":57,"n_dots":3.55,"target":"right","response":"right","rt":704,"correct":true,"confidence":4},{"trial_n":58,"n_dots":3.55,"target":"left","response":"right","rt":904,"correct":false,"confidence":3},{"trial_n":59,"n_dots":3.65,"target":"right","response":"right","rt":303,"correct":true,"confidence":2},{"trial_n":60,"n_dots":3.65,"target":"left","response":"right","rt":588.00000000006,"correct":false,"confidence":3},{"trial_n":61,"n_dots":3.75,"target":"left","response":"right","rt":304,"correct":false,"confidence":3},{"trial_n":62,"n_dots":3.85,"target":"right","response":"right","rt":590,"correct":true,"confidence":3},{"trial_n":63,"n_dots":3.85,"target":"right","response":"right","rt":523,"correct":true,"confidence":4},{"trial_n":64,"n_dots":3.75,"target":"right","response":"right","rt":357,"correct":true,"confidence":4},{"trial_n":65,"n_dots":3.75,"target":"right","response":"right","rt":593,"correct":true,"confidence":4},{"trial_n":66,"n_dots":3.65,"target":"right","response":"right","rt":791.00000000006,"correct":true,"confidence":4},{"trial_n":67,"n_dots":3.65,"target":"left","response":"right","rt":838.99999999994,"correct":false,"confidence":3},{"trial_n":68,"n_dots":3.75,"target":"right","response":"right","rt":322.99999999994,"correct":true,"confidence":3},{"trial_n":69,"n_dots":3.75,"target":"left","response":"left","rt":473.99999999994,"correct":true,"confidence":2},{"trial_n":70,"n_dots":3.65,"target":"right","response":"right","rt":542,"correct":true,"confidence":3},{"trial_n":71,"n_dots":3.65,"target":"left","response":"right","rt":890.00000000006,"correct":false,"confidence":2},{"trial_n":72,"n_dots":3.75,"target":"left","response":"left","rt":507,"correct":true,"confidence":3},{"trial_n":73,"n_dots":3.75,"target":"right","response":"left","rt":659,"correct":false,"confidence":3},{"trial_n":74,"n_dots":3.85,"target":"right","response":"right","rt":757,"correct":true,"confidence":3},{"trial_n":75,"n_dots":3.85,"target":"right","response":"right","rt":775,"correct":true,"confidence":3},{"trial_n":76,"n_dots":3.75,"target":"left","response":"left","rt":891.00000000006,"correct":true,"confidence":3},{"trial_n":77,"n_dots":3.75,"target":"right","response":"right","rt":558,"correct":true,"confidence":4},{"trial_n":78,"n_dots":3.65,"target":"right","response":"right","rt":409,"correct":true,"confidence":3},{"trial_n":79,"n_dots":3.65,"target":"left","response":"left","rt":643,"correct":true,"confidence":3},{"trial_n":80,"n_dots":3.55,"target":"right","response":"right","rt":459,"correct":true,"confidence":4},{"trial_n":81,"n_dots":3.55,"target":"right","response":"right","rt":531,"correct":true,"confidence":3},{"trial_n":82,"n_dots":3.45,"target":"left","response":"right","rt":509.99999999994,"correct":false,"confidence":3},{"trial_n":83,"n_dots":3.55,"target":"right","response":"right","rt":644,"correct":true,"confidence":4},{"trial_n":84,"n_dots":3.55,"target":"left","response":"left","rt":628,"correct":true,"confidence":3},{"trial_n":85,"n_dots":3.45,"target":"right","response":"right","rt":1260.9999999999,"correct":true,"confidence":4},{"trial_n":86,"n_dots":3.45,"target":"right","response":"left","rt":461,"correct":false,"confidence":3},{"trial_n":87,"n_dots":3.55,"target":"left","response":"right","rt":947,"correct":false,"confidence":4},{"trial_n":88,"n_dots":3.65,"target":"right","response":"left","rt":979,"correct":false,"confidence":2},{"trial_n":89,"n_dots":3.75,"target":"left","response":"left","rt":464,"correct":true,"confidence":2},{"trial_n":90,"n_dots":3.75,"target":"left","response":"left","rt":461,"correct":true,"confidence":3},{"trial_n":91,"n_dots":3.65,"target":"right","response":"right","rt":293.00000000006,"correct":true,"confidence":4},{"trial_n":92,"n_dots":3.65,"target":"right","response":"right","rt":645,"correct":true,"confidence":3},{"trial_n":93,"n_dots":3.55,"target":"left","response":"left","rt":461.00000000006,"correct":true,"confidence":2},{"trial_n":94,"n_dots":3.55,"target":"left","response":"left","rt":1679,"correct":true,"confidence":1},{"trial_n":95,"n_dots":3.45,"target":"left","response":"left","rt":1645,"correct":true,"confidence":1},{"trial_n":96,"n_dots":3.45,"target":"right","response":"right","rt":1396,"correct":true,"confidence":2},{"trial_n":97,"n_dots":3.35,"target":"right","response":"left","rt":962.00000000006,"correct":false,"confidence":1},{"trial_n":98,"n_dots":3.45,"target":"left","response":"right","rt":778.00000000006,"correct":false,"confidence":2},{"trial_n":99,"n_dots":3.55,"target":"right","response":"right","rt":713,"correct":true,"confidence":3},{"trial_n":100,"n_dots":3.55,"target":"left","response":"right","rt":614,"correct":false,"confidence":3},{"trial_n":101,"n_dots":3.65,"target":"right","response":"right","rt":137.00000000012,"correct":true,"confidence":3},{"trial_n":102,"n_dots":3.65,"target":"left","response":"right","rt":702,"correct":false,"confidence":4},{"trial_n":103,"n_dots":3.75,"target":"left","response":"right","rt":500,"correct":false,"confidence":3},{"trial_n":104,"n_dots":3.85,"target":"right","response":"right","rt":268.00000000012,"correct":true,"confidence":4},{"trial_n":105,"n_dots":3.85,"target":"left","response":"right","rt":686,"correct":false,"confidence":3},{"trial_n":106,"n_dots":3.95,"target":"left","response":"left","rt":383.99999999988,"correct":true,"confidence":4},{"trial_n":107,"n_dots":3.95,"target":"left","response":"right","rt":568,"correct":false,"confidence":3},{"trial_n":108,"n_dots":4.05,"target":"left","response":"left","rt":438,"correct":true,"confidence":3},{"trial_n":109,"n_dots":4.05,"target":"left","response":"left","rt":402.99999999988,"correct":true,"confidence":3},{"trial_n":110,"n_dots":3.95,"target":"left","response":"left","rt":419,"correct":true,"confidence":3},{"trial_n":111,"n_dots":3.95,"target":"right","response":"left","rt":2339,"correct":false,"confidence":1},{"trial_n":112,"n_dots":4.05,"target":"left","response":"right","rt":951,"correct":false,"confidence":2},{"trial_n":113,"n_dots":4.15,"target":"left","response":"left","rt":720,"correct":true,"confidence":2},{"trial_n":114,"n_dots":4.15,"target":"right","response":"right","rt":405,"correct":true,"confidence":3},{"trial_n":115,"n_dots":4.05,"target":"left","response":"left","rt":254,"correct":true,"confidence":3},{"trial_n":116,"n_dots":4.05,"target":"right","response":"right","rt":1136,"correct":true,"confidence":2},{"trial_n":117,"n_dots":3.95,"target":"right","response":"right","rt":539,"correct":true,"confidence":3},{"trial_n":118,"n_dots":3.95,"target":"right","response":"right","rt":604,"correct":true,"confidence":3},{"trial_n":119,"n_dots":3.85,"target":"right","response":"right","rt":1037,"correct":true,"confidence":2},{"trial_n":120,"n_dots":3.85,"target":"left","response":"left","rt":521.99999999988,"correct":true,"confidence":2}]