[{"trial_n":1,"n_dots":4.25,"target":"right","response":"left","rt":3867.5,"correct":false,"confidence":-1},{"trial_n":2,"n_dots":4.25,"target":"right","response":"right","rt":2324.3999999762,"correct":true,"confidence":-1},{"trial_n":3,"n_dots":4.25,"target":"right","response":"right","rt":1039.7999999523,"correct":true,"confidence":-1},{"trial_n":4,"n_dots":3.85,"target":"left","response":"left","rt":438.80000001192,"correct":true,"confidence":-1},{"trial_n":5,"n_dots":3.85,"target":"left","response":"left","rt":435.80000001192,"correct":true,"confidence":-1},{"trial_n":6,"n_dots":3.45,"target":"left","response":"left","rt":437.80000001192,"correct":true,"confidence":-1},{"trial_n":7,"n_dots":3.45,"target":"left","response":"left","rt":641.80000001192,"correct":true,"confidence":-1},{"trial_n":8,"n_dots":3.25,"target":"left","response":"left","rt":867.29999995232,"correct":true,"confidence":-1},{"trial_n":9,"n_dots":3.25,"target":"right","response":"right","rt":556.5,"correct":true,"confidence":-1},{"trial_n":10,"n_dots":3.05,"target":"left","response":"left","rt":2331.8999999762,"correct":true,"confidence":-1},{"trial_n":11,"n_dots":3.05,"target":"left","response":"left","rt":578.69999998808,"correct":true,"confidence":-1},{"trial_n":12,"n_dots":2.85,"target":"right","response":"right","rt":457.40000003576,"correct":true,"confidence":-1},{"trial_n":13,"n_dots":2.85,"target":"right","response":"right","rt":635,"correct":true,"confidence":-1},{"trial_n":14,"n_dots":2.75,"target":"left","response":"left","rt":471.90000003576,"correct":true,"confidence":-1},{"trial_n":15,"n_dots":2.75,"target":"right","response":"left","rt":499.40000003576,"correct":false,"confidence":-1},{"trial_n":16,"n_dots":2.85,"target":"right","response":"right","rt":1498.8999999762,"correct":true,"confidence":-1},{"trial_n":17,"n_dots":2.85,"target":"right","response":"right","rt":452.5,"correct":true,"confidence":-1},{"trial_n":18,"n_dots":2.75,"target":"right","response":"right","rt":594.39999997616,"correct":true,"confidence":-1},{"trial_n":19,"n_dots":2.75,"target":"right","response":"right","rt":476.80000001192,"correct":true,"confidence":-1},{"trial_n":20,"n_dots":2.65,"target":"right","response":"right","rt":512.89999997616,"correct":true,"confidence":-1},{"trial_n":21,"n_dots":2.65,"target":"left","response":"left","rt":431.80000001192,"correct":true,"confidence":3},{"trial_n":22,"n_dots":2.55,"target":"left","response":"left","rt":1198.8999999762,"correct":true,"confidence":2},{"trial_n":23,"n_dots":2.55,"target":"right","response":"right","rt":1171.4000000358,"correct":true,"confidence":2},{"trial_n":24,"n_dots":2.45,"target":"right","response":"left","rt":1265.1999999881,"correct":false,"confidence":2},{"trial_n":25,"n_dots":2.55,"target":"right","response":"left","rt":747.39999997616,"correct":false,"confidence":2},{"trial_n":26,"n_dots":2.65,"target":"left","response":"left","rt":932.90000003576,"correct":true,"confidence":4},{"trial_n":27,"n_dots":2.65,"target":"left","response":"left","rt":858.59999996424,"correct":true,"confidence":3},{"trial_n":28,"n_dots":2.55,"target":"right","response":"right","rt":945.5,"correct":true,"confidence":2},{"trial_n":29,"n_dots":2.55,"target":"right","response":"right","rt":1694.7000000477,"correct":true,"confidence":2},{"trial_n":30,"n_dots":2.45,"target":"right","response":"left","rt":841.90000003576,"correct":false,"confidence":2},{"trial_n":31,"n_dots":2.55,"target":"right","response":"right","rt":1360.1999999881,"correct":true,"confidence":2},{"trial_n":32,"n_dots":2.55,"target":"right","response":"left","rt":780.59999996424,"correct":false,"confidence":2},{"trial_n":33,"n_dots":2.65,"target":"left","response":"left","rt":634.39999997616,"correct":true,"confidence":3},{"trial_n":34,"n_dots":2.65,"target":"left","response":"left","rt":1056.3999999762,"correct":true,"confidence":4},{"trial_n":35,"n_dots":2.55,"target":"right","response":"left","rt":887.80000001192,"correct":false,"confidence":2},{"trial_n":36,"n_dots":2.65,"target":"left","response":"left","rt":685.69999998808,"correct":true,"confidence":3},{"trial_n":37,"n_dots":2.65,"target":"left","response":"left","rt":841.89999997616,"correct":true,"confidence":2},{"trial_n":38,"n_dots":2.55,"target":"right","response":"right","rt":676.5,"correct":true,"confidence":2},{"trial_n":39,"n_dots":2.55,"target":"left","response":"left","rt":467.90000003576,"correct":true,"confidence":4},{"trial_n":40,"n_dots":2.45,"target":"right","response":"right","rt":1094.9000000358,"correct":true,"confidence":2},{"trial_n":41,"n_dots":2.45,"target":"right","response":"left","rt":572.80000001192,"correct":false,"confidence":3},{"trial_n":42,"n_dots":2.55,"target":"right","response":"left","rt":749.5,"correct":false,"confidence":3},{"trial_n":43,"n_dots":2.65,"target":"left","response":"left","rt":583.5,"correct":true,"confidence":4},{"trial_n":44,"n_dots":2.65,"target":"right","response":"right","rt":763.39999997616,"correct":true,"confidence":3},{"trial_n":45,"n_dots":2.55,"target":"left","response":"left","rt":592.69999998808,"correct":true,"confidence":3},{"trial_n":46,"n_dots":2.55,"target":"right","response":"left","rt":761.30000001192,"correct":false,"confidence":3},{"trial_n":47,"n_dots":2.65,"target":"right","response":"right","rt":786.5,"correct":true,"confidence":2},{"trial_n":48,"n_dots":2.65,"target":"right","response":"left","rt":721.39999997616,"correct":false,"confidence":2},{"trial_n":49,"n_dots":2.75,"target":"right","response":"left","rt":1394,"correct":false,"confidence":1},{"trial_n":50,"n_dots":2.85,"target":"left","response":"left","rt":869.40000003576,"correct":true,"confidence":3},{"trial_n":51,"n_dots":2.85,"target":"right","response":"right","rt":1554.1000000238,"correct":true,"confidence":2},{"trial_n":52,"n_dots":2.75,"target":"left","response":"left","rt":675.80000001192,"correct":true,"confidence":4},{"trial_n":53,"n_dots":2.75,"target":"left","response":"left","rt":705.09999996424,"correct":true,"confidence":5},{"trial_n":54,"n_dots":2.65,"target":"right","response":"right","rt":1187.8000000119,"correct":true,"confidence":1},{"trial_n":55,"n_dots":2.65,"target":"right","response":"left","rt":1276.6999999881,"correct":false,"confidence":1},{"trial_n":56,"n_dots":2.75,"target":"left","response":"left","rt":527.19999998808,"correct":true,"confidence":4},{"trial_n":57,"n_dots":2.75,"target":"right","response":"right","rt":975.59999996424,"correct":true,"confidence":2},{"trial_n":58,"n_dots":2.65,"target":"right","response":"left","rt":1925,"correct":false,"confidence":1},{"trial_n":59,"n_dots":2.75,"target":"left","response":"left","rt":1117.5,"correct":true,"confidence":2},{"trial_n":60,"n_dots":2.75,"target":"left","response":"left","rt":684.09999996424,"correct":true,"confidence":4},{"trial_n":61,"n_dots":2.65,"target":"left","response":"left","rt":914.59999996424,"correct":true,"confidence":2},{"trial_n":62,"n_dots":2.65,"target":"left","response":"right","rt":589.80000001192,"correct":false,"confidence":3},{"trial_n":63,"n_dots":2.75,"target":"left","response":"left","rt":584,"correct":true,"confidence":3},{"trial_n":64,"n_dots":2.75,"target":"left","response":"left","rt":746.80000001192,"correct":true,"confidence":4},{"trial_n":65,"n_dots":2.65,"target":"right","response":"right","rt":790,"correct":true,"confidence":2},{"trial_n":66,"n_dots":2.65,"target":"left","response":"left","rt":698,"correct":true,"confidence":3},{"trial_n":67,"n_dots":2.55,"target":"right","response":"left","rt":924.80000001192,"correct":false,"confidence":3},{"trial_n":68,"n_dots":2.65,"target":"left","response":"left","rt":704.39999997616,"correct":true,"confidence":3},{"trial_n":69,"n_dots":2.65,"target":"right","response":"left","rt":642.59999996424,"correct":false,"confidence":3},{"trial_n":70,"n_dots":2.75,"target":"right","response":"left","rt":658.90000003576,"correct":false,"confidence":2},{"trial_n":71,"n_dots":2.85,"target":"left","response":"left","rt":569.40000003576,"correct":true,"confidence":3},{"trial_n":72,"n_dots":2.85,"target":"right","response":"left","rt":779.30000001192,"correct":false,"confidence":2},{"trial_n":73,"n_dots":2.95,"target":"right","response":"left","rt":639.59999996424,"correct":false,"confidence":3},{"trial_n":74,"n_dots":3.05,"target":"right","response":"right","rt":948.5,"correct":true,"confidence":1},{"trial_n":75,"n_dots":3.05,"target":"left","response":"left","rt":514.19999998808,"correct":true,"confidence":4},{"trial_n":76,"n_dots":2.95,"target":"left","response":"right","rt":1555.1999999881,"correct":false,"confidence":1},{"trial_n":77,"n_dots":3.05,"target":"left","response":"left","rt":525.69999998808,"correct":true,"confidence":4},{"trial_n":78,"n_dots":3.05,"target":"left","response":"left","rt":572.60000002384,"correct":true,"confidence":4},{"trial_n":79,"n_dots":2.95,"target":"left","response":"left","rt":629.10000002384,"correct":true,"confidence":3},{"trial_n":80,"n_dots":2.95,"target":"left","response":"left","rt":560.89999997616,"correct":true,"confidence":3},{"trial_n":81,"n_dots":2.85,"target":"left","response":"left","rt":558.09999996424,"correct":true,"confidence":4},{"trial_n":82,"n_dots":2.85,"target":"right","response":"left","rt":546.90000003576,"correct":false,"confidence":2},{"trial_n":83,"n_dots":2.95,"target":"right","response":"right","rt":1098.0999999642,"correct":true,"confidence":3},{"trial_n":84,"n_dots":2.95,"target":"right","response":"right","rt":1311.2000000477,"correct":true,"confidence":1},{"trial_n":85,"n_dots":2.85,"target":"left","response":"left","rt":513.69999998808,"correct":true,"confidence":3},{"trial_n":86,"n_dots":2.85,"target":"right","response":"left","rt":552.5,"correct":false,"confidence":3},{"trial_n":87,"n_dots":2.95,"target":"left","response":"left","rt":662.89999997616,"correct":true,"confidence":3},{"trial_n":88,"n_dots":2.95,"target":"left","response":"left","rt":662.19999998808,"correct":true,"confidence":4},{"trial_n":89,"n_dots":2.85,"target":"left","response":"left","rt":776,"correct":true,"confidence":4},{"trial_n":90,"n_dots":2.85,"target":"right","response":"right","rt":647.19999998808,"correct":true,"confidence":2},{"trial_n":91,"n_dots":2.75,"target":"right","response":"right","rt":794.69999998808,"correct":true,"confidence":3},{"trial_n":92,"n_dots":2.75,"target":"right","response":"right","rt":626.60000002384,"correct":true,"confidence":2},{"trial_n":93,"n_dots":2.65,"target":"right","response":"left","rt":622.20000004768,"correct":false,"confidence":2},{"trial_n":94,"n_dots":2.75,"target":"left","response":"left","rt":533.5,"correct":true,"confidence":3},{"trial_n":95,"n_dots":2.75,"target":"left","response":"left","rt":680.89999997616,"correct":true,"confidence":3},{"trial_n":96,"n_dots":2.65,"target":"left","response":"left","rt":518.80000001192,"correct":true,"confidence":3},{"trial_n":97,"n_dots":2.65,"target":"left","response":"left","rt":521.89999997616,"correct":true,"confidence":3},{"trial_n":98,"n_dots":2.55,"target":"right","response":"right","rt":566.89999997616,"correct":true,"confidence":2},{"trial_n":99,"n_dots":2.55,"target":"right","response":"right","rt":877.19999998808,"correct":true,"confidence":2},{"trial_n":100,"n_dots":2.45,"target":"right","response":"left","rt":559,"correct":false,"confidence":3},{"trial_n":101,"n_dots":2.55,"target":"left","response":"right","rt":1076.3999999762,"correct":false,"confidence":1},{"trial_n":102,"n_dots":2.65,"target":"right","response":"right","rt":713.69999998808,"correct":true,"confidence":1},{"trial_n":103,"n_dots":2.65,"target":"right","response":"right","rt":665.30000001192,"correct":true,"confidence":2},{"trial_n":104,"n_dots":2.55,"target":"left","response":"left","rt":707.5,"correct":true,"confidence":2},{"trial_n":105,"n_dots":2.55,"target":"left","response":"left","rt":552.5,"correct":true,"confidence":2},{"trial_n":106,"n_dots":2.45,"target":"left","response":"left","rt":716,"correct":true,"confidence":3},{"trial_n":107,"n_dots":2.45,"target":"left","response":"left","rt":669.60000002384,"correct":true,"confidence":2},{"trial_n":108,"n_dots":2.35,"target":"left","response":"left","rt":665.20000004768,"correct":true,"confidence":3},{"trial_n":109,"n_dots":2.35,"target":"right","response":"right","rt":943.39999997616,"correct":true,"confidence":1},{"trial_n":110,"n_dots":2.25,"target":"left","response":"left","rt":542.69999998808,"correct":true,"confidence":2},{"trial_n":111,"n_dots":2.25,"target":"left","response":"left","rt":631.59999996424,"correct":true,"confidence":2},{"trial_n":112,"n_dots":2.15,"target":"left","response":"left","rt":826.89999997616,"correct":true,"confidence":2},{"trial_n":113,"n_dots":2.15,"target":"left","response":"right","rt":918.39999997616,"correct":false,"confidence":1},{"trial_n":114,"n_dots":2.25,"target":"left","response":"left","rt":513,"correct":true,"confidence":2},{"trial_n":115,"n_dots":2.25,"target":"left","response":"right","rt":974.40000003576,"correct":false,"confidence":1},{"trial_n":116,"n_dots":2.35,"target":"right","response":"left","rt":1087,"correct":false,"confidence":1},{"trial_n":117,"n_dots":2.45,"target":"right","response":"left","rt":757.89999997616,"correct":false,"confidence":1},{"trial_n":118,"n_dots":2.55,"target":"right","response":"right","rt":693.19999998808,"correct":true,"confidence":1},{"trial_n":119,"n_dots":2.55,"target":"left","response":"left","rt":508.19999998808,"correct":true,"confidence":2},{"trial_n":120,"n_dots":2.45,"target":"right","response":"right","rt":880.90000003576,"correct":true,"confidence":1}]