[{"trial_n":1,"n_dots":4.25,"target":"right","response":"left","rt":1346.5,"correct":false,"confidence":-1},{"trial_n":2,"n_dots":4.25,"target":"left","response":"left","rt":874.5,"correct":true,"confidence":-1},{"trial_n":3,"n_dots":4.25,"target":"right","response":"right","rt":1137.5,"correct":true,"confidence":-1},{"trial_n":4,"n_dots":3.85,"target":"left","response":"left","rt":1268.0999999996,"correct":true,"confidence":-1},{"trial_n":5,"n_dots":3.85,"target":"right","response":"right","rt":842.40000000037,"correct":true,"confidence":-1},{"trial_n":6,"n_dots":3.45,"target":"right","response":"right","rt":1399.1000000006,"correct":true,"confidence":-1},{"trial_n":7,"n_dots":3.45,"target":"right","response":"right","rt":1047.8999999994,"correct":true,"confidence":-1},{"trial_n":8,"n_dots":3.25,"target":"left","response":"right","rt":611.20000000019,"correct":false,"confidence":-1},{"trial_n":9,"n_dots":3.45,"target":"left","response":"right","rt":600,"correct":false,"confidence":-1},{"trial_n":10,"n_dots":3.65,"target":"left","response":"left","rt":646.5,"correct":true,"confidence":-1},{"trial_n":11,"n_dots":3.65,"target":"right","response":"right","rt":628.90000000037,"correct":true,"confidence":-1},{"trial_n":12,"n_dots":3.45,"target":"right","response":"right","rt":1193.5999999996,"correct":true,"confidence":-1},{"trial_n":13,"n_dots":3.45,"target":"right","response":"left","rt":1189.5,"correct":false,"confidence":-1},{"trial_n":14,"n_dots":3.55,"target":"right","response":"right","rt":170.89999999944,"correct":true,"confidence":-1},{"trial_n":15,"n_dots":3.55,"target":"right","response":"right","rt":489.10000000056,"correct":true,"confidence":-1},{"trial_n":16,"n_dots":3.45,"target":"left","response":"right","rt":799.59999999963,"correct":false,"confidence":-1},{"trial_n":17,"n_dots":3.55,"target":"right","response":"left","rt":82.099999999627,"correct":false,"confidence":-1},{"trial_n":18,"n_dots":3.65,"target":"right","response":"right","rt":153.40000000037,"correct":true,"confidence":-1},{"trial_n":19,"n_dots":3.65,"target":"left","response":"left","rt":0,"correct":true,"confidence":-1},{"trial_n":20,"n_dots":3.55,"target":"right","response":"right","rt":517.5,"correct":true,"confidence":-1},{"trial_n":21,"n_dots":3.55,"target":"right","response":"right","rt":485.09999999963,"correct":true,"confidence":3},{"trial_n":22,"n_dots":3.45,"target":"right","response":"right","rt":858.90000000037,"correct":true,"confidence":2},{"trial_n":23,"n_dots":3.45,"target":"left","response":"left","rt":812.29999999981,"correct":true,"confidence":1},{"trial_n":24,"n_dots":3.35,"target":"right","response":"left","rt":471.29999999981,"correct":false,"confidence":1},{"trial_n":25,"n_dots":3.45,"target":"left","response":"left","rt":636.70000000019,"correct":true,"confidence":1},{"trial_n":26,"n_dots":3.45,"target":"left","response":"left","rt":489.90000000037,"correct":true,"confidence":3},{"trial_n":27,"n_dots":3.35,"target":"left","response":"left","rt":935,"correct":true,"confidence":2},{"trial_n":28,"n_dots":3.35,"target":"right","response":"right","rt":422,"correct":true,"confidence":1},{"trial_n":29,"n_dots":3.25,"target":"left","response":"left","rt":399.30000000075,"correct":true,"confidence":1},{"trial_n":30,"n_dots":3.25,"target":"right","response":"right","rt":473.5,"correct":true,"confidence":3},{"trial_n":31,"n_dots":3.15,"target":"left","response":"left","rt":936.5,"correct":true,"confidence":1},{"trial_n":32,"n_dots":3.15,"target":"right","response":"left","rt":712.79999999981,"correct":false,"confidence":1},{"trial_n":33,"n_dots":3.25,"target":"left","response":"right","rt":1212.2999999998,"correct":false,"confidence":2},{"trial_n":34,"n_dots":3.35,"target":"right","response":"left","rt":9435.7999999998,"correct":false,"confidence":1},{"trial_n":35,"n_dots":3.45,"target":"left","response":"left","rt":804.20000000019,"correct":true,"confidence":4},{"trial_n":36,"n_dots":3.45,"target":"right","response":"right","rt":635,"correct":true,"confidence":3},{"trial_n":37,"n_dots":3.35,"target":"left","response":"left","rt":1087.7000000002,"correct":true,"confidence":3},{"trial_n":38,"n_dots":3.35,"target":"left","response":"left","rt":909.09999999963,"correct":true,"confidence":2},{"trial_n":39,"n_dots":3.25,"target":"left","response":"right","rt":1325.7999999998,"correct":false,"confidence":1},{"trial_n":40,"n_dots":3.35,"target":"left","response":"right","rt":824,"correct":false,"confidence":2},{"trial_n":41,"n_dots":3.45,"target":"left","response":"left","rt":221.40000000037,"correct":true,"confidence":4},{"trial_n":42,"n_dots":3.45,"target":"left","response":"right","rt":348.09999999963,"correct":false,"confidence":2},{"trial_n":43,"n_dots":3.55,"target":"left","response":"left","rt":569.5,"correct":true,"confidence":1},{"trial_n":44,"n_dots":3.55,"target":"left","response":"left","rt":804.60000000056,"correct":true,"confidence":4},{"trial_n":45,"n_dots":3.45,"target":"left","response":"left","rt":620.90000000037,"correct":true,"confidence":1},{"trial_n":46,"n_dots":3.45,"target":"right","response":"right","rt":619,"correct":true,"confidence":4},{"trial_n":47,"n_dots":3.35,"target":"left","response":"left","rt":2222.5,"correct":true,"confidence":1},{"trial_n":48,"n_dots":3.35,"target":"right","response":"right","rt":1060,"correct":true,"confidence":3},{"trial_n":49,"n_dots":3.25,"target":"right","response":"right","rt":370.79999999981,"correct":true,"confidence":2},{"trial_n":50,"n_dots":3.25,"target":"left","response":"right","rt":1196,"correct":false,"confidence":1},{"trial_n":51,"n_dots":3.35,"target":"right","response":"right","rt":593.79999999981,"correct":true,"confidence":1},{"trial_n":52,"n_dots":3.35,"target":"left","response":"left","rt":1159.4000000004,"correct":true,"confidence":1},{"trial_n":53,"n_dots":3.25,"target":"right","response":"right","rt":705.19999999925,"correct":true,"confidence":3},{"trial_n":54,"n_dots":3.25,"target":"right","response":"right","rt":633.5,"correct":true,"confidence":2},{"trial_n":55,"n_dots":3.15,"target":"left","response":"right","rt":738.40000000037,"correct":false,"confidence":1},{"trial_n":56,"n_dots":3.25,"target":"left","response":"left","rt":906.39999999944,"correct":true,"confidence":2},{"trial_n":57,"n_dots":3.25,"target":"left","response":"right","rt":740.09999999963,"correct":false,"confidence":1},{"trial_n":58,"n_dots":3.35,"target":"right","response":"right","rt":445.40000000037,"correct":true,"confidence":3},{"trial_n":59,"n_dots":3.35,"target":"right","response":"right","rt":227.70000000019,"correct":true,"confidence":3},{"trial_n":60,"n_dots":3.25,"target":"right","response":"right","rt":230.20000000019,"correct":true,"confidence":2},{"trial_n":61,"n_dots":3.25,"target":"left","response":"right","rt":254.5,"correct":false,"confidence":2},{"trial_n":62,"n_dots":3.35,"target":"right","response":"right","rt":270.89999999944,"correct":true,"confidence":1},{"trial_n":63,"n_dots":3.35,"target":"left","response":"left","rt":543.20000000019,"correct":true,"confidence":1},{"trial_n":64,"n_dots":3.25,"target":"right","response":"right","rt":554.40000000037,"correct":true,"confidence":2},{"trial_n":65,"n_dots":3.25,"target":"right","response":"right","rt":759.20000000019,"correct":true,"confidence":2},{"trial_n":66,"n_dots":3.15,"target":"right","response":"left","rt":2048.6000000006,"correct":false,"confidence":1},{"trial_n":67,"n_dots":3.25,"target":"left","response":"left","rt":848.79999999981,"correct":true,"confidence":1},{"trial_n":68,"n_dots":3.25,"target":"left","response":"left","rt":524.20000000019,"correct":true,"confidence":2},{"trial_n":69,"n_dots":3.15,"target":"right","response":"right","rt":542.39999999944,"correct":true,"confidence":3},{"trial_n":70,"n_dots":3.15,"target":"left","response":"right","rt":1171.8999999994,"correct":false,"confidence":1},{"trial_n":71,"n_dots":3.25,"target":"right","response":"right","rt":586.59999999963,"correct":true,"confidence":1},{"trial_n":72,"n_dots":3.25,"target":"right","response":"right","rt":454.60000000056,"correct":true,"confidence":2},{"trial_n":73,"n_dots":3.15,"target":"left","response":"right","rt":746.10000000056,"correct":false,"confidence":2},{"trial_n":74,"n_dots":3.25,"target":"right","response":"right","rt":409.40000000037,"correct":true,"confidence":2},{"trial_n":75,"n_dots":3.25,"target":"right","response":"right","rt":529.60000000056,"correct":true,"confidence":2},{"trial_n":76,"n_dots":3.15,"target":"right","response":"left","rt":1424.6000000006,"correct":false,"confidence":1},{"trial_n":77,"n_dots":3.25,"target":"left","response":"left","rt":609,"correct":true,"confidence":1},{"trial_n":78,"n_dots":3.25,"target":"right","response":"right","rt":788.20000000019,"correct":true,"confidence":3},{"trial_n":79,"n_dots":3.15,"target":"left","response":"left","rt":253.60000000056,"correct":true,"confidence":3},{"trial_n":80,"n_dots":3.15,"target":"left","response":"left","rt":1156.7000000002,"correct":true,"confidence":1},{"trial_n":81,"n_dots":3.05,"target":"left","response":"left","rt":189.70000000019,"correct":true,"confidence":1},{"trial_n":82,"n_dots":3.05,"target":"right","response":"right","rt":681.70000000019,"correct":true,"confidence":1},{"trial_n":83,"n_dots":2.95,"target":"left","response":"left","rt":738,"correct":true,"confidence":2},{"trial_n":84,"n_dots":2.95,"target":"left","response":"left","rt":618.5,"correct":true,"confidence":2},{"trial_n":85,"n_dots":2.85,"target":"left","response":"left","rt":346.5,"correct":true,"confidence":2},{"trial_n":86,"n_dots":2.85,"target":"left","response":"right","rt":2662.2999999998,"correct":false,"confidence":1},{"trial_n":87,"n_dots":2.95,"target":"left","response":"left","rt":511,"correct":true,"confidence":2},{"trial_n":88,"n_dots":2.95,"target":"right","response":"right","rt":221,"correct":true,"confidence":2},{"trial_n":89,"n_dots":2.85,"target":"right","response":"right","rt":410.39999999944,"correct":true,"confidence":2},{"trial_n":90,"n_dots":2.85,"target":"right","response":"left","rt":522.20000000019,"correct":false,"confidence":2},{"trial_n":91,"n_dots":2.95,"target":"left","response":"right","rt":159.79999999981,"correct":false,"confidence":2},{"trial_n":92,"n_dots":3.05,"target":"left","response":"left","rt":509.5,"correct":true,"confidence":2},{"trial_n":93,"n_dots":3.05,"target":"left","response":"right","rt":1240.9000000004,"correct":false,"confidence":1},{"trial_n":94,"n_dots":3.15,"target":"left","response":"left","rt":420.70000000019,"correct":true,"confidence":1},{"trial_n":95,"n_dots":3.15,"target":"right","response":"right","rt":171.5,"correct":true,"confidence":1},{"trial_n":96,"n_dots":3.05,"target":"right","response":"right","rt":477.39999999944,"correct":true,"confidence":2},{"trial_n":97,"n_dots":3.05,"target":"right","response":"right","rt":505.5,"correct":true,"confidence":1},{"trial_n":98,"n_dots":2.95,"target":"right","response":"right","rt":799.5,"correct":true,"confidence":2},{"trial_n":99,"n_dots":2.95,"target":"left","response":"left","rt":803.69999999925,"correct":true,"confidence":3},{"trial_n":100,"n_dots":2.85,"target":"right","response":"right","rt":654.80000000075,"correct":true,"confidence":1},{"trial_n":101,"n_dots":2.85,"target":"left","response":"left","rt":304.20000000019,"correct":true,"confidence":1},{"trial_n":102,"n_dots":2.75,"target":"right","response":"left","rt":436.90000000037,"correct":false,"confidence":2},{"trial_n":103,"n_dots":2.85,"target":"left","response":"left","rt":113.20000000019,"correct":true,"confidence":3},{"trial_n":104,"n_dots":2.85,"target":"right","response":"right","rt":441.40000000037,"correct":true,"confidence":2},{"trial_n":105,"n_dots":2.75,"target":"right","response":"right","rt":271.5,"correct":true,"confidence":2},{"trial_n":106,"n_dots":2.75,"target":"right","response":"right","rt":603.60000000056,"correct":true,"confidence":2},{"trial_n":107,"n_dots":2.65,"target":"left","response":"right","rt":448.09999999963,"correct":false,"confidence":2},{"trial_n":108,"n_dots":2.75,"target":"left","response":"left","rt":519.20000000019,"correct":true,"confidence":1},{"trial_n":109,"n_dots":2.75,"target":"right","response":"right","rt":203.69999999925,"correct":true,"confidence":3},{"trial_n":110,"n_dots":2.65,"target":"right","response":"right","rt":1171.1000000006,"correct":true,"confidence":1},{"trial_n":111,"n_dots":2.65,"target":"left","response":"left","rt":554.30000000075,"correct":true,"confidence":2},{"trial_n":112,"n_dots":2.55,"target":"right","response":"left","rt":588.29999999981,"correct":false,"confidence":2},{"trial_n":113,"n_dots":2.65,"target":"left","response":"left","rt":322.30000000075,"correct":true,"confidence":3},{"trial_n":114,"n_dots":2.65,"target":"left","response":"right","rt":855.59999999963,"correct":false,"confidence":2},{"trial_n":115,"n_dots":2.75,"target":"left","response":"right","rt":736.20000000019,"correct":false,"confidence":1},{"trial_n":116,"n_dots":2.85,"target":"left","response":"left","rt":693.89999999944,"correct":true,"confidence":1},{"trial_n":117,"n_dots":2.85,"target":"right","response":"left","rt":586.59999999963,"correct":false,"confidence":1},{"trial_n":118,"n_dots":2.95,"target":"right","response":"right","rt":939.40000000037,"correct":true,"confidence":1},{"trial_n":119,"n_dots":2.95,"target":"right","response":"right","rt":875.10000000056,"correct":true,"confidence":1},{"trial_n":120,"n_dots":2.85,"target":"left","response":"left","rt":759,"correct":true,"confidence":1}]