[{"trial_n":1,"span":8,"encoder":"24727769","distractor":"24727761","target":"present","response":"present","rt":"4857.7999999523","correct":true,"confidence":-1},{"trial_n":2,"span":8,"encoder":"68352118","distractor":"68552118","target":"present","response":"present","rt":"1337","correct":true,"confidence":-1},{"trial_n":3,"span":10,"encoder":"9641391331","distractor":"9643391331","target":"absent","response":"present","rt":"1736.6999999881","correct":false,"confidence":-1},{"trial_n":4,"span":8,"encoder":"08816538","distractor":"09816538","target":"absent","response":"present","rt":"2004.7999999523","correct":false,"confidence":-1},{"trial_n":5,"span":6,"encoder":"379084","distractor":"319084","target":"present","response":"present","rt":"1725.8999999762","correct":true,"confidence":-1},{"trial_n":6,"span":6,"encoder":"832881","distractor":"832781","target":"absent","response":"absent","rt":"2154.8000000119","correct":true,"confidence":-1},{"trial_n":7,"span":8,"encoder":"04806641","distractor":"04806647","target":"present","response":"absent","rt":"2397.1999999881","correct":false,"confidence":-1},{"trial_n":8,"span":6,"encoder":"751875","distractor":"721875","target":"present","response":"present","rt":"1839.5999999642","correct":true,"confidence":-1},{"trial_n":9,"span":6,"encoder":"140937","distractor":"145937","target":"present","response":"present","rt":"1554.3000000119","correct":true,"confidence":-1},{"trial_n":10,"span":8,"encoder":"46549974","distractor":"44549974","target":"absent","response":"present","rt":"3640.8999999762","correct":false,"confidence":-1},{"trial_n":11,"span":6,"encoder":"364142","distractor":"364147","target":"present","response":"present","rt":"2358.6999999881","correct":true,"confidence":-1},{"trial_n":12,"span":6,"encoder":"840063","distractor":"840065","target":"present","response":"present","rt":"813.60000002384","correct":true,"confidence":-1},{"trial_n":13,"span":7,"encoder":"2648296","distractor":"3648296","target":"present","response":"present","rt":"757.80000001192","correct":true,"confidence":-1},{"trial_n":14,"span":7,"encoder":"9799375","distractor":"9799372","target":"present","response":"present","rt":"1909.3999999762","correct":true,"confidence":-1},{"trial_n":15,"span":8,"encoder":"16379548","distractor":"16329548","target":"absent","response":"absent","rt":"2170.6999999881","correct":true,"confidence":-1},{"trial_n":16,"span":8,"encoder":"58373817","distractor":"51373817","target":"present","response":"absent","rt":"2156.1000000238","correct":false,"confidence":-1},{"trial_n":17,"span":7,"encoder":"1609923","distractor":"6609923","target":"present","response":"present","rt":"1473.0999999642","correct":true,"confidence":-1},{"trial_n":18,"span":7,"encoder":"1694003","distractor":"1694303","target":"absent","response":"present","rt":"1333.3000000119","correct":false,"confidence":-1},{"trial_n":19,"span":6,"encoder":"118081","distractor":"112081","target":"absent","response":"present","rt":"1080","correct":false,"confidence":-1},{"trial_n":20,"span":5,"encoder":"89220","distractor":"89223","target":"present","response":"present","rt":"823.89999997616","correct":true,"confidence":-1},{"trial_n":21,"span":5,"encoder":"11578","distractor":"11588","target":"present","response":"present","rt":"1813.1000000238","correct":true,"confidence":3},{"trial_n":22,"span":6,"encoder":"932212","distractor":"934212","target":"present","response":"present","rt":"1767.5","correct":true,"confidence":4},{"trial_n":23,"span":6,"encoder":"276953","distractor":"276951","target":"present","response":"present","rt":"1908.2999999523","correct":true,"confidence":2},{"trial_n":24,"span":7,"encoder":"3555922","distractor":"3559922","target":"present","response":"present","rt":"1809.6000000238","correct":true,"confidence":4},{"trial_n":25,"span":7,"encoder":"1797347","distractor":"1797147","target":"present","response":"present","rt":"2286.1999999881","correct":true,"confidence":3},{"trial_n":26,"span":8,"encoder":"40379020","distractor":"40349020","target":"absent","response":"absent","rt":"2259.3999999762","correct":true,"confidence":4},{"trial_n":27,"span":8,"encoder":"12538899","distractor":"12538896","target":"absent","response":"absent","rt":"1578.5","correct":true,"confidence":4},{"trial_n":28,"span":9,"encoder":"979684696","distractor":"979984696","target":"absent","response":"absent","rt":"1898.2999999523","correct":true,"confidence":3},{"trial_n":29,"span":9,"encoder":"541817948","distractor":"541817648","target":"absent","response":"absent","rt":"4331.5999999642","correct":true,"confidence":3},{"trial_n":30,"span":10,"encoder":"1889998438","distractor":"1889998432","target":"present","response":"present","rt":"4029.3000000119","correct":true,"confidence":4},{"trial_n":31,"span":10,"encoder":"9539035664","distractor":"9535035664","target":"absent","response":"present","rt":"3960.5999999642","correct":false,"confidence":3},{"trial_n":32,"span":9,"encoder":"617990581","distractor":"617990281","target":"present","response":"absent","rt":"2162.6999999881","correct":false,"confidence":3},{"trial_n":33,"span":8,"encoder":"54342568","distractor":"54342565","target":"absent","response":"absent","rt":"1976.1000000238","correct":true,"confidence":3},{"trial_n":34,"span":8,"encoder":"55023781","distractor":"55823781","target":"absent","response":"present","rt":"3241.5","correct":false,"confidence":4},{"trial_n":35,"span":7,"encoder":"3774366","distractor":"3784366","target":"absent","response":"present","rt":"2743.5","correct":false,"confidence":3},{"trial_n":36,"span":6,"encoder":"871508","distractor":"831508","target":"absent","response":"absent","rt":"3707.5","correct":true,"confidence":4},{"trial_n":37,"span":6,"encoder":"648041","distractor":"646041","target":"present","response":"present","rt":"2785.6999999881","correct":true,"confidence":5},{"trial_n":38,"span":7,"encoder":"0903176","distractor":"0901176","target":"absent","response":"absent","rt":"2839.6999999881","correct":true,"confidence":4},{"trial_n":39,"span":7,"encoder":"2897339","distractor":"5897339","target":"absent","response":"absent","rt":"4014.6999999881","correct":true,"confidence":4},{"trial_n":40,"span":8,"encoder":"80611406","distractor":"80681406","target":"absent","response":"absent","rt":"3545.3000000119","correct":true,"confidence":3},{"trial_n":41,"span":8,"encoder":"26695972","distractor":"26698972","target":"absent","response":"absent","rt":"4127.5999999642","correct":true,"confidence":3},{"trial_n":42,"span":9,"encoder":"954864698","distractor":"954834698","target":"absent","response":"present","rt":"2824.0999999642","correct":false,"confidence":2},{"trial_n":43,"span":8,"encoder":"91806784","distractor":"91846784","target":"present","response":"present","rt":"1763.2000000477","correct":true,"confidence":3},{"trial_n":44,"span":8,"encoder":"15617870","distractor":"05617870","target":"present","response":"present","rt":"1405.5","correct":true,"confidence":3},{"trial_n":45,"span":9,"encoder":"680403268","distractor":"680453268","target":"present","response":"present","rt":"1463.3000000119","correct":true,"confidence":3},{"trial_n":46,"span":9,"encoder":"216469849","distractor":"216469449","target":"absent","response":"absent","rt":"1854.8000000119","correct":true,"confidence":3},{"trial_n":47,"span":10,"encoder":"9552379540","distractor":"9552879540","target":"present","response":"present","rt":"2955.9000000358","correct":true,"confidence":3},{"trial_n":48,"span":10,"encoder":"1513480607","distractor":"1313480607","target":"absent","response":"absent","rt":"3616.6000000238","correct":true,"confidence":3},{"trial_n":49,"span":11,"encoder":"24367469859","distractor":"24367489859","target":"present","response":"present","rt":"1893.1000000238","correct":true,"confidence":2},{"trial_n":50,"span":11,"encoder":"57462531469","distractor":"57462531369","target":"absent","response":"present","rt":"1685.3999999762","correct":false,"confidence":2},{"trial_n":51,"span":10,"encoder":"5115354490","distractor":"5117354490","target":"absent","response":"present","rt":"1913.4000000358","correct":false,"confidence":2},{"trial_n":52,"span":9,"encoder":"239748480","distractor":"839748480","target":"present","response":"present","rt":"4174.6000000238","correct":true,"confidence":4},{"trial_n":53,"span":9,"encoder":"783499684","distractor":"783494684","target":"present","response":"present","rt":"4076.6000000238","correct":true,"confidence":3},{"trial_n":54,"span":10,"encoder":"1379716869","distractor":"1379786869","target":"present","response":"present","rt":"2681.6999999881","correct":true,"confidence":2},{"trial_n":55,"span":10,"encoder":"9564709891","distractor":"6564709891","target":"absent","response":"present","rt":"1789.3000000119","correct":false,"confidence":2},{"trial_n":56,"span":9,"encoder":"710944859","distractor":"710944858","target":"absent","response":"present","rt":"2078.4000000358","correct":false,"confidence":3},{"trial_n":57,"span":8,"encoder":"32538631","distractor":"32533631","target":"absent","response":"absent","rt":"2010.8000000119","correct":true,"confidence":4},{"trial_n":58,"span":8,"encoder":"18759365","distractor":"18659365","target":"absent","response":"present","rt":"2714","correct":false,"confidence":2},{"trial_n":59,"span":7,"encoder":"7630268","distractor":"7610268","target":"present","response":"present","rt":"2055.8999999762","correct":true,"confidence":1},{"trial_n":60,"span":7,"encoder":"1056998","distractor":"4056998","target":"present","response":"present","rt":"2958.0999999642","correct":true,"confidence":3},{"trial_n":61,"span":8,"encoder":"10608173","distractor":"10600173","target":"present","response":"present","rt":"2127.5999999642","correct":true,"confidence":3},{"trial_n":62,"span":8,"encoder":"32794221","distractor":"32774221","target":"absent","response":"present","rt":"1727.2999999523","correct":false,"confidence":3},{"trial_n":63,"span":7,"encoder":"6026180","distractor":"6026100","target":"absent","response":"absent","rt":"2400.6999999881","correct":true,"confidence":1},{"trial_n":64,"span":7,"encoder":"3984722","distractor":"3974722","target":"present","response":"present","rt":"1469.1000000238","correct":true,"confidence":1},{"trial_n":65,"span":8,"encoder":"50637311","distractor":"50637111","target":"present","response":"present","rt":"1499","correct":true,"confidence":3},{"trial_n":66,"span":8,"encoder":"18442510","distractor":"18442010","target":"present","response":"present","rt":"3239.6999999881","correct":true,"confidence":5},{"trial_n":67,"span":9,"encoder":"610818172","distractor":"610818177","target":"absent","response":"absent","rt":"2245.8999999762","correct":true,"confidence":5},{"trial_n":68,"span":9,"encoder":"076174723","distractor":"076174721","target":"absent","response":"absent","rt":"1665.8000000119","correct":true,"confidence":1},{"trial_n":69,"span":10,"encoder":"5055319722","distractor":"6055319722","target":"present","response":"present","rt":"2403.6000000238","correct":true,"confidence":4},{"trial_n":70,"span":10,"encoder":"2406753834","distractor":"2406253834","target":"absent","response":"absent","rt":"3238.1000000238","correct":true,"confidence":2},{"trial_n":71,"span":8,"encoder":"21135405","distractor":"21135408","target":"present","response":"present","rt":"6566","correct":true,"confidence":-1},{"trial_n":72,"span":8,"encoder":"27765249","distractor":"27465249","target":"present","response":"present","rt":"4818.1999999881","correct":true,"confidence":-1},{"trial_n":73,"span":9,"encoder":"880704007","distractor":"380704007","target":"absent","response":"absent","rt":"5488.3999999762","correct":true,"confidence":-1},{"trial_n":74,"span":9,"encoder":"889955186","distractor":"889951186","target":"absent","response":"absent","rt":"3209.1000000238","correct":true,"confidence":-1},{"trial_n":75,"span":10,"encoder":"7886447775","distractor":"7886447975","target":"present","response":"present","rt":"2152.6000000238","correct":true,"confidence":-1},{"trial_n":76,"span":10,"encoder":"4203911170","distractor":"4202911170","target":"absent","response":"absent","rt":"1523.8000000119","correct":true,"confidence":-1},{"trial_n":77,"span":11,"encoder":"01829492487","distractor":"01329492487","target":"absent","response":"absent","rt":"2542.6999999881","correct":true,"confidence":-1},{"trial_n":78,"span":11,"encoder":"68182890167","distractor":"68182290167","target":"absent","response":"absent","rt":"5048.1999999881","correct":true,"confidence":-1},{"trial_n":79,"span":12,"encoder":"588726289259","distractor":"588726239259","target":"present","response":"present","rt":"2230.8999999762","correct":true,"confidence":-1},{"trial_n":80,"span":12,"encoder":"320760777886","distractor":"320760877886","target":"absent","response":"present","rt":"6386.2999999523","correct":false,"confidence":-1},{"trial_n":81,"span":11,"encoder":"94350732131","distractor":"94350732136","target":"present","response":"present","rt":"1406.8999999762","correct":true,"confidence":-1},{"trial_n":82,"span":11,"encoder":"44232847370","distractor":"44272847370","target":"absent","response":"absent","rt":"6330.5999999642","correct":true,"confidence":-1},{"trial_n":83,"span":12,"encoder":"633697160388","distractor":"433697160388","target":"present","response":"absent","rt":"3420.3999999762","correct":false,"confidence":-1},{"trial_n":84,"span":11,"encoder":"03945166723","distractor":"03945196723","target":"absent","response":"present","rt":"4317.1000000238","correct":false,"confidence":-1},{"trial_n":85,"span":10,"encoder":"2807486899","distractor":"2407486899","target":"present","response":"absent","rt":"807.70000004768","correct":false,"confidence":-1},{"trial_n":86,"span":9,"encoder":"887485094","distractor":"887485064","target":"present","response":"present","rt":"7851.5999999642","correct":true,"confidence":-1},{"trial_n":87,"span":9,"encoder":"484211244","distractor":"484211245","target":"absent","response":"absent","rt":"1834.1999999881","correct":true,"confidence":-1},{"trial_n":88,"span":10,"encoder":"3426618746","distractor":"3426718746","target":"present","response":"absent","rt":"7270.8999999762","correct":false,"confidence":-1},{"trial_n":89,"span":9,"encoder":"460783696","distractor":"460083696","target":"present","response":"present","rt":"6606.8999999762","correct":true,"confidence":-1},{"trial_n":90,"span":9,"encoder":"765115728","distractor":"765115721","target":"absent","response":"absent","rt":"2420.1999999881","correct":true,"confidence":-1},{"trial_n":91,"span":10,"encoder":"6982107022","distractor":"6982107023","target":"present","response":"present","rt":"4867.1999999881","correct":true,"confidence":5},{"trial_n":92,"span":10,"encoder":"4002352372","distractor":"4002362372","target":"absent","response":"absent","rt":"4515.1999999881","correct":true,"confidence":4},{"trial_n":93,"span":11,"encoder":"54456787408","distractor":"94456787408","target":"absent","response":"absent","rt":"4592.3999999762","correct":true,"confidence":2},{"trial_n":94,"span":11,"encoder":"60796609114","distractor":"60796209114","target":"present","response":"present","rt":"6669.7999999523","correct":true,"confidence":3},{"trial_n":95,"span":12,"encoder":"537826229269","distractor":"537826225269","target":"present","response":"absent","rt":"3763.2999999523","correct":false,"confidence":4},{"trial_n":96,"span":11,"encoder":"05171230463","distractor":"05171930463","target":"present","response":"present","rt":"6381.8999999762","correct":true,"confidence":2},{"trial_n":97,"span":11,"encoder":"37269054140","distractor":"37269054141","target":"present","response":"present","rt":"4993.6000000238","correct":true,"confidence":4},{"trial_n":98,"span":12,"encoder":"591852840093","distractor":"691852840093","target":"absent","response":"absent","rt":"4909.8999999762","correct":true,"confidence":3},{"trial_n":99,"span":12,"encoder":"615506952840","distractor":"615506950840","target":"absent","response":"absent","rt":"4313.5","correct":true,"confidence":3},{"trial_n":100,"span":13,"encoder":"5803091462584","distractor":"5803091462684","target":"present","response":"absent","rt":"8662.3999999762","correct":false,"confidence":2},{"trial_n":101,"span":12,"encoder":"317299507557","distractor":"318299507557","target":"present","response":"present","rt":"8142.6999999881","correct":true,"confidence":2},{"trial_n":102,"span":12,"encoder":"246272901541","distractor":"246272902541","target":"absent","response":"present","rt":"10266.100000024","correct":false,"confidence":2},{"trial_n":103,"span":11,"encoder":"05480472532","distractor":"05480472534","target":"absent","response":"absent","rt":"11820.399999976","correct":true,"confidence":3},{"trial_n":104,"span":11,"encoder":"99564343909","distractor":"95564343909","target":"absent","response":"absent","rt":"9959.7000000477","correct":true,"confidence":3},{"trial_n":105,"span":12,"encoder":"002614501288","distractor":"052614501288","target":"present","response":"present","rt":"8053.8000000119","correct":true,"confidence":4},{"trial_n":106,"span":12,"encoder":"151550426821","distractor":"121550426821","target":"absent","response":"absent","rt":"12885.5","correct":true,"confidence":2},{"trial_n":107,"span":13,"encoder":"8711966522554","distractor":"8411966522554","target":"present","response":"present","rt":"6646.6999999881","correct":true,"confidence":3},{"trial_n":108,"span":13,"encoder":"1886775264904","distractor":"0886775264904","target":"present","response":"present","rt":"3528","correct":true,"confidence":2},{"trial_n":109,"span":14,"encoder":"52132007009430","distractor":"52132007009490","target":"absent","response":"absent","rt":"2631.5","correct":true,"confidence":4},{"trial_n":110,"span":14,"encoder":"57847926058083","distractor":"57847929058083","target":"present","response":"absent","rt":"8039.3999999762","correct":false,"confidence":2},{"trial_n":111,"span":13,"encoder":"5794914930764","distractor":"5794914030764","target":"present","response":"present","rt":"5626.1999999881","correct":true,"confidence":3},{"trial_n":112,"span":13,"encoder":"7296708309602","distractor":"7296768309602","target":"absent","response":"present","rt":"2994.0999999642","correct":false,"confidence":1},{"trial_n":113,"span":12,"encoder":"322178113554","distractor":"322178133554","target":"absent","response":"absent","rt":"9164.7999999523","correct":true,"confidence":3},{"trial_n":114,"span":12,"encoder":"368969886695","distractor":"368989886695","target":"present","response":"present","rt":"7846.7000000477","correct":true,"confidence":2},{"trial_n":115,"span":13,"encoder":"3862621352175","distractor":"3862621352178","target":"absent","response":"absent","rt":"3025.5","correct":true,"confidence":4},{"trial_n":116,"span":13,"encoder":"0444716596082","distractor":"0444746596082","target":"absent","response":"present","rt":"10136.100000024","correct":false,"confidence":3},{"trial_n":117,"span":12,"encoder":"367711114315","distractor":"367714114315","target":"absent","response":"absent","rt":"3666.8000000119","correct":true,"confidence":3},{"trial_n":118,"span":12,"encoder":"662695735086","distractor":"662595735086","target":"present","response":"absent","rt":"11600.100000024","correct":false,"confidence":1},{"trial_n":119,"span":11,"encoder":"43527955981","distractor":"43527955951","target":"present","response":"present","rt":"3737.7999999523","correct":true,"confidence":5},{"trial_n":120,"span":11,"encoder":"88931403320","distractor":"88937403320","target":"present","response":"present","rt":"8186.6000000238","correct":true,"confidence":3},{"trial_n":121,"span":12,"encoder":"841650222126","distractor":"831650222126","target":"present","response":"absent","rt":"10243.100000024","correct":false,"confidence":2},{"trial_n":122,"span":11,"encoder":"46581084571","distractor":"46581083571","target":"absent","response":"absent","rt":"6570.6000000238","correct":true,"confidence":4},{"trial_n":123,"span":11,"encoder":"09896491666","distractor":"09896491616","target":"present","response":"present","rt":"3849.5","correct":true,"confidence":4},{"trial_n":124,"span":12,"encoder":"356693807315","distractor":"356693877315","target":"present","response":"present","rt":"11222.600000024","correct":true,"confidence":3},{"trial_n":125,"span":12,"encoder":"748838400649","distractor":"748838450649","target":"absent","response":"absent","rt":"7161.2000000477","correct":true,"confidence":4},{"trial_n":126,"span":13,"encoder":"9794951134072","distractor":"9794959134072","target":"absent","response":"absent","rt":"4739.3999999762","correct":true,"confidence":3},{"trial_n":127,"span":13,"encoder":"8051627519452","distractor":"8051827519452","target":"absent","response":"absent","rt":"5737.5999999642","correct":true,"confidence":2},{"trial_n":128,"span":14,"encoder":"82487928176080","distractor":"82487928576080","target":"absent","response":"present","rt":"8982.5999999642","correct":false,"confidence":1},{"trial_n":129,"span":13,"encoder":"8923879384731","distractor":"8923879304731","target":"present","response":"present","rt":"4604.8000000119","correct":true,"confidence":3},{"trial_n":130,"span":13,"encoder":"3780499778982","distractor":"2780499778982","target":"present","response":"present","rt":"6111.8000000119","correct":true,"confidence":3},{"trial_n":131,"span":14,"encoder":"80871915477295","distractor":"80871715477295","target":"absent","response":"absent","rt":"5990.9000000358","correct":true,"confidence":3},{"trial_n":132,"span":14,"encoder":"77395076853586","distractor":"79395076853586","target":"absent","response":"present","rt":"7350.5","correct":false,"confidence":3},{"trial_n":133,"span":13,"encoder":"3285200248400","distractor":"0285200248400","target":"present","response":"present","rt":"6989.5","correct":true,"confidence":2},{"trial_n":134,"span":13,"encoder":"9314874954980","distractor":"9314874924980","target":"present","response":"present","rt":"7375","correct":true,"confidence":1},{"trial_n":135,"span":14,"encoder":"05330271704727","distractor":"05330271764727","target":"absent","response":"present","rt":"28295","correct":false,"confidence":1},{"trial_n":136,"span":13,"encoder":"2777534116525","distractor":"2777534116545","target":"present","response":"absent","rt":"8996.0999999642","correct":false,"confidence":1},{"trial_n":137,"span":12,"encoder":"685635066962","distractor":"685635066963","target":"present","response":"absent","rt":"4805.6000000238","correct":false,"confidence":3},{"trial_n":138,"span":11,"encoder":"79891700062","distractor":"79891720062","target":"absent","response":"present","rt":"9958.3999999762","correct":false,"confidence":3},{"trial_n":139,"span":10,"encoder":"3785986765","distractor":"3785906765","target":"present","response":"absent","rt":"8141.8000000119","correct":false,"confidence":3},{"trial_n":140,"span":9,"encoder":"639681449","distractor":"639681349","target":"absent","response":"absent","rt":"12623.399999976","correct":true,"confidence":1}]