[{"trial_n":1,"min":25,"max":230,"target":"present","response":"present","rt":4042,"correct":true,"confidence":-1},{"trial_n":2,"min":25,"max":230,"target":"present","response":"present","rt":778,"correct":true,"confidence":-1},{"trial_n":3,"min":41,"max":214,"target":"absent","response":"absent","rt":1290,"correct":true,"confidence":-1},{"trial_n":4,"min":41,"max":214,"target":"absent","response":"absent","rt":540,"correct":true,"confidence":-1},{"trial_n":5,"min":57,"max":198,"target":"present","response":"present","rt":700,"correct":true,"confidence":-1},{"trial_n":6,"min":57,"max":198,"target":"absent","response":"absent","rt":674,"correct":true,"confidence":-1},{"trial_n":7,"min":73,"max":182,"target":"absent","response":"absent","rt":607,"correct":true,"confidence":-1},{"trial_n":8,"min":73,"max":182,"target":"absent","response":"absent","rt":539,"correct":true,"confidence":-1},{"trial_n":9,"min":89,"max":166,"target":"absent","response":"absent","rt":506,"correct":true,"confidence":-1},{"trial_n":10,"min":89,"max":166,"target":"absent","response":"absent","rt":540,"correct":true,"confidence":-1},{"trial_n":11,"min":97,"max":158,"target":"absent","response":"absent","rt":590,"correct":true,"confidence":-1},{"trial_n":12,"min":97,"max":158,"target":"present","response":"absent","rt":499,"correct":false,"confidence":-1},{"trial_n":13,"min":89,"max":166,"target":"present","response":"absent","rt":733,"correct":false,"confidence":-1},{"trial_n":14,"min":81,"max":174,"target":"absent","response":"absent","rt":739.99999999997,"correct":true,"confidence":-1},{"trial_n":15,"min":81,"max":174,"target":"absent","response":"absent","rt":624,"correct":true,"confidence":-1},{"trial_n":16,"min":89,"max":166,"target":"present","response":"present","rt":751,"correct":true,"confidence":-1},{"trial_n":17,"min":89,"max":166,"target":"present","response":"absent","rt":3317,"correct":false,"confidence":-1},{"trial_n":18,"min":81,"max":174,"target":"present","response":"present","rt":1017,"correct":true,"confidence":-1},{"trial_n":19,"min":81,"max":174,"target":"absent","response":"absent","rt":824,"correct":true,"confidence":-1},{"trial_n":20,"min":89,"max":166,"target":"absent","response":"present","rt":1724,"correct":false,"confidence":-1},{"trial_n":21,"min":85,"max":170,"target":"absent","response":"present","rt":1794,"correct":false,"confidence":3},{"trial_n":22,"min":81,"max":174,"target":"absent","response":"absent","rt":1193,"correct":true,"confidence":1},{"trial_n":23,"min":81,"max":174,"target":"present","response":"present","rt":936,"correct":true,"confidence":3},{"trial_n":24,"min":85,"max":170,"target":"absent","response":"present","rt":1378.0000000001,"correct":false,"confidence":2},{"trial_n":25,"min":81,"max":174,"target":"present","response":"absent","rt":2454,"correct":false,"confidence":3},{"trial_n":26,"min":77,"max":178,"target":"absent","response":"absent","rt":1693,"correct":true,"confidence":2},{"trial_n":27,"min":77,"max":178,"target":"present","response":"present","rt":1252.9999999999,"correct":true,"confidence":3},{"trial_n":28,"min":81,"max":174,"target":"absent","response":"absent","rt":15662,"correct":true,"confidence":1},{"trial_n":29,"min":81,"max":174,"target":"present","response":"present","rt":1121,"correct":true,"confidence":5},{"trial_n":30,"min":85,"max":170,"target":"absent","response":"present","rt":894.99999999994,"correct":false,"confidence":4},{"trial_n":31,"min":83,"max":172,"target":"present","response":"present","rt":1029,"correct":true,"confidence":4},{"trial_n":32,"min":83,"max":172,"target":"absent","response":"present","rt":978,"correct":false,"confidence":3},{"trial_n":33,"min":81,"max":174,"target":"present","response":"absent","rt":1654.9999999999,"correct":false,"confidence":3},{"trial_n":34,"min":79,"max":176,"target":"absent","response":"present","rt":1061,"correct":false,"confidence":5},{"trial_n":35,"min":77,"max":178,"target":"absent","response":"present","rt":1378,"correct":false,"confidence":5},{"trial_n":36,"min":75,"max":180,"target":"present","response":"present","rt":1356.0000000001,"correct":true,"confidence":5},{"trial_n":37,"min":75,"max":180,"target":"present","response":"present","rt":1005.0000000001,"correct":true,"confidence":5},{"trial_n":38,"min":77,"max":178,"target":"present","response":"absent","rt":1188,"correct":false,"confidence":3},{"trial_n":39,"min":75,"max":180,"target":"present","response":"present","rt":1855,"correct":true,"confidence":1},{"trial_n":40,"min":75,"max":180,"target":"present","response":"present","rt":1055,"correct":true,"confidence":5},{"trial_n":41,"min":76,"max":179,"target":"absent","response":"present","rt":819,"correct":false,"confidence":3},{"trial_n":42,"min":75,"max":180,"target":"present","response":"present","rt":803,"correct":true,"confidence":3},{"trial_n":43,"min":75,"max":180,"target":"present","response":"present","rt":1156,"correct":true,"confidence":4},{"trial_n":44,"min":76,"max":179,"target":"present","response":"present","rt":905,"correct":true,"confidence":4},{"trial_n":45,"min":76,"max":179,"target":"present","response":"absent","rt":2023,"correct":false,"confidence":2},{"trial_n":46,"min":75,"max":180,"target":"absent","response":"present","rt":878.99999999994,"correct":false,"confidence":3},{"trial_n":47,"min":74,"max":181,"target":"absent","response":"absent","rt":2529,"correct":true,"confidence":3},{"trial_n":48,"min":74,"max":181,"target":"absent","response":"present","rt":929.99999999994,"correct":false,"confidence":4},{"trial_n":49,"min":73,"max":182,"target":"present","response":"present","rt":7624,"correct":true,"confidence":2},{"trial_n":50,"min":73,"max":182,"target":"absent","response":"absent","rt":996,"correct":true,"confidence":3},{"trial_n":51,"min":74,"max":181,"target":"absent","response":"present","rt":822,"correct":false,"confidence":3},{"trial_n":52,"min":73,"max":182,"target":"present","response":"present","rt":788.99999999994,"correct":true,"confidence":4},{"trial_n":53,"min":73,"max":182,"target":"present","response":"present","rt":1040,"correct":true,"confidence":5},{"trial_n":54,"min":74,"max":181,"target":"absent","response":"absent","rt":1096,"correct":true,"confidence":4},{"trial_n":55,"min":74,"max":181,"target":"present","response":"present","rt":907,"correct":true,"confidence":4},{"trial_n":56,"min":75,"max":180,"target":"absent","response":"absent","rt":981,"correct":true,"confidence":4},{"trial_n":57,"min":75,"max":180,"target":"present","response":"present","rt":923,"correct":true,"confidence":5},{"trial_n":58,"min":76,"max":179,"target":"present","response":"present","rt":13624,"correct":true,"confidence":3},{"trial_n":59,"min":76,"max":179,"target":"absent","response":"absent","rt":1564,"correct":true,"confidence":2},{"trial_n":60,"min":77,"max":178,"target":"absent","response":"present","rt":965,"correct":false,"confidence":3},{"trial_n":61,"min":76,"max":179,"target":"absent","response":"absent","rt":1025.9999999999,"correct":true,"confidence":4},{"trial_n":62,"min":76,"max":179,"target":"present","response":"present","rt":875,"correct":true,"confidence":3},{"trial_n":63,"min":77,"max":178,"target":"present","response":"present","rt":1057,"correct":true,"confidence":4},{"trial_n":64,"min":77,"max":178,"target":"present","response":"absent","rt":909,"correct":false,"confidence":3},{"trial_n":65,"min":76,"max":179,"target":"present","response":"present","rt":1225,"correct":true,"confidence":4},{"trial_n":66,"min":76,"max":179,"target":"absent","response":"present","rt":1282.0000000001,"correct":false,"confidence":4},{"trial_n":67,"min":75,"max":180,"target":"present","response":"present","rt":857.99999999994,"correct":true,"confidence":3},{"trial_n":68,"min":75,"max":180,"target":"present","response":"present","rt":924,"correct":true,"confidence":4},{"trial_n":69,"min":76,"max":179,"target":"present","response":"present","rt":1158,"correct":true,"confidence":4},{"trial_n":70,"min":76,"max":179,"target":"absent","response":"present","rt":1282,"correct":false,"confidence":3},{"trial_n":71,"min":41,"max":214,"target":"present","response":"present","rt":2393,"correct":true,"confidence":-1},{"trial_n":72,"min":41,"max":214,"target":"present","response":"absent","rt":123,"correct":false,"confidence":-1},{"trial_n":73,"min":25,"max":230,"target":"absent","response":"absent","rt":393,"correct":true,"confidence":-1},{"trial_n":74,"min":25,"max":230,"target":"absent","response":"absent","rt":480,"correct":true,"confidence":-1},{"trial_n":75,"min":41,"max":214,"target":"present","response":"present","rt":347,"correct":true,"confidence":-1},{"trial_n":76,"min":41,"max":214,"target":"present","response":"present","rt":165,"correct":true,"confidence":-1},{"trial_n":77,"min":57,"max":198,"target":"present","response":"present","rt":463,"correct":true,"confidence":-1},{"trial_n":78,"min":57,"max":198,"target":"absent","response":"absent","rt":715,"correct":true,"confidence":-1},{"trial_n":79,"min":73,"max":182,"target":"present","response":"absent","rt":721,"correct":false,"confidence":-1},{"trial_n":80,"min":57,"max":198,"target":"present","response":"present","rt":422,"correct":true,"confidence":-1},{"trial_n":81,"min":57,"max":198,"target":"absent","response":"absent","rt":548.99999999988,"correct":true,"confidence":-1},{"trial_n":82,"min":65,"max":190,"target":"absent","response":"absent","rt":541.99999999988,"correct":true,"confidence":-1},{"trial_n":83,"min":65,"max":190,"target":"present","response":"present","rt":285,"correct":true,"confidence":-1},{"trial_n":84,"min":73,"max":182,"target":"present","response":"present","rt":389,"correct":true,"confidence":-1},{"trial_n":85,"min":73,"max":182,"target":"present","response":"present","rt":572,"correct":true,"confidence":-1},{"trial_n":86,"min":81,"max":174,"target":"absent","response":"absent","rt":479,"correct":true,"confidence":-1},{"trial_n":87,"min":81,"max":174,"target":"absent","response":"present","rt":590,"correct":false,"confidence":-1},{"trial_n":88,"min":73,"max":182,"target":"absent","response":"present","rt":395,"correct":false,"confidence":-1},{"trial_n":89,"min":65,"max":190,"target":"present","response":"present","rt":445,"correct":true,"confidence":-1},{"trial_n":90,"min":65,"max":190,"target":"absent","response":"absent","rt":467.99999999988,"correct":true,"confidence":-1},{"trial_n":91,"min":69,"max":186,"target":"present","response":"present","rt":331.00000000012,"correct":true,"confidence":5},{"trial_n":92,"min":69,"max":186,"target":"present","response":"present","rt":522.99999999988,"correct":true,"confidence":1},{"trial_n":93,"min":73,"max":182,"target":"present","response":"absent","rt":1105,"correct":false,"confidence":3},{"trial_n":94,"min":69,"max":186,"target":"present","response":"present","rt":1268,"correct":true,"confidence":3},{"trial_n":95,"min":69,"max":186,"target":"absent","response":"absent","rt":679,"correct":true,"confidence":4},{"trial_n":96,"min":73,"max":182,"target":"absent","response":"absent","rt":787,"correct":true,"confidence":5},{"trial_n":97,"min":73,"max":182,"target":"absent","response":"absent","rt":958,"correct":true,"confidence":4},{"trial_n":98,"min":77,"max":178,"target":"present","response":"present","rt":294,"correct":true,"confidence":4},{"trial_n":99,"min":77,"max":178,"target":"present","response":"present","rt":630,"correct":true,"confidence":4},{"trial_n":100,"min":81,"max":174,"target":"absent","response":"present","rt":749,"correct":false,"confidence":4},{"trial_n":101,"min":79,"max":176,"target":"absent","response":"present","rt":453,"correct":false,"confidence":3},{"trial_n":102,"min":77,"max":178,"target":"present","response":"present","rt":416,"correct":true,"confidence":3},{"trial_n":103,"min":77,"max":178,"target":"absent","response":"absent","rt":714.00000000012,"correct":true,"confidence":4},{"trial_n":104,"min":79,"max":176,"target":"absent","response":"absent","rt":555.00000000012,"correct":true,"confidence":4},{"trial_n":105,"min":79,"max":176,"target":"absent","response":"present","rt":766,"correct":false,"confidence":3},{"trial_n":106,"min":77,"max":178,"target":"present","response":"present","rt":311,"correct":true,"confidence":5},{"trial_n":107,"min":77,"max":178,"target":"absent","response":"absent","rt":694,"correct":true,"confidence":4},{"trial_n":108,"min":79,"max":176,"target":"present","response":"present","rt":555,"correct":true,"confidence":4},{"trial_n":109,"min":79,"max":176,"target":"present","response":"present","rt":558.99999999988,"correct":true,"confidence":4},{"trial_n":110,"min":81,"max":174,"target":"present","response":"present","rt":565,"correct":true,"confidence":4},{"trial_n":111,"min":81,"max":174,"target":"absent","response":"present","rt":718,"correct":false,"confidence":4},{"trial_n":112,"min":80,"max":175,"target":"absent","response":"absent","rt":599,"correct":true,"confidence":4},{"trial_n":113,"min":80,"max":175,"target":"present","response":"present","rt":456,"correct":true,"confidence":4},{"trial_n":114,"min":81,"max":174,"target":"present","response":"present","rt":532,"correct":true,"confidence":4},{"trial_n":115,"min":81,"max":174,"target":"present","response":"present","rt":445.99999999988,"correct":true,"confidence":4},{"trial_n":116,"min":82,"max":173,"target":"absent","response":"present","rt":945.00000000012,"correct":false,"confidence":4},{"trial_n":117,"min":81,"max":174,"target":"present","response":"present","rt":312,"correct":true,"confidence":5},{"trial_n":118,"min":81,"max":174,"target":"present","response":"present","rt":552.00000000012,"correct":true,"confidence":3},{"trial_n":119,"min":82,"max":173,"target":"present","response":"present","rt":372,"correct":true,"confidence":2},{"trial_n":120,"min":82,"max":173,"target":"absent","response":"present","rt":587.00000000012,"correct":false,"confidence":3},{"trial_n":121,"min":81,"max":174,"target":"absent","response":"present","rt":769,"correct":false,"confidence":2},{"trial_n":122,"min":80,"max":175,"target":"absent","response":"present","rt":636,"correct":false,"confidence":3},{"trial_n":123,"min":79,"max":176,"target":"present","response":"present","rt":571,"correct":true,"confidence":2},{"trial_n":124,"min":79,"max":176,"target":"present","response":"present","rt":1130,"correct":true,"confidence":2},{"trial_n":125,"min":80,"max":175,"target":"absent","response":"present","rt":742,"correct":false,"confidence":3},{"trial_n":126,"min":79,"max":176,"target":"absent","response":"absent","rt":660,"correct":true,"confidence":3},{"trial_n":127,"min":79,"max":176,"target":"absent","response":"present","rt":691,"correct":false,"confidence":2},{"trial_n":128,"min":78,"max":177,"target":"absent","response":"absent","rt":1219,"correct":true,"confidence":3},{"trial_n":129,"min":78,"max":177,"target":"absent","response":"present","rt":1162,"correct":false,"confidence":1},{"trial_n":130,"min":77,"max":178,"target":"present","response":"present","rt":254.00000000012,"correct":true,"confidence":5},{"trial_n":131,"min":77,"max":178,"target":"present","response":"present","rt":460,"correct":true,"confidence":5},{"trial_n":132,"min":78,"max":177,"target":"absent","response":"absent","rt":426,"correct":true,"confidence":5},{"trial_n":133,"min":78,"max":177,"target":"absent","response":"absent","rt":460,"correct":true,"confidence":5},{"trial_n":134,"min":79,"max":176,"target":"present","response":"present","rt":407,"correct":true,"confidence":5},{"trial_n":135,"min":79,"max":176,"target":"present","response":"present","rt":276,"correct":true,"confidence":5},{"trial_n":136,"min":80,"max":175,"target":"absent","response":"present","rt":655.00000000012,"correct":false,"confidence":2},{"trial_n":137,"min":79,"max":176,"target":"absent","response":"absent","rt":489,"correct":true,"confidence":2},{"trial_n":138,"min":79,"max":176,"target":"present","response":"present","rt":391,"correct":true,"confidence":2},{"trial_n":139,"min":80,"max":175,"target":"present","response":"present","rt":457,"correct":true,"confidence":3},{"trial_n":140,"min":80,"max":175,"target":"absent","response":"present","rt":963,"correct":false,"confidence":2}]