[{"trial_n":1,"span":8,"encoder":"85525754","distractor":"80525754","target":"present","response":"present","rt":"3382","correct":true,"confidence":-1},{"trial_n":2,"span":8,"encoder":"98948450","distractor":"99948450","target":"present","response":"present","rt":"2669","correct":true,"confidence":-1},{"trial_n":3,"span":10,"encoder":"7970024064","distractor":"7970324064","target":"absent","response":"absent","rt":"2310","correct":true,"confidence":-1},{"trial_n":4,"span":10,"encoder":"6164791672","distractor":"6164791682","target":"absent","response":"absent","rt":"2210","correct":true,"confidence":-1},{"trial_n":5,"span":12,"encoder":"606735226999","distractor":"606735223999","target":"present","response":"absent","rt":"1401","correct":false,"confidence":-1},{"trial_n":6,"span":10,"encoder":"9554626383","distractor":"9954626383","target":"absent","response":"present","rt":"1499","correct":false,"confidence":-1},{"trial_n":7,"span":8,"encoder":"45357354","distractor":"49357354","target":"present","response":"present","rt":"2673","correct":true,"confidence":-1},{"trial_n":8,"span":8,"encoder":"72316897","distractor":"73316897","target":"absent","response":"absent","rt":"2900","correct":true,"confidence":-1},{"trial_n":9,"span":10,"encoder":"9929694765","distractor":"9929694762","target":"present","response":"absent","rt":"1766","correct":false,"confidence":-1},{"trial_n":10,"span":8,"encoder":"31677548","distractor":"91677548","target":"absent","response":"present","rt":"1738","correct":false,"confidence":-1},{"trial_n":11,"span":6,"encoder":"470952","distractor":"470982","target":"present","response":"present","rt":"1648","correct":true,"confidence":-1},{"trial_n":12,"span":6,"encoder":"225060","distractor":"525060","target":"absent","response":"present","rt":"1799","correct":false,"confidence":-1},{"trial_n":13,"span":5,"encoder":"70738","distractor":"72738","target":"present","response":"present","rt":"1245","correct":true,"confidence":-1},{"trial_n":14,"span":5,"encoder":"22763","distractor":"27763","target":"absent","response":"absent","rt":"1946","correct":true,"confidence":-1},{"trial_n":15,"span":6,"encoder":"750536","distractor":"750516","target":"present","response":"present","rt":"3433","correct":true,"confidence":-1},{"trial_n":16,"span":6,"encoder":"555380","distractor":"555310","target":"present","response":"absent","rt":"1583","correct":false,"confidence":-1},{"trial_n":17,"span":5,"encoder":"37866","distractor":"37466","target":"present","response":"present","rt":"2730","correct":true,"confidence":-1},{"trial_n":18,"span":5,"encoder":"36054","distractor":"36053","target":"absent","response":"absent","rt":"1961","correct":true,"confidence":-1},{"trial_n":19,"span":6,"encoder":"747503","distractor":"767503","target":"present","response":"present","rt":"1551","correct":true,"confidence":-1},{"trial_n":20,"span":6,"encoder":"789244","distractor":"789254","target":"absent","response":"present","rt":"1368","correct":false,"confidence":-1},{"trial_n":21,"span":5,"encoder":"55457","distractor":"55451","target":"absent","response":"absent","rt":"1497","correct":true,"confidence":5},{"trial_n":22,"span":5,"encoder":"17332","distractor":"17342","target":"absent","response":"absent","rt":"2323","correct":true,"confidence":5},{"trial_n":23,"span":6,"encoder":"972976","distractor":"872976","target":"absent","response":"present","rt":"2811","correct":false,"confidence":5},{"trial_n":24,"span":5,"encoder":"45262","distractor":"55262","target":"present","response":"present","rt":"2373","correct":true,"confidence":5},{"trial_n":25,"span":5,"encoder":"28312","distractor":"28112","target":"absent","response":"absent","rt":"1540","correct":true,"confidence":4},{"trial_n":26,"span":6,"encoder":"885616","distractor":"885676","target":"present","response":"present","rt":"2211.9999999999","correct":true,"confidence":5},{"trial_n":27,"span":6,"encoder":"665847","distractor":"765847","target":"absent","response":"absent","rt":"3012","correct":true,"confidence":5},{"trial_n":28,"span":7,"encoder":"8450715","distractor":"8050715","target":"present","response":"present","rt":"3735","correct":true,"confidence":5},{"trial_n":29,"span":7,"encoder":"6175383","distractor":"6135383","target":"present","response":"present","rt":"5436.9999999999","correct":true,"confidence":5},{"trial_n":30,"span":8,"encoder":"76278240","distractor":"86278240","target":"absent","response":"absent","rt":"6241.9999999999","correct":true,"confidence":3},{"trial_n":31,"span":8,"encoder":"00795666","distractor":"00775666","target":"present","response":"present","rt":"2368.9999999999","correct":true,"confidence":4},{"trial_n":32,"span":9,"encoder":"978440983","distractor":"978440984","target":"present","response":"present","rt":"1649","correct":true,"confidence":4},{"trial_n":33,"span":9,"encoder":"370284447","distractor":"370284445","target":"absent","response":"absent","rt":"2447","correct":true,"confidence":5},{"trial_n":34,"span":10,"encoder":"6095284877","distractor":"6095244877","target":"absent","response":"absent","rt":"4752.9999999999","correct":true,"confidence":3},{"trial_n":35,"span":10,"encoder":"5539380704","distractor":"5539380714","target":"absent","response":"present","rt":"2851","correct":false,"confidence":2},{"trial_n":36,"span":9,"encoder":"264637316","distractor":"264637310","target":"present","response":"present","rt":"3948","correct":true,"confidence":4},{"trial_n":37,"span":9,"encoder":"430229781","distractor":"430529781","target":"present","response":"absent","rt":"2965","correct":false,"confidence":2},{"trial_n":38,"span":8,"encoder":"19926739","distractor":"29926739","target":"absent","response":"absent","rt":"2462","correct":true,"confidence":3},{"trial_n":39,"span":8,"encoder":"84385656","distractor":"84345656","target":"absent","response":"present","rt":"1596","correct":false,"confidence":4},{"trial_n":40,"span":7,"encoder":"3363119","distractor":"3361119","target":"present","response":"present","rt":"3191","correct":true,"confidence":4},{"trial_n":41,"span":7,"encoder":"7869936","distractor":"7819936","target":"absent","response":"present","rt":"1861","correct":false,"confidence":3},{"trial_n":42,"span":6,"encoder":"286633","distractor":"236633","target":"absent","response":"present","rt":"2037","correct":false,"confidence":4},{"trial_n":43,"span":5,"encoder":"64941","distractor":"64841","target":"present","response":"present","rt":"2667","correct":true,"confidence":5},{"trial_n":44,"span":5,"encoder":"73797","distractor":"73791","target":"present","response":"present","rt":"1818","correct":true,"confidence":4},{"trial_n":45,"span":6,"encoder":"937666","distractor":"037666","target":"present","response":"present","rt":"1974","correct":true,"confidence":4},{"trial_n":46,"span":6,"encoder":"760537","distractor":"730537","target":"present","response":"present","rt":"2791.9999999999","correct":true,"confidence":4},{"trial_n":47,"span":7,"encoder":"6475716","distractor":"6455716","target":"absent","response":"present","rt":"16430","correct":false,"confidence":4},{"trial_n":48,"span":6,"encoder":"417097","distractor":"417697","target":"present","response":"present","rt":"3424.0000000001","correct":true,"confidence":5},{"trial_n":49,"span":6,"encoder":"086654","distractor":"086554","target":"present","response":"present","rt":"7243","correct":true,"confidence":4},{"trial_n":50,"span":7,"encoder":"2216329","distractor":"2816329","target":"absent","response":"present","rt":"6965","correct":false,"confidence":4},{"trial_n":51,"span":6,"encoder":"578993","distractor":"578693","target":"absent","response":"absent","rt":"9048","correct":true,"confidence":4},{"trial_n":52,"span":6,"encoder":"506900","distractor":"906900","target":"present","response":"present","rt":"2510","correct":true,"confidence":4},{"trial_n":53,"span":7,"encoder":"3171954","distractor":"3571954","target":"present","response":"present","rt":"1950","correct":true,"confidence":4},{"trial_n":54,"span":7,"encoder":"9707531","distractor":"4707531","target":"absent","response":"present","rt":"2732","correct":false,"confidence":4},{"trial_n":55,"span":6,"encoder":"466655","distractor":"666655","target":"absent","response":"present","rt":"2629.0000000001","correct":false,"confidence":4},{"trial_n":56,"span":5,"encoder":"97242","distractor":"77242","target":"present","response":"present","rt":"1608","correct":true,"confidence":4},{"trial_n":57,"span":5,"encoder":"04062","distractor":"01062","target":"absent","response":"present","rt":"1575","correct":false,"confidence":4},{"trial_n":58,"span":4,"encoder":"8640","distractor":"8660","target":"absent","response":"absent","rt":"1972","correct":true,"confidence":4},{"trial_n":59,"span":4,"encoder":"2092","distractor":"2093","target":"absent","response":"absent","rt":"1771","correct":true,"confidence":5},{"trial_n":60,"span":5,"encoder":"73492","distractor":"73494","target":"present","response":"present","rt":"2141.9999999999","correct":true,"confidence":4},{"trial_n":61,"span":5,"encoder":"66159","distractor":"66189","target":"present","response":"present","rt":"1854","correct":true,"confidence":4},{"trial_n":62,"span":6,"encoder":"611878","distractor":"911878","target":"present","response":"present","rt":"1764","correct":true,"confidence":3},{"trial_n":63,"span":6,"encoder":"981796","distractor":"981794","target":"absent","response":"present","rt":"1866","correct":false,"confidence":4},{"trial_n":64,"span":5,"encoder":"71175","distractor":"31175","target":"absent","response":"absent","rt":"4710","correct":true,"confidence":4},{"trial_n":65,"span":5,"encoder":"09537","distractor":"09937","target":"present","response":"present","rt":"1811","correct":true,"confidence":3},{"trial_n":66,"span":6,"encoder":"400432","distractor":"400932","target":"absent","response":"present","rt":"3349","correct":false,"confidence":4},{"trial_n":67,"span":5,"encoder":"17290","distractor":"77290","target":"present","response":"present","rt":"1795","correct":true,"confidence":4},{"trial_n":68,"span":5,"encoder":"04341","distractor":"04941","target":"present","response":"present","rt":"2529","correct":true,"confidence":5},{"trial_n":69,"span":6,"encoder":"495859","distractor":"405859","target":"absent","response":"present","rt":"3850","correct":false,"confidence":4},{"trial_n":70,"span":5,"encoder":"23281","distractor":"29281","target":"present","response":"present","rt":"3363","correct":true,"confidence":5},{"trial_n":71,"span":8,"encoder":"79313067","distractor":"09313067","target":"present","response":"present","rt":"3758","correct":true,"confidence":-1},{"trial_n":72,"span":8,"encoder":"28175067","distractor":"28175066","target":"present","response":"present","rt":"1851.9999999998","correct":true,"confidence":-1},{"trial_n":73,"span":9,"encoder":"268720460","distractor":"268725460","target":"absent","response":"present","rt":"3308","correct":false,"confidence":-1},{"trial_n":74,"span":8,"encoder":"51054283","distractor":"51057283","target":"absent","response":"absent","rt":"3421","correct":true,"confidence":-1},{"trial_n":75,"span":8,"encoder":"23071842","distractor":"73071842","target":"present","response":"absent","rt":"2186","correct":false,"confidence":-1},{"trial_n":76,"span":7,"encoder":"3813655","distractor":"3813656","target":"absent","response":"present","rt":"2767","correct":false,"confidence":-1},{"trial_n":77,"span":6,"encoder":"618391","distractor":"618393","target":"present","response":"absent","rt":"2197","correct":false,"confidence":-1},{"trial_n":78,"span":5,"encoder":"26539","distractor":"06539","target":"absent","response":"present","rt":"1876","correct":false,"confidence":-1},{"trial_n":79,"span":4,"encoder":"5483","distractor":"5443","target":"absent","response":"absent","rt":"4004.0000000002","correct":true,"confidence":-1},{"trial_n":80,"span":4,"encoder":"4134","distractor":"1134","target":"present","response":"present","rt":"4015","correct":true,"confidence":-1},{"trial_n":81,"span":5,"encoder":"97175","distractor":"97575","target":"absent","response":"absent","rt":"3044","correct":true,"confidence":-1},{"trial_n":82,"span":5,"encoder":"43953","distractor":"43933","target":"present","response":"present","rt":"3041","correct":true,"confidence":-1},{"trial_n":83,"span":6,"encoder":"079599","distractor":"089599","target":"absent","response":"present","rt":"4398","correct":false,"confidence":-1},{"trial_n":84,"span":5,"encoder":"17657","distractor":"19657","target":"absent","response":"absent","rt":"1624","correct":true,"confidence":-1},{"trial_n":85,"span":5,"encoder":"77106","distractor":"77107","target":"absent","response":"absent","rt":"1707","correct":true,"confidence":-1},{"trial_n":86,"span":6,"encoder":"000316","distractor":"000116","target":"absent","response":"absent","rt":"1811","correct":true,"confidence":-1},{"trial_n":87,"span":6,"encoder":"386764","distractor":"316764","target":"present","response":"absent","rt":"2762","correct":false,"confidence":-1},{"trial_n":88,"span":5,"encoder":"72387","distractor":"72327","target":"present","response":"present","rt":"2474.9999999998","correct":true,"confidence":-1},{"trial_n":89,"span":5,"encoder":"85146","distractor":"85176","target":"present","response":"absent","rt":"4146","correct":false,"confidence":-1},{"trial_n":90,"span":4,"encoder":"6321","distractor":"6324","target":"present","response":"present","rt":"3186.9999999998","correct":true,"confidence":-1},{"trial_n":91,"span":4,"encoder":"2213","distractor":"0213","target":"absent","response":"absent","rt":"2376","correct":true,"confidence":4},{"trial_n":92,"span":5,"encoder":"61177","distractor":"61077","target":"absent","response":"present","rt":"2411.0000000002","correct":false,"confidence":3},{"trial_n":93,"span":4,"encoder":"3699","distractor":"6699","target":"absent","response":"present","rt":"1975","correct":false,"confidence":4},{"trial_n":94,"span":3,"encoder":"155","distractor":"255","target":"absent","response":"absent","rt":"1353.0000000002","correct":true,"confidence":5},{"trial_n":95,"span":3,"encoder":"762","distractor":"742","target":"absent","response":"absent","rt":"1370","correct":true,"confidence":4},{"trial_n":96,"span":4,"encoder":"5371","distractor":"5271","target":"absent","response":"present","rt":"2572.9999999998","correct":false,"confidence":4},{"trial_n":97,"span":3,"encoder":"838","distractor":"835","target":"absent","response":"absent","rt":"2088","correct":true,"confidence":4},{"trial_n":98,"span":3,"encoder":"132","distractor":"139","target":"absent","response":"absent","rt":"1687","correct":true,"confidence":4},{"trial_n":99,"span":4,"encoder":"6262","distractor":"6282","target":"present","response":"present","rt":"1309","correct":true,"confidence":4},{"trial_n":100,"span":4,"encoder":"5515","distractor":"5512","target":"absent","response":"present","rt":"2409","correct":false,"confidence":4},{"trial_n":101,"span":3,"encoder":"175","distractor":"171","target":"present","response":"present","rt":"2093","correct":true,"confidence":5},{"trial_n":102,"span":3,"encoder":"173","distractor":"178","target":"present","response":"present","rt":"1737.9999999998","correct":true,"confidence":5},{"trial_n":103,"span":4,"encoder":"3386","distractor":"2386","target":"absent","response":"absent","rt":"2808.9999999998","correct":true,"confidence":5},{"trial_n":104,"span":4,"encoder":"5677","distractor":"5977","target":"absent","response":"absent","rt":"2159","correct":true,"confidence":5},{"trial_n":105,"span":5,"encoder":"00016","distractor":"50016","target":"present","response":"present","rt":"1213.0000000002","correct":true,"confidence":5},{"trial_n":106,"span":5,"encoder":"54315","distractor":"52315","target":"present","response":"present","rt":"2215","correct":true,"confidence":5},{"trial_n":107,"span":6,"encoder":"288561","distractor":"288562","target":"present","response":"present","rt":"2451","correct":true,"confidence":4},{"trial_n":108,"span":6,"encoder":"834254","distractor":"834234","target":"present","response":"present","rt":"4202","correct":true,"confidence":4},{"trial_n":109,"span":7,"encoder":"1724869","distractor":"1224869","target":"absent","response":"absent","rt":"3590","correct":true,"confidence":4},{"trial_n":110,"span":7,"encoder":"1798279","distractor":"1798979","target":"present","response":"present","rt":"3556.9999999998","correct":true,"confidence":4},{"trial_n":111,"span":8,"encoder":"82234106","distractor":"82234126","target":"present","response":"present","rt":"6052","correct":true,"confidence":4},{"trial_n":112,"span":8,"encoder":"24103558","distractor":"28103558","target":"present","response":"absent","rt":"3647","correct":false,"confidence":4},{"trial_n":113,"span":7,"encoder":"0065849","distractor":"0365849","target":"absent","response":"absent","rt":"2725","correct":true,"confidence":5},{"trial_n":114,"span":7,"encoder":"7042849","distractor":"7042869","target":"present","response":"absent","rt":"4408","correct":false,"confidence":4},{"trial_n":115,"span":6,"encoder":"987273","distractor":"987272","target":"absent","response":"present","rt":"3471","correct":false,"confidence":5},{"trial_n":116,"span":5,"encoder":"45745","distractor":"46745","target":"present","response":"present","rt":"3800.0000000005","correct":true,"confidence":4},{"trial_n":117,"span":5,"encoder":"05072","distractor":"00072","target":"present","response":"present","rt":"2134.9999999995","correct":true,"confidence":4},{"trial_n":118,"span":6,"encoder":"102639","distractor":"105639","target":"absent","response":"present","rt":"12571","correct":false,"confidence":4},{"trial_n":119,"span":5,"encoder":"95799","distractor":"95199","target":"present","response":"absent","rt":"3800","correct":false,"confidence":4},{"trial_n":120,"span":4,"encoder":"6687","distractor":"8687","target":"absent","response":"present","rt":"17398","correct":false,"confidence":4},{"trial_n":121,"span":3,"encoder":"012","distractor":"015","target":"present","response":"present","rt":"3071","correct":true,"confidence":5},{"trial_n":122,"span":3,"encoder":"251","distractor":"651","target":"present","response":"present","rt":"1642","correct":true,"confidence":4},{"trial_n":123,"span":4,"encoder":"0978","distractor":"0778","target":"present","response":"present","rt":"3715","correct":true,"confidence":4},{"trial_n":124,"span":4,"encoder":"0200","distractor":"0220","target":"present","response":"present","rt":"11215","correct":true,"confidence":5},{"trial_n":125,"span":5,"encoder":"15552","distractor":"15582","target":"absent","response":"absent","rt":"3052","correct":true,"confidence":4},{"trial_n":126,"span":5,"encoder":"59028","distractor":"59048","target":"absent","response":"absent","rt":"4254","correct":true,"confidence":4},{"trial_n":127,"span":6,"encoder":"746160","distractor":"726160","target":"present","response":"present","rt":"2772","correct":true,"confidence":4},{"trial_n":128,"span":6,"encoder":"224755","distractor":"224752","target":"absent","response":"absent","rt":"2356","correct":true,"confidence":5},{"trial_n":129,"span":7,"encoder":"5801838","distractor":"5101838","target":"present","response":"absent","rt":"3213","correct":false,"confidence":4},{"trial_n":130,"span":6,"encoder":"824410","distractor":"804410","target":"absent","response":"present","rt":"2558","correct":false,"confidence":4},{"trial_n":131,"span":5,"encoder":"91641","distractor":"71641","target":"present","response":"present","rt":"4631.0000000005","correct":true,"confidence":4},{"trial_n":132,"span":5,"encoder":"88125","distractor":"28125","target":"present","response":"present","rt":"3836.0000000005","correct":true,"confidence":4},{"trial_n":133,"span":6,"encoder":"757185","distractor":"757785","target":"absent","response":"absent","rt":"1957","correct":true,"confidence":2},{"trial_n":134,"span":6,"encoder":"522955","distractor":"522957","target":"present","response":"present","rt":"1775.0000000005","correct":true,"confidence":3},{"trial_n":135,"span":7,"encoder":"8658330","distractor":"8658333","target":"absent","response":"absent","rt":"1512","correct":true,"confidence":5},{"trial_n":136,"span":7,"encoder":"7877163","distractor":"7807163","target":"present","response":"absent","rt":"1979.0000000005","correct":false,"confidence":3},{"trial_n":137,"span":6,"encoder":"881932","distractor":"881938","target":"present","response":"present","rt":"59560","correct":true,"confidence":4},{"trial_n":138,"span":6,"encoder":"551026","distractor":"551020","target":"present","response":"present","rt":"1509","correct":true,"confidence":4},{"trial_n":139,"span":7,"encoder":"9120270","distractor":"9180270","target":"absent","response":"absent","rt":"3029","correct":true,"confidence":3},{"trial_n":140,"span":7,"encoder":"0309673","distractor":"0305673","target":"absent","response":"present","rt":"3713","correct":false,"confidence":3}]