[{"trial_n":1,"min":25,"max":230,"target":"present","response":"present","rt":14515.699999809,"correct":true,"confidence":-1},{"trial_n":2,"min":25,"max":230,"target":"present","response":"present","rt":701.20000004768,"correct":true,"confidence":-1},{"trial_n":3,"min":41,"max":214,"target":"absent","response":"absent","rt":466.79999995232,"correct":true,"confidence":-1},{"trial_n":4,"min":41,"max":214,"target":"absent","response":"absent","rt":378.20000004768,"correct":true,"confidence":-1},{"trial_n":5,"min":57,"max":198,"target":"present","response":"present","rt":306.5,"correct":true,"confidence":-1},{"trial_n":6,"min":57,"max":198,"target":"absent","response":"absent","rt":322.09999990463,"correct":true,"confidence":-1},{"trial_n":7,"min":73,"max":182,"target":"absent","response":"absent","rt":512.70000004768,"correct":true,"confidence":-1},{"trial_n":8,"min":73,"max":182,"target":"present","response":"present","rt":676.80000019073,"correct":true,"confidence":-1},{"trial_n":9,"min":89,"max":166,"target":"absent","response":"absent","rt":386.29999995232,"correct":true,"confidence":-1},{"trial_n":10,"min":89,"max":166,"target":"present","response":"present","rt":690.10000014305,"correct":true,"confidence":-1},{"trial_n":11,"min":97,"max":158,"target":"present","response":"absent","rt":485.40000009537,"correct":false,"confidence":-1},{"trial_n":12,"min":89,"max":166,"target":"absent","response":"present","rt":344,"correct":false,"confidence":-1},{"trial_n":13,"min":81,"max":174,"target":"present","response":"absent","rt":951.20000004768,"correct":false,"confidence":-1},{"trial_n":14,"min":73,"max":182,"target":"absent","response":"absent","rt":635.20000004768,"correct":true,"confidence":-1},{"trial_n":15,"min":73,"max":182,"target":"present","response":"present","rt":496.29999995232,"correct":true,"confidence":-1},{"trial_n":16,"min":81,"max":174,"target":"present","response":"absent","rt":442.29999995232,"correct":false,"confidence":-1},{"trial_n":17,"min":73,"max":182,"target":"absent","response":"absent","rt":461.89999985695,"correct":true,"confidence":-1},{"trial_n":18,"min":73,"max":182,"target":"absent","response":"present","rt":679.5,"correct":false,"confidence":-1},{"trial_n":19,"min":65,"max":190,"target":"present","response":"absent","rt":441.59999990463,"correct":false,"confidence":-1},{"trial_n":20,"min":57,"max":198,"target":"absent","response":"absent","rt":626.59999990463,"correct":true,"confidence":-1},{"trial_n":21,"min":57,"max":198,"target":"present","response":"present","rt":815.39999985695,"correct":true,"confidence":4},{"trial_n":22,"min":61,"max":194,"target":"present","response":"present","rt":1426.2000000477,"correct":true,"confidence":4},{"trial_n":23,"min":61,"max":194,"target":"present","response":"present","rt":792.40000009537,"correct":true,"confidence":4},{"trial_n":24,"min":65,"max":190,"target":"absent","response":"present","rt":2873.1000001431,"correct":false,"confidence":2},{"trial_n":25,"min":61,"max":194,"target":"present","response":"present","rt":1728.4000000954,"correct":true,"confidence":2},{"trial_n":26,"min":61,"max":194,"target":"absent","response":"absent","rt":706.89999985695,"correct":true,"confidence":2},{"trial_n":27,"min":65,"max":190,"target":"absent","response":"absent","rt":1149,"correct":true,"confidence":2},{"trial_n":28,"min":65,"max":190,"target":"present","response":"present","rt":544.59999990463,"correct":true,"confidence":3},{"trial_n":29,"min":69,"max":186,"target":"present","response":"present","rt":3256.4000000954,"correct":true,"confidence":3},{"trial_n":30,"min":69,"max":186,"target":"absent","response":"absent","rt":931.39999985695,"correct":true,"confidence":4},{"trial_n":31,"min":71,"max":184,"target":"absent","response":"absent","rt":1132.9000000954,"correct":true,"confidence":4},{"trial_n":32,"min":71,"max":184,"target":"present","response":"present","rt":518.90000009537,"correct":true,"confidence":3},{"trial_n":33,"min":73,"max":182,"target":"present","response":"absent","rt":1010.5999999046,"correct":false,"confidence":3},{"trial_n":34,"min":71,"max":184,"target":"absent","response":"absent","rt":1720.8999998569,"correct":true,"confidence":3},{"trial_n":35,"min":71,"max":184,"target":"present","response":"absent","rt":2526.2999999523,"correct":false,"confidence":2},{"trial_n":36,"min":69,"max":186,"target":"absent","response":"absent","rt":1473.2999999523,"correct":true,"confidence":3},{"trial_n":37,"min":69,"max":186,"target":"present","response":"present","rt":760,"correct":true,"confidence":4},{"trial_n":38,"min":71,"max":184,"target":"present","response":"present","rt":1392.8999998569,"correct":true,"confidence":2},{"trial_n":39,"min":71,"max":184,"target":"present","response":"absent","rt":1163.1000001431,"correct":false,"confidence":3},{"trial_n":40,"min":69,"max":186,"target":"absent","response":"absent","rt":1265.7999999523,"correct":true,"confidence":5},{"trial_n":41,"min":69,"max":186,"target":"present","response":"present","rt":2483,"correct":true,"confidence":2},{"trial_n":42,"min":70,"max":185,"target":"present","response":"present","rt":1146.2999999523,"correct":true,"confidence":3},{"trial_n":43,"min":70,"max":185,"target":"absent","response":"absent","rt":1097.2999999523,"correct":true,"confidence":4},{"trial_n":44,"min":71,"max":184,"target":"present","response":"present","rt":1282.5,"correct":true,"confidence":3},{"trial_n":45,"min":71,"max":184,"target":"absent","response":"absent","rt":851.09999990463,"correct":true,"confidence":4},{"trial_n":46,"min":72,"max":183,"target":"present","response":"present","rt":863.39999985695,"correct":true,"confidence":3},{"trial_n":47,"min":72,"max":183,"target":"absent","response":"absent","rt":787.60000014305,"correct":true,"confidence":5},{"trial_n":48,"min":73,"max":182,"target":"absent","response":"absent","rt":1187.5,"correct":true,"confidence":5},{"trial_n":49,"min":73,"max":182,"target":"present","response":"present","rt":879.5,"correct":true,"confidence":3},{"trial_n":50,"min":74,"max":181,"target":"absent","response":"absent","rt":751.79999995232,"correct":true,"confidence":5},{"trial_n":51,"min":74,"max":181,"target":"absent","response":"absent","rt":901.5,"correct":true,"confidence":5},{"trial_n":52,"min":75,"max":180,"target":"absent","response":"absent","rt":882.29999995232,"correct":true,"confidence":5},{"trial_n":53,"min":75,"max":180,"target":"present","response":"present","rt":1406,"correct":true,"confidence":3},{"trial_n":54,"min":76,"max":179,"target":"absent","response":"absent","rt":1170.9000000954,"correct":true,"confidence":5},{"trial_n":55,"min":76,"max":179,"target":"present","response":"present","rt":1060.7999999523,"correct":true,"confidence":3},{"trial_n":56,"min":77,"max":178,"target":"present","response":"present","rt":1900.3999998569,"correct":true,"confidence":1},{"trial_n":57,"min":77,"max":178,"target":"absent","response":"absent","rt":1213.2999999523,"correct":true,"confidence":4},{"trial_n":58,"min":78,"max":177,"target":"present","response":"absent","rt":1231.4000000954,"correct":false,"confidence":4},{"trial_n":59,"min":77,"max":178,"target":"absent","response":"absent","rt":2954.1000001431,"correct":true,"confidence":1},{"trial_n":60,"min":77,"max":178,"target":"present","response":"absent","rt":650.39999985695,"correct":false,"confidence":4},{"trial_n":61,"min":76,"max":179,"target":"absent","response":"absent","rt":863.20000004768,"correct":true,"confidence":5},{"trial_n":62,"min":76,"max":179,"target":"present","response":"absent","rt":741.20000004768,"correct":false,"confidence":4},{"trial_n":63,"min":75,"max":180,"target":"absent","response":"absent","rt":810.5,"correct":true,"confidence":5},{"trial_n":64,"min":75,"max":180,"target":"absent","response":"absent","rt":787.59999990463,"correct":true,"confidence":5},{"trial_n":65,"min":76,"max":179,"target":"absent","response":"absent","rt":898.20000004768,"correct":true,"confidence":5},{"trial_n":66,"min":76,"max":179,"target":"present","response":"absent","rt":829.40000009537,"correct":false,"confidence":4},{"trial_n":67,"min":75,"max":180,"target":"present","response":"absent","rt":846.79999995232,"correct":false,"confidence":4},{"trial_n":68,"min":74,"max":181,"target":"absent","response":"absent","rt":737.80000019073,"correct":true,"confidence":5},{"trial_n":69,"min":74,"max":181,"target":"absent","response":"absent","rt":813.59999990463,"correct":true,"confidence":5},{"trial_n":70,"min":75,"max":180,"target":"present","response":"present","rt":1911.7999999523,"correct":true,"confidence":3},{"trial_n":71,"min":41,"max":214,"target":"present","response":"absent","rt":3330.6999998093,"correct":false,"confidence":-1},{"trial_n":72,"min":41,"max":214,"target":"present","response":"present","rt":840.20000004768,"correct":true,"confidence":-1},{"trial_n":73,"min":41,"max":214,"target":"absent","response":"absent","rt":829.60000014305,"correct":true,"confidence":-1},{"trial_n":74,"min":57,"max":198,"target":"absent","response":"absent","rt":804.20000004768,"correct":true,"confidence":-1},{"trial_n":75,"min":57,"max":198,"target":"present","response":"present","rt":769.90000009537,"correct":true,"confidence":-1},{"trial_n":76,"min":73,"max":182,"target":"absent","response":"absent","rt":1238.1000001431,"correct":true,"confidence":-1},{"trial_n":77,"min":73,"max":182,"target":"absent","response":"absent","rt":1068.6000001431,"correct":true,"confidence":-1},{"trial_n":78,"min":89,"max":166,"target":"present","response":"present","rt":916.89999985695,"correct":true,"confidence":-1},{"trial_n":79,"min":89,"max":166,"target":"present","response":"present","rt":851.29999995232,"correct":true,"confidence":-1},{"trial_n":80,"min":105,"max":150,"target":"present","response":"present","rt":805.30000019073,"correct":true,"confidence":-1},{"trial_n":81,"min":105,"max":150,"target":"present","response":"present","rt":651.5,"correct":true,"confidence":-1},{"trial_n":82,"min":113,"max":142,"target":"present","response":"absent","rt":1161.2999999523,"correct":false,"confidence":-1},{"trial_n":83,"min":105,"max":150,"target":"present","response":"present","rt":637.39999985695,"correct":true,"confidence":-1},{"trial_n":84,"min":105,"max":150,"target":"absent","response":"present","rt":715,"correct":false,"confidence":-1},{"trial_n":85,"min":97,"max":158,"target":"present","response":"absent","rt":876.79999995232,"correct":false,"confidence":-1},{"trial_n":86,"min":89,"max":166,"target":"absent","response":"absent","rt":678.19999980927,"correct":true,"confidence":-1},{"trial_n":87,"min":89,"max":166,"target":"absent","response":"absent","rt":600.5,"correct":true,"confidence":-1},{"trial_n":88,"min":97,"max":158,"target":"absent","response":"absent","rt":681.70000004768,"correct":true,"confidence":-1},{"trial_n":89,"min":97,"max":158,"target":"present","response":"present","rt":1368.0999999046,"correct":true,"confidence":-1},{"trial_n":90,"min":105,"max":150,"target":"present","response":"present","rt":728.70000004768,"correct":true,"confidence":-1},{"trial_n":91,"min":105,"max":150,"target":"present","response":"absent","rt":1279.5,"correct":false,"confidence":2},{"trial_n":92,"min":101,"max":154,"target":"absent","response":"present","rt":857.19999980927,"correct":false,"confidence":3},{"trial_n":93,"min":97,"max":158,"target":"absent","response":"absent","rt":5833.8999998569,"correct":true,"confidence":3},{"trial_n":94,"min":97,"max":158,"target":"present","response":"present","rt":1562.9000000954,"correct":true,"confidence":3},{"trial_n":95,"min":101,"max":154,"target":"present","response":"present","rt":1013,"correct":true,"confidence":3},{"trial_n":96,"min":101,"max":154,"target":"absent","response":"absent","rt":996.5,"correct":true,"confidence":3},{"trial_n":97,"min":105,"max":150,"target":"absent","response":"absent","rt":796.40000009537,"correct":true,"confidence":3},{"trial_n":98,"min":105,"max":150,"target":"present","response":"present","rt":1608.9000000954,"correct":true,"confidence":2},{"trial_n":99,"min":109,"max":146,"target":"present","response":"present","rt":1272.3999998569,"correct":true,"confidence":2},{"trial_n":100,"min":109,"max":146,"target":"absent","response":"present","rt":1070.8999998569,"correct":false,"confidence":1},{"trial_n":101,"min":107,"max":148,"target":"absent","response":"absent","rt":1670.9000000954,"correct":true,"confidence":1},{"trial_n":102,"min":107,"max":148,"target":"present","response":"present","rt":925.70000004768,"correct":true,"confidence":2},{"trial_n":103,"min":109,"max":146,"target":"present","response":"present","rt":971.40000009537,"correct":true,"confidence":1},{"trial_n":104,"min":109,"max":146,"target":"present","response":"present","rt":917.59999990463,"correct":true,"confidence":3},{"trial_n":105,"min":111,"max":144,"target":"absent","response":"present","rt":1604,"correct":false,"confidence":3},{"trial_n":106,"min":109,"max":146,"target":"present","response":"absent","rt":1011.2999999523,"correct":false,"confidence":3},{"trial_n":107,"min":107,"max":148,"target":"present","response":"absent","rt":854.29999995232,"correct":false,"confidence":2},{"trial_n":108,"min":105,"max":150,"target":"present","response":"absent","rt":831.5,"correct":false,"confidence":2},{"trial_n":109,"min":103,"max":152,"target":"absent","response":"present","rt":1094.2000000477,"correct":false,"confidence":3},{"trial_n":110,"min":101,"max":154,"target":"present","response":"present","rt":1414.2999999523,"correct":true,"confidence":3},{"trial_n":111,"min":101,"max":154,"target":"present","response":"absent","rt":1278.2000000477,"correct":false,"confidence":3},{"trial_n":112,"min":100,"max":155,"target":"present","response":"absent","rt":1617.3999998569,"correct":false,"confidence":2},{"trial_n":113,"min":99,"max":156,"target":"absent","response":"present","rt":907.89999985695,"correct":false,"confidence":2},{"trial_n":114,"min":98,"max":157,"target":"absent","response":"present","rt":31869.600000143,"correct":false,"confidence":1},{"trial_n":115,"min":97,"max":158,"target":"absent","response":"absent","rt":1040.8000001907,"correct":true,"confidence":1},{"trial_n":116,"min":97,"max":158,"target":"absent","response":"absent","rt":865.70000004768,"correct":true,"confidence":2},{"trial_n":117,"min":98,"max":157,"target":"absent","response":"present","rt":1087.4000000954,"correct":false,"confidence":1},{"trial_n":118,"min":97,"max":158,"target":"present","response":"present","rt":946.69999980927,"correct":true,"confidence":1},{"trial_n":119,"min":97,"max":158,"target":"present","response":"absent","rt":1085.5999999046,"correct":false,"confidence":2},{"trial_n":120,"min":96,"max":159,"target":"present","response":"present","rt":1060.4000000954,"correct":true,"confidence":1},{"trial_n":121,"min":96,"max":159,"target":"absent","response":"absent","rt":1858.0999999046,"correct":true,"confidence":2},{"trial_n":122,"min":97,"max":158,"target":"absent","response":"present","rt":1670.7000000477,"correct":false,"confidence":3},{"trial_n":123,"min":96,"max":159,"target":"absent","response":"present","rt":809,"correct":false,"confidence":3},{"trial_n":124,"min":95,"max":160,"target":"present","response":"present","rt":1776.7999999523,"correct":true,"confidence":3},{"trial_n":125,"min":95,"max":160,"target":"absent","response":"absent","rt":1391.2999999523,"correct":true,"confidence":1},{"trial_n":126,"min":96,"max":159,"target":"present","response":"present","rt":1174.8999998569,"correct":true,"confidence":1},{"trial_n":127,"min":96,"max":159,"target":"present","response":"absent","rt":820.79999995232,"correct":false,"confidence":1},{"trial_n":128,"min":95,"max":160,"target":"absent","response":"present","rt":954.20000004768,"correct":false,"confidence":1},{"trial_n":129,"min":94,"max":161,"target":"absent","response":"absent","rt":857.59999990463,"correct":true,"confidence":2},{"trial_n":130,"min":94,"max":161,"target":"absent","response":"absent","rt":1122.9000000954,"correct":true,"confidence":2},{"trial_n":131,"min":95,"max":160,"target":"present","response":"present","rt":813,"correct":true,"confidence":1},{"trial_n":132,"min":95,"max":160,"target":"absent","response":"present","rt":1436.4000000954,"correct":false,"confidence":2},{"trial_n":133,"min":94,"max":161,"target":"absent","response":"absent","rt":987.90000009537,"correct":true,"confidence":1},{"trial_n":134,"min":94,"max":161,"target":"absent","response":"present","rt":1253.8000001907,"correct":false,"confidence":2},{"trial_n":135,"min":93,"max":162,"target":"absent","response":"absent","rt":828.5,"correct":true,"confidence":1},{"trial_n":136,"min":93,"max":162,"target":"present","response":"present","rt":787.60000014305,"correct":true,"confidence":1},{"trial_n":137,"min":94,"max":161,"target":"present","response":"absent","rt":971,"correct":false,"confidence":1},{"trial_n":138,"min":93,"max":162,"target":"absent","response":"absent","rt":802.39999985695,"correct":true,"confidence":1},{"trial_n":139,"min":93,"max":162,"target":"present","response":"present","rt":800.5,"correct":true,"confidence":2},{"trial_n":140,"min":94,"max":161,"target":"absent","response":"present","rt":1326,"correct":false,"confidence":2}]