[{"trial_n":1,"span":8,"encoder":"88952744","distractor":"88952044","target":"present","response":"present","rt":"2204.1000000015","correct":true,"confidence":-1},{"trial_n":2,"span":8,"encoder":"20761680","distractor":"40761680","target":"present","response":"present","rt":"1060.799999997","correct":true,"confidence":-1},{"trial_n":3,"span":10,"encoder":"2985381206","distractor":"2985381106","target":"absent","response":"absent","rt":"1995.799999997","correct":true,"confidence":-1},{"trial_n":4,"span":10,"encoder":"7208415956","distractor":"7208465956","target":"absent","response":"absent","rt":"2122.700000003","correct":true,"confidence":-1},{"trial_n":5,"span":12,"encoder":"216533350151","distractor":"236533350151","target":"present","response":"present","rt":"2214.400000006","correct":true,"confidence":-1},{"trial_n":6,"span":12,"encoder":"977725044939","distractor":"971725044939","target":"absent","response":"absent","rt":"1976.799999997","correct":true,"confidence":-1},{"trial_n":7,"span":14,"encoder":"13597708910774","distractor":"13597704910774","target":"present","response":"present","rt":"2609.1000000015","correct":true,"confidence":-1},{"trial_n":8,"span":14,"encoder":"71754745898384","distractor":"73754745898384","target":"present","response":"present","rt":"1808.6999999955","correct":true,"confidence":-1},{"trial_n":9,"span":16,"encoder":"3460566841691765","distractor":"3460566541691765","target":"absent","response":"present","rt":"2881.1000000015","correct":false,"confidence":-1},{"trial_n":10,"span":14,"encoder":"42943356426450","distractor":"22943356426450","target":"present","response":"present","rt":"1727.8999999985","correct":true,"confidence":-1},{"trial_n":11,"span":14,"encoder":"12786857948827","distractor":"12786857948627","target":"present","response":"present","rt":"1359.8000000045","correct":true,"confidence":-1},{"trial_n":12,"span":15,"encoder":"552550945504428","distractor":"552550145504428","target":"present","response":"present","rt":"3269","correct":true,"confidence":-1},{"trial_n":13,"span":15,"encoder":"895572641183976","distractor":"895572601183976","target":"absent","response":"present","rt":"2461.3999999985","correct":false,"confidence":-1},{"trial_n":14,"span":14,"encoder":"08620984122935","distractor":"08620984522935","target":"present","response":"present","rt":"2019.6000000015","correct":true,"confidence":-1},{"trial_n":15,"span":14,"encoder":"74739774868001","distractor":"74739775868001","target":"present","response":"present","rt":"1563.6000000015","correct":true,"confidence":-1},{"trial_n":16,"span":15,"encoder":"798098534758476","distractor":"798598534758476","target":"absent","response":"present","rt":"2376.6000000015","correct":false,"confidence":-1},{"trial_n":17,"span":14,"encoder":"11803257060137","distractor":"11803257560137","target":"present","response":"present","rt":"1976.200000003","correct":true,"confidence":-1},{"trial_n":18,"span":14,"encoder":"35460395705986","distractor":"35460392705986","target":"absent","response":"absent","rt":"2756.8999999985","correct":true,"confidence":-1},{"trial_n":19,"span":15,"encoder":"114317122731844","distractor":"114317122731344","target":"absent","response":"present","rt":"1786.5","correct":false,"confidence":-1},{"trial_n":20,"span":14,"encoder":"50128868830295","distractor":"40128868830295","target":"absent","response":"absent","rt":"2549.3000000045","correct":true,"confidence":-1},{"trial_n":21,"span":14,"encoder":"52703672797658","distractor":"52703676797658","target":"present","response":"present","rt":"2297.6000000015","correct":true,"confidence":5},{"trial_n":22,"span":15,"encoder":"689145687620855","distractor":"684145687620855","target":"present","response":"present","rt":"3356.6000000015","correct":true,"confidence":5},{"trial_n":23,"span":15,"encoder":"037899444287036","distractor":"067899444287036","target":"absent","response":"absent","rt":"5570.6000000015","correct":true,"confidence":5},{"trial_n":24,"span":16,"encoder":"4640599420038320","distractor":"4640599420038420","target":"present","response":"absent","rt":"11670.5","correct":false,"confidence":5},{"trial_n":25,"span":15,"encoder":"991726544838883","distractor":"991326544838883","target":"absent","response":"absent","rt":"3913.799999997","correct":true,"confidence":5},{"trial_n":26,"span":15,"encoder":"281210812790700","distractor":"283210812790700","target":"present","response":"present","rt":"3845.8999999985","correct":true,"confidence":5},{"trial_n":27,"span":16,"encoder":"9078730327711454","distractor":"9078730325711454","target":"present","response":"present","rt":"9288.6999999955","correct":true,"confidence":4},{"trial_n":28,"span":16,"encoder":"4825457798031368","distractor":"4825457798431368","target":"present","response":"present","rt":"3275","correct":true,"confidence":3},{"trial_n":29,"span":17,"encoder":"58992893628177948","distractor":"58992893668177948","target":"absent","response":"present","rt":"4013.1000000015","correct":false,"confidence":4},{"trial_n":30,"span":16,"encoder":"1741740382930998","distractor":"1742740382930998","target":"absent","response":"absent","rt":"3306.200000003","correct":true,"confidence":4},{"trial_n":31,"span":16,"encoder":"8162050084619710","distractor":"8162150084619710","target":"present","response":"present","rt":"3295.3000000045","correct":true,"confidence":5},{"trial_n":32,"span":17,"encoder":"34942917162350836","distractor":"34902917162350836","target":"present","response":"present","rt":"3613.700000003","correct":true,"confidence":5},{"trial_n":33,"span":17,"encoder":"47072015591317353","distractor":"47072015591337353","target":"present","response":"present","rt":"4828.200000003","correct":true,"confidence":4},{"trial_n":34,"span":18,"encoder":"409226525770764041","distractor":"409226525770769041","target":"present","response":"present","rt":"4699.3999999985","correct":true,"confidence":4},{"trial_n":35,"span":18,"encoder":"325745589691423147","distractor":"325745589691429147","target":"absent","response":"present","rt":"4624.799999997","correct":false,"confidence":5},{"trial_n":36,"span":17,"encoder":"71461203849674108","distractor":"71461203849674608","target":"absent","response":"present","rt":"8258.8999999985","correct":false,"confidence":3},{"trial_n":37,"span":16,"encoder":"3238177818409044","distractor":"3234177818409044","target":"present","response":"present","rt":"11170.5","correct":true,"confidence":4},{"trial_n":38,"span":16,"encoder":"1414568857180134","distractor":"1414468857180134","target":"absent","response":"absent","rt":"3152.6000000015","correct":true,"confidence":5},{"trial_n":39,"span":17,"encoder":"26443756261316094","distractor":"26443756261116094","target":"absent","response":"absent","rt":"8253.299999997","correct":true,"confidence":1},{"trial_n":40,"span":17,"encoder":"66676850034459092","distractor":"66676850034459052","target":"present","response":"present","rt":"7144","correct":true,"confidence":5},{"trial_n":41,"span":18,"encoder":"289169845716260414","distractor":"285169845716260414","target":"absent","response":"absent","rt":"3751.5","correct":true,"confidence":1},{"trial_n":42,"span":18,"encoder":"284788377515522656","distractor":"284788373515522656","target":"present","response":"present","rt":"3566.799999997","correct":true,"confidence":1},{"trial_n":43,"span":19,"encoder":"2050502293658187554","distractor":"2055502293658187554","target":"absent","response":"present","rt":"2819.799999997","correct":false,"confidence":5},{"trial_n":44,"span":18,"encoder":"108835263414741694","distractor":"108835263414741695","target":"absent","response":"absent","rt":"2040.8999999985","correct":true,"confidence":5},{"trial_n":45,"span":18,"encoder":"351828374970591770","distractor":"351828374970591778","target":"present","response":"present","rt":"3973.5","correct":true,"confidence":2},{"trial_n":46,"span":19,"encoder":"7194429948481151801","distractor":"7194439948481151801","target":"absent","response":"present","rt":"4681.700000003","correct":false,"confidence":3},{"trial_n":47,"span":18,"encoder":"506986227705164071","distractor":"506986227705164081","target":"absent","response":"present","rt":"3362","correct":false,"confidence":5},{"trial_n":48,"span":17,"encoder":"12025120836779737","distractor":"12025120856779737","target":"absent","response":"present","rt":"2960.700000003","correct":false,"confidence":4},{"trial_n":49,"span":16,"encoder":"4254186464717762","distractor":"4254186464717862","target":"absent","response":"present","rt":"3890.900000006","correct":false,"confidence":4},{"trial_n":50,"span":15,"encoder":"555723848999807","distractor":"555723868999807","target":"present","response":"present","rt":"3709.400000006","correct":true,"confidence":5},{"trial_n":51,"span":15,"encoder":"071672132803861","distractor":"071692132803861","target":"absent","response":"present","rt":"4837.3999999985","correct":false,"confidence":5},{"trial_n":52,"span":14,"encoder":"10873805775394","distractor":"10873805795394","target":"present","response":"present","rt":"2540.1000000015","correct":true,"confidence":4},{"trial_n":53,"span":14,"encoder":"72908714771077","distractor":"42908714771077","target":"present","response":"present","rt":"9836.200000003","correct":true,"confidence":1},{"trial_n":54,"span":15,"encoder":"202799249772235","distractor":"202799249773235","target":"absent","response":"present","rt":"3509","correct":false,"confidence":5},{"trial_n":55,"span":14,"encoder":"11541609163366","distractor":"11541609163866","target":"absent","response":"present","rt":"2862.200000003","correct":false,"confidence":4},{"trial_n":56,"span":13,"encoder":"6040948070216","distractor":"6040948076216","target":"present","response":"present","rt":"2354.3000000045","correct":true,"confidence":5},{"trial_n":57,"span":13,"encoder":"7020599102111","distractor":"7080599102111","target":"absent","response":"absent","rt":"2199.799999997","correct":true,"confidence":5},{"trial_n":58,"span":14,"encoder":"99975925035573","distractor":"99975925032573","target":"absent","response":"absent","rt":"4242.700000003","correct":true,"confidence":5},{"trial_n":59,"span":14,"encoder":"25150674874489","distractor":"25150674974489","target":"present","response":"present","rt":"3098.299999997","correct":true,"confidence":4},{"trial_n":60,"span":15,"encoder":"811636091813571","distractor":"811636091811571","target":"present","response":"present","rt":"3851.1000000015","correct":true,"confidence":3},{"trial_n":61,"span":15,"encoder":"928594438968007","distractor":"928594438468007","target":"present","response":"present","rt":"3523.700000003","correct":true,"confidence":4},{"trial_n":62,"span":16,"encoder":"1451595850712669","distractor":"1451195850712669","target":"present","response":"present","rt":"2941.8999999985","correct":true,"confidence":5},{"trial_n":63,"span":16,"encoder":"5211893322519329","distractor":"5211893322519325","target":"absent","response":"absent","rt":"2312.5","correct":true,"confidence":1},{"trial_n":64,"span":17,"encoder":"98147900385051155","distractor":"98149900385051155","target":"absent","response":"present","rt":"4485.700000003","correct":false,"confidence":1},{"trial_n":65,"span":16,"encoder":"1490200679073898","distractor":"1490200679063898","target":"absent","response":"absent","rt":"4196","correct":true,"confidence":1},{"trial_n":66,"span":16,"encoder":"4858214989852312","distractor":"4858214989852612","target":"present","response":"present","rt":"4409.8000000045","correct":true,"confidence":4},{"trial_n":67,"span":17,"encoder":"24396660731909010","distractor":"24396660738909010","target":"absent","response":"present","rt":"2852","correct":false,"confidence":1},{"trial_n":68,"span":16,"encoder":"1830539163091719","distractor":"2830539163091719","target":"absent","response":"present","rt":"2454.6000000015","correct":false,"confidence":5},{"trial_n":69,"span":15,"encoder":"988746520396700","distractor":"988846520396700","target":"present","response":"present","rt":"6073.700000003","correct":true,"confidence":5},{"trial_n":70,"span":15,"encoder":"878158057351427","distractor":"878153057351427","target":"present","response":"present","rt":"3262.8000000045","correct":true,"confidence":5},{"trial_n":71,"span":8,"encoder":"44950238","distractor":"24950238","target":"present","response":"present","rt":"4480","correct":true,"confidence":-1},{"trial_n":72,"span":8,"encoder":"32366140","distractor":"37366140","target":"present","response":"present","rt":"3195.200000003","correct":true,"confidence":-1},{"trial_n":73,"span":9,"encoder":"647375813","distractor":"647371813","target":"absent","response":"absent","rt":"4680.3999999985","correct":true,"confidence":-1},{"trial_n":74,"span":9,"encoder":"626350407","distractor":"626350402","target":"absent","response":"present","rt":"4653.200000003","correct":false,"confidence":-1},{"trial_n":75,"span":8,"encoder":"79301902","distractor":"79307902","target":"present","response":"present","rt":"3172.200000003","correct":true,"confidence":-1},{"trial_n":76,"span":8,"encoder":"18362974","distractor":"18362924","target":"absent","response":"present","rt":"4859.599999994","correct":false,"confidence":-1},{"trial_n":77,"span":7,"encoder":"3477260","distractor":"3477268","target":"absent","response":"absent","rt":"1555.8000000045","correct":true,"confidence":-1},{"trial_n":78,"span":7,"encoder":"8847908","distractor":"8947908","target":"absent","response":"absent","rt":"3196.900000006","correct":true,"confidence":-1},{"trial_n":79,"span":8,"encoder":"00142262","distractor":"00112262","target":"present","response":"absent","rt":"4237.200000003","correct":false,"confidence":-1},{"trial_n":80,"span":7,"encoder":"7748642","distractor":"7749642","target":"present","response":"present","rt":"3103.3999999985","correct":true,"confidence":-1},{"trial_n":81,"span":7,"encoder":"6281654","distractor":"9281654","target":"present","response":"present","rt":"3857.6999999955","correct":true,"confidence":-1},{"trial_n":82,"span":8,"encoder":"46312365","distractor":"41312365","target":"present","response":"present","rt":"1420.6000000015","correct":true,"confidence":-1},{"trial_n":83,"span":8,"encoder":"50974926","distractor":"50974626","target":"present","response":"present","rt":"1967.1000000015","correct":true,"confidence":-1},{"trial_n":84,"span":9,"encoder":"064295097","distractor":"067295097","target":"present","response":"present","rt":"3735.200000003","correct":true,"confidence":-1},{"trial_n":85,"span":9,"encoder":"779864690","distractor":"778864690","target":"present","response":"present","rt":"3634.3000000045","correct":true,"confidence":-1},{"trial_n":86,"span":10,"encoder":"4511795173","distractor":"4561795173","target":"present","response":"absent","rt":"4355.1999999955","correct":false,"confidence":-1},{"trial_n":87,"span":9,"encoder":"493579251","distractor":"499579251","target":"present","response":"present","rt":"703.10000000149","correct":true,"confidence":-1},{"trial_n":88,"span":9,"encoder":"953259441","distractor":"953959441","target":"present","response":"present","rt":"2323.5","correct":true,"confidence":-1},{"trial_n":89,"span":10,"encoder":"4301994630","distractor":"4301994680","target":"absent","response":"absent","rt":"1701.1000000015","correct":true,"confidence":-1},{"trial_n":90,"span":10,"encoder":"9219300240","distractor":"0219300240","target":"absent","response":"absent","rt":"2783.5","correct":true,"confidence":-1},{"trial_n":91,"span":11,"encoder":"37705206799","distractor":"37105206799","target":"absent","response":"present","rt":"7793.6000000015","correct":false,"confidence":1},{"trial_n":92,"span":10,"encoder":"5963609131","distractor":"5963209131","target":"present","response":"present","rt":"6198.1000000015","correct":true,"confidence":5},{"trial_n":93,"span":10,"encoder":"5946389735","distractor":"5916389735","target":"present","response":"present","rt":"3726.3999999985","correct":true,"confidence":5},{"trial_n":94,"span":11,"encoder":"98946881404","distractor":"98946881604","target":"present","response":"present","rt":"7428.599999994","correct":true,"confidence":5},{"trial_n":95,"span":11,"encoder":"69396316719","distractor":"69796316719","target":"present","response":"present","rt":"7861.6000000015","correct":true,"confidence":5},{"trial_n":96,"span":12,"encoder":"680069733283","distractor":"680069733683","target":"absent","response":"present","rt":"4748.1000000015","correct":false,"confidence":1},{"trial_n":97,"span":11,"encoder":"41982500909","distractor":"49982500909","target":"present","response":"present","rt":"10586.699999996","correct":true,"confidence":1},{"trial_n":98,"span":11,"encoder":"32793920472","distractor":"32773920472","target":"absent","response":"present","rt":"5249.6000000015","correct":false,"confidence":1},{"trial_n":99,"span":10,"encoder":"8358339373","distractor":"6358339373","target":"absent","response":"absent","rt":"3158","correct":true,"confidence":5},{"trial_n":100,"span":10,"encoder":"5242273212","distractor":"5212273212","target":"present","response":"present","rt":"5667.5","correct":true,"confidence":1},{"trial_n":101,"span":11,"encoder":"65209562476","distractor":"65209532476","target":"absent","response":"present","rt":"11266","correct":false,"confidence":1},{"trial_n":102,"span":10,"encoder":"6552848128","distractor":"6552848127","target":"absent","response":"absent","rt":"2655.299999997","correct":true,"confidence":5},{"trial_n":103,"span":10,"encoder":"2714473215","distractor":"2714173215","target":"absent","response":"present","rt":"5947.299999997","correct":false,"confidence":1},{"trial_n":104,"span":9,"encoder":"545075718","distractor":"545075710","target":"present","response":"absent","rt":"11492.399999999","correct":false,"confidence":1},{"trial_n":105,"span":8,"encoder":"49603601","distractor":"49607601","target":"absent","response":"absent","rt":"3976.8000000045","correct":true,"confidence":4},{"trial_n":106,"span":8,"encoder":"24224366","distractor":"24224326","target":"absent","response":"absent","rt":"2354.5","correct":true,"confidence":5},{"trial_n":107,"span":9,"encoder":"984812248","distractor":"984812348","target":"absent","response":"present","rt":"7405.799999997","correct":false,"confidence":3},{"trial_n":108,"span":8,"encoder":"48362993","distractor":"58362993","target":"present","response":"present","rt":"4111","correct":true,"confidence":5},{"trial_n":109,"span":8,"encoder":"65107554","distractor":"65127554","target":"absent","response":"absent","rt":"4089.900000006","correct":true,"confidence":5},{"trial_n":110,"span":9,"encoder":"056131362","distractor":"056131662","target":"present","response":"present","rt":"3462.1000000015","correct":true,"confidence":1},{"trial_n":111,"span":9,"encoder":"642585307","distractor":"342585307","target":"absent","response":"absent","rt":"2116.3999999985","correct":true,"confidence":5},{"trial_n":112,"span":10,"encoder":"2871901408","distractor":"2871101408","target":"present","response":"present","rt":"4328","correct":true,"confidence":1},{"trial_n":113,"span":10,"encoder":"6328410226","distractor":"6329410226","target":"absent","response":"absent","rt":"4973.6000000015","correct":true,"confidence":2},{"trial_n":114,"span":11,"encoder":"54119949462","distractor":"54519949462","target":"absent","response":"absent","rt":"2607.1999999955","correct":true,"confidence":5},{"trial_n":115,"span":11,"encoder":"04803560566","distractor":"02803560566","target":"present","response":"present","rt":"3082.3999999985","correct":true,"confidence":5},{"trial_n":116,"span":12,"encoder":"000084047395","distractor":"000085047395","target":"absent","response":"present","rt":"8646.200000003","correct":false,"confidence":1},{"trial_n":117,"span":11,"encoder":"92033527041","distractor":"92033597041","target":"absent","response":"absent","rt":"10793.5","correct":true,"confidence":1},{"trial_n":118,"span":11,"encoder":"03030477408","distractor":"03930477408","target":"present","response":"absent","rt":"14812.399999999","correct":false,"confidence":2},{"trial_n":119,"span":10,"encoder":"5488740845","distractor":"5482740845","target":"absent","response":"absent","rt":"3093.3000000045","correct":true,"confidence":5},{"trial_n":120,"span":10,"encoder":"4466382134","distractor":"4466382934","target":"present","response":"present","rt":"6224.900000006","correct":true,"confidence":3},{"trial_n":121,"span":11,"encoder":"16750770444","distractor":"86750770444","target":"present","response":"present","rt":"7011.5","correct":true,"confidence":4},{"trial_n":122,"span":11,"encoder":"89730418543","distractor":"49730418543","target":"present","response":"present","rt":"2560.5","correct":true,"confidence":5},{"trial_n":123,"span":12,"encoder":"154109354062","distractor":"154109384062","target":"present","response":"absent","rt":"16581.200000003","correct":false,"confidence":1},{"trial_n":124,"span":11,"encoder":"94462711224","distractor":"94462711284","target":"absent","response":"absent","rt":"5421.299999997","correct":true,"confidence":4},{"trial_n":125,"span":11,"encoder":"11146730201","distractor":"11106730201","target":"absent","response":"absent","rt":"8256.5","correct":true,"confidence":2},{"trial_n":126,"span":12,"encoder":"556976285034","distractor":"556971285034","target":"absent","response":"absent","rt":"6457.1000000015","correct":true,"confidence":1},{"trial_n":127,"span":12,"encoder":"887100134302","distractor":"887100124302","target":"absent","response":"absent","rt":"5636.5","correct":true,"confidence":3},{"trial_n":128,"span":13,"encoder":"3687241409107","distractor":"3287241409107","target":"absent","response":"present","rt":"8328.799999997","correct":false,"confidence":1},{"trial_n":129,"span":12,"encoder":"124959944269","distractor":"124959944769","target":"present","response":"present","rt":"7948.3999999985","correct":true,"confidence":1},{"trial_n":130,"span":12,"encoder":"750442879764","distractor":"750442875764","target":"absent","response":"absent","rt":"4069.6000000015","correct":true,"confidence":1},{"trial_n":131,"span":13,"encoder":"9484079551104","distractor":"9484079521104","target":"present","response":"present","rt":"3191.5","correct":true,"confidence":5},{"trial_n":132,"span":13,"encoder":"7811265045512","distractor":"7815265045512","target":"present","response":"present","rt":"3686","correct":true,"confidence":5},{"trial_n":133,"span":14,"encoder":"34714775478820","distractor":"34714765478820","target":"absent","response":"absent","rt":"6212.6000000015","correct":true,"confidence":1},{"trial_n":134,"span":14,"encoder":"55559382593033","distractor":"56559382593033","target":"present","response":"present","rt":"11473.600000001","correct":true,"confidence":2},{"trial_n":135,"span":15,"encoder":"882626258702931","distractor":"882626288702931","target":"present","response":"absent","rt":"6330","correct":false,"confidence":1},{"trial_n":136,"span":14,"encoder":"01752672315394","distractor":"01752672315354","target":"absent","response":"present","rt":"6606.8999999985","correct":false,"confidence":1},{"trial_n":137,"span":13,"encoder":"7828775938061","distractor":"7838775938061","target":"present","response":"present","rt":"4324.6000000015","correct":true,"confidence":5},{"trial_n":138,"span":13,"encoder":"9226618405430","distractor":"9221618405430","target":"absent","response":"absent","rt":"2494.1000000015","correct":true,"confidence":5},{"trial_n":139,"span":14,"encoder":"84824651762675","distractor":"84824851762675","target":"present","response":"present","rt":"4205.799999997","correct":true,"confidence":1},{"trial_n":140,"span":14,"encoder":"71715856921910","distractor":"21715856921910","target":"absent","response":"absent","rt":"3834.299999997","correct":true,"confidence":5}]