[{"trial_n":1,"n_dots":4.25,"target":"right","response":"right","rt":3927.5,"correct":true,"confidence":-1},{"trial_n":2,"n_dots":4.25,"target":"right","response":"right","rt":1678.5,"correct":true,"confidence":-1},{"trial_n":3,"n_dots":3.85,"target":"right","response":"right","rt":696.29999999702,"correct":true,"confidence":-1},{"trial_n":4,"n_dots":3.85,"target":"right","response":"right","rt":393.60000000149,"correct":true,"confidence":-1},{"trial_n":5,"n_dots":3.45,"target":"left","response":"right","rt":386.29999999702,"correct":false,"confidence":-1},{"trial_n":6,"n_dots":3.85,"target":"left","response":"left","rt":1165.8999999985,"correct":true,"confidence":-1},{"trial_n":7,"n_dots":3.85,"target":"left","response":"right","rt":1460.799999997,"correct":false,"confidence":-1},{"trial_n":8,"n_dots":4.05,"target":"left","response":"left","rt":1380.3999999985,"correct":true,"confidence":-1},{"trial_n":9,"n_dots":4.05,"target":"left","response":"right","rt":1074.8999999985,"correct":false,"confidence":-1},{"trial_n":10,"n_dots":4.25,"target":"right","response":"left","rt":550.89999999851,"correct":false,"confidence":-1},{"trial_n":11,"n_dots":4.45,"target":"left","response":"left","rt":46.40000000596,"correct":true,"confidence":-1},{"trial_n":12,"n_dots":4.45,"target":"left","response":"left","rt":153.5,"correct":true,"confidence":-1},{"trial_n":13,"n_dots":4.35,"target":"left","response":"left","rt":326.10000000149,"correct":true,"confidence":-1},{"trial_n":14,"n_dots":4.35,"target":"right","response":"right","rt":840.29999999702,"correct":true,"confidence":-1},{"trial_n":15,"n_dots":4.25,"target":"left","response":"left","rt":711.60000000149,"correct":true,"confidence":-1},{"trial_n":16,"n_dots":4.25,"target":"left","response":"left","rt":845.89999999851,"correct":true,"confidence":-1},{"trial_n":17,"n_dots":4.15,"target":"right","response":"right","rt":591.39999999851,"correct":true,"confidence":-1},{"trial_n":18,"n_dots":4.15,"target":"right","response":"right","rt":20.60000000149,"correct":true,"confidence":-1},{"trial_n":19,"n_dots":4.05,"target":"left","response":"left","rt":1010.5,"correct":true,"confidence":-1},{"trial_n":20,"n_dots":4.05,"target":"right","response":"right","rt":799.79999999702,"correct":true,"confidence":-1},{"trial_n":21,"n_dots":3.95,"target":"left","response":"left","rt":1526.299999997,"correct":true,"confidence":2},{"trial_n":22,"n_dots":3.95,"target":"left","response":"left","rt":714.80000000447,"correct":true,"confidence":5},{"trial_n":23,"n_dots":3.85,"target":"right","response":"right","rt":725,"correct":true,"confidence":5},{"trial_n":24,"n_dots":3.85,"target":"left","response":"left","rt":844.60000000149,"correct":true,"confidence":4},{"trial_n":25,"n_dots":3.75,"target":"left","response":"left","rt":846.10000000149,"correct":true,"confidence":4},{"trial_n":26,"n_dots":3.75,"target":"left","response":"right","rt":2286.5,"correct":false,"confidence":1},{"trial_n":27,"n_dots":3.85,"target":"right","response":"right","rt":1179.299999997,"correct":true,"confidence":1},{"trial_n":28,"n_dots":3.85,"target":"left","response":"left","rt":686.5,"correct":true,"confidence":5},{"trial_n":29,"n_dots":3.75,"target":"right","response":"right","rt":1023.700000003,"correct":true,"confidence":1},{"trial_n":30,"n_dots":3.75,"target":"right","response":"right","rt":1878.5,"correct":true,"confidence":1},{"trial_n":31,"n_dots":3.65,"target":"right","response":"right","rt":831.40000000596,"correct":true,"confidence":1},{"trial_n":32,"n_dots":3.65,"target":"right","response":"right","rt":773.09999999404,"correct":true,"confidence":1},{"trial_n":33,"n_dots":3.55,"target":"right","response":"right","rt":942.39999999851,"correct":true,"confidence":2},{"trial_n":34,"n_dots":3.55,"target":"left","response":"left","rt":1624.5,"correct":true,"confidence":5},{"trial_n":35,"n_dots":3.45,"target":"left","response":"left","rt":856.5,"correct":true,"confidence":5},{"trial_n":36,"n_dots":3.45,"target":"right","response":"right","rt":1706.799999997,"correct":true,"confidence":1},{"trial_n":37,"n_dots":3.35,"target":"right","response":"right","rt":692,"correct":true,"confidence":3},{"trial_n":38,"n_dots":3.35,"target":"right","response":"right","rt":958.20000000298,"correct":true,"confidence":1},{"trial_n":39,"n_dots":3.25,"target":"left","response":"left","rt":1236.5,"correct":true,"confidence":1},{"trial_n":40,"n_dots":3.25,"target":"left","response":"left","rt":1027.200000003,"correct":true,"confidence":3},{"trial_n":41,"n_dots":3.15,"target":"left","response":"left","rt":1972.8999999985,"correct":true,"confidence":3},{"trial_n":42,"n_dots":3.15,"target":"left","response":"left","rt":874.70000000298,"correct":true,"confidence":3},{"trial_n":43,"n_dots":3.05,"target":"left","response":"left","rt":790,"correct":true,"confidence":5},{"trial_n":44,"n_dots":3.05,"target":"right","response":"right","rt":1004,"correct":true,"confidence":1},{"trial_n":45,"n_dots":2.95,"target":"right","response":"right","rt":817.39999999851,"correct":true,"confidence":2},{"trial_n":46,"n_dots":2.95,"target":"right","response":"right","rt":727.29999999702,"correct":true,"confidence":1},{"trial_n":47,"n_dots":2.85,"target":"right","response":"right","rt":674.39999999851,"correct":true,"confidence":2},{"trial_n":48,"n_dots":2.85,"target":"left","response":"left","rt":817.30000000447,"correct":true,"confidence":4},{"trial_n":49,"n_dots":2.75,"target":"left","response":"left","rt":872.29999999702,"correct":true,"confidence":1},{"trial_n":50,"n_dots":2.75,"target":"right","response":"right","rt":1261.5,"correct":true,"confidence":1},{"trial_n":51,"n_dots":2.65,"target":"right","response":"right","rt":716.40000000596,"correct":true,"confidence":3},{"trial_n":52,"n_dots":2.65,"target":"right","response":"right","rt":836.5,"correct":true,"confidence":1},{"trial_n":53,"n_dots":2.55,"target":"left","response":"left","rt":986.5,"correct":true,"confidence":2},{"trial_n":54,"n_dots":2.55,"target":"left","response":"left","rt":868.30000000447,"correct":true,"confidence":5},{"trial_n":55,"n_dots":2.45,"target":"left","response":"left","rt":749,"correct":true,"confidence":4},{"trial_n":56,"n_dots":2.45,"target":"right","response":"right","rt":823,"correct":true,"confidence":3},{"trial_n":57,"n_dots":2.35,"target":"right","response":"right","rt":540.80000000447,"correct":true,"confidence":5},{"trial_n":58,"n_dots":2.35,"target":"right","response":"left","rt":1081.5,"correct":false,"confidence":1},{"trial_n":59,"n_dots":2.45,"target":"right","response":"right","rt":770.60000000149,"correct":true,"confidence":1},{"trial_n":60,"n_dots":2.45,"target":"right","response":"right","rt":837.89999999851,"correct":true,"confidence":1},{"trial_n":61,"n_dots":2.35,"target":"left","response":"right","rt":643.5,"correct":false,"confidence":1},{"trial_n":62,"n_dots":2.45,"target":"left","response":"left","rt":763.5,"correct":true,"confidence":2},{"trial_n":63,"n_dots":2.45,"target":"left","response":"right","rt":920.60000000149,"correct":false,"confidence":1},{"trial_n":64,"n_dots":2.55,"target":"left","response":"right","rt":698.20000000298,"correct":false,"confidence":1},{"trial_n":65,"n_dots":2.65,"target":"left","response":"right","rt":1111.6000000015,"correct":false,"confidence":1},{"trial_n":66,"n_dots":2.75,"target":"left","response":"left","rt":859.29999999702,"correct":true,"confidence":3},{"trial_n":67,"n_dots":2.75,"target":"right","response":"right","rt":718.89999999851,"correct":true,"confidence":4},{"trial_n":68,"n_dots":2.65,"target":"right","response":"right","rt":999.20000000298,"correct":true,"confidence":1},{"trial_n":69,"n_dots":2.65,"target":"left","response":"right","rt":732.60000000149,"correct":false,"confidence":1},{"trial_n":70,"n_dots":2.75,"target":"right","response":"right","rt":535.59999999404,"correct":true,"confidence":1},{"trial_n":71,"n_dots":2.75,"target":"left","response":"left","rt":960.29999999702,"correct":true,"confidence":2},{"trial_n":72,"n_dots":2.65,"target":"left","response":"left","rt":876.30000000447,"correct":true,"confidence":2},{"trial_n":73,"n_dots":2.65,"target":"left","response":"left","rt":851,"correct":true,"confidence":4},{"trial_n":74,"n_dots":2.55,"target":"right","response":"right","rt":424.70000000298,"correct":true,"confidence":3},{"trial_n":75,"n_dots":2.55,"target":"right","response":"left","rt":748.10000000149,"correct":false,"confidence":5},{"trial_n":76,"n_dots":2.65,"target":"right","response":"left","rt":783.5,"correct":false,"confidence":1},{"trial_n":77,"n_dots":2.75,"target":"right","response":"left","rt":874.30000000447,"correct":false,"confidence":1},{"trial_n":78,"n_dots":2.85,"target":"left","response":"left","rt":885.79999999702,"correct":true,"confidence":5},{"trial_n":79,"n_dots":2.85,"target":"left","response":"left","rt":673.39999999851,"correct":true,"confidence":4},{"trial_n":80,"n_dots":2.75,"target":"left","response":"right","rt":973.29999999702,"correct":false,"confidence":1},{"trial_n":81,"n_dots":2.85,"target":"right","response":"right","rt":754.5,"correct":true,"confidence":4},{"trial_n":82,"n_dots":2.85,"target":"right","response":"right","rt":621.29999999702,"correct":true,"confidence":1},{"trial_n":83,"n_dots":2.75,"target":"right","response":"right","rt":1423.599999994,"correct":true,"confidence":1},{"trial_n":84,"n_dots":2.75,"target":"right","response":"right","rt":867.30000000447,"correct":true,"confidence":1},{"trial_n":85,"n_dots":2.65,"target":"right","response":"right","rt":921.79999999702,"correct":true,"confidence":1},{"trial_n":86,"n_dots":2.65,"target":"left","response":"right","rt":1758.799999997,"correct":false,"confidence":1},{"trial_n":87,"n_dots":2.75,"target":"right","response":"right","rt":709.10000000149,"correct":true,"confidence":3},{"trial_n":88,"n_dots":2.75,"target":"right","response":"right","rt":760.39999999851,"correct":true,"confidence":2},{"trial_n":89,"n_dots":2.65,"target":"left","response":"left","rt":1566,"correct":true,"confidence":1},{"trial_n":90,"n_dots":2.65,"target":"left","response":"right","rt":907.29999999702,"correct":false,"confidence":1},{"trial_n":91,"n_dots":2.75,"target":"left","response":"left","rt":983.60000000149,"correct":true,"confidence":5},{"trial_n":92,"n_dots":2.75,"target":"right","response":"right","rt":1062.6000000015,"correct":true,"confidence":1},{"trial_n":93,"n_dots":2.65,"target":"right","response":"left","rt":774.89999999851,"correct":false,"confidence":3},{"trial_n":94,"n_dots":2.75,"target":"right","response":"left","rt":560.80000000447,"correct":false,"confidence":1},{"trial_n":95,"n_dots":2.85,"target":"left","response":"left","rt":1137.1999999955,"correct":true,"confidence":1},{"trial_n":96,"n_dots":2.85,"target":"right","response":"right","rt":551.70000000298,"correct":true,"confidence":1},{"trial_n":97,"n_dots":2.75,"target":"left","response":"left","rt":763.60000000149,"correct":true,"confidence":1},{"trial_n":98,"n_dots":2.75,"target":"left","response":"left","rt":911.60000000149,"correct":true,"confidence":3},{"trial_n":99,"n_dots":2.65,"target":"left","response":"left","rt":483.69999999553,"correct":true,"confidence":1},{"trial_n":100,"n_dots":2.65,"target":"right","response":"left","rt":1128.299999997,"correct":false,"confidence":1},{"trial_n":101,"n_dots":2.75,"target":"right","response":"right","rt":667.79999999702,"correct":true,"confidence":4},{"trial_n":102,"n_dots":2.75,"target":"right","response":"right","rt":2191.8000000045,"correct":true,"confidence":1},{"trial_n":103,"n_dots":2.65,"target":"left","response":"left","rt":1071.700000003,"correct":true,"confidence":1},{"trial_n":104,"n_dots":2.65,"target":"left","response":"left","rt":941.5,"correct":true,"confidence":2},{"trial_n":105,"n_dots":2.55,"target":"left","response":"left","rt":846.29999999702,"correct":true,"confidence":3},{"trial_n":106,"n_dots":2.55,"target":"right","response":"right","rt":617.39999999851,"correct":true,"confidence":1},{"trial_n":107,"n_dots":2.45,"target":"left","response":"right","rt":1372,"correct":false,"confidence":1},{"trial_n":108,"n_dots":2.55,"target":"left","response":"right","rt":2004,"correct":false,"confidence":1},{"trial_n":109,"n_dots":2.65,"target":"left","response":"left","rt":1234.1999999955,"correct":true,"confidence":2},{"trial_n":110,"n_dots":2.65,"target":"left","response":"right","rt":1730.5,"correct":false,"confidence":1},{"trial_n":111,"n_dots":2.75,"target":"right","response":"right","rt":1131.8999999985,"correct":true,"confidence":4},{"trial_n":112,"n_dots":2.75,"target":"right","response":"right","rt":985,"correct":true,"confidence":1},{"trial_n":113,"n_dots":2.65,"target":"left","response":"right","rt":952.70000000298,"correct":false,"confidence":1},{"trial_n":114,"n_dots":2.75,"target":"left","response":"left","rt":656.90000000596,"correct":true,"confidence":2},{"trial_n":115,"n_dots":2.75,"target":"right","response":"right","rt":628.5,"correct":true,"confidence":1},{"trial_n":116,"n_dots":2.65,"target":"right","response":"right","rt":1365.5,"correct":true,"confidence":1},{"trial_n":117,"n_dots":2.65,"target":"right","response":"right","rt":604.29999999702,"correct":true,"confidence":1},{"trial_n":118,"n_dots":2.55,"target":"right","response":"right","rt":984.29999999702,"correct":true,"confidence":1},{"trial_n":119,"n_dots":2.55,"target":"right","response":"right","rt":649.70000000298,"correct":true,"confidence":1},{"trial_n":120,"n_dots":2.45,"target":"left","response":"right","rt":772.19999999553,"correct":false,"confidence":1}]