[{"trial_n":1,"n_dots":4.25,"target":"right","response":"left","rt":4909,"correct":false,"confidence":-1},{"trial_n":2,"n_dots":4.25,"target":"left","response":"left","rt":1431.7000000477,"correct":true,"confidence":-1},{"trial_n":3,"n_dots":4.25,"target":"left","response":"right","rt":927.5,"correct":false,"confidence":-1},{"trial_n":4,"n_dots":4.65,"target":"right","response":"right","rt":318.40000009537,"correct":true,"confidence":-1},{"trial_n":5,"n_dots":4.65,"target":"right","response":"right","rt":408.29999995232,"correct":true,"confidence":-1},{"trial_n":6,"n_dots":4.25,"target":"left","response":"left","rt":308.40000009537,"correct":true,"confidence":-1},{"trial_n":7,"n_dots":4.25,"target":"left","response":"left","rt":283.10000014305,"correct":true,"confidence":-1},{"trial_n":8,"n_dots":4.05,"target":"left","response":"left","rt":401.79999995232,"correct":true,"confidence":-1},{"trial_n":9,"n_dots":4.05,"target":"left","response":"left","rt":289.90000009537,"correct":true,"confidence":-1},{"trial_n":10,"n_dots":3.85,"target":"left","response":"left","rt":438.90000009537,"correct":true,"confidence":-1},{"trial_n":11,"n_dots":3.85,"target":"right","response":"right","rt":394.79999995232,"correct":true,"confidence":-1},{"trial_n":12,"n_dots":3.65,"target":"left","response":"left","rt":351.79999995232,"correct":true,"confidence":-1},{"trial_n":13,"n_dots":3.65,"target":"left","response":"left","rt":510.79999995232,"correct":true,"confidence":-1},{"trial_n":14,"n_dots":3.55,"target":"right","response":"right","rt":500.79999995232,"correct":true,"confidence":-1},{"trial_n":15,"n_dots":3.55,"target":"left","response":"left","rt":173.59999990463,"correct":true,"confidence":-1},{"trial_n":16,"n_dots":3.45,"target":"right","response":"right","rt":286.70000004768,"correct":true,"confidence":-1},{"trial_n":17,"n_dots":3.45,"target":"right","response":"right","rt":39.300000190735,"correct":true,"confidence":-1},{"trial_n":18,"n_dots":3.35,"target":"right","response":"right","rt":351.40000009537,"correct":true,"confidence":-1},{"trial_n":19,"n_dots":3.35,"target":"right","response":"right","rt":309.79999995232,"correct":true,"confidence":-1},{"trial_n":20,"n_dots":3.25,"target":"left","response":"left","rt":359.29999995232,"correct":true,"confidence":-1},{"trial_n":21,"n_dots":3.25,"target":"left","response":"right","rt":1227.7000000477,"correct":false,"confidence":3},{"trial_n":22,"n_dots":3.35,"target":"left","response":"right","rt":581.29999995232,"correct":false,"confidence":2},{"trial_n":23,"n_dots":3.45,"target":"left","response":"left","rt":960.20000004768,"correct":true,"confidence":2},{"trial_n":24,"n_dots":3.45,"target":"left","response":"left","rt":335.10000014305,"correct":true,"confidence":2},{"trial_n":25,"n_dots":3.35,"target":"left","response":"right","rt":351.90000009537,"correct":false,"confidence":2},{"trial_n":26,"n_dots":3.45,"target":"left","response":"right","rt":398,"correct":false,"confidence":3},{"trial_n":27,"n_dots":3.55,"target":"left","response":"right","rt":541.79999995232,"correct":false,"confidence":2},{"trial_n":28,"n_dots":3.65,"target":"left","response":"right","rt":542.59999990463,"correct":false,"confidence":2},{"trial_n":29,"n_dots":3.75,"target":"left","response":"left","rt":342.79999995232,"correct":true,"confidence":2},{"trial_n":30,"n_dots":3.75,"target":"left","response":"left","rt":300.69999980927,"correct":true,"confidence":2},{"trial_n":31,"n_dots":3.65,"target":"right","response":"right","rt":136.29999995232,"correct":true,"confidence":2},{"trial_n":32,"n_dots":3.65,"target":"right","response":"right","rt":353.29999995232,"correct":true,"confidence":2},{"trial_n":33,"n_dots":3.55,"target":"right","response":"right","rt":512.09999990463,"correct":true,"confidence":3},{"trial_n":34,"n_dots":3.55,"target":"left","response":"left","rt":571.29999995232,"correct":true,"confidence":2},{"trial_n":35,"n_dots":3.45,"target":"left","response":"left","rt":305.09999990463,"correct":true,"confidence":3},{"trial_n":36,"n_dots":3.45,"target":"left","response":"right","rt":516.09999990463,"correct":false,"confidence":3},{"trial_n":37,"n_dots":3.55,"target":"left","response":"left","rt":297.90000009537,"correct":true,"confidence":3},{"trial_n":38,"n_dots":3.55,"target":"right","response":"right","rt":410.59999990463,"correct":true,"confidence":3},{"trial_n":39,"n_dots":3.45,"target":"right","response":"right","rt":640.5,"correct":true,"confidence":3},{"trial_n":40,"n_dots":3.45,"target":"left","response":"left","rt":507.59999990463,"correct":true,"confidence":3},{"trial_n":41,"n_dots":3.35,"target":"right","response":"right","rt":605.09999990463,"correct":true,"confidence":3},{"trial_n":42,"n_dots":3.35,"target":"right","response":"right","rt":430.09999990463,"correct":true,"confidence":3},{"trial_n":43,"n_dots":3.25,"target":"right","response":"right","rt":270,"correct":true,"confidence":3},{"trial_n":44,"n_dots":3.25,"target":"right","response":"right","rt":448,"correct":true,"confidence":3},{"trial_n":45,"n_dots":3.15,"target":"right","response":"right","rt":-4.3999998569489,"correct":true,"confidence":3},{"trial_n":46,"n_dots":3.15,"target":"right","response":"right","rt":473.79999995232,"correct":true,"confidence":2},{"trial_n":47,"n_dots":3.05,"target":"right","response":"right","rt":428.70000004768,"correct":true,"confidence":2},{"trial_n":48,"n_dots":3.05,"target":"right","response":"right","rt":307.59999990463,"correct":true,"confidence":2},{"trial_n":49,"n_dots":2.95,"target":"right","response":"left","rt":391.40000009537,"correct":false,"confidence":2},{"trial_n":50,"n_dots":3.05,"target":"right","response":"right","rt":209.5,"correct":true,"confidence":2},{"trial_n":51,"n_dots":3.05,"target":"right","response":"left","rt":316,"correct":false,"confidence":2},{"trial_n":52,"n_dots":3.15,"target":"right","response":"right","rt":9.5,"correct":true,"confidence":2},{"trial_n":53,"n_dots":3.15,"target":"right","response":"left","rt":143.90000009537,"correct":false,"confidence":2},{"trial_n":54,"n_dots":3.25,"target":"left","response":"right","rt":312,"correct":false,"confidence":2},{"trial_n":55,"n_dots":3.35,"target":"right","response":"right","rt":735.90000009537,"correct":true,"confidence":2},{"trial_n":56,"n_dots":3.35,"target":"right","response":"right","rt":52.599999904633,"correct":true,"confidence":2},{"trial_n":57,"n_dots":3.25,"target":"left","response":"left","rt":182,"correct":true,"confidence":2},{"trial_n":58,"n_dots":3.25,"target":"left","response":"left","rt":65.099999904633,"correct":true,"confidence":2},{"trial_n":59,"n_dots":3.15,"target":"right","response":"left","rt":931.29999995232,"correct":false,"confidence":2},{"trial_n":60,"n_dots":3.25,"target":"right","response":"right","rt":96.400000095367,"correct":true,"confidence":2},{"trial_n":61,"n_dots":3.25,"target":"right","response":"left","rt":435.29999995232,"correct":false,"confidence":3},{"trial_n":62,"n_dots":3.35,"target":"left","response":"left","rt":315.29999995232,"correct":true,"confidence":2},{"trial_n":63,"n_dots":3.35,"target":"right","response":"right","rt":335.90000009537,"correct":true,"confidence":3},{"trial_n":64,"n_dots":3.25,"target":"right","response":"right","rt":344.90000009537,"correct":true,"confidence":3},{"trial_n":65,"n_dots":3.25,"target":"right","response":"right","rt":330.90000009537,"correct":true,"confidence":3},{"trial_n":66,"n_dots":3.15,"target":"right","response":"right","rt":412.20000004768,"correct":true,"confidence":2},{"trial_n":67,"n_dots":3.15,"target":"right","response":"right","rt":159.5,"correct":true,"confidence":2},{"trial_n":68,"n_dots":3.05,"target":"right","response":"right","rt":280.5,"correct":true,"confidence":2},{"trial_n":69,"n_dots":3.05,"target":"right","response":"right","rt":817.40000009537,"correct":true,"confidence":2},{"trial_n":70,"n_dots":2.95,"target":"left","response":"left","rt":1468.4000000954,"correct":true,"confidence":2},{"trial_n":71,"n_dots":2.95,"target":"left","response":"left","rt":175.29999995232,"correct":true,"confidence":2},{"trial_n":72,"n_dots":2.85,"target":"right","response":"left","rt":305.09999990463,"correct":false,"confidence":2},{"trial_n":73,"n_dots":2.95,"target":"left","response":"left","rt":301,"correct":true,"confidence":3},{"trial_n":74,"n_dots":2.95,"target":"right","response":"right","rt":10.800000190735,"correct":true,"confidence":3},{"trial_n":75,"n_dots":2.85,"target":"right","response":"left","rt":259,"correct":false,"confidence":2},{"trial_n":76,"n_dots":2.95,"target":"left","response":"left","rt":25.200000047684,"correct":true,"confidence":2},{"trial_n":77,"n_dots":2.95,"target":"left","response":"left","rt":62.699999809265,"correct":true,"confidence":2},{"trial_n":78,"n_dots":2.85,"target":"right","response":"right","rt":296.79999995232,"correct":true,"confidence":2},{"trial_n":79,"n_dots":2.85,"target":"right","response":"left","rt":31.700000047684,"correct":false,"confidence":2},{"trial_n":80,"n_dots":2.95,"target":"right","response":"right","rt":40.400000095367,"correct":true,"confidence":2},{"trial_n":81,"n_dots":2.95,"target":"left","response":"right","rt":520.40000009537,"correct":false,"confidence":2},{"trial_n":82,"n_dots":3.05,"target":"left","response":"left","rt":247.29999995232,"correct":true,"confidence":2},{"trial_n":83,"n_dots":3.05,"target":"right","response":"right","rt":121.29999995232,"correct":true,"confidence":3},{"trial_n":84,"n_dots":2.95,"target":"left","response":"left","rt":402.60000014305,"correct":true,"confidence":3},{"trial_n":85,"n_dots":2.95,"target":"left","response":"left","rt":383.09999990463,"correct":true,"confidence":3},{"trial_n":86,"n_dots":2.85,"target":"left","response":"right","rt":559.20000004768,"correct":false,"confidence":2},{"trial_n":87,"n_dots":2.95,"target":"left","response":"left","rt":318.90000009537,"correct":true,"confidence":2},{"trial_n":88,"n_dots":2.95,"target":"left","response":"left","rt":179.79999995232,"correct":true,"confidence":2},{"trial_n":89,"n_dots":2.85,"target":"left","response":"left","rt":1087.7000000477,"correct":true,"confidence":2},{"trial_n":90,"n_dots":2.85,"target":"right","response":"right","rt":774.5,"correct":true,"confidence":2},{"trial_n":91,"n_dots":2.75,"target":"left","response":"left","rt":773.29999995232,"correct":true,"confidence":2},{"trial_n":92,"n_dots":2.75,"target":"left","response":"right","rt":424.40000009537,"correct":false,"confidence":2},{"trial_n":93,"n_dots":2.85,"target":"left","response":"right","rt":304.29999995232,"correct":false,"confidence":3},{"trial_n":94,"n_dots":2.95,"target":"left","response":"left","rt":1058.2999999523,"correct":true,"confidence":2},{"trial_n":95,"n_dots":2.95,"target":"left","response":"right","rt":342,"correct":false,"confidence":2},{"trial_n":96,"n_dots":3.05,"target":"left","response":"left","rt":7.7000000476837,"correct":true,"confidence":2},{"trial_n":97,"n_dots":3.05,"target":"right","response":"right","rt":194,"correct":true,"confidence":2},{"trial_n":98,"n_dots":2.95,"target":"right","response":"left","rt":278.5,"correct":false,"confidence":2},{"trial_n":99,"n_dots":3.05,"target":"right","response":"right","rt":330.79999995232,"correct":true,"confidence":2},{"trial_n":100,"n_dots":3.05,"target":"right","response":"left","rt":116.79999995232,"correct":false,"confidence":2},{"trial_n":101,"n_dots":3.15,"target":"left","response":"left","rt":837.40000009537,"correct":true,"confidence":2},{"trial_n":102,"n_dots":3.15,"target":"left","response":"left","rt":319,"correct":true,"confidence":3},{"trial_n":103,"n_dots":3.05,"target":"left","response":"left","rt":310,"correct":true,"confidence":3},{"trial_n":104,"n_dots":3.05,"target":"left","response":"right","rt":429,"correct":false,"confidence":2},{"trial_n":105,"n_dots":3.15,"target":"left","response":"left","rt":228,"correct":true,"confidence":3},{"trial_n":106,"n_dots":3.15,"target":"left","response":"left","rt":802.70000004768,"correct":true,"confidence":2},{"trial_n":107,"n_dots":3.05,"target":"right","response":"right","rt":371.79999995232,"correct":true,"confidence":3},{"trial_n":108,"n_dots":3.05,"target":"right","response":"right","rt":322.59999990463,"correct":true,"confidence":3},{"trial_n":109,"n_dots":2.95,"target":"left","response":"left","rt":231.5,"correct":true,"confidence":2},{"trial_n":110,"n_dots":2.95,"target":"right","response":"right","rt":646.5,"correct":true,"confidence":2},{"trial_n":111,"n_dots":2.85,"target":"left","response":"left","rt":177.29999995232,"correct":true,"confidence":2},{"trial_n":112,"n_dots":2.85,"target":"right","response":"right","rt":63.400000095367,"correct":true,"confidence":2},{"trial_n":113,"n_dots":2.75,"target":"left","response":"right","rt":69.199999809265,"correct":false,"confidence":3},{"trial_n":114,"n_dots":2.85,"target":"right","response":"right","rt":265,"correct":true,"confidence":3},{"trial_n":115,"n_dots":2.85,"target":"left","response":"left","rt":2199.7999999523,"correct":true,"confidence":2},{"trial_n":116,"n_dots":2.75,"target":"right","response":"right","rt":329.70000004768,"correct":true,"confidence":3},{"trial_n":117,"n_dots":2.75,"target":"right","response":"left","rt":385.5,"correct":false,"confidence":2},{"trial_n":118,"n_dots":2.85,"target":"right","response":"right","rt":335.20000004768,"correct":true,"confidence":3},{"trial_n":119,"n_dots":2.85,"target":"left","response":"left","rt":904.89999985695,"correct":true,"confidence":3},{"trial_n":120,"n_dots":2.75,"target":"right","response":"right","rt":409.39999985695,"correct":true,"confidence":3}]