[{"trial_n":1,"n_dots":4.25,"target":"left","response":"left","rt":6357.1999999285,"correct":true,"confidence":-1},{"trial_n":2,"n_dots":4.25,"target":"left","response":"left","rt":498,"correct":true,"confidence":-1},{"trial_n":3,"n_dots":3.85,"target":"left","response":"left","rt":399.79999995232,"correct":true,"confidence":-1},{"trial_n":4,"n_dots":3.85,"target":"left","response":"left","rt":80.5,"correct":true,"confidence":-1},{"trial_n":5,"n_dots":3.45,"target":"right","response":"left","rt":138.80000007153,"correct":false,"confidence":-1},{"trial_n":6,"n_dots":3.85,"target":"right","response":"left","rt":162.20000004768,"correct":false,"confidence":-1},{"trial_n":7,"n_dots":4.25,"target":"right","response":"left","rt":200.70000004768,"correct":false,"confidence":-1},{"trial_n":8,"n_dots":4.45,"target":"left","response":"left","rt":49.5,"correct":true,"confidence":-1},{"trial_n":9,"n_dots":4.45,"target":"right","response":"left","rt":125.09999990463,"correct":false,"confidence":-1},{"trial_n":10,"n_dots":4.65,"target":"left","response":"left","rt":166.19999992847,"correct":true,"confidence":-1},{"trial_n":11,"n_dots":4.65,"target":"right","response":"right","rt":2505.2000000477,"correct":true,"confidence":-1},{"trial_n":12,"n_dots":4.45,"target":"left","response":"left","rt":244.89999997616,"correct":true,"confidence":-1},{"trial_n":13,"n_dots":4.45,"target":"right","response":"right","rt":128.20000004768,"correct":true,"confidence":-1},{"trial_n":14,"n_dots":4.35,"target":"left","response":"left","rt":175.79999995232,"correct":true,"confidence":-1},{"trial_n":15,"n_dots":4.35,"target":"left","response":"left","rt":106.89999997616,"correct":true,"confidence":-1},{"trial_n":16,"n_dots":4.25,"target":"left","response":"left","rt":463.5,"correct":true,"confidence":-1},{"trial_n":17,"n_dots":4.25,"target":"left","response":"left","rt":209,"correct":true,"confidence":-1},{"trial_n":18,"n_dots":4.15,"target":"left","response":"left","rt":123.20000004768,"correct":true,"confidence":-1},{"trial_n":19,"n_dots":4.15,"target":"right","response":"left","rt":490,"correct":false,"confidence":-1},{"trial_n":20,"n_dots":4.25,"target":"right","response":"right","rt":204.39999997616,"correct":true,"confidence":-1},{"trial_n":21,"n_dots":4.25,"target":"right","response":"left","rt":60.5,"correct":false,"confidence":3},{"trial_n":22,"n_dots":4.35,"target":"left","response":"left","rt":671.20000004768,"correct":true,"confidence":3},{"trial_n":23,"n_dots":4.35,"target":"left","response":"left","rt":221,"correct":true,"confidence":1},{"trial_n":24,"n_dots":4.25,"target":"right","response":"left","rt":47.5,"correct":false,"confidence":3},{"trial_n":25,"n_dots":4.35,"target":"left","response":"left","rt":692.29999995232,"correct":true,"confidence":3},{"trial_n":26,"n_dots":4.35,"target":"right","response":"right","rt":934.80000007153,"correct":true,"confidence":3},{"trial_n":27,"n_dots":4.25,"target":"right","response":"left","rt":35.900000095367,"correct":false,"confidence":3},{"trial_n":28,"n_dots":4.35,"target":"left","response":"left","rt":499.29999995232,"correct":true,"confidence":3},{"trial_n":29,"n_dots":4.35,"target":"right","response":"right","rt":986.79999995232,"correct":true,"confidence":3},{"trial_n":30,"n_dots":4.25,"target":"right","response":"right","rt":1055.0999999046,"correct":true,"confidence":3},{"trial_n":31,"n_dots":4.25,"target":"left","response":"left","rt":203,"correct":true,"confidence":3},{"trial_n":32,"n_dots":4.15,"target":"left","response":"left","rt":969.20000004768,"correct":true,"confidence":3},{"trial_n":33,"n_dots":4.15,"target":"left","response":"left","rt":292.39999997616,"correct":true,"confidence":3},{"trial_n":34,"n_dots":4.05,"target":"right","response":"left","rt":497.59999990463,"correct":false,"confidence":3},{"trial_n":35,"n_dots":4.15,"target":"left","response":"left","rt":463.70000004768,"correct":true,"confidence":3},{"trial_n":36,"n_dots":4.15,"target":"left","response":"left","rt":351.10000002384,"correct":true,"confidence":3},{"trial_n":37,"n_dots":4.05,"target":"left","response":"left","rt":569.19999992847,"correct":true,"confidence":3},{"trial_n":38,"n_dots":4.05,"target":"left","response":"left","rt":1010.1000000238,"correct":true,"confidence":3},{"trial_n":39,"n_dots":3.95,"target":"right","response":"left","rt":1430.3000000715,"correct":false,"confidence":3},{"trial_n":40,"n_dots":4.05,"target":"right","response":"left","rt":859.19999992847,"correct":false,"confidence":3},{"trial_n":41,"n_dots":4.15,"target":"left","response":"left","rt":768.20000004768,"correct":true,"confidence":4},{"trial_n":42,"n_dots":4.15,"target":"right","response":"left","rt":26.299999952316,"correct":false,"confidence":4},{"trial_n":43,"n_dots":4.25,"target":"left","response":"left","rt":130.30000007153,"correct":true,"confidence":4},{"trial_n":44,"n_dots":4.25,"target":"left","response":"left","rt":380.70000004768,"correct":true,"confidence":4},{"trial_n":45,"n_dots":4.15,"target":"left","response":"left","rt":447.19999992847,"correct":true,"confidence":4},{"trial_n":46,"n_dots":4.15,"target":"right","response":"left","rt":320.29999995232,"correct":false,"confidence":5},{"trial_n":47,"n_dots":4.25,"target":"left","response":"left","rt":82.700000047684,"correct":true,"confidence":5},{"trial_n":48,"n_dots":4.25,"target":"left","response":"left","rt":342.19999992847,"correct":true,"confidence":3},{"trial_n":49,"n_dots":4.15,"target":"left","response":"left","rt":123.80000007153,"correct":true,"confidence":4},{"trial_n":50,"n_dots":4.15,"target":"right","response":"right","rt":798.69999992847,"correct":true,"confidence":4},{"trial_n":51,"n_dots":4.05,"target":"left","response":"left","rt":179,"correct":true,"confidence":3},{"trial_n":52,"n_dots":4.05,"target":"right","response":"right","rt":2121,"correct":true,"confidence":3},{"trial_n":53,"n_dots":3.95,"target":"right","response":"right","rt":1687.1000000238,"correct":true,"confidence":4},{"trial_n":54,"n_dots":3.95,"target":"right","response":"right","rt":555.89999997616,"correct":true,"confidence":4},{"trial_n":55,"n_dots":3.85,"target":"left","response":"right","rt":2290.1999999285,"correct":false,"confidence":4},{"trial_n":56,"n_dots":3.95,"target":"left","response":"left","rt":748.10000002384,"correct":true,"confidence":4},{"trial_n":57,"n_dots":3.95,"target":"right","response":"right","rt":781.30000007153,"correct":true,"confidence":3},{"trial_n":58,"n_dots":3.85,"target":"left","response":"left","rt":13464,"correct":true,"confidence":4},{"trial_n":59,"n_dots":3.85,"target":"left","response":"left","rt":1016.6000000238,"correct":true,"confidence":4},{"trial_n":60,"n_dots":3.75,"target":"right","response":"right","rt":764.89999997616,"correct":true,"confidence":4},{"trial_n":61,"n_dots":3.75,"target":"right","response":"right","rt":3374.8999999762,"correct":true,"confidence":2},{"trial_n":62,"n_dots":3.65,"target":"left","response":"left","rt":1287.8000000715,"correct":true,"confidence":2},{"trial_n":63,"n_dots":3.65,"target":"right","response":"left","rt":342.70000004768,"correct":false,"confidence":5},{"trial_n":64,"n_dots":3.75,"target":"left","response":"left","rt":94.5,"correct":true,"confidence":3},{"trial_n":65,"n_dots":3.75,"target":"left","response":"left","rt":331.80000007153,"correct":true,"confidence":3},{"trial_n":66,"n_dots":3.65,"target":"right","response":"right","rt":796.39999997616,"correct":true,"confidence":4},{"trial_n":67,"n_dots":3.65,"target":"right","response":"right","rt":1454.1000000238,"correct":true,"confidence":3},{"trial_n":68,"n_dots":3.55,"target":"left","response":"left","rt":431.20000004768,"correct":true,"confidence":4},{"trial_n":69,"n_dots":3.55,"target":"right","response":"left","rt":447.89999997616,"correct":false,"confidence":4},{"trial_n":70,"n_dots":3.65,"target":"left","response":"left","rt":499.10000002384,"correct":true,"confidence":4},{"trial_n":71,"n_dots":3.65,"target":"right","response":"right","rt":864.79999995232,"correct":true,"confidence":4},{"trial_n":72,"n_dots":3.55,"target":"left","response":"left","rt":429.39999997616,"correct":true,"confidence":4},{"trial_n":73,"n_dots":3.55,"target":"left","response":"left","rt":106.69999992847,"correct":true,"confidence":4},{"trial_n":74,"n_dots":3.45,"target":"right","response":"left","rt":153,"correct":false,"confidence":4},{"trial_n":75,"n_dots":3.55,"target":"right","response":"left","rt":229.20000004768,"correct":false,"confidence":5},{"trial_n":76,"n_dots":3.65,"target":"left","response":"left","rt":59.200000047684,"correct":true,"confidence":4},{"trial_n":77,"n_dots":3.65,"target":"right","response":"left","rt":199.70000004768,"correct":false,"confidence":5},{"trial_n":78,"n_dots":3.75,"target":"right","response":"right","rt":2339.3999999762,"correct":true,"confidence":4},{"trial_n":79,"n_dots":3.75,"target":"right","response":"left","rt":5050.5,"correct":false,"confidence":3},{"trial_n":80,"n_dots":3.85,"target":"left","response":"left","rt":724.30000007153,"correct":true,"confidence":3},{"trial_n":81,"n_dots":3.85,"target":"right","response":"right","rt":588.20000004768,"correct":true,"confidence":4},{"trial_n":82,"n_dots":3.75,"target":"left","response":"left","rt":1758.1000000238,"correct":true,"confidence":3},{"trial_n":83,"n_dots":3.75,"target":"right","response":"right","rt":509.89999997616,"correct":true,"confidence":4},{"trial_n":84,"n_dots":3.65,"target":"left","response":"left","rt":708,"correct":true,"confidence":4},{"trial_n":85,"n_dots":3.65,"target":"right","response":"right","rt":1019.7000000477,"correct":true,"confidence":4},{"trial_n":86,"n_dots":3.55,"target":"right","response":"right","rt":750.29999995232,"correct":true,"confidence":4},{"trial_n":87,"n_dots":3.55,"target":"right","response":"right","rt":1103.8999999762,"correct":true,"confidence":4},{"trial_n":88,"n_dots":3.45,"target":"right","response":"right","rt":508.89999997616,"correct":true,"confidence":3},{"trial_n":89,"n_dots":3.45,"target":"right","response":"right","rt":745.39999997616,"correct":true,"confidence":4},{"trial_n":90,"n_dots":3.35,"target":"right","response":"right","rt":725.80000007153,"correct":true,"confidence":4},{"trial_n":91,"n_dots":3.35,"target":"right","response":"right","rt":1183.9000000954,"correct":true,"confidence":4},{"trial_n":92,"n_dots":3.25,"target":"right","response":"right","rt":494.89999997616,"correct":true,"confidence":3},{"trial_n":93,"n_dots":3.25,"target":"left","response":"left","rt":665.10000002384,"correct":true,"confidence":4},{"trial_n":94,"n_dots":3.15,"target":"right","response":"right","rt":1067.7999999523,"correct":true,"confidence":3},{"trial_n":95,"n_dots":3.15,"target":"right","response":"left","rt":687.80000007153,"correct":false,"confidence":4},{"trial_n":96,"n_dots":3.25,"target":"left","response":"left","rt":719.10000002384,"correct":true,"confidence":3},{"trial_n":97,"n_dots":3.25,"target":"right","response":"right","rt":727,"correct":true,"confidence":2},{"trial_n":98,"n_dots":3.15,"target":"right","response":"right","rt":580.10000002384,"correct":true,"confidence":3},{"trial_n":99,"n_dots":3.15,"target":"left","response":"left","rt":1081.1999999285,"correct":true,"confidence":4},{"trial_n":100,"n_dots":3.05,"target":"left","response":"left","rt":579.39999997616,"correct":true,"confidence":4},{"trial_n":101,"n_dots":3.05,"target":"left","response":"right","rt":2173.1999999285,"correct":false,"confidence":3},{"trial_n":102,"n_dots":3.15,"target":"right","response":"right","rt":510.80000007153,"correct":true,"confidence":3},{"trial_n":103,"n_dots":3.15,"target":"right","response":"right","rt":264.20000004768,"correct":true,"confidence":4},{"trial_n":104,"n_dots":3.05,"target":"right","response":"left","rt":800.60000002384,"correct":false,"confidence":3},{"trial_n":105,"n_dots":3.15,"target":"left","response":"left","rt":1150.6000000238,"correct":true,"confidence":4},{"trial_n":106,"n_dots":3.15,"target":"left","response":"left","rt":563.39999997616,"correct":true,"confidence":4},{"trial_n":107,"n_dots":3.05,"target":"left","response":"left","rt":492.90000009537,"correct":true,"confidence":3},{"trial_n":108,"n_dots":3.05,"target":"left","response":"left","rt":246.89999997616,"correct":true,"confidence":4},{"trial_n":109,"n_dots":2.95,"target":"right","response":"left","rt":357.89999997616,"correct":false,"confidence":3},{"trial_n":110,"n_dots":3.05,"target":"left","response":"left","rt":585.89999997616,"correct":true,"confidence":3},{"trial_n":111,"n_dots":3.05,"target":"left","response":"left","rt":695.10000002384,"correct":true,"confidence":4},{"trial_n":112,"n_dots":2.95,"target":"right","response":"left","rt":1326.1000000238,"correct":false,"confidence":4},{"trial_n":113,"n_dots":3.05,"target":"right","response":"right","rt":1522.3999999762,"correct":true,"confidence":4},{"trial_n":114,"n_dots":3.05,"target":"left","response":"left","rt":317.5,"correct":true,"confidence":3},{"trial_n":115,"n_dots":2.95,"target":"right","response":"left","rt":128.5,"correct":false,"confidence":4},{"trial_n":116,"n_dots":3.05,"target":"right","response":"left","rt":473.59999990463,"correct":false,"confidence":3},{"trial_n":117,"n_dots":3.15,"target":"right","response":"left","rt":458.79999995232,"correct":false,"confidence":3},{"trial_n":118,"n_dots":3.25,"target":"left","response":"left","rt":458.89999997616,"correct":true,"confidence":4},{"trial_n":119,"n_dots":3.25,"target":"left","response":"left","rt":9.3000000715256,"correct":true,"confidence":3},{"trial_n":120,"n_dots":3.15,"target":"right","response":"left","rt":878.89999997616,"correct":false,"confidence":2}]