[{"trial_n":1,"min":25,"max":230,"target":"present","response":"absent","rt":6417.400000006,"correct":false,"confidence":-1},{"trial_n":2,"min":25,"max":230,"target":"present","response":"present","rt":2930.099999994,"correct":true,"confidence":-1},{"trial_n":3,"min":25,"max":230,"target":"absent","response":"present","rt":1281.900000006,"correct":false,"confidence":-1},{"trial_n":4,"min":9,"max":246,"target":"absent","response":"absent","rt":19758,"correct":true,"confidence":-1},{"trial_n":5,"min":9,"max":246,"target":"present","response":"present","rt":4495.700000003,"correct":true,"confidence":-1},{"trial_n":6,"min":25,"max":230,"target":"present","response":"present","rt":2434.8999999911,"correct":true,"confidence":-1},{"trial_n":7,"min":25,"max":230,"target":"absent","response":"absent","rt":1367.799999997,"correct":true,"confidence":-1},{"trial_n":8,"min":41,"max":214,"target":"absent","response":"absent","rt":1726.5,"correct":true,"confidence":-1},{"trial_n":9,"min":41,"max":214,"target":"present","response":"present","rt":1118.3999999911,"correct":true,"confidence":-1},{"trial_n":10,"min":57,"max":198,"target":"present","response":"present","rt":1027.8999999911,"correct":true,"confidence":-1},{"trial_n":11,"min":57,"max":198,"target":"absent","response":"absent","rt":1343.8999999911,"correct":true,"confidence":-1},{"trial_n":12,"min":65,"max":190,"target":"absent","response":"present","rt":2530.8000000119,"correct":false,"confidence":-1},{"trial_n":13,"min":57,"max":198,"target":"present","response":"present","rt":1320.3999999911,"correct":true,"confidence":-1},{"trial_n":14,"min":57,"max":198,"target":"absent","response":"absent","rt":1545.8999999911,"correct":true,"confidence":-1},{"trial_n":15,"min":65,"max":190,"target":"absent","response":"absent","rt":2368,"correct":true,"confidence":-1},{"trial_n":16,"min":65,"max":190,"target":"present","response":"present","rt":1148.299999997,"correct":true,"confidence":-1},{"trial_n":17,"min":73,"max":182,"target":"absent","response":"absent","rt":1476.8999999911,"correct":true,"confidence":-1},{"trial_n":18,"min":73,"max":182,"target":"absent","response":"absent","rt":1573.900000006,"correct":true,"confidence":-1},{"trial_n":19,"min":81,"max":174,"target":"absent","response":"absent","rt":997,"correct":true,"confidence":-1},{"trial_n":20,"min":81,"max":174,"target":"present","response":"absent","rt":1303.400000006,"correct":false,"confidence":-1},{"trial_n":21,"min":77,"max":178,"target":"absent","response":"absent","rt":1285.099999994,"correct":true,"confidence":4},{"trial_n":22,"min":77,"max":178,"target":"present","response":"absent","rt":2584.299999997,"correct":false,"confidence":5},{"trial_n":23,"min":73,"max":182,"target":"present","response":"present","rt":2181.5,"correct":true,"confidence":3},{"trial_n":24,"min":73,"max":182,"target":"absent","response":"absent","rt":1675.299999997,"correct":true,"confidence":5},{"trial_n":25,"min":77,"max":178,"target":"absent","response":"absent","rt":1484.5,"correct":true,"confidence":5},{"trial_n":26,"min":77,"max":178,"target":"present","response":"present","rt":1430.1000000089,"correct":true,"confidence":4},{"trial_n":27,"min":81,"max":174,"target":"absent","response":"absent","rt":1984.400000006,"correct":true,"confidence":5},{"trial_n":28,"min":81,"max":174,"target":"present","response":"absent","rt":1210.5,"correct":false,"confidence":5},{"trial_n":29,"min":77,"max":178,"target":"present","response":"absent","rt":2617.099999994,"correct":false,"confidence":3},{"trial_n":30,"min":73,"max":182,"target":"absent","response":"absent","rt":2310.599999994,"correct":true,"confidence":2},{"trial_n":31,"min":73,"max":182,"target":"absent","response":"absent","rt":1805.900000006,"correct":true,"confidence":4},{"trial_n":32,"min":75,"max":180,"target":"present","response":"present","rt":1489.3000000119,"correct":true,"confidence":3},{"trial_n":33,"min":75,"max":180,"target":"absent","response":"absent","rt":2011.799999997,"correct":true,"confidence":4},{"trial_n":34,"min":77,"max":178,"target":"absent","response":"absent","rt":1393.5,"correct":true,"confidence":4},{"trial_n":35,"min":77,"max":178,"target":"absent","response":"absent","rt":1704.5,"correct":true,"confidence":4},{"trial_n":36,"min":79,"max":176,"target":"present","response":"absent","rt":1960.5,"correct":false,"confidence":5},{"trial_n":37,"min":77,"max":178,"target":"present","response":"present","rt":1441.799999997,"correct":true,"confidence":2},{"trial_n":38,"min":77,"max":178,"target":"absent","response":"present","rt":3019.299999997,"correct":false,"confidence":2},{"trial_n":39,"min":75,"max":180,"target":"absent","response":"absent","rt":2399.099999994,"correct":true,"confidence":3},{"trial_n":40,"min":75,"max":180,"target":"present","response":"absent","rt":2064.700000003,"correct":false,"confidence":3},{"trial_n":41,"min":74,"max":181,"target":"present","response":"absent","rt":2258.1000000089,"correct":false,"confidence":4},{"trial_n":42,"min":73,"max":182,"target":"absent","response":"absent","rt":2244,"correct":true,"confidence":3},{"trial_n":43,"min":73,"max":182,"target":"present","response":"present","rt":1721.299999997,"correct":true,"confidence":4},{"trial_n":44,"min":74,"max":181,"target":"absent","response":"absent","rt":1685.599999994,"correct":true,"confidence":5},{"trial_n":45,"min":74,"max":181,"target":"present","response":"absent","rt":1130.799999997,"correct":false,"confidence":5},{"trial_n":46,"min":73,"max":182,"target":"present","response":"present","rt":1628.5,"correct":true,"confidence":5},{"trial_n":47,"min":73,"max":182,"target":"present","response":"present","rt":1271.799999997,"correct":true,"confidence":4},{"trial_n":48,"min":74,"max":181,"target":"present","response":"absent","rt":1654.5,"correct":false,"confidence":3},{"trial_n":49,"min":73,"max":182,"target":"present","response":"present","rt":2138.599999994,"correct":true,"confidence":3},{"trial_n":50,"min":73,"max":182,"target":"present","response":"absent","rt":1997.3999999911,"correct":false,"confidence":3},{"trial_n":51,"min":72,"max":183,"target":"present","response":"absent","rt":1410,"correct":false,"confidence":4},{"trial_n":52,"min":71,"max":184,"target":"present","response":"present","rt":1283.900000006,"correct":true,"confidence":5},{"trial_n":53,"min":71,"max":184,"target":"absent","response":"absent","rt":1360.799999997,"correct":true,"confidence":5},{"trial_n":54,"min":72,"max":183,"target":"absent","response":"absent","rt":2635.200000003,"correct":true,"confidence":3},{"trial_n":55,"min":72,"max":183,"target":"present","response":"present","rt":1271.400000006,"correct":true,"confidence":4},{"trial_n":56,"min":73,"max":182,"target":"present","response":"present","rt":1255.299999997,"correct":true,"confidence":5},{"trial_n":57,"min":73,"max":182,"target":"absent","response":"absent","rt":1626.700000003,"correct":true,"confidence":3},{"trial_n":58,"min":74,"max":181,"target":"absent","response":"absent","rt":2252.299999997,"correct":true,"confidence":3},{"trial_n":59,"min":74,"max":181,"target":"present","response":"absent","rt":1776.6000000089,"correct":false,"confidence":3},{"trial_n":60,"min":73,"max":182,"target":"absent","response":"absent","rt":2595.700000003,"correct":true,"confidence":4},{"trial_n":61,"min":73,"max":182,"target":"present","response":"absent","rt":1830.5,"correct":false,"confidence":4},{"trial_n":62,"min":72,"max":183,"target":"present","response":"absent","rt":1315.1999999881,"correct":false,"confidence":5},{"trial_n":63,"min":71,"max":184,"target":"absent","response":"absent","rt":1500.900000006,"correct":true,"confidence":4},{"trial_n":64,"min":71,"max":184,"target":"absent","response":"absent","rt":73105.100000009,"correct":true,"confidence":2},{"trial_n":65,"min":72,"max":183,"target":"present","response":"absent","rt":1608.799999997,"correct":false,"confidence":3},{"trial_n":66,"min":71,"max":184,"target":"present","response":"absent","rt":1423.3999999911,"correct":false,"confidence":3},{"trial_n":67,"min":70,"max":185,"target":"absent","response":"absent","rt":2959.900000006,"correct":true,"confidence":5},{"trial_n":68,"min":70,"max":185,"target":"absent","response":"absent","rt":1501.6000000089,"correct":true,"confidence":5},{"trial_n":69,"min":71,"max":184,"target":"present","response":"present","rt":1268.8999999911,"correct":true,"confidence":5},{"trial_n":70,"min":71,"max":184,"target":"absent","response":"absent","rt":1342.200000003,"correct":true,"confidence":4},{"trial_n":71,"min":41,"max":214,"target":"present","response":"absent","rt":8489.599999994,"correct":false,"confidence":-1},{"trial_n":72,"min":41,"max":214,"target":"present","response":"present","rt":3700.700000003,"correct":true,"confidence":-1},{"trial_n":73,"min":41,"max":214,"target":"absent","response":"present","rt":3987.6000000089,"correct":false,"confidence":-1},{"trial_n":74,"min":25,"max":230,"target":"absent","response":"present","rt":1121.299999997,"correct":false,"confidence":-1},{"trial_n":75,"min":9,"max":246,"target":"present","response":"absent","rt":1987.8999999911,"correct":false,"confidence":-1},{"trial_n":76,"min":0,"max":255,"target":"absent","response":"absent","rt":2135.8999999911,"correct":true,"confidence":-1},{"trial_n":77,"min":0,"max":255,"target":"present","response":"present","rt":1255.5,"correct":true,"confidence":-1},{"trial_n":78,"min":16,"max":239,"target":"present","response":"absent","rt":1267.1000000089,"correct":false,"confidence":-1},{"trial_n":79,"min":0,"max":255,"target":"absent","response":"absent","rt":1700.299999997,"correct":true,"confidence":-1},{"trial_n":80,"min":0,"max":255,"target":"absent","response":"absent","rt":1774,"correct":true,"confidence":-1},{"trial_n":81,"min":8,"max":247,"target":"absent","response":"absent","rt":2039.299999997,"correct":true,"confidence":-1},{"trial_n":82,"min":8,"max":247,"target":"present","response":"present","rt":1273.400000006,"correct":true,"confidence":-1},{"trial_n":83,"min":16,"max":239,"target":"absent","response":"absent","rt":1428.400000006,"correct":true,"confidence":-1},{"trial_n":84,"min":16,"max":239,"target":"present","response":"present","rt":1480.8999999911,"correct":true,"confidence":-1},{"trial_n":85,"min":24,"max":231,"target":"present","response":"present","rt":951.19999998808,"correct":true,"confidence":-1},{"trial_n":86,"min":24,"max":231,"target":"absent","response":"absent","rt":1489.700000003,"correct":true,"confidence":-1},{"trial_n":87,"min":32,"max":223,"target":"absent","response":"absent","rt":1320.799999997,"correct":true,"confidence":-1},{"trial_n":88,"min":32,"max":223,"target":"present","response":"present","rt":1407.400000006,"correct":true,"confidence":-1},{"trial_n":89,"min":40,"max":215,"target":"absent","response":"absent","rt":1512.6999999881,"correct":true,"confidence":-1},{"trial_n":90,"min":40,"max":215,"target":"absent","response":"absent","rt":1817.700000003,"correct":true,"confidence":-1},{"trial_n":91,"min":44,"max":211,"target":"present","response":"present","rt":1425.1000000089,"correct":true,"confidence":4},{"trial_n":92,"min":44,"max":211,"target":"present","response":"present","rt":1720.5,"correct":true,"confidence":4},{"trial_n":93,"min":48,"max":207,"target":"absent","response":"absent","rt":1208.6000000089,"correct":true,"confidence":5},{"trial_n":94,"min":48,"max":207,"target":"present","response":"present","rt":1408.200000003,"correct":true,"confidence":3},{"trial_n":95,"min":52,"max":203,"target":"present","response":"present","rt":1472.799999997,"correct":true,"confidence":2},{"trial_n":96,"min":52,"max":203,"target":"present","response":"present","rt":1146.599999994,"correct":true,"confidence":5},{"trial_n":97,"min":56,"max":199,"target":"absent","response":"absent","rt":1364.400000006,"correct":true,"confidence":5},{"trial_n":98,"min":56,"max":199,"target":"absent","response":"absent","rt":1599.3999999911,"correct":true,"confidence":4},{"trial_n":99,"min":60,"max":195,"target":"present","response":"present","rt":975.30000001192,"correct":true,"confidence":5},{"trial_n":100,"min":60,"max":195,"target":"present","response":"present","rt":2255.5,"correct":true,"confidence":2},{"trial_n":101,"min":62,"max":193,"target":"present","response":"present","rt":1345.700000003,"correct":true,"confidence":4},{"trial_n":102,"min":62,"max":193,"target":"present","response":"absent","rt":1823.900000006,"correct":false,"confidence":2},{"trial_n":103,"min":60,"max":195,"target":"absent","response":"absent","rt":2155.5,"correct":true,"confidence":2},{"trial_n":104,"min":60,"max":195,"target":"present","response":"present","rt":1547.799999997,"correct":true,"confidence":3},{"trial_n":105,"min":62,"max":193,"target":"absent","response":"absent","rt":3392.3999999911,"correct":true,"confidence":2},{"trial_n":106,"min":62,"max":193,"target":"present","response":"present","rt":1800.1000000089,"correct":true,"confidence":4},{"trial_n":107,"min":64,"max":191,"target":"absent","response":"absent","rt":1655.299999997,"correct":true,"confidence":4},{"trial_n":108,"min":64,"max":191,"target":"present","response":"present","rt":1047.700000003,"correct":true,"confidence":5},{"trial_n":109,"min":66,"max":189,"target":"present","response":"present","rt":1052.099999994,"correct":true,"confidence":4},{"trial_n":110,"min":66,"max":189,"target":"absent","response":"absent","rt":1779.200000003,"correct":true,"confidence":4},{"trial_n":111,"min":67,"max":188,"target":"absent","response":"present","rt":1327.900000006,"correct":false,"confidence":3},{"trial_n":112,"min":66,"max":189,"target":"present","response":"present","rt":2225.400000006,"correct":true,"confidence":3},{"trial_n":113,"min":66,"max":189,"target":"present","response":"present","rt":1148,"correct":true,"confidence":5},{"trial_n":114,"min":67,"max":188,"target":"absent","response":"absent","rt":1187.3999999911,"correct":true,"confidence":4},{"trial_n":115,"min":67,"max":188,"target":"absent","response":"present","rt":1577.599999994,"correct":false,"confidence":4},{"trial_n":116,"min":66,"max":189,"target":"absent","response":"absent","rt":1297.400000006,"correct":true,"confidence":4},{"trial_n":117,"min":66,"max":189,"target":"present","response":"present","rt":1147.599999994,"correct":true,"confidence":5},{"trial_n":118,"min":67,"max":188,"target":"absent","response":"absent","rt":1325.6000000089,"correct":true,"confidence":5},{"trial_n":119,"min":67,"max":188,"target":"absent","response":"absent","rt":1103.3999999911,"correct":true,"confidence":5},{"trial_n":120,"min":68,"max":187,"target":"absent","response":"absent","rt":1079.6000000089,"correct":true,"confidence":5},{"trial_n":121,"min":68,"max":187,"target":"present","response":"present","rt":1301.200000003,"correct":true,"confidence":4},{"trial_n":122,"min":69,"max":186,"target":"absent","response":"present","rt":1359.200000003,"correct":false,"confidence":4},{"trial_n":123,"min":68,"max":187,"target":"present","response":"present","rt":1205.700000003,"correct":true,"confidence":5},{"trial_n":124,"min":68,"max":187,"target":"absent","response":"present","rt":1287.099999994,"correct":false,"confidence":3},{"trial_n":125,"min":67,"max":188,"target":"present","response":"present","rt":1888.099999994,"correct":true,"confidence":3},{"trial_n":126,"min":67,"max":188,"target":"present","response":"present","rt":1287.5,"correct":true,"confidence":4},{"trial_n":127,"min":68,"max":187,"target":"present","response":"present","rt":991.30000001192,"correct":true,"confidence":5},{"trial_n":128,"min":68,"max":187,"target":"absent","response":"absent","rt":1308.8999999911,"correct":true,"confidence":5},{"trial_n":129,"min":69,"max":186,"target":"present","response":"present","rt":1040,"correct":true,"confidence":5},{"trial_n":130,"min":69,"max":186,"target":"present","response":"present","rt":1069.799999997,"correct":true,"confidence":5},{"trial_n":131,"min":70,"max":185,"target":"absent","response":"present","rt":1482.099999994,"correct":false,"confidence":5},{"trial_n":132,"min":69,"max":186,"target":"present","response":"present","rt":1393.599999994,"correct":true,"confidence":5},{"trial_n":133,"min":69,"max":186,"target":"absent","response":"present","rt":993.5,"correct":false,"confidence":4},{"trial_n":134,"min":68,"max":187,"target":"present","response":"absent","rt":1540.1000000089,"correct":false,"confidence":4},{"trial_n":135,"min":67,"max":188,"target":"absent","response":"absent","rt":1852.799999997,"correct":true,"confidence":3},{"trial_n":136,"min":67,"max":188,"target":"present","response":"present","rt":1116.200000003,"correct":true,"confidence":5},{"trial_n":137,"min":68,"max":187,"target":"absent","response":"absent","rt":1117,"correct":true,"confidence":4},{"trial_n":138,"min":68,"max":187,"target":"present","response":"present","rt":1298.3999999911,"correct":true,"confidence":4},{"trial_n":139,"min":69,"max":186,"target":"absent","response":"absent","rt":1268.900000006,"correct":true,"confidence":3},{"trial_n":140,"min":69,"max":186,"target":"absent","response":"present","rt":2612.6999999881,"correct":false,"confidence":4}]