[{"trial_n":1,"min":25,"max":230,"target":"present","response":"present","rt":9346.6000001431,"correct":true,"confidence":-1},{"trial_n":2,"min":25,"max":230,"target":"present","response":"present","rt":1125.7000000477,"correct":true,"confidence":-1},{"trial_n":3,"min":41,"max":214,"target":"absent","response":"absent","rt":1234,"correct":true,"confidence":-1},{"trial_n":4,"min":41,"max":214,"target":"absent","response":"absent","rt":972.29999995232,"correct":true,"confidence":-1},{"trial_n":5,"min":57,"max":198,"target":"present","response":"absent","rt":697.60000014305,"correct":false,"confidence":-1},{"trial_n":6,"min":41,"max":214,"target":"absent","response":"present","rt":1357.9000000954,"correct":false,"confidence":-1},{"trial_n":7,"min":25,"max":230,"target":"present","response":"present","rt":2074.2000000477,"correct":true,"confidence":-1},{"trial_n":8,"min":25,"max":230,"target":"present","response":"present","rt":637.70000004768,"correct":true,"confidence":-1},{"trial_n":9,"min":41,"max":214,"target":"present","response":"present","rt":727.19999980927,"correct":true,"confidence":-1},{"trial_n":10,"min":41,"max":214,"target":"absent","response":"absent","rt":969.40000009537,"correct":true,"confidence":-1},{"trial_n":11,"min":49,"max":206,"target":"present","response":"present","rt":825.5,"correct":true,"confidence":-1},{"trial_n":12,"min":49,"max":206,"target":"absent","response":"absent","rt":927.10000014305,"correct":true,"confidence":-1},{"trial_n":13,"min":57,"max":198,"target":"absent","response":"absent","rt":761.39999985695,"correct":true,"confidence":-1},{"trial_n":14,"min":57,"max":198,"target":"absent","response":"absent","rt":479.20000004768,"correct":true,"confidence":-1},{"trial_n":15,"min":65,"max":190,"target":"present","response":"present","rt":889.20000004768,"correct":true,"confidence":-1},{"trial_n":16,"min":65,"max":190,"target":"absent","response":"absent","rt":867,"correct":true,"confidence":-1},{"trial_n":17,"min":73,"max":182,"target":"present","response":"present","rt":1616.5,"correct":true,"confidence":-1},{"trial_n":18,"min":73,"max":182,"target":"absent","response":"absent","rt":1030,"correct":true,"confidence":-1},{"trial_n":19,"min":81,"max":174,"target":"present","response":"absent","rt":742,"correct":false,"confidence":-1},{"trial_n":20,"min":73,"max":182,"target":"present","response":"present","rt":908.70000004768,"correct":true,"confidence":-1},{"trial_n":21,"min":73,"max":182,"target":"present","response":"present","rt":2685.1000001431,"correct":true,"confidence":2},{"trial_n":22,"min":77,"max":178,"target":"present","response":"present","rt":868.20000004768,"correct":true,"confidence":4},{"trial_n":23,"min":77,"max":178,"target":"absent","response":"absent","rt":858.80000019073,"correct":true,"confidence":4},{"trial_n":24,"min":81,"max":174,"target":"absent","response":"present","rt":1092.7000000477,"correct":false,"confidence":3},{"trial_n":25,"min":77,"max":178,"target":"absent","response":"absent","rt":974.59999990463,"correct":true,"confidence":2},{"trial_n":26,"min":77,"max":178,"target":"present","response":"present","rt":968.59999990463,"correct":true,"confidence":3},{"trial_n":27,"min":81,"max":174,"target":"present","response":"present","rt":875.20000004768,"correct":true,"confidence":3},{"trial_n":28,"min":81,"max":174,"target":"present","response":"present","rt":845.79999995232,"correct":true,"confidence":3},{"trial_n":29,"min":85,"max":170,"target":"present","response":"present","rt":822.60000014305,"correct":true,"confidence":4},{"trial_n":30,"min":85,"max":170,"target":"absent","response":"absent","rt":1172.9000000954,"correct":true,"confidence":2},{"trial_n":31,"min":87,"max":168,"target":"absent","response":"absent","rt":1291.4000000954,"correct":true,"confidence":2},{"trial_n":32,"min":87,"max":168,"target":"absent","response":"absent","rt":870.79999995232,"correct":true,"confidence":2},{"trial_n":33,"min":89,"max":166,"target":"absent","response":"absent","rt":438.89999985695,"correct":true,"confidence":2},{"trial_n":34,"min":89,"max":166,"target":"absent","response":"absent","rt":472,"correct":true,"confidence":2},{"trial_n":35,"min":91,"max":164,"target":"absent","response":"absent","rt":1485.3999998569,"correct":true,"confidence":2},{"trial_n":36,"min":91,"max":164,"target":"absent","response":"absent","rt":953.69999980927,"correct":true,"confidence":2},{"trial_n":37,"min":93,"max":162,"target":"present","response":"present","rt":991.60000014305,"correct":true,"confidence":2},{"trial_n":38,"min":93,"max":162,"target":"absent","response":"absent","rt":877.90000009537,"correct":true,"confidence":2},{"trial_n":39,"min":95,"max":160,"target":"absent","response":"absent","rt":964.20000004768,"correct":true,"confidence":2},{"trial_n":40,"min":95,"max":160,"target":"present","response":"present","rt":1140,"correct":true,"confidence":2},{"trial_n":41,"min":96,"max":159,"target":"absent","response":"absent","rt":1083.2999999523,"correct":true,"confidence":2},{"trial_n":42,"min":96,"max":159,"target":"present","response":"absent","rt":296,"correct":false,"confidence":2},{"trial_n":43,"min":95,"max":160,"target":"present","response":"absent","rt":264.5,"correct":false,"confidence":2},{"trial_n":44,"min":94,"max":161,"target":"present","response":"absent","rt":222.5,"correct":false,"confidence":2},{"trial_n":45,"min":93,"max":162,"target":"absent","response":"absent","rt":249.19999980927,"correct":true,"confidence":2},{"trial_n":46,"min":93,"max":162,"target":"absent","response":"absent","rt":215.79999995232,"correct":true,"confidence":2},{"trial_n":47,"min":94,"max":161,"target":"absent","response":"absent","rt":248.39999985695,"correct":true,"confidence":2},{"trial_n":48,"min":94,"max":161,"target":"present","response":"present","rt":966.40000009537,"correct":true,"confidence":2},{"trial_n":49,"min":95,"max":160,"target":"present","response":"absent","rt":823.40000009537,"correct":false,"confidence":2},{"trial_n":50,"min":94,"max":161,"target":"absent","response":"absent","rt":292,"correct":true,"confidence":2},{"trial_n":51,"min":94,"max":161,"target":"present","response":"absent","rt":1778.7000000477,"correct":false,"confidence":2},{"trial_n":52,"min":93,"max":162,"target":"absent","response":"absent","rt":365.79999995232,"correct":true,"confidence":2},{"trial_n":53,"min":93,"max":162,"target":"present","response":"absent","rt":245.39999985695,"correct":false,"confidence":2},{"trial_n":54,"min":92,"max":163,"target":"present","response":"present","rt":843.40000009537,"correct":true,"confidence":2},{"trial_n":55,"min":92,"max":163,"target":"present","response":"present","rt":837.59999990463,"correct":true,"confidence":2},{"trial_n":56,"min":93,"max":162,"target":"present","response":"absent","rt":570.5,"correct":false,"confidence":2},{"trial_n":57,"min":92,"max":163,"target":"present","response":"absent","rt":281.60000014305,"correct":false,"confidence":2},{"trial_n":58,"min":91,"max":164,"target":"absent","response":"present","rt":900.39999985695,"correct":false,"confidence":1},{"trial_n":59,"min":90,"max":165,"target":"absent","response":"absent","rt":1826.4000000954,"correct":true,"confidence":2},{"trial_n":60,"min":90,"max":165,"target":"present","response":"absent","rt":535.40000009537,"correct":false,"confidence":2},{"trial_n":61,"min":89,"max":166,"target":"absent","response":"absent","rt":628.90000009537,"correct":true,"confidence":2},{"trial_n":62,"min":89,"max":166,"target":"absent","response":"absent","rt":564.09999990463,"correct":true,"confidence":2},{"trial_n":63,"min":90,"max":165,"target":"absent","response":"present","rt":1082.8999998569,"correct":false,"confidence":3},{"trial_n":64,"min":89,"max":166,"target":"absent","response":"absent","rt":690,"correct":true,"confidence":2},{"trial_n":65,"min":89,"max":166,"target":"present","response":"absent","rt":431.30000019073,"correct":false,"confidence":2},{"trial_n":66,"min":88,"max":167,"target":"present","response":"present","rt":823.90000009537,"correct":true,"confidence":1},{"trial_n":67,"min":88,"max":167,"target":"present","response":"absent","rt":1783.2000000477,"correct":false,"confidence":2},{"trial_n":68,"min":87,"max":168,"target":"absent","response":"absent","rt":467.20000004768,"correct":true,"confidence":2},{"trial_n":69,"min":87,"max":168,"target":"present","response":"present","rt":602.09999990463,"correct":true,"confidence":2},{"trial_n":70,"min":88,"max":167,"target":"present","response":"present","rt":371,"correct":true,"confidence":2},{"trial_n":71,"min":41,"max":214,"target":"present","response":"present","rt":4340.9000000954,"correct":true,"confidence":-1},{"trial_n":72,"min":41,"max":214,"target":"present","response":"present","rt":783,"correct":true,"confidence":-1},{"trial_n":73,"min":57,"max":198,"target":"absent","response":"absent","rt":230.09999990463,"correct":true,"confidence":-1},{"trial_n":74,"min":57,"max":198,"target":"absent","response":"absent","rt":480,"correct":true,"confidence":-1},{"trial_n":75,"min":73,"max":182,"target":"present","response":"present","rt":643.5,"correct":true,"confidence":-1},{"trial_n":76,"min":73,"max":182,"target":"present","response":"present","rt":414.60000014305,"correct":true,"confidence":-1},{"trial_n":77,"min":89,"max":166,"target":"absent","response":"absent","rt":390.20000004768,"correct":true,"confidence":-1},{"trial_n":78,"min":89,"max":166,"target":"present","response":"absent","rt":447.40000009537,"correct":false,"confidence":-1},{"trial_n":79,"min":73,"max":182,"target":"present","response":"present","rt":620.30000019073,"correct":true,"confidence":-1},{"trial_n":80,"min":73,"max":182,"target":"absent","response":"present","rt":455.60000014305,"correct":false,"confidence":-1},{"trial_n":81,"min":65,"max":190,"target":"present","response":"present","rt":430.79999995232,"correct":true,"confidence":-1},{"trial_n":82,"min":65,"max":190,"target":"present","response":"present","rt":369.89999985695,"correct":true,"confidence":-1},{"trial_n":83,"min":73,"max":182,"target":"present","response":"present","rt":372.79999995232,"correct":true,"confidence":-1},{"trial_n":84,"min":73,"max":182,"target":"present","response":"absent","rt":590.69999980927,"correct":false,"confidence":-1},{"trial_n":85,"min":65,"max":190,"target":"absent","response":"present","rt":580.79999995232,"correct":false,"confidence":-1},{"trial_n":86,"min":57,"max":198,"target":"absent","response":"absent","rt":426.90000009537,"correct":true,"confidence":-1},{"trial_n":87,"min":57,"max":198,"target":"absent","response":"absent","rt":378.59999990463,"correct":true,"confidence":-1},{"trial_n":88,"min":65,"max":190,"target":"absent","response":"absent","rt":353.20000004768,"correct":true,"confidence":-1},{"trial_n":89,"min":65,"max":190,"target":"present","response":"present","rt":587.90000009537,"correct":true,"confidence":-1},{"trial_n":90,"min":73,"max":182,"target":"absent","response":"absent","rt":438.09999990463,"correct":true,"confidence":-1},{"trial_n":91,"min":73,"max":182,"target":"present","response":"present","rt":569.5,"correct":true,"confidence":4},{"trial_n":92,"min":77,"max":178,"target":"absent","response":"absent","rt":561.5,"correct":true,"confidence":4},{"trial_n":93,"min":77,"max":178,"target":"present","response":"present","rt":409.59999990463,"correct":true,"confidence":4},{"trial_n":94,"min":81,"max":174,"target":"absent","response":"absent","rt":905,"correct":true,"confidence":3},{"trial_n":95,"min":81,"max":174,"target":"absent","response":"absent","rt":355.30000019073,"correct":true,"confidence":4},{"trial_n":96,"min":85,"max":170,"target":"present","response":"present","rt":780.70000004768,"correct":true,"confidence":3},{"trial_n":97,"min":85,"max":170,"target":"present","response":"absent","rt":661,"correct":false,"confidence":3},{"trial_n":98,"min":81,"max":174,"target":"absent","response":"absent","rt":593.29999995232,"correct":true,"confidence":3},{"trial_n":99,"min":81,"max":174,"target":"absent","response":"absent","rt":423.10000014305,"correct":true,"confidence":3},{"trial_n":100,"min":85,"max":170,"target":"absent","response":"absent","rt":332.09999990463,"correct":true,"confidence":1},{"trial_n":101,"min":85,"max":170,"target":"present","response":"absent","rt":461.60000014305,"correct":false,"confidence":3},{"trial_n":102,"min":83,"max":172,"target":"present","response":"present","rt":1001.4000000954,"correct":true,"confidence":3},{"trial_n":103,"min":83,"max":172,"target":"present","response":"present","rt":939.5,"correct":true,"confidence":2},{"trial_n":104,"min":85,"max":170,"target":"present","response":"present","rt":634.09999990463,"correct":true,"confidence":3},{"trial_n":105,"min":85,"max":170,"target":"present","response":"absent","rt":469.19999980927,"correct":false,"confidence":3},{"trial_n":106,"min":83,"max":172,"target":"present","response":"present","rt":692,"correct":true,"confidence":3},{"trial_n":107,"min":83,"max":172,"target":"absent","response":"absent","rt":380.80000019073,"correct":true,"confidence":2},{"trial_n":108,"min":85,"max":170,"target":"present","response":"present","rt":697.60000014305,"correct":true,"confidence":3},{"trial_n":109,"min":85,"max":170,"target":"present","response":"present","rt":509.5,"correct":true,"confidence":3},{"trial_n":110,"min":87,"max":168,"target":"absent","response":"absent","rt":556,"correct":true,"confidence":3},{"trial_n":111,"min":87,"max":168,"target":"absent","response":"present","rt":1076.7999999523,"correct":false,"confidence":2},{"trial_n":112,"min":86,"max":169,"target":"absent","response":"absent","rt":505.09999990463,"correct":true,"confidence":2},{"trial_n":113,"min":86,"max":169,"target":"absent","response":"absent","rt":502.59999990463,"correct":true,"confidence":3},{"trial_n":114,"min":87,"max":168,"target":"present","response":"absent","rt":609.89999985695,"correct":false,"confidence":2},{"trial_n":115,"min":86,"max":169,"target":"absent","response":"absent","rt":675.29999995232,"correct":true,"confidence":2},{"trial_n":116,"min":86,"max":169,"target":"absent","response":"absent","rt":384.39999985695,"correct":true,"confidence":2},{"trial_n":117,"min":87,"max":168,"target":"absent","response":"absent","rt":773.5,"correct":true,"confidence":2},{"trial_n":118,"min":87,"max":168,"target":"present","response":"absent","rt":431.80000019073,"correct":false,"confidence":2},{"trial_n":119,"min":86,"max":169,"target":"present","response":"absent","rt":998.60000014305,"correct":false,"confidence":2},{"trial_n":120,"min":85,"max":170,"target":"present","response":"present","rt":407,"correct":true,"confidence":3},{"trial_n":121,"min":85,"max":170,"target":"absent","response":"absent","rt":592.30000019073,"correct":true,"confidence":3},{"trial_n":122,"min":86,"max":169,"target":"present","response":"absent","rt":417.59999990463,"correct":false,"confidence":3},{"trial_n":123,"min":85,"max":170,"target":"absent","response":"absent","rt":643.39999985695,"correct":true,"confidence":3},{"trial_n":124,"min":85,"max":170,"target":"absent","response":"absent","rt":687.90000009537,"correct":true,"confidence":3},{"trial_n":125,"min":86,"max":169,"target":"present","response":"absent","rt":425,"correct":false,"confidence":3},{"trial_n":126,"min":85,"max":170,"target":"present","response":"present","rt":748.60000014305,"correct":true,"confidence":2},{"trial_n":127,"min":85,"max":170,"target":"absent","response":"absent","rt":566.60000014305,"correct":true,"confidence":2},{"trial_n":128,"min":86,"max":169,"target":"present","response":"present","rt":1117.5,"correct":true,"confidence":2},{"trial_n":129,"min":86,"max":169,"target":"absent","response":"present","rt":886.19999980927,"correct":false,"confidence":2},{"trial_n":130,"min":85,"max":170,"target":"present","response":"present","rt":749.90000009537,"correct":true,"confidence":2},{"trial_n":131,"min":85,"max":170,"target":"absent","response":"absent","rt":558.29999995232,"correct":true,"confidence":3},{"trial_n":132,"min":86,"max":169,"target":"absent","response":"absent","rt":350.60000014305,"correct":true,"confidence":3},{"trial_n":133,"min":86,"max":169,"target":"absent","response":"absent","rt":354.59999990463,"correct":true,"confidence":3},{"trial_n":134,"min":87,"max":168,"target":"present","response":"present","rt":249.79999995232,"correct":true,"confidence":3},{"trial_n":135,"min":87,"max":168,"target":"absent","response":"absent","rt":729.5,"correct":true,"confidence":3},{"trial_n":136,"min":88,"max":167,"target":"absent","response":"absent","rt":1303.3000001907,"correct":true,"confidence":3},{"trial_n":137,"min":88,"max":167,"target":"absent","response":"absent","rt":832.79999995232,"correct":true,"confidence":3},{"trial_n":138,"min":89,"max":166,"target":"present","response":"present","rt":295.29999995232,"correct":true,"confidence":3},{"trial_n":139,"min":89,"max":166,"target":"present","response":"present","rt":844.69999980927,"correct":true,"confidence":3},{"trial_n":140,"min":90,"max":165,"target":"present","response":"present","rt":320.79999995232,"correct":true,"confidence":3}]