[{"trial_n":1,"span":8,"encoder":"20823486","distractor":"20823436","target":"present","response":"absent","rt":"4207.3999998569","correct":false,"confidence":-1},{"trial_n":2,"span":6,"encoder":"558670","distractor":"258670","target":"present","response":"present","rt":"2586.8000001907","correct":true,"confidence":-1},{"trial_n":3,"span":6,"encoder":"900196","distractor":"950196","target":"absent","response":"absent","rt":"1765.4000000954","correct":true,"confidence":-1},{"trial_n":4,"span":8,"encoder":"15497125","distractor":"15494125","target":"absent","response":"absent","rt":"2407.2999999523","correct":true,"confidence":-1},{"trial_n":5,"span":8,"encoder":"66484647","distractor":"66484697","target":"present","response":"absent","rt":"1749.4000000954","correct":false,"confidence":-1},{"trial_n":6,"span":6,"encoder":"536533","distractor":"596533","target":"absent","response":"absent","rt":"1060.0999999046","correct":true,"confidence":-1},{"trial_n":7,"span":6,"encoder":"768980","distractor":"668980","target":"present","response":"absent","rt":"1811.2000000477","correct":false,"confidence":-1},{"trial_n":8,"span":4,"encoder":"8209","distractor":"8269","target":"absent","response":"absent","rt":"1243.2999999523","correct":true,"confidence":-1},{"trial_n":9,"span":4,"encoder":"1539","distractor":"1538","target":"absent","response":"present","rt":"898.69999980927","correct":false,"confidence":-1},{"trial_n":10,"span":2,"encoder":"33","distractor":"73","target":"present","response":"absent","rt":"2728.8999998569","correct":false,"confidence":-1},{"trial_n":11,"span":2,"encoder":"02","distractor":"52","target":"absent","response":"absent","rt":"1470.9000000954","correct":true,"confidence":-1},{"trial_n":12,"span":2,"encoder":"38","distractor":"37","target":"present","response":"absent","rt":"1325.6000001431","correct":false,"confidence":-1},{"trial_n":13,"span":2,"encoder":"50","distractor":"00","target":"present","response":"present","rt":"604.09999990463","correct":true,"confidence":-1},{"trial_n":14,"span":2,"encoder":"75","distractor":"73","target":"present","response":"present","rt":"651.20000004768","correct":true,"confidence":-1},{"trial_n":15,"span":3,"encoder":"034","distractor":"734","target":"present","response":"present","rt":"832.5","correct":true,"confidence":-1},{"trial_n":16,"span":3,"encoder":"874","distractor":"873","target":"present","response":"present","rt":"585.5","correct":true,"confidence":-1},{"trial_n":17,"span":4,"encoder":"4952","distractor":"4962","target":"absent","response":"absent","rt":"870.5","correct":true,"confidence":-1},{"trial_n":18,"span":4,"encoder":"5848","distractor":"5838","target":"absent","response":"absent","rt":"1578","correct":true,"confidence":-1},{"trial_n":19,"span":5,"encoder":"63450","distractor":"63451","target":"absent","response":"absent","rt":"783.59999990463","correct":true,"confidence":-1},{"trial_n":20,"span":5,"encoder":"48890","distractor":"48490","target":"present","response":"present","rt":"974.20000004768","correct":true,"confidence":-1},{"trial_n":21,"span":6,"encoder":"372540","distractor":"392540","target":"absent","response":"absent","rt":"882.59999990463","correct":true,"confidence":4},{"trial_n":22,"span":6,"encoder":"220882","distractor":"200882","target":"present","response":"absent","rt":"2886.5999999046","correct":false,"confidence":3},{"trial_n":23,"span":5,"encoder":"63069","distractor":"83069","target":"absent","response":"absent","rt":"1739.6000001431","correct":true,"confidence":3},{"trial_n":24,"span":5,"encoder":"16348","distractor":"16346","target":"absent","response":"absent","rt":"1091.3999998569","correct":true,"confidence":4},{"trial_n":25,"span":6,"encoder":"391140","distractor":"391170","target":"absent","response":"absent","rt":"1413.5999999046","correct":true,"confidence":4},{"trial_n":26,"span":6,"encoder":"320334","distractor":"390334","target":"present","response":"present","rt":"2302.5999999046","correct":true,"confidence":4},{"trial_n":27,"span":7,"encoder":"4368652","distractor":"9368652","target":"present","response":"absent","rt":"1158.3999998569","correct":false,"confidence":1},{"trial_n":28,"span":6,"encoder":"561832","distractor":"581832","target":"absent","response":"absent","rt":"1369.5999999046","correct":true,"confidence":2},{"trial_n":29,"span":6,"encoder":"085681","distractor":"083681","target":"absent","response":"absent","rt":"3734.3000001907","correct":true,"confidence":4},{"trial_n":30,"span":7,"encoder":"5734030","distractor":"5784030","target":"present","response":"absent","rt":"1600.6999998093","correct":false,"confidence":3},{"trial_n":31,"span":6,"encoder":"263523","distractor":"263525","target":"absent","response":"present","rt":"3301.7000000477","correct":false,"confidence":2},{"trial_n":32,"span":5,"encoder":"59968","distractor":"49968","target":"present","response":"present","rt":"2106","correct":true,"confidence":4},{"trial_n":33,"span":5,"encoder":"78946","distractor":"78976","target":"present","response":"present","rt":"1436.5999999046","correct":true,"confidence":4},{"trial_n":34,"span":6,"encoder":"110716","distractor":"130716","target":"absent","response":"absent","rt":"1440.3999998569","correct":true,"confidence":5},{"trial_n":35,"span":6,"encoder":"060241","distractor":"060246","target":"present","response":"absent","rt":"2126.5999999046","correct":false,"confidence":3},{"trial_n":36,"span":5,"encoder":"75863","distractor":"75963","target":"present","response":"present","rt":"1724.2999999523","correct":true,"confidence":5},{"trial_n":37,"span":5,"encoder":"19670","distractor":"49670","target":"absent","response":"absent","rt":"1520.7999999523","correct":true,"confidence":5},{"trial_n":38,"span":6,"encoder":"142541","distractor":"141541","target":"absent","response":"absent","rt":"1185","correct":true,"confidence":5},{"trial_n":39,"span":6,"encoder":"824481","distractor":"825481","target":"present","response":"present","rt":"2350.5","correct":true,"confidence":5},{"trial_n":40,"span":7,"encoder":"8195131","distractor":"8135131","target":"absent","response":"absent","rt":"1476.9000000954","correct":true,"confidence":4},{"trial_n":41,"span":7,"encoder":"0586201","distractor":"0588201","target":"absent","response":"absent","rt":"1164.4000000954","correct":true,"confidence":4},{"trial_n":42,"span":8,"encoder":"17443335","distractor":"47443335","target":"present","response":"absent","rt":"2606.1000001431","correct":false,"confidence":2},{"trial_n":43,"span":7,"encoder":"7387740","distractor":"7337740","target":"present","response":"present","rt":"3041.1000001431","correct":true,"confidence":3},{"trial_n":44,"span":7,"encoder":"4477056","distractor":"4477016","target":"present","response":"absent","rt":"1119.3999998569","correct":false,"confidence":5},{"trial_n":45,"span":6,"encoder":"604491","distractor":"604431","target":"absent","response":"absent","rt":"1659.1000001431","correct":true,"confidence":5},{"trial_n":46,"span":6,"encoder":"335064","distractor":"334064","target":"present","response":"present","rt":"2488.5","correct":true,"confidence":4},{"trial_n":47,"span":7,"encoder":"4092777","distractor":"4096777","target":"absent","response":"absent","rt":"2687","correct":true,"confidence":3},{"trial_n":48,"span":7,"encoder":"4472640","distractor":"4476640","target":"absent","response":"absent","rt":"1588.5999999046","correct":true,"confidence":4},{"trial_n":49,"span":8,"encoder":"36929658","distractor":"31929658","target":"absent","response":"present","rt":"3045","correct":false,"confidence":3},{"trial_n":50,"span":7,"encoder":"5980503","distractor":"5980573","target":"absent","response":"absent","rt":"2028.3999998569","correct":true,"confidence":4},{"trial_n":51,"span":7,"encoder":"9945471","distractor":"9905471","target":"absent","response":"absent","rt":"1666.3000001907","correct":true,"confidence":3},{"trial_n":52,"span":8,"encoder":"95534782","distractor":"95534702","target":"present","response":"present","rt":"2304.5","correct":true,"confidence":3},{"trial_n":53,"span":8,"encoder":"57187354","distractor":"47187354","target":"present","response":"present","rt":"2734.6999998093","correct":true,"confidence":2},{"trial_n":54,"span":9,"encoder":"116847586","distractor":"196847586","target":"absent","response":"absent","rt":"1286.7000000477","correct":true,"confidence":3},{"trial_n":55,"span":9,"encoder":"746485297","distractor":"146485297","target":"present","response":"present","rt":"2323.7000000477","correct":true,"confidence":2},{"trial_n":56,"span":10,"encoder":"3059532483","distractor":"3059562483","target":"absent","response":"absent","rt":"3451.7000000477","correct":true,"confidence":2},{"trial_n":57,"span":10,"encoder":"3480282828","distractor":"3489282828","target":"absent","response":"absent","rt":"1990.5999999046","correct":true,"confidence":4},{"trial_n":58,"span":11,"encoder":"40275540285","distractor":"40275540265","target":"present","response":"absent","rt":"2455","correct":false,"confidence":4},{"trial_n":59,"span":10,"encoder":"9551737630","distractor":"9051737630","target":"absent","response":"absent","rt":"2171.2999999523","correct":true,"confidence":4},{"trial_n":60,"span":10,"encoder":"0596038908","distractor":"0596008908","target":"present","response":"present","rt":"2483.6000001431","correct":true,"confidence":2},{"trial_n":61,"span":11,"encoder":"65874304585","distractor":"65874304582","target":"present","response":"absent","rt":"2389.9000000954","correct":false,"confidence":2},{"trial_n":62,"span":10,"encoder":"5603614264","distractor":"5600614264","target":"present","response":"absent","rt":"1586.8000001907","correct":false,"confidence":2},{"trial_n":63,"span":9,"encoder":"000738111","distractor":"090738111","target":"absent","response":"absent","rt":"1662.2000000477","correct":true,"confidence":5},{"trial_n":64,"span":9,"encoder":"826222547","distractor":"827222547","target":"present","response":"present","rt":"2151.5","correct":true,"confidence":3},{"trial_n":65,"span":10,"encoder":"0990325306","distractor":"0990625306","target":"present","response":"present","rt":"2521.8999998569","correct":true,"confidence":3},{"trial_n":66,"span":10,"encoder":"1445017270","distractor":"1445017280","target":"present","response":"present","rt":"1726.6000001431","correct":true,"confidence":3},{"trial_n":67,"span":11,"encoder":"22977195891","distractor":"22977195890","target":"absent","response":"present","rt":"2776.5999999046","correct":false,"confidence":3},{"trial_n":68,"span":10,"encoder":"1456684979","distractor":"1456684972","target":"present","response":"present","rt":"2340.6999998093","correct":true,"confidence":2},{"trial_n":69,"span":10,"encoder":"0915413247","distractor":"0915413147","target":"absent","response":"absent","rt":"1469.7000000477","correct":true,"confidence":3},{"trial_n":70,"span":11,"encoder":"79172847649","distractor":"79172847645","target":"present","response":"absent","rt":"2273.9000000954","correct":false,"confidence":1},{"trial_n":71,"span":8,"encoder":"10730810","distractor":"10700810","target":"present","response":"present","rt":"5579.1000001431","correct":true,"confidence":-1},{"trial_n":72,"span":8,"encoder":"64131535","distractor":"04131535","target":"present","response":"present","rt":"1699.2000000477","correct":true,"confidence":-1},{"trial_n":73,"span":9,"encoder":"310707579","distractor":"310707079","target":"absent","response":"absent","rt":"1345.2000000477","correct":true,"confidence":-1},{"trial_n":74,"span":9,"encoder":"911119465","distractor":"912119465","target":"absent","response":"present","rt":"1338","correct":false,"confidence":-1},{"trial_n":75,"span":8,"encoder":"97521344","distractor":"97521345","target":"present","response":"absent","rt":"1576.9000000954","correct":false,"confidence":-1},{"trial_n":76,"span":7,"encoder":"5674175","distractor":"5676175","target":"present","response":"present","rt":"885.39999985695","correct":true,"confidence":-1},{"trial_n":77,"span":7,"encoder":"3966691","distractor":"3996691","target":"absent","response":"absent","rt":"4875.7000000477","correct":true,"confidence":-1},{"trial_n":78,"span":8,"encoder":"74229288","distractor":"74229281","target":"present","response":"present","rt":"1234.8000001907","correct":true,"confidence":-1},{"trial_n":79,"span":8,"encoder":"00694160","distractor":"00695160","target":"present","response":"absent","rt":"2473.7999999523","correct":false,"confidence":-1},{"trial_n":80,"span":7,"encoder":"8864927","distractor":"8814927","target":"present","response":"present","rt":"524","correct":true,"confidence":-1},{"trial_n":81,"span":7,"encoder":"2431530","distractor":"2431533","target":"present","response":"absent","rt":"519.5","correct":false,"confidence":-1},{"trial_n":82,"span":6,"encoder":"751990","distractor":"751995","target":"present","response":"present","rt":"1804.5","correct":true,"confidence":-1},{"trial_n":83,"span":6,"encoder":"147111","distractor":"167111","target":"present","response":"absent","rt":"500.09999990463","correct":false,"confidence":-1},{"trial_n":84,"span":5,"encoder":"59909","distractor":"69909","target":"absent","response":"present","rt":"1013.8000001907","correct":false,"confidence":-1},{"trial_n":85,"span":4,"encoder":"9668","distractor":"5668","target":"absent","response":"absent","rt":"1082","correct":true,"confidence":-1},{"trial_n":86,"span":4,"encoder":"4552","distractor":"4572","target":"present","response":"present","rt":"427","correct":true,"confidence":-1},{"trial_n":87,"span":5,"encoder":"56475","distractor":"56472","target":"absent","response":"absent","rt":"1068.0999999046","correct":true,"confidence":-1},{"trial_n":88,"span":5,"encoder":"64758","distractor":"64728","target":"present","response":"present","rt":"2360.7000000477","correct":true,"confidence":-1},{"trial_n":89,"span":6,"encoder":"413721","distractor":"413741","target":"present","response":"present","rt":"2161.8999998569","correct":true,"confidence":-1},{"trial_n":90,"span":6,"encoder":"257817","distractor":"257813","target":"absent","response":"absent","rt":"1045.4000000954","correct":true,"confidence":-1},{"trial_n":91,"span":7,"encoder":"6617683","distractor":"7617683","target":"absent","response":"present","rt":"7648.2999999523","correct":false,"confidence":2},{"trial_n":92,"span":6,"encoder":"099671","distractor":"199671","target":"present","response":"present","rt":"2158.7999999523","correct":true,"confidence":5},{"trial_n":93,"span":6,"encoder":"716970","distractor":"716980","target":"absent","response":"absent","rt":"2854.4000000954","correct":true,"confidence":3},{"trial_n":94,"span":7,"encoder":"4783963","distractor":"4763963","target":"present","response":"absent","rt":"3074.1000001431","correct":false,"confidence":2},{"trial_n":95,"span":6,"encoder":"742924","distractor":"741924","target":"absent","response":"absent","rt":"2743","correct":true,"confidence":3},{"trial_n":96,"span":6,"encoder":"450413","distractor":"450418","target":"absent","response":"present","rt":"2488.7000000477","correct":false,"confidence":2},{"trial_n":97,"span":5,"encoder":"37011","distractor":"35011","target":"present","response":"present","rt":"2386","correct":true,"confidence":5},{"trial_n":98,"span":5,"encoder":"74468","distractor":"14468","target":"absent","response":"absent","rt":"1867","correct":true,"confidence":5},{"trial_n":99,"span":6,"encoder":"979502","distractor":"979582","target":"present","response":"present","rt":"5076.3999998569","correct":true,"confidence":2},{"trial_n":100,"span":6,"encoder":"520815","distractor":"500815","target":"absent","response":"absent","rt":"1870.4000000954","correct":true,"confidence":5},{"trial_n":101,"span":7,"encoder":"7804745","distractor":"7404745","target":"present","response":"present","rt":"2064.1000001431","correct":true,"confidence":4},{"trial_n":102,"span":7,"encoder":"7989522","distractor":"7982522","target":"absent","response":"absent","rt":"5727.2000000477","correct":true,"confidence":2},{"trial_n":103,"span":8,"encoder":"37109785","distractor":"37109685","target":"present","response":"present","rt":"1744.4000000954","correct":true,"confidence":5},{"trial_n":104,"span":8,"encoder":"78560932","distractor":"70560932","target":"absent","response":"absent","rt":"2916.5999999046","correct":true,"confidence":3},{"trial_n":105,"span":9,"encoder":"274739384","distractor":"274739380","target":"absent","response":"absent","rt":"3023.2000000477","correct":true,"confidence":5},{"trial_n":106,"span":9,"encoder":"634366632","distractor":"634367632","target":"absent","response":"absent","rt":"1882.7999999523","correct":true,"confidence":4},{"trial_n":107,"span":10,"encoder":"3013466546","distractor":"3013466586","target":"absent","response":"absent","rt":"1643.4000000954","correct":true,"confidence":5},{"trial_n":108,"span":10,"encoder":"5256395659","distractor":"9256395659","target":"absent","response":"absent","rt":"13773.200000048","correct":true,"confidence":2},{"trial_n":109,"span":11,"encoder":"01302593265","distractor":"01302093265","target":"present","response":"present","rt":"4921.4000000954","correct":true,"confidence":2},{"trial_n":110,"span":11,"encoder":"92269883999","distractor":"62269883999","target":"present","response":"present","rt":"3572.2999999523","correct":true,"confidence":2},{"trial_n":111,"span":12,"encoder":"389704813278","distractor":"389794813278","target":"absent","response":"present","rt":"585.80000019073","correct":false,"confidence":2},{"trial_n":112,"span":11,"encoder":"90424405549","distractor":"90224405549","target":"absent","response":"absent","rt":"4547","correct":true,"confidence":2},{"trial_n":113,"span":11,"encoder":"98187511218","distractor":"98187911218","target":"absent","response":"absent","rt":"7740.9000000954","correct":true,"confidence":4},{"trial_n":114,"span":12,"encoder":"680598000733","distractor":"680578000733","target":"present","response":"present","rt":"5852.0999999046","correct":true,"confidence":5},{"trial_n":115,"span":12,"encoder":"757964630908","distractor":"757964130908","target":"absent","response":"absent","rt":"3500.8000001907","correct":true,"confidence":2},{"trial_n":116,"span":13,"encoder":"9026376474041","distractor":"9026376474042","target":"absent","response":"absent","rt":"1634.7000000477","correct":true,"confidence":1},{"trial_n":117,"span":13,"encoder":"4887461975372","distractor":"4887460975372","target":"present","response":"present","rt":"1725.7000000477","correct":true,"confidence":1},{"trial_n":118,"span":14,"encoder":"23050370208942","distractor":"23050370208947","target":"absent","response":"present","rt":"1440.3000001907","correct":false,"confidence":1},{"trial_n":119,"span":13,"encoder":"6598202746985","distractor":"6998202746985","target":"present","response":"absent","rt":"3607.4000000954","correct":false,"confidence":1},{"trial_n":120,"span":12,"encoder":"226224821711","distractor":"228224821711","target":"present","response":"present","rt":"1640.2999999523","correct":true,"confidence":1},{"trial_n":121,"span":12,"encoder":"576275183115","distractor":"576275183155","target":"present","response":"absent","rt":"4629.7999999523","correct":false,"confidence":4},{"trial_n":122,"span":11,"encoder":"61082620394","distractor":"61082670394","target":"present","response":"present","rt":"4551.7000000477","correct":true,"confidence":2},{"trial_n":123,"span":11,"encoder":"05168091917","distractor":"05166091917","target":"absent","response":"absent","rt":"4652.4000000954","correct":true,"confidence":5},{"trial_n":124,"span":12,"encoder":"078608626089","distractor":"078608626049","target":"present","response":"present","rt":"2324","correct":true,"confidence":4},{"trial_n":125,"span":12,"encoder":"037108679126","distractor":"037108679129","target":"absent","response":"present","rt":"1497.5","correct":false,"confidence":3},{"trial_n":126,"span":11,"encoder":"29709627910","distractor":"29709627915","target":"absent","response":"absent","rt":"2227.4000000954","correct":true,"confidence":5},{"trial_n":127,"span":11,"encoder":"73059194524","distractor":"73009194524","target":"absent","response":"absent","rt":"8675.8999998569","correct":true,"confidence":5},{"trial_n":128,"span":12,"encoder":"310540273715","distractor":"310590273715","target":"absent","response":"present","rt":"2032.5","correct":false,"confidence":2},{"trial_n":129,"span":11,"encoder":"23525575205","distractor":"23925575205","target":"present","response":"present","rt":"1730.6000001431","correct":true,"confidence":2},{"trial_n":130,"span":11,"encoder":"95229955233","distractor":"95229955232","target":"absent","response":"absent","rt":"2369.7000000477","correct":true,"confidence":4},{"trial_n":131,"span":12,"encoder":"247032695635","distractor":"247032695535","target":"present","response":"absent","rt":"1381","correct":false,"confidence":2},{"trial_n":132,"span":11,"encoder":"20920726760","distractor":"22920726760","target":"present","response":"absent","rt":"3179.2000000477","correct":false,"confidence":2},{"trial_n":133,"span":10,"encoder":"3831239659","distractor":"3331239659","target":"present","response":"present","rt":"3494.9000000954","correct":true,"confidence":2},{"trial_n":134,"span":10,"encoder":"5440992683","distractor":"5447992683","target":"absent","response":"present","rt":"3605.7000000477","correct":false,"confidence":2},{"trial_n":135,"span":9,"encoder":"713233872","distractor":"713233879","target":"present","response":"present","rt":"2740.9000000954","correct":true,"confidence":4},{"trial_n":136,"span":9,"encoder":"417846319","distractor":"417846919","target":"absent","response":"absent","rt":"3394.5","correct":true,"confidence":4},{"trial_n":137,"span":10,"encoder":"9377449022","distractor":"9378449022","target":"present","response":"absent","rt":"5086.8000001907","correct":false,"confidence":4},{"trial_n":138,"span":9,"encoder":"051845460","distractor":"051843460","target":"present","response":"present","rt":"2115.6000001431","correct":true,"confidence":3},{"trial_n":139,"span":9,"encoder":"154710284","distractor":"164710284","target":"present","response":"present","rt":"1356.2999999523","correct":true,"confidence":1},{"trial_n":140,"span":10,"encoder":"3547160747","distractor":"3547260747","target":"absent","response":"absent","rt":"2992.0999999046","correct":true,"confidence":2}]