[{"trial_n":1,"min":25,"max":230,"target":"present","response":"absent","rt":6888.299999997,"correct":false,"confidence":-1},{"trial_n":2,"min":25,"max":230,"target":"present","response":"present","rt":1753.299999997,"correct":true,"confidence":-1},{"trial_n":3,"min":25,"max":230,"target":"absent","response":"absent","rt":988.60000000149,"correct":true,"confidence":-1},{"trial_n":4,"min":41,"max":214,"target":"absent","response":"absent","rt":527.39999999851,"correct":true,"confidence":-1},{"trial_n":5,"min":41,"max":214,"target":"present","response":"present","rt":1078.6000000015,"correct":true,"confidence":-1},{"trial_n":6,"min":57,"max":198,"target":"present","response":"present","rt":607.70000000298,"correct":true,"confidence":-1},{"trial_n":7,"min":57,"max":198,"target":"present","response":"present","rt":1265.200000003,"correct":true,"confidence":-1},{"trial_n":8,"min":73,"max":182,"target":"absent","response":"absent","rt":1835.8000000045,"correct":true,"confidence":-1},{"trial_n":9,"min":73,"max":182,"target":"present","response":"present","rt":7314.299999997,"correct":true,"confidence":-1},{"trial_n":10,"min":89,"max":166,"target":"absent","response":"absent","rt":1134.200000003,"correct":true,"confidence":-1},{"trial_n":11,"min":89,"max":166,"target":"absent","response":"absent","rt":1093.200000003,"correct":true,"confidence":-1},{"trial_n":12,"min":97,"max":158,"target":"present","response":"absent","rt":478.89999999851,"correct":false,"confidence":-1},{"trial_n":13,"min":89,"max":166,"target":"absent","response":"absent","rt":672.30000000447,"correct":true,"confidence":-1},{"trial_n":14,"min":89,"max":166,"target":"present","response":"absent","rt":495.80000000447,"correct":false,"confidence":-1},{"trial_n":15,"min":81,"max":174,"target":"absent","response":"absent","rt":641.39999999851,"correct":true,"confidence":-1},{"trial_n":16,"min":81,"max":174,"target":"absent","response":"absent","rt":531.39999999851,"correct":true,"confidence":-1},{"trial_n":17,"min":89,"max":166,"target":"absent","response":"absent","rt":483.80000000447,"correct":true,"confidence":-1},{"trial_n":18,"min":89,"max":166,"target":"present","response":"absent","rt":415,"correct":false,"confidence":-1},{"trial_n":19,"min":81,"max":174,"target":"absent","response":"absent","rt":508,"correct":true,"confidence":-1},{"trial_n":20,"min":81,"max":174,"target":"present","response":"absent","rt":511.80000000447,"correct":false,"confidence":-1},{"trial_n":21,"min":77,"max":178,"target":"absent","response":"present","rt":1263.8999999985,"correct":false,"confidence":3},{"trial_n":22,"min":73,"max":182,"target":"absent","response":"present","rt":1408.3999999985,"correct":false,"confidence":1},{"trial_n":23,"min":69,"max":186,"target":"present","response":"present","rt":983.60000000149,"correct":true,"confidence":4},{"trial_n":24,"min":69,"max":186,"target":"present","response":"present","rt":914.5,"correct":true,"confidence":2},{"trial_n":25,"min":73,"max":182,"target":"absent","response":"present","rt":928.20000000298,"correct":false,"confidence":1},{"trial_n":26,"min":69,"max":186,"target":"present","response":"present","rt":1144.700000003,"correct":true,"confidence":1},{"trial_n":27,"min":69,"max":186,"target":"present","response":"present","rt":873.89999999851,"correct":true,"confidence":1},{"trial_n":28,"min":73,"max":182,"target":"absent","response":"present","rt":851.29999999702,"correct":false,"confidence":1},{"trial_n":29,"min":69,"max":186,"target":"absent","response":"present","rt":728.10000000149,"correct":false,"confidence":1},{"trial_n":30,"min":65,"max":190,"target":"absent","response":"present","rt":1419.400000006,"correct":false,"confidence":3},{"trial_n":31,"min":63,"max":192,"target":"present","response":"present","rt":1002.900000006,"correct":true,"confidence":5},{"trial_n":32,"min":63,"max":192,"target":"present","response":"present","rt":759.39999999851,"correct":true,"confidence":5},{"trial_n":33,"min":65,"max":190,"target":"present","response":"present","rt":1516.799999997,"correct":true,"confidence":5},{"trial_n":34,"min":65,"max":190,"target":"absent","response":"present","rt":1073,"correct":false,"confidence":3},{"trial_n":35,"min":63,"max":192,"target":"present","response":"present","rt":731.70000000298,"correct":true,"confidence":5},{"trial_n":36,"min":63,"max":192,"target":"absent","response":"present","rt":1535.8999999985,"correct":false,"confidence":2},{"trial_n":37,"min":61,"max":194,"target":"present","response":"present","rt":918.79999999702,"correct":true,"confidence":5},{"trial_n":38,"min":61,"max":194,"target":"present","response":"present","rt":1018.599999994,"correct":true,"confidence":5},{"trial_n":39,"min":63,"max":192,"target":"present","response":"present","rt":1469.8999999985,"correct":true,"confidence":5},{"trial_n":40,"min":63,"max":192,"target":"present","response":"present","rt":881.29999999702,"correct":true,"confidence":5},{"trial_n":41,"min":64,"max":191,"target":"absent","response":"present","rt":943.09999999404,"correct":false,"confidence":4},{"trial_n":42,"min":63,"max":192,"target":"present","response":"present","rt":772,"correct":true,"confidence":5},{"trial_n":43,"min":63,"max":192,"target":"absent","response":"absent","rt":5830.1000000015,"correct":true,"confidence":1},{"trial_n":44,"min":64,"max":191,"target":"absent","response":"present","rt":847.70000000298,"correct":false,"confidence":4},{"trial_n":45,"min":63,"max":192,"target":"present","response":"present","rt":732.69999999553,"correct":true,"confidence":5},{"trial_n":46,"min":63,"max":192,"target":"present","response":"present","rt":1024.1000000015,"correct":true,"confidence":5},{"trial_n":47,"min":64,"max":191,"target":"present","response":"present","rt":831.20000000298,"correct":true,"confidence":5},{"trial_n":48,"min":64,"max":191,"target":"absent","response":"present","rt":1456.200000003,"correct":false,"confidence":3},{"trial_n":49,"min":63,"max":192,"target":"present","response":"present","rt":771.29999999702,"correct":true,"confidence":4},{"trial_n":50,"min":63,"max":192,"target":"absent","response":"present","rt":956.70000000298,"correct":false,"confidence":3},{"trial_n":51,"min":62,"max":193,"target":"present","response":"present","rt":841.90000000596,"correct":true,"confidence":5},{"trial_n":52,"min":62,"max":193,"target":"absent","response":"present","rt":1450.700000003,"correct":false,"confidence":3},{"trial_n":53,"min":61,"max":194,"target":"absent","response":"absent","rt":1046.400000006,"correct":true,"confidence":3},{"trial_n":54,"min":61,"max":194,"target":"present","response":"present","rt":724.5,"correct":true,"confidence":5},{"trial_n":55,"min":62,"max":193,"target":"absent","response":"absent","rt":1614.8000000045,"correct":true,"confidence":1},{"trial_n":56,"min":62,"max":193,"target":"present","response":"present","rt":698.90000000596,"correct":true,"confidence":5},{"trial_n":57,"min":63,"max":192,"target":"present","response":"present","rt":711.39999999851,"correct":true,"confidence":5},{"trial_n":58,"min":63,"max":192,"target":"present","response":"present","rt":805.5,"correct":true,"confidence":5},{"trial_n":59,"min":64,"max":191,"target":"absent","response":"absent","rt":1361.299999997,"correct":true,"confidence":2},{"trial_n":60,"min":64,"max":191,"target":"absent","response":"absent","rt":1017.1000000015,"correct":true,"confidence":1},{"trial_n":61,"min":65,"max":190,"target":"present","response":"present","rt":899.30000000447,"correct":true,"confidence":5},{"trial_n":62,"min":65,"max":190,"target":"present","response":"present","rt":916.5,"correct":true,"confidence":5},{"trial_n":63,"min":66,"max":189,"target":"absent","response":"absent","rt":1156.8999999985,"correct":true,"confidence":2},{"trial_n":64,"min":66,"max":189,"target":"absent","response":"absent","rt":1010.900000006,"correct":true,"confidence":3},{"trial_n":65,"min":67,"max":188,"target":"absent","response":"absent","rt":1042.5,"correct":true,"confidence":4},{"trial_n":66,"min":67,"max":188,"target":"absent","response":"absent","rt":1295.1000000015,"correct":true,"confidence":4},{"trial_n":67,"min":68,"max":187,"target":"absent","response":"absent","rt":1079.3999999985,"correct":true,"confidence":3},{"trial_n":68,"min":68,"max":187,"target":"absent","response":"absent","rt":720.5,"correct":true,"confidence":4},{"trial_n":69,"min":69,"max":186,"target":"present","response":"present","rt":1061.400000006,"correct":true,"confidence":4},{"trial_n":70,"min":69,"max":186,"target":"present","response":"present","rt":1119.6999999955,"correct":true,"confidence":4},{"trial_n":71,"min":41,"max":214,"target":"present","response":"present","rt":6260.700000003,"correct":true,"confidence":-1},{"trial_n":72,"min":41,"max":214,"target":"present","response":"present","rt":14015.399999999,"correct":true,"confidence":-1},{"trial_n":73,"min":57,"max":198,"target":"absent","response":"absent","rt":585.89999999851,"correct":true,"confidence":-1},{"trial_n":74,"min":57,"max":198,"target":"absent","response":"absent","rt":180.60000000149,"correct":true,"confidence":-1},{"trial_n":75,"min":73,"max":182,"target":"present","response":"absent","rt":205,"correct":false,"confidence":-1},{"trial_n":76,"min":57,"max":198,"target":"absent","response":"absent","rt":28.79999999702,"correct":true,"confidence":-1},{"trial_n":77,"min":57,"max":198,"target":"present","response":"absent","rt":39.40000000596,"correct":false,"confidence":-1},{"trial_n":78,"min":41,"max":214,"target":"absent","response":"present","rt":705.89999999851,"correct":false,"confidence":-1},{"trial_n":79,"min":25,"max":230,"target":"present","response":"present","rt":1273.700000003,"correct":true,"confidence":-1},{"trial_n":80,"min":25,"max":230,"target":"absent","response":"absent","rt":610.5,"correct":true,"confidence":-1},{"trial_n":81,"min":33,"max":222,"target":"absent","response":"absent","rt":456.89999999851,"correct":true,"confidence":-1},{"trial_n":82,"min":33,"max":222,"target":"absent","response":"absent","rt":370.79999999702,"correct":true,"confidence":-1},{"trial_n":83,"min":41,"max":214,"target":"absent","response":"absent","rt":262.70000000298,"correct":true,"confidence":-1},{"trial_n":84,"min":41,"max":214,"target":"absent","response":"absent","rt":345.69999999553,"correct":true,"confidence":-1},{"trial_n":85,"min":49,"max":206,"target":"absent","response":"absent","rt":351.40000000596,"correct":true,"confidence":-1},{"trial_n":86,"min":49,"max":206,"target":"present","response":"present","rt":169.79999999702,"correct":true,"confidence":-1},{"trial_n":87,"min":57,"max":198,"target":"absent","response":"absent","rt":278.29999999702,"correct":true,"confidence":-1},{"trial_n":88,"min":57,"max":198,"target":"absent","response":"absent","rt":259.19999999553,"correct":true,"confidence":-1},{"trial_n":89,"min":65,"max":190,"target":"present","response":"present","rt":258.10000000149,"correct":true,"confidence":-1},{"trial_n":90,"min":65,"max":190,"target":"present","response":"absent","rt":135.30000000447,"correct":false,"confidence":-1},{"trial_n":91,"min":61,"max":194,"target":"absent","response":"absent","rt":460.20000000298,"correct":true,"confidence":5},{"trial_n":92,"min":61,"max":194,"target":"absent","response":"absent","rt":1030.099999994,"correct":true,"confidence":5},{"trial_n":93,"min":65,"max":190,"target":"present","response":"present","rt":728,"correct":true,"confidence":5},{"trial_n":94,"min":65,"max":190,"target":"present","response":"absent","rt":5032.3000000045,"correct":false,"confidence":1},{"trial_n":95,"min":61,"max":194,"target":"absent","response":"absent","rt":982.70000000298,"correct":true,"confidence":5},{"trial_n":96,"min":61,"max":194,"target":"absent","response":"absent","rt":997.5,"correct":true,"confidence":5},{"trial_n":97,"min":65,"max":190,"target":"present","response":"absent","rt":691.10000000149,"correct":false,"confidence":1},{"trial_n":98,"min":61,"max":194,"target":"present","response":"present","rt":789.5,"correct":true,"confidence":5},{"trial_n":99,"min":61,"max":194,"target":"present","response":"present","rt":8910,"correct":true,"confidence":1},{"trial_n":100,"min":65,"max":190,"target":"present","response":"present","rt":1038.5,"correct":true,"confidence":5},{"trial_n":101,"min":65,"max":190,"target":"absent","response":"absent","rt":1392,"correct":true,"confidence":5},{"trial_n":102,"min":67,"max":188,"target":"absent","response":"absent","rt":2596.8999999985,"correct":true,"confidence":1},{"trial_n":103,"min":67,"max":188,"target":"present","response":"present","rt":980.80000000447,"correct":true,"confidence":4},{"trial_n":104,"min":69,"max":186,"target":"present","response":"present","rt":902.20000000298,"correct":true,"confidence":5},{"trial_n":105,"min":69,"max":186,"target":"present","response":"present","rt":1045.400000006,"correct":true,"confidence":5},{"trial_n":106,"min":71,"max":184,"target":"present","response":"present","rt":664.79999999702,"correct":true,"confidence":5},{"trial_n":107,"min":71,"max":184,"target":"present","response":"present","rt":1118.6999999955,"correct":true,"confidence":5},{"trial_n":108,"min":73,"max":182,"target":"present","response":"present","rt":758.60000000149,"correct":true,"confidence":4},{"trial_n":109,"min":73,"max":182,"target":"absent","response":"present","rt":1190.1000000015,"correct":false,"confidence":1},{"trial_n":110,"min":71,"max":184,"target":"absent","response":"present","rt":1075.200000003,"correct":false,"confidence":1},{"trial_n":111,"min":70,"max":185,"target":"present","response":"present","rt":1111.5,"correct":true,"confidence":5},{"trial_n":112,"min":70,"max":185,"target":"absent","response":"absent","rt":1576.1999999955,"correct":true,"confidence":2},{"trial_n":113,"min":71,"max":184,"target":"absent","response":"absent","rt":1140.799999997,"correct":true,"confidence":5},{"trial_n":114,"min":71,"max":184,"target":"absent","response":"absent","rt":1409.200000003,"correct":true,"confidence":4},{"trial_n":115,"min":72,"max":183,"target":"absent","response":"absent","rt":1039.400000006,"correct":true,"confidence":4},{"trial_n":116,"min":72,"max":183,"target":"present","response":"present","rt":1767.6000000015,"correct":true,"confidence":1},{"trial_n":117,"min":73,"max":182,"target":"absent","response":"absent","rt":1086.5,"correct":true,"confidence":3},{"trial_n":118,"min":73,"max":182,"target":"absent","response":"absent","rt":1964,"correct":true,"confidence":1},{"trial_n":119,"min":74,"max":181,"target":"present","response":"present","rt":1034.6999999955,"correct":true,"confidence":4},{"trial_n":120,"min":74,"max":181,"target":"present","response":"present","rt":825.59999999404,"correct":true,"confidence":3},{"trial_n":121,"min":75,"max":180,"target":"present","response":"present","rt":2188.3999999985,"correct":true,"confidence":1},{"trial_n":122,"min":75,"max":180,"target":"absent","response":"present","rt":900.30000000447,"correct":false,"confidence":1},{"trial_n":123,"min":74,"max":181,"target":"present","response":"present","rt":1206,"correct":true,"confidence":3},{"trial_n":124,"min":74,"max":181,"target":"absent","response":"absent","rt":960.79999999702,"correct":true,"confidence":3},{"trial_n":125,"min":75,"max":180,"target":"present","response":"present","rt":987.79999999702,"correct":true,"confidence":4},{"trial_n":126,"min":75,"max":180,"target":"absent","response":"absent","rt":1554.3999999985,"correct":true,"confidence":1},{"trial_n":127,"min":76,"max":179,"target":"absent","response":"present","rt":1100.6999999955,"correct":false,"confidence":1},{"trial_n":128,"min":75,"max":180,"target":"present","response":"present","rt":824.60000000149,"correct":true,"confidence":1},{"trial_n":129,"min":75,"max":180,"target":"present","response":"present","rt":719.20000000298,"correct":true,"confidence":5},{"trial_n":130,"min":76,"max":179,"target":"present","response":"present","rt":1313,"correct":true,"confidence":4},{"trial_n":131,"min":76,"max":179,"target":"present","response":"present","rt":999.89999999851,"correct":true,"confidence":3},{"trial_n":132,"min":77,"max":178,"target":"absent","response":"absent","rt":983.90000000596,"correct":true,"confidence":1},{"trial_n":133,"min":77,"max":178,"target":"present","response":"present","rt":1675.8000000045,"correct":true,"confidence":4},{"trial_n":134,"min":78,"max":177,"target":"present","response":"present","rt":1015.200000003,"correct":true,"confidence":5},{"trial_n":135,"min":78,"max":177,"target":"absent","response":"absent","rt":2201.700000003,"correct":true,"confidence":1},{"trial_n":136,"min":79,"max":176,"target":"absent","response":"present","rt":1122.5,"correct":false,"confidence":2},{"trial_n":137,"min":78,"max":177,"target":"present","response":"present","rt":670.30000000447,"correct":true,"confidence":4},{"trial_n":138,"min":78,"max":177,"target":"present","response":"present","rt":661.60000000149,"correct":true,"confidence":5},{"trial_n":139,"min":79,"max":176,"target":"absent","response":"absent","rt":965.29999999702,"correct":true,"confidence":3},{"trial_n":140,"min":79,"max":176,"target":"present","response":"present","rt":648.89999999851,"correct":true,"confidence":5}]