[{"trial_n":1,"span":8,"encoder":"26422751","distractor":"21422751","target":"present","response":"present","rt":"4927.8999999762","correct":true,"confidence":-1},{"trial_n":2,"span":8,"encoder":"28802459","distractor":"08802459","target":"present","response":"present","rt":"3557","correct":true,"confidence":-1},{"trial_n":3,"span":10,"encoder":"2175528034","distractor":"2175528024","target":"absent","response":"absent","rt":"1389.3000000119","correct":true,"confidence":-1},{"trial_n":4,"span":10,"encoder":"4632537787","distractor":"4632737787","target":"absent","response":"absent","rt":"3393.7999999523","correct":true,"confidence":-1},{"trial_n":5,"span":12,"encoder":"627580010986","distractor":"627580010286","target":"present","response":"absent","rt":"3818.1000000238","correct":false,"confidence":-1},{"trial_n":6,"span":10,"encoder":"3345409633","distractor":"3845409633","target":"present","response":"present","rt":"2890.1000000238","correct":true,"confidence":-1},{"trial_n":7,"span":10,"encoder":"7545613174","distractor":"7545663174","target":"present","response":"present","rt":"4373.0999999642","correct":true,"confidence":-1},{"trial_n":8,"span":12,"encoder":"943329719192","distractor":"943329719172","target":"absent","response":"present","rt":"5582.5","correct":false,"confidence":-1},{"trial_n":9,"span":10,"encoder":"7727145453","distractor":"7727165453","target":"present","response":"present","rt":"3107.3000000119","correct":true,"confidence":-1},{"trial_n":10,"span":10,"encoder":"9632576334","distractor":"9622576334","target":"absent","response":"present","rt":"2755","correct":false,"confidence":-1},{"trial_n":11,"span":8,"encoder":"30658968","distractor":"30658965","target":"present","response":"present","rt":"2038","correct":true,"confidence":-1},{"trial_n":12,"span":8,"encoder":"90090389","distractor":"92090389","target":"present","response":"present","rt":"2320.5","correct":true,"confidence":-1},{"trial_n":13,"span":9,"encoder":"458922137","distractor":"458927137","target":"absent","response":"absent","rt":"2618.1000000238","correct":true,"confidence":-1},{"trial_n":14,"span":9,"encoder":"096787933","distractor":"096787913","target":"present","response":"present","rt":"3938.9000000358","correct":true,"confidence":-1},{"trial_n":15,"span":10,"encoder":"9922274951","distractor":"9922274851","target":"absent","response":"present","rt":"3158.8000000119","correct":false,"confidence":-1},{"trial_n":16,"span":9,"encoder":"897292845","distractor":"297292845","target":"present","response":"absent","rt":"2571.7999999523","correct":false,"confidence":-1},{"trial_n":17,"span":8,"encoder":"36279674","distractor":"36278674","target":"absent","response":"absent","rt":"4928.9000000358","correct":true,"confidence":-1},{"trial_n":18,"span":8,"encoder":"93512456","distractor":"93912456","target":"present","response":"absent","rt":"3971.8000000119","correct":false,"confidence":-1},{"trial_n":19,"span":7,"encoder":"4417538","distractor":"4414538","target":"absent","response":"absent","rt":"2802.8000000119","correct":true,"confidence":-1},{"trial_n":20,"span":7,"encoder":"1571889","distractor":"1581889","target":"present","response":"present","rt":"2657.1999999881","correct":true,"confidence":-1},{"trial_n":21,"span":8,"encoder":"70853163","distractor":"70853168","target":"present","response":"absent","rt":"2684.3999999762","correct":false,"confidence":3},{"trial_n":22,"span":7,"encoder":"4644125","distractor":"4944125","target":"absent","response":"absent","rt":"2693.3999999762","correct":true,"confidence":4},{"trial_n":23,"span":7,"encoder":"2787838","distractor":"8787838","target":"absent","response":"present","rt":"5476.1000000238","correct":false,"confidence":2},{"trial_n":24,"span":6,"encoder":"968420","distractor":"968470","target":"present","response":"present","rt":"3011.6999999881","correct":true,"confidence":5},{"trial_n":25,"span":6,"encoder":"049212","distractor":"749212","target":"absent","response":"absent","rt":"2239.3999999762","correct":true,"confidence":4},{"trial_n":26,"span":7,"encoder":"3910817","distractor":"3914817","target":"absent","response":"absent","rt":"3130.1999999881","correct":true,"confidence":4},{"trial_n":27,"span":7,"encoder":"6759647","distractor":"6756647","target":"present","response":"absent","rt":"5316.7000000477","correct":false,"confidence":4},{"trial_n":28,"span":6,"encoder":"254601","distractor":"254605","target":"present","response":"present","rt":"3935.5","correct":true,"confidence":3},{"trial_n":29,"span":6,"encoder":"996986","distractor":"996916","target":"present","response":"present","rt":"2721.8999999762","correct":true,"confidence":4},{"trial_n":30,"span":7,"encoder":"1433787","distractor":"0433787","target":"absent","response":"absent","rt":"2447.6999999881","correct":true,"confidence":3},{"trial_n":31,"span":7,"encoder":"8262415","distractor":"7262415","target":"present","response":"absent","rt":"2999.3000000119","correct":false,"confidence":3},{"trial_n":32,"span":6,"encoder":"889434","distractor":"889437","target":"absent","response":"absent","rt":"5409.7000000477","correct":true,"confidence":4},{"trial_n":33,"span":6,"encoder":"213002","distractor":"263002","target":"present","response":"present","rt":"4674.5999999642","correct":true,"confidence":3},{"trial_n":34,"span":7,"encoder":"0378867","distractor":"0378861","target":"absent","response":"absent","rt":"3474.3000000119","correct":true,"confidence":4},{"trial_n":35,"span":7,"encoder":"0855398","distractor":"0815398","target":"present","response":"absent","rt":"2033.1999999881","correct":false,"confidence":4},{"trial_n":36,"span":6,"encoder":"548137","distractor":"546137","target":"present","response":"present","rt":"2345.6999999881","correct":true,"confidence":5},{"trial_n":37,"span":6,"encoder":"052862","distractor":"059862","target":"present","response":"present","rt":"4167.1999999881","correct":true,"confidence":3},{"trial_n":38,"span":7,"encoder":"3796778","distractor":"3796768","target":"present","response":"absent","rt":"2527.8999999762","correct":false,"confidence":4},{"trial_n":39,"span":6,"encoder":"959796","distractor":"959746","target":"absent","response":"absent","rt":"11491.599999964","correct":true,"confidence":3},{"trial_n":40,"span":6,"encoder":"126506","distractor":"126806","target":"present","response":"present","rt":"2566.1000000238","correct":true,"confidence":5},{"trial_n":41,"span":7,"encoder":"3179888","distractor":"9179888","target":"absent","response":"present","rt":"3205.9000000358","correct":false,"confidence":3},{"trial_n":42,"span":6,"encoder":"060275","distractor":"460275","target":"absent","response":"present","rt":"2438.1000000238","correct":false,"confidence":5},{"trial_n":43,"span":5,"encoder":"05222","distractor":"55222","target":"absent","response":"absent","rt":"3014.1999999881","correct":true,"confidence":5},{"trial_n":44,"span":5,"encoder":"87138","distractor":"87148","target":"absent","response":"absent","rt":"2468","correct":true,"confidence":5},{"trial_n":45,"span":6,"encoder":"201551","distractor":"201151","target":"absent","response":"absent","rt":"2814.7000000477","correct":true,"confidence":5},{"trial_n":46,"span":6,"encoder":"126093","distractor":"126063","target":"absent","response":"absent","rt":"2717.6999999881","correct":true,"confidence":5},{"trial_n":47,"span":7,"encoder":"6036417","distractor":"6036412","target":"present","response":"absent","rt":"4476.1000000238","correct":false,"confidence":4},{"trial_n":48,"span":6,"encoder":"537795","distractor":"537295","target":"present","response":"absent","rt":"3143.6999999881","correct":false,"confidence":3},{"trial_n":49,"span":5,"encoder":"56735","distractor":"56785","target":"present","response":"present","rt":"4290.6999999881","correct":true,"confidence":5},{"trial_n":50,"span":5,"encoder":"80550","distractor":"80560","target":"absent","response":"absent","rt":"3351.6999999881","correct":true,"confidence":4},{"trial_n":51,"span":6,"encoder":"200297","distractor":"200287","target":"absent","response":"absent","rt":"3028.3999999762","correct":true,"confidence":5},{"trial_n":52,"span":6,"encoder":"062507","distractor":"032507","target":"absent","response":"absent","rt":"2358.9000000358","correct":true,"confidence":4},{"trial_n":53,"span":7,"encoder":"0895156","distractor":"0892156","target":"absent","response":"absent","rt":"4408.5","correct":true,"confidence":3},{"trial_n":54,"span":7,"encoder":"7570399","distractor":"7170399","target":"absent","response":"absent","rt":"3765.2000000477","correct":true,"confidence":4},{"trial_n":55,"span":8,"encoder":"55405041","distractor":"57405041","target":"present","response":"present","rt":"3648.5","correct":true,"confidence":3},{"trial_n":56,"span":8,"encoder":"56008215","distractor":"56068215","target":"absent","response":"absent","rt":"4625.1999999881","correct":true,"confidence":3},{"trial_n":57,"span":9,"encoder":"848390210","distractor":"848290210","target":"present","response":"present","rt":"4708.6999999881","correct":true,"confidence":3},{"trial_n":58,"span":9,"encoder":"552140052","distractor":"852140052","target":"present","response":"present","rt":"6929.1000000238","correct":true,"confidence":4},{"trial_n":59,"span":10,"encoder":"8922681070","distractor":"9922681070","target":"present","response":"present","rt":"5069.7999999523","correct":true,"confidence":3},{"trial_n":60,"span":10,"encoder":"4760457704","distractor":"4660457704","target":"present","response":"present","rt":"5210.2000000477","correct":true,"confidence":2},{"trial_n":61,"span":11,"encoder":"07543106202","distractor":"07543406202","target":"present","response":"absent","rt":"7014.6999999881","correct":false,"confidence":2},{"trial_n":62,"span":10,"encoder":"3958015937","distractor":"3958015947","target":"present","response":"present","rt":"5335.8000000119","correct":true,"confidence":4},{"trial_n":63,"span":10,"encoder":"3876877742","distractor":"3876879742","target":"absent","response":"absent","rt":"4138.3000000119","correct":true,"confidence":4},{"trial_n":64,"span":11,"encoder":"41942796179","distractor":"41142796179","target":"absent","response":"present","rt":"8758","correct":false,"confidence":2},{"trial_n":65,"span":10,"encoder":"7455522545","distractor":"7455422545","target":"present","response":"present","rt":"4981.8000000119","correct":true,"confidence":4},{"trial_n":66,"span":10,"encoder":"3826951287","distractor":"3846951287","target":"absent","response":"absent","rt":"6099.4000000358","correct":true,"confidence":3},{"trial_n":67,"span":11,"encoder":"07992266340","distractor":"07992261340","target":"absent","response":"absent","rt":"4830.6999999881","correct":true,"confidence":4},{"trial_n":68,"span":11,"encoder":"02488817091","distractor":"03488817091","target":"absent","response":"present","rt":"5315.1000000238","correct":false,"confidence":3},{"trial_n":69,"span":10,"encoder":"0939623567","distractor":"3939623567","target":"present","response":"present","rt":"6492.6999999881","correct":true,"confidence":3},{"trial_n":70,"span":10,"encoder":"1494010968","distractor":"9494010968","target":"absent","response":"absent","rt":"9351.4000000358","correct":true,"confidence":3},{"trial_n":71,"span":8,"encoder":"44626130","distractor":"44626110","target":"present","response":"present","rt":"5809.3999999762","correct":true,"confidence":-1},{"trial_n":72,"span":8,"encoder":"99271206","distractor":"99279206","target":"present","response":"present","rt":"5303.5999999642","correct":true,"confidence":-1},{"trial_n":73,"span":9,"encoder":"970932151","distractor":"977932151","target":"absent","response":"absent","rt":"3618.5","correct":true,"confidence":-1},{"trial_n":74,"span":9,"encoder":"898391646","distractor":"898391656","target":"absent","response":"absent","rt":"6047.3999999762","correct":true,"confidence":-1},{"trial_n":75,"span":10,"encoder":"2895642661","distractor":"2895642861","target":"present","response":"present","rt":"5640.1999999881","correct":true,"confidence":-1},{"trial_n":76,"span":10,"encoder":"4999389595","distractor":"4999389591","target":"present","response":"present","rt":"11461.300000012","correct":true,"confidence":-1},{"trial_n":77,"span":11,"encoder":"59280809745","distractor":"59220809745","target":"absent","response":"present","rt":"3644.0999999642","correct":false,"confidence":-1},{"trial_n":78,"span":10,"encoder":"8806126982","distractor":"4806126982","target":"absent","response":"absent","rt":"7041","correct":true,"confidence":-1},{"trial_n":79,"span":10,"encoder":"1492394083","distractor":"1492394085","target":"absent","response":"absent","rt":"5255.6999999881","correct":true,"confidence":-1},{"trial_n":80,"span":11,"encoder":"35051284988","distractor":"55051284988","target":"absent","response":"absent","rt":"10423.400000036","correct":true,"confidence":-1},{"trial_n":81,"span":11,"encoder":"77241826990","distractor":"77241827990","target":"present","response":"present","rt":"3187.8999999762","correct":true,"confidence":-1},{"trial_n":82,"span":12,"encoder":"177861021788","distractor":"177861028788","target":"present","response":"absent","rt":"4592.5","correct":false,"confidence":-1},{"trial_n":83,"span":11,"encoder":"13579501360","distractor":"13579301360","target":"absent","response":"present","rt":"7917.5","correct":false,"confidence":-1},{"trial_n":84,"span":10,"encoder":"1829470291","distractor":"1829470791","target":"absent","response":"absent","rt":"3759.8000000119","correct":true,"confidence":-1},{"trial_n":85,"span":10,"encoder":"2359827658","distractor":"1359827658","target":"present","response":"present","rt":"1993.6999999881","correct":true,"confidence":-1},{"trial_n":86,"span":11,"encoder":"89754704486","distractor":"89704704486","target":"present","response":"present","rt":"5963.7999999523","correct":true,"confidence":-1},{"trial_n":87,"span":11,"encoder":"73462719881","distractor":"73462719581","target":"absent","response":"absent","rt":"4356.4000000358","correct":true,"confidence":-1},{"trial_n":88,"span":12,"encoder":"058652332884","distractor":"058652332888","target":"present","response":"present","rt":"2697.0999999642","correct":true,"confidence":-1},{"trial_n":89,"span":12,"encoder":"092571954742","distractor":"012571954742","target":"absent","response":"present","rt":"3387.2000000477","correct":false,"confidence":-1},{"trial_n":90,"span":11,"encoder":"72270212074","distractor":"72270212574","target":"absent","response":"absent","rt":"11486.5","correct":true,"confidence":-1},{"trial_n":91,"span":11,"encoder":"82387461068","distractor":"62387461068","target":"absent","response":"absent","rt":"2207.6000000238","correct":true,"confidence":5},{"trial_n":92,"span":12,"encoder":"916969335754","distractor":"913969335754","target":"present","response":"present","rt":"16189.199999988","correct":true,"confidence":4},{"trial_n":93,"span":12,"encoder":"656786684178","distractor":"656776684178","target":"present","response":"absent","rt":"8685.3000000119","correct":false,"confidence":2},{"trial_n":94,"span":11,"encoder":"50014092843","distractor":"50414092843","target":"present","response":"present","rt":"2473.5999999642","correct":true,"confidence":3},{"trial_n":95,"span":11,"encoder":"90020124292","distractor":"90020124242","target":"absent","response":"absent","rt":"6291.1999999881","correct":true,"confidence":3},{"trial_n":96,"span":12,"encoder":"121515676745","distractor":"121515672745","target":"absent","response":"absent","rt":"10463.400000036","correct":true,"confidence":2},{"trial_n":97,"span":12,"encoder":"502807876944","distractor":"502807876942","target":"present","response":"present","rt":"5014.6000000238","correct":true,"confidence":5},{"trial_n":98,"span":13,"encoder":"3873586475111","distractor":"3873586575111","target":"absent","response":"present","rt":"10470.100000024","correct":false,"confidence":1},{"trial_n":99,"span":12,"encoder":"743300849718","distractor":"943300849718","target":"present","response":"present","rt":"10412","correct":true,"confidence":2},{"trial_n":100,"span":12,"encoder":"761969717702","distractor":"761269717702","target":"present","response":"present","rt":"7872.8000000119","correct":true,"confidence":3},{"trial_n":101,"span":13,"encoder":"8178968665955","distractor":"8178967665955","target":"present","response":"present","rt":"6493.5","correct":true,"confidence":3},{"trial_n":102,"span":13,"encoder":"6039929833548","distractor":"6039929833547","target":"present","response":"absent","rt":"6765.1999999881","correct":false,"confidence":4},{"trial_n":103,"span":12,"encoder":"788514602311","distractor":"788511602311","target":"present","response":"present","rt":"5303.4000000358","correct":true,"confidence":3},{"trial_n":104,"span":12,"encoder":"278379172811","distractor":"278379172511","target":"present","response":"present","rt":"6657.5","correct":true,"confidence":3},{"trial_n":105,"span":13,"encoder":"4556136298981","distractor":"4556138298981","target":"present","response":"absent","rt":"12456.800000012","correct":false,"confidence":1},{"trial_n":106,"span":12,"encoder":"130737826706","distractor":"130739826706","target":"present","response":"present","rt":"11628.100000024","correct":true,"confidence":3},{"trial_n":107,"span":12,"encoder":"040859383874","distractor":"040959383874","target":"absent","response":"absent","rt":"15682.200000048","correct":true,"confidence":1},{"trial_n":108,"span":13,"encoder":"0766960491841","distractor":"0763960491841","target":"absent","response":"absent","rt":"11523.599999964","correct":true,"confidence":3},{"trial_n":109,"span":13,"encoder":"4216000770582","distractor":"4216000770512","target":"present","response":"present","rt":"7189.8000000119","correct":true,"confidence":2},{"trial_n":110,"span":14,"encoder":"67003855192106","distractor":"67003855592106","target":"absent","response":"absent","rt":"11446.899999976","correct":true,"confidence":2},{"trial_n":111,"span":14,"encoder":"38050226172780","distractor":"38050226472780","target":"present","response":"absent","rt":"8526","correct":false,"confidence":3},{"trial_n":112,"span":13,"encoder":"9925283460843","distractor":"9925283430843","target":"absent","response":"present","rt":"18399","correct":false,"confidence":3},{"trial_n":113,"span":12,"encoder":"419092681352","distractor":"419092641352","target":"absent","response":"present","rt":"14305.899999976","correct":false,"confidence":3},{"trial_n":114,"span":11,"encoder":"91747435935","distractor":"91847435935","target":"present","response":"present","rt":"8040.5","correct":true,"confidence":2},{"trial_n":115,"span":11,"encoder":"85383210548","distractor":"85383210148","target":"present","response":"present","rt":"10059.199999988","correct":true,"confidence":2},{"trial_n":116,"span":12,"encoder":"911730390704","distractor":"911330390704","target":"absent","response":"absent","rt":"8867.9000000358","correct":true,"confidence":3},{"trial_n":117,"span":12,"encoder":"794969864133","distractor":"794669864133","target":"absent","response":"absent","rt":"19029.800000012","correct":true,"confidence":2},{"trial_n":118,"span":13,"encoder":"5593319968224","distractor":"5593319968824","target":"absent","response":"absent","rt":"15460.899999976","correct":true,"confidence":2},{"trial_n":119,"span":13,"encoder":"9474195191268","distractor":"9474195191248","target":"present","response":"present","rt":"4733.3999999762","correct":true,"confidence":4},{"trial_n":120,"span":14,"encoder":"98842680496869","distractor":"98842680492869","target":"present","response":"present","rt":"18051","correct":true,"confidence":1},{"trial_n":121,"span":14,"encoder":"29194919892620","distractor":"29194919802620","target":"absent","response":"present","rt":"23350.699999988","correct":false,"confidence":3},{"trial_n":122,"span":13,"encoder":"8394519263498","distractor":"8394519263598","target":"present","response":"absent","rt":"14193","correct":false,"confidence":3},{"trial_n":123,"span":12,"encoder":"964481414560","distractor":"964481414960","target":"absent","response":"present","rt":"8247.5","correct":false,"confidence":3},{"trial_n":124,"span":11,"encoder":"11103153204","distractor":"11103159204","target":"absent","response":"absent","rt":"5685.0999999642","correct":true,"confidence":4},{"trial_n":125,"span":11,"encoder":"33074516748","distractor":"33074516746","target":"present","response":"absent","rt":"13390.699999988","correct":false,"confidence":3},{"trial_n":126,"span":10,"encoder":"4529524642","distractor":"4529524649","target":"present","response":"present","rt":"9398.9000000358","correct":true,"confidence":3},{"trial_n":127,"span":10,"encoder":"3362553437","distractor":"3162553437","target":"absent","response":"absent","rt":"3953.5","correct":true,"confidence":3},{"trial_n":128,"span":11,"encoder":"87624209671","distractor":"87524209671","target":"absent","response":"absent","rt":"12815.899999976","correct":true,"confidence":3},{"trial_n":129,"span":11,"encoder":"16081513039","distractor":"16085513039","target":"present","response":"absent","rt":"9275.9000000358","correct":false,"confidence":2},{"trial_n":130,"span":10,"encoder":"0659094667","distractor":"0659894667","target":"present","response":"present","rt":"4192","correct":true,"confidence":4},{"trial_n":131,"span":10,"encoder":"3441524894","distractor":"3441524898","target":"absent","response":"absent","rt":"6351.4000000358","correct":true,"confidence":4},{"trial_n":132,"span":11,"encoder":"24453661219","distractor":"24453667219","target":"present","response":"absent","rt":"8719","correct":false,"confidence":3},{"trial_n":133,"span":10,"encoder":"8464513735","distractor":"8064513735","target":"absent","response":"absent","rt":"4409.8000000119","correct":true,"confidence":4},{"trial_n":134,"span":10,"encoder":"4546979741","distractor":"4546979751","target":"absent","response":"absent","rt":"9243.5","correct":true,"confidence":3},{"trial_n":135,"span":11,"encoder":"18247605992","distractor":"18247606992","target":"present","response":"present","rt":"5455.8000000119","correct":true,"confidence":2},{"trial_n":136,"span":11,"encoder":"81180646589","distractor":"81186646589","target":"present","response":"absent","rt":"7543.5","correct":false,"confidence":3},{"trial_n":137,"span":10,"encoder":"7098930327","distractor":"7098931327","target":"absent","response":"absent","rt":"4725.6999999881","correct":true,"confidence":4},{"trial_n":138,"span":10,"encoder":"0607161209","distractor":"0607166209","target":"absent","response":"present","rt":"19373.900000036","correct":false,"confidence":3},{"trial_n":139,"span":9,"encoder":"408929559","distractor":"408929059","target":"absent","response":"absent","rt":"3361.6999999881","correct":true,"confidence":4},{"trial_n":140,"span":9,"encoder":"870480786","distractor":"570480786","target":"present","response":"absent","rt":"7071.6999999881","correct":false,"confidence":2}]