[{"trial_n":1,"n_dots":4.25,"target":"right","response":"left","rt":3212.0999999996,"correct":false,"confidence":-1},{"trial_n":2,"n_dots":4.25,"target":"left","response":"left","rt":611.19999999972,"correct":true,"confidence":-1},{"trial_n":3,"n_dots":4.25,"target":"left","response":"left","rt":364.39999999991,"correct":true,"confidence":-1},{"trial_n":4,"n_dots":3.85,"target":"right","response":"right","rt":378.20000000019,"correct":true,"confidence":-1},{"trial_n":5,"n_dots":3.85,"target":"left","response":"right","rt":10,"correct":false,"confidence":-1},{"trial_n":6,"n_dots":4.25,"target":"left","response":"left","rt":122.90000000037,"correct":true,"confidence":-1},{"trial_n":7,"n_dots":4.25,"target":"left","response":"right","rt":72.399999999907,"correct":false,"confidence":-1},{"trial_n":8,"n_dots":4.45,"target":"left","response":"left","rt":44.700000000186,"correct":true,"confidence":-1},{"trial_n":9,"n_dots":4.45,"target":"left","response":"left","rt":45.799999999814,"correct":true,"confidence":-1},{"trial_n":10,"n_dots":4.25,"target":"left","response":"left","rt":176.10000000009,"correct":true,"confidence":-1},{"trial_n":11,"n_dots":4.25,"target":"right","response":"right","rt":19.199999999721,"correct":true,"confidence":-1},{"trial_n":12,"n_dots":4.05,"target":"right","response":"right","rt":35.599999999627,"correct":true,"confidence":-1},{"trial_n":13,"n_dots":4.05,"target":"right","response":"right","rt":40.799999999814,"correct":true,"confidence":-1},{"trial_n":14,"n_dots":3.95,"target":"right","response":"right","rt":66.399999999907,"correct":true,"confidence":-1},{"trial_n":15,"n_dots":3.95,"target":"right","response":"right","rt":31.700000000186,"correct":true,"confidence":-1},{"trial_n":16,"n_dots":3.85,"target":"left","response":"left","rt":139.79999999981,"correct":true,"confidence":-1},{"trial_n":17,"n_dots":3.85,"target":"right","response":"right","rt":5.8000000002794,"correct":true,"confidence":-1},{"trial_n":18,"n_dots":3.75,"target":"right","response":"right","rt":14.599999999627,"correct":true,"confidence":-1},{"trial_n":19,"n_dots":3.75,"target":"left","response":"left","rt":26.100000000093,"correct":true,"confidence":-1},{"trial_n":20,"n_dots":3.65,"target":"right","response":"right","rt":4.9000000003725,"correct":true,"confidence":-1},{"trial_n":21,"n_dots":3.65,"target":"right","response":"left","rt":115.5,"correct":false,"confidence":1},{"trial_n":22,"n_dots":3.75,"target":"left","response":"right","rt":71,"correct":false,"confidence":1},{"trial_n":23,"n_dots":3.85,"target":"right","response":"left","rt":5.3999999999069,"correct":false,"confidence":1},{"trial_n":24,"n_dots":3.95,"target":"right","response":"right","rt":75.399999999907,"correct":true,"confidence":1},{"trial_n":25,"n_dots":3.95,"target":"left","response":"right","rt":33.199999999721,"correct":false,"confidence":1},{"trial_n":26,"n_dots":4.05,"target":"left","response":"right","rt":117.60000000009,"correct":false,"confidence":1},{"trial_n":27,"n_dots":4.15,"target":"right","response":"left","rt":178.89999999991,"correct":false,"confidence":1},{"trial_n":28,"n_dots":4.25,"target":"right","response":"left","rt":27.199999999721,"correct":false,"confidence":1},{"trial_n":29,"n_dots":4.35,"target":"left","response":"left","rt":114.80000000028,"correct":true,"confidence":1},{"trial_n":30,"n_dots":4.35,"target":"left","response":"right","rt":120.89999999991,"correct":false,"confidence":1},{"trial_n":31,"n_dots":4.45,"target":"left","response":"right","rt":2.3999999999069,"correct":false,"confidence":1},{"trial_n":32,"n_dots":4.55,"target":"left","response":"left","rt":0.39999999990687,"correct":true,"confidence":1},{"trial_n":33,"n_dots":4.55,"target":"left","response":"right","rt":11,"correct":false,"confidence":1},{"trial_n":34,"n_dots":4.65,"target":"right","response":"left","rt":73.299999999814,"correct":false,"confidence":1},{"trial_n":35,"n_dots":4.75,"target":"right","response":"left","rt":45.899999999907,"correct":false,"confidence":1},{"trial_n":36,"n_dots":4.85,"target":"left","response":"right","rt":81,"correct":false,"confidence":1},{"trial_n":37,"n_dots":4.95,"target":"right","response":"left","rt":82.399999999907,"correct":false,"confidence":1},{"trial_n":38,"n_dots":5.05,"target":"left","response":"left","rt":80.799999999814,"correct":true,"confidence":1},{"trial_n":39,"n_dots":5.05,"target":"left","response":"right","rt":33.100000000093,"correct":false,"confidence":1},{"trial_n":40,"n_dots":5.15,"target":"right","response":"right","rt":1.7000000001863,"correct":true,"confidence":1},{"trial_n":41,"n_dots":5.15,"target":"left","response":"left","rt":24.600000000093,"correct":true,"confidence":1},{"trial_n":42,"n_dots":5.05,"target":"left","response":"left","rt":131.60000000009,"correct":true,"confidence":1},{"trial_n":43,"n_dots":5.05,"target":"right","response":"left","rt":76.399999999907,"correct":false,"confidence":1},{"trial_n":44,"n_dots":5.15,"target":"left","response":"right","rt":106.5,"correct":false,"confidence":1},{"trial_n":45,"n_dots":5.25,"target":"left","response":"right","rt":167.89999999991,"correct":false,"confidence":1},{"trial_n":46,"n_dots":5.35,"target":"right","response":"left","rt":118.09999999963,"correct":false,"confidence":1},{"trial_n":47,"n_dots":5.45,"target":"left","response":"left","rt":17.299999999814,"correct":true,"confidence":1},{"trial_n":48,"n_dots":5.45,"target":"left","response":"left","rt":197.19999999972,"correct":true,"confidence":1},{"trial_n":49,"n_dots":5.35,"target":"left","response":"left","rt":100.10000000009,"correct":true,"confidence":1},{"trial_n":50,"n_dots":5.35,"target":"right","response":"right","rt":132.89999999991,"correct":true,"confidence":1},{"trial_n":51,"n_dots":5.25,"target":"right","response":"left","rt":85.099999999627,"correct":false,"confidence":1},{"trial_n":52,"n_dots":5.35,"target":"left","response":"left","rt":131.40000000037,"correct":true,"confidence":1},{"trial_n":53,"n_dots":5.35,"target":"right","response":"left","rt":128.69999999972,"correct":false,"confidence":1},{"trial_n":54,"n_dots":5.45,"target":"right","response":"right","rt":47.299999999814,"correct":true,"confidence":1},{"trial_n":55,"n_dots":5.45,"target":"right","response":"right","rt":107.10000000009,"correct":true,"confidence":1},{"trial_n":56,"n_dots":5.35,"target":"right","response":"right","rt":63.899999999907,"correct":true,"confidence":1},{"trial_n":57,"n_dots":5.35,"target":"left","response":"left","rt":38.299999999814,"correct":true,"confidence":1},{"trial_n":58,"n_dots":5.25,"target":"left","response":"right","rt":167.5,"correct":false,"confidence":1},{"trial_n":59,"n_dots":5.35,"target":"right","response":"right","rt":16.199999999721,"correct":true,"confidence":1},{"trial_n":60,"n_dots":5.35,"target":"right","response":"left","rt":45.699999999721,"correct":false,"confidence":1},{"trial_n":61,"n_dots":5.45,"target":"right","response":"right","rt":108.89999999991,"correct":true,"confidence":1},{"trial_n":62,"n_dots":5.45,"target":"right","response":"left","rt":27,"correct":false,"confidence":1},{"trial_n":63,"n_dots":5.55,"target":"left","response":"left","rt":170.60000000009,"correct":true,"confidence":1},{"trial_n":64,"n_dots":5.55,"target":"right","response":"right","rt":62.5,"correct":true,"confidence":1},{"trial_n":65,"n_dots":5.45,"target":"left","response":"right","rt":50.600000000093,"correct":false,"confidence":1},{"trial_n":66,"n_dots":5.55,"target":"left","response":"right","rt":43.399999999907,"correct":false,"confidence":1},{"trial_n":67,"n_dots":5.65,"target":"right","response":"right","rt":69.800000000279,"correct":true,"confidence":1},{"trial_n":68,"n_dots":5.65,"target":"left","response":"right","rt":1.6000000000931,"correct":false,"confidence":1},{"trial_n":69,"n_dots":5.743,"target":"right","response":"left","rt":174.80000000028,"correct":false,"confidence":1},{"trial_n":70,"n_dots":5.743,"target":"left","response":"right","rt":17.800000000279,"correct":false,"confidence":1},{"trial_n":71,"n_dots":5.743,"target":"right","response":"right","rt":8.6000000000931,"correct":true,"confidence":1},{"trial_n":72,"n_dots":5.743,"target":"left","response":"right","rt":48.100000000093,"correct":false,"confidence":1},{"trial_n":73,"n_dots":5.743,"target":"left","response":"right","rt":136.5,"correct":false,"confidence":1},{"trial_n":74,"n_dots":5.743,"target":"right","response":"right","rt":99,"correct":true,"confidence":1},{"trial_n":75,"n_dots":5.743,"target":"right","response":"left","rt":25.899999999907,"correct":false,"confidence":1},{"trial_n":76,"n_dots":5.743,"target":"left","response":"left","rt":24.100000000093,"correct":true,"confidence":1},{"trial_n":77,"n_dots":5.743,"target":"left","response":"right","rt":59,"correct":false,"confidence":1},{"trial_n":78,"n_dots":5.743,"target":"right","response":"right","rt":58.700000000186,"correct":true,"confidence":1},{"trial_n":79,"n_dots":5.743,"target":"left","response":"left","rt":57.700000000186,"correct":true,"confidence":1},{"trial_n":80,"n_dots":5.643,"target":"right","response":"left","rt":40.100000000093,"correct":false,"confidence":1},{"trial_n":81,"n_dots":5.743,"target":"left","response":"left","rt":52.100000000093,"correct":true,"confidence":1},{"trial_n":82,"n_dots":5.743,"target":"right","response":"left","rt":114.60000000009,"correct":false,"confidence":1},{"trial_n":83,"n_dots":5.743,"target":"left","response":"left","rt":146.10000000009,"correct":true,"confidence":1},{"trial_n":84,"n_dots":5.743,"target":"right","response":"right","rt":2.5,"correct":true,"confidence":1},{"trial_n":85,"n_dots":5.643,"target":"right","response":"right","rt":178.79999999981,"correct":true,"confidence":1},{"trial_n":86,"n_dots":5.643,"target":"right","response":"right","rt":22.099999999627,"correct":true,"confidence":1},{"trial_n":87,"n_dots":5.543,"target":"left","response":"left","rt":157.29999999981,"correct":true,"confidence":1},{"trial_n":88,"n_dots":5.543,"target":"left","response":"right","rt":41.800000000279,"correct":false,"confidence":1},{"trial_n":89,"n_dots":5.643,"target":"left","response":"left","rt":47.5,"correct":true,"confidence":1},{"trial_n":90,"n_dots":5.643,"target":"right","response":"left","rt":8.2999999998137,"correct":false,"confidence":1},{"trial_n":91,"n_dots":5.743,"target":"left","response":"right","rt":62,"correct":false,"confidence":1},{"trial_n":92,"n_dots":5.743,"target":"left","response":"right","rt":53.5,"correct":false,"confidence":1},{"trial_n":93,"n_dots":5.743,"target":"right","response":"left","rt":51.399999999907,"correct":false,"confidence":1},{"trial_n":94,"n_dots":5.743,"target":"right","response":"right","rt":58.100000000093,"correct":true,"confidence":1},{"trial_n":95,"n_dots":5.743,"target":"left","response":"right","rt":69,"correct":false,"confidence":1},{"trial_n":96,"n_dots":5.743,"target":"left","response":"right","rt":75,"correct":false,"confidence":1},{"trial_n":97,"n_dots":5.743,"target":"left","response":"right","rt":67.599999999627,"correct":false,"confidence":1},{"trial_n":98,"n_dots":5.743,"target":"left","response":"left","rt":68.300000000279,"correct":true,"confidence":1},{"trial_n":99,"n_dots":5.743,"target":"left","response":"left","rt":99.5,"correct":true,"confidence":1},{"trial_n":100,"n_dots":5.643,"target":"right","response":"left","rt":159.39999999991,"correct":false,"confidence":1},{"trial_n":101,"n_dots":5.743,"target":"left","response":"left","rt":54.900000000373,"correct":true,"confidence":1},{"trial_n":102,"n_dots":5.743,"target":"right","response":"right","rt":20.299999999814,"correct":true,"confidence":1},{"trial_n":103,"n_dots":5.643,"target":"right","response":"left","rt":39.599999999627,"correct":false,"confidence":1},{"trial_n":104,"n_dots":5.743,"target":"right","response":"right","rt":48.100000000093,"correct":true,"confidence":1},{"trial_n":105,"n_dots":5.743,"target":"right","response":"left","rt":45.799999999814,"correct":false,"confidence":1},{"trial_n":106,"n_dots":5.743,"target":"right","response":"left","rt":23,"correct":false,"confidence":1},{"trial_n":107,"n_dots":5.743,"target":"right","response":"left","rt":186.69999999972,"correct":false,"confidence":1},{"trial_n":108,"n_dots":5.743,"target":"right","response":"right","rt":124.80000000028,"correct":true,"confidence":1},{"trial_n":109,"n_dots":5.743,"target":"right","response":"right","rt":119,"correct":true,"confidence":1},{"trial_n":110,"n_dots":5.643,"target":"left","response":"right","rt":53.5,"correct":false,"confidence":1},{"trial_n":111,"n_dots":5.743,"target":"left","response":"right","rt":70.5,"correct":false,"confidence":1},{"trial_n":112,"n_dots":5.743,"target":"left","response":"left","rt":147.29999999981,"correct":true,"confidence":1},{"trial_n":113,"n_dots":5.743,"target":"right","response":"left","rt":78.5,"correct":false,"confidence":1},{"trial_n":114,"n_dots":5.743,"target":"right","response":"right","rt":170.10000000009,"correct":true,"confidence":1},{"trial_n":115,"n_dots":5.743,"target":"right","response":"left","rt":94.5,"correct":false,"confidence":1},{"trial_n":116,"n_dots":5.743,"target":"right","response":"left","rt":24.200000000186,"correct":false,"confidence":1},{"trial_n":117,"n_dots":5.743,"target":"left","response":"left","rt":100.29999999981,"correct":true,"confidence":1},{"trial_n":118,"n_dots":5.743,"target":"right","response":"left","rt":65.300000000279,"correct":false,"confidence":1},{"trial_n":119,"n_dots":5.743,"target":"left","response":"left","rt":48.400000000373,"correct":true,"confidence":1},{"trial_n":120,"n_dots":5.743,"target":"left","response":"left","rt":66.5,"correct":true,"confidence":1}]