[{"trial_n":1,"span":8,"encoder":"02623576","distractor":"02623506","target":"present","response":"present","rt":"4367.9000000004","correct":true,"confidence":-1},{"trial_n":2,"span":8,"encoder":"24108001","distractor":"24106001","target":"present","response":"present","rt":"126","correct":true,"confidence":-1},{"trial_n":3,"span":10,"encoder":"0283486529","distractor":"0283426529","target":"absent","response":"absent","rt":"233.40000000037","correct":true,"confidence":-1},{"trial_n":4,"span":10,"encoder":"4122505819","distractor":"4162505819","target":"absent","response":"absent","rt":"584.70000000019","correct":true,"confidence":-1},{"trial_n":5,"span":12,"encoder":"294993873663","distractor":"894993873663","target":"present","response":"absent","rt":"915.39999999991","correct":false,"confidence":-1},{"trial_n":6,"span":10,"encoder":"9571906799","distractor":"9571906779","target":"present","response":"absent","rt":"132.90000000037","correct":false,"confidence":-1},{"trial_n":7,"span":8,"encoder":"02678848","distractor":"52678848","target":"present","response":"absent","rt":"366.79999999981","correct":false,"confidence":-1},{"trial_n":8,"span":6,"encoder":"894685","distractor":"894682","target":"absent","response":"absent","rt":"3795.3999999999","correct":true,"confidence":-1},{"trial_n":9,"span":6,"encoder":"514623","distractor":"516623","target":"absent","response":"present","rt":"880.80000000028","correct":false,"confidence":-1},{"trial_n":10,"span":4,"encoder":"0577","distractor":"1577","target":"absent","response":"present","rt":"3121.0999999996","correct":false,"confidence":-1},{"trial_n":11,"span":2,"encoder":"29","distractor":"59","target":"absent","response":"absent","rt":"539.5","correct":true,"confidence":-1},{"trial_n":12,"span":2,"encoder":"12","distractor":"18","target":"absent","response":"absent","rt":"869.89999999991","correct":true,"confidence":-1},{"trial_n":13,"span":3,"encoder":"784","distractor":"774","target":"absent","response":"present","rt":"1924.8000000003","correct":false,"confidence":-1},{"trial_n":14,"span":2,"encoder":"06","distractor":"03","target":"present","response":"absent","rt":"7160.8999999999","correct":false,"confidence":-1},{"trial_n":15,"span":2,"encoder":"05","distractor":"15","target":"present","response":"present","rt":"17963","correct":true,"confidence":-1},{"trial_n":16,"span":2,"encoder":"92","distractor":"98","target":"present","response":"absent","rt":"8865.5","correct":false,"confidence":-1},{"trial_n":17,"span":2,"encoder":"25","distractor":"26","target":"present","response":"present","rt":"232.39999999991","correct":true,"confidence":-1},{"trial_n":18,"span":2,"encoder":"82","distractor":"12","target":"present","response":"present","rt":"112.19999999972","correct":true,"confidence":-1},{"trial_n":19,"span":3,"encoder":"912","distractor":"914","target":"present","response":"absent","rt":"128.20000000019","correct":false,"confidence":-1},{"trial_n":20,"span":2,"encoder":"02","distractor":"32","target":"absent","response":"present","rt":"12.699999999721","correct":false,"confidence":-1},{"trial_n":21,"span":2,"encoder":"68","distractor":"60","target":"present","response":"absent","rt":"604","correct":false,"confidence":3},{"trial_n":22,"span":2,"encoder":"08","distractor":"48","target":"present","response":"present","rt":"900.89999999991","correct":true,"confidence":1},{"trial_n":23,"span":2,"encoder":"70","distractor":"10","target":"absent","response":"present","rt":"295.5","correct":false,"confidence":2},{"trial_n":24,"span":2,"encoder":"49","distractor":"44","target":"absent","response":"absent","rt":"306.60000000009","correct":true,"confidence":3},{"trial_n":25,"span":2,"encoder":"89","distractor":"83","target":"absent","response":"present","rt":"76.199999999721","correct":false,"confidence":1},{"trial_n":26,"span":2,"encoder":"56","distractor":"58","target":"present","response":"absent","rt":"58.900000000373","correct":false,"confidence":1},{"trial_n":27,"span":2,"encoder":"10","distractor":"70","target":"present","response":"absent","rt":"62.399999999907","correct":false,"confidence":3},{"trial_n":28,"span":2,"encoder":"90","distractor":"95","target":"present","response":"absent","rt":"749.20000000019","correct":false,"confidence":5},{"trial_n":29,"span":2,"encoder":"79","distractor":"99","target":"present","response":"absent","rt":"262.5","correct":false,"confidence":4},{"trial_n":30,"span":2,"encoder":"77","distractor":"57","target":"absent","response":"absent","rt":"347.20000000019","correct":true,"confidence":5},{"trial_n":31,"span":2,"encoder":"36","distractor":"66","target":"absent","response":"absent","rt":"351.69999999972","correct":true,"confidence":2},{"trial_n":32,"span":3,"encoder":"226","distractor":"256","target":"absent","response":"absent","rt":"80","correct":true,"confidence":4},{"trial_n":33,"span":3,"encoder":"144","distractor":"164","target":"present","response":"absent","rt":"426.69999999972","correct":false,"confidence":2},{"trial_n":34,"span":2,"encoder":"52","distractor":"42","target":"present","response":"present","rt":"685.5","correct":true,"confidence":2},{"trial_n":35,"span":2,"encoder":"68","distractor":"69","target":"absent","response":"absent","rt":"792.10000000009","correct":true,"confidence":5},{"trial_n":36,"span":3,"encoder":"588","distractor":"528","target":"absent","response":"present","rt":"290.5","correct":false,"confidence":4},{"trial_n":37,"span":2,"encoder":"90","distractor":"91","target":"absent","response":"absent","rt":"814.39999999991","correct":true,"confidence":3},{"trial_n":38,"span":2,"encoder":"09","distractor":"19","target":"present","response":"absent","rt":"1107.2999999998","correct":false,"confidence":5},{"trial_n":39,"span":2,"encoder":"03","distractor":"43","target":"present","response":"absent","rt":"388.10000000009","correct":false,"confidence":1},{"trial_n":40,"span":2,"encoder":"52","distractor":"51","target":"absent","response":"absent","rt":"646.80000000028","correct":true,"confidence":3},{"trial_n":41,"span":2,"encoder":"30","distractor":"20","target":"present","response":"absent","rt":"234.89999999991","correct":false,"confidence":3},{"trial_n":42,"span":2,"encoder":"38","distractor":"32","target":"absent","response":"absent","rt":"316.69999999972","correct":true,"confidence":4},{"trial_n":43,"span":2,"encoder":"88","distractor":"08","target":"absent","response":"present","rt":"29.800000000279","correct":false,"confidence":3},{"trial_n":44,"span":2,"encoder":"19","distractor":"89","target":"absent","response":"absent","rt":"34.200000000186","correct":true,"confidence":5},{"trial_n":45,"span":2,"encoder":"27","distractor":"17","target":"absent","response":"absent","rt":"185.20000000019","correct":true,"confidence":3},{"trial_n":46,"span":3,"encoder":"468","distractor":"968","target":"absent","response":"present","rt":"777.29999999981","correct":false,"confidence":2},{"trial_n":47,"span":2,"encoder":"89","distractor":"79","target":"present","response":"absent","rt":"491.30000000028","correct":false,"confidence":4},{"trial_n":48,"span":2,"encoder":"86","distractor":"89","target":"absent","response":"present","rt":"290.89999999991","correct":false,"confidence":4},{"trial_n":49,"span":2,"encoder":"40","distractor":"41","target":"absent","response":"absent","rt":"9305.7999999998","correct":true,"confidence":3},{"trial_n":50,"span":2,"encoder":"20","distractor":"40","target":"present","response":"absent","rt":"207.10000000009","correct":false,"confidence":5},{"trial_n":51,"span":2,"encoder":"91","distractor":"21","target":"absent","response":"absent","rt":"413.70000000019","correct":true,"confidence":5},{"trial_n":52,"span":2,"encoder":"72","distractor":"32","target":"present","response":"present","rt":"128.5","correct":true,"confidence":3},{"trial_n":53,"span":3,"encoder":"057","distractor":"053","target":"absent","response":"absent","rt":"330.20000000019","correct":true,"confidence":1},{"trial_n":54,"span":3,"encoder":"855","distractor":"865","target":"absent","response":"absent","rt":"542.69999999972","correct":true,"confidence":4},{"trial_n":55,"span":4,"encoder":"3292","distractor":"3262","target":"absent","response":"absent","rt":"691.19999999972","correct":true,"confidence":5},{"trial_n":56,"span":4,"encoder":"3944","distractor":"3943","target":"present","response":"present","rt":"402.80000000028","correct":true,"confidence":3},{"trial_n":57,"span":5,"encoder":"50350","distractor":"50357","target":"present","response":"absent","rt":"476.59999999963","correct":false,"confidence":5},{"trial_n":58,"span":4,"encoder":"2337","distractor":"2327","target":"present","response":"absent","rt":"2924","correct":false,"confidence":3},{"trial_n":59,"span":3,"encoder":"359","distractor":"354","target":"present","response":"absent","rt":"4312.1000000001","correct":false,"confidence":3},{"trial_n":60,"span":2,"encoder":"42","distractor":"02","target":"present","response":"present","rt":"983.29999999981","correct":true,"confidence":5},{"trial_n":61,"span":2,"encoder":"97","distractor":"91","target":"absent","response":"absent","rt":"408.5","correct":true,"confidence":3},{"trial_n":62,"span":3,"encoder":"881","distractor":"871","target":"present","response":"present","rt":"396.79999999981","correct":true,"confidence":1},{"trial_n":63,"span":3,"encoder":"520","distractor":"320","target":"present","response":"absent","rt":"406.60000000009","correct":false,"confidence":5},{"trial_n":64,"span":2,"encoder":"26","distractor":"86","target":"absent","response":"present","rt":"399.39999999991","correct":false,"confidence":3},{"trial_n":65,"span":2,"encoder":"55","distractor":"54","target":"present","response":"absent","rt":"377.5","correct":false,"confidence":5},{"trial_n":66,"span":2,"encoder":"71","distractor":"51","target":"present","response":"present","rt":"383","correct":true,"confidence":3},{"trial_n":67,"span":2,"encoder":"89","distractor":"86","target":"present","response":"absent","rt":"293","correct":false,"confidence":2},{"trial_n":68,"span":2,"encoder":"36","distractor":"33","target":"absent","response":"absent","rt":"432.20000000019","correct":true,"confidence":4},{"trial_n":69,"span":2,"encoder":"11","distractor":"19","target":"present","response":"present","rt":"302.80000000028","correct":true,"confidence":2},{"trial_n":70,"span":3,"encoder":"599","distractor":"399","target":"absent","response":"absent","rt":"391.20000000019","correct":true,"confidence":5},{"trial_n":71,"span":8,"encoder":"80221193","distractor":"80221093","target":"present","response":"absent","rt":"4072.0999999996","correct":false,"confidence":-1},{"trial_n":72,"span":7,"encoder":"2405703","distractor":"2400703","target":"present","response":"present","rt":"335","correct":true,"confidence":-1},{"trial_n":73,"span":7,"encoder":"4518228","distractor":"4510228","target":"absent","response":"present","rt":"55.199999999721","correct":false,"confidence":-1},{"trial_n":74,"span":6,"encoder":"992024","distractor":"993024","target":"absent","response":"absent","rt":"63.399999999907","correct":true,"confidence":-1},{"trial_n":75,"span":6,"encoder":"102620","distractor":"102640","target":"present","response":"present","rt":"19.200000000186","correct":true,"confidence":-1},{"trial_n":76,"span":7,"encoder":"0691993","distractor":"0651993","target":"present","response":"absent","rt":"74.599999999627","correct":false,"confidence":-1},{"trial_n":77,"span":6,"encoder":"434645","distractor":"434665","target":"absent","response":"present","rt":"49.599999999627","correct":false,"confidence":-1},{"trial_n":78,"span":5,"encoder":"67296","distractor":"67996","target":"absent","response":"present","rt":"175.20000000019","correct":false,"confidence":-1},{"trial_n":79,"span":4,"encoder":"5341","distractor":"5345","target":"absent","response":"present","rt":"30","correct":false,"confidence":-1},{"trial_n":80,"span":3,"encoder":"476","distractor":"436","target":"absent","response":"present","rt":"156","correct":false,"confidence":-1},{"trial_n":81,"span":2,"encoder":"33","distractor":"43","target":"present","response":"absent","rt":"86.899999999907","correct":false,"confidence":-1},{"trial_n":82,"span":2,"encoder":"71","distractor":"74","target":"present","response":"present","rt":"35.600000000093","correct":true,"confidence":-1},{"trial_n":83,"span":2,"encoder":"71","distractor":"73","target":"absent","response":"absent","rt":"57","correct":true,"confidence":-1},{"trial_n":84,"span":3,"encoder":"593","distractor":"596","target":"present","response":"present","rt":"156.10000000009","correct":true,"confidence":-1},{"trial_n":85,"span":3,"encoder":"744","distractor":"743","target":"present","response":"present","rt":"222.90000000037","correct":true,"confidence":-1},{"trial_n":86,"span":4,"encoder":"5642","distractor":"5632","target":"present","response":"present","rt":"4774.8000000003","correct":true,"confidence":-1},{"trial_n":87,"span":4,"encoder":"7576","distractor":"7546","target":"absent","response":"present","rt":"3076.1000000001","correct":false,"confidence":-1},{"trial_n":88,"span":3,"encoder":"020","distractor":"040","target":"present","response":"present","rt":"78.700000000186","correct":true,"confidence":-1},{"trial_n":89,"span":3,"encoder":"011","distractor":"010","target":"absent","response":"present","rt":"202.80000000028","correct":false,"confidence":-1},{"trial_n":90,"span":2,"encoder":"70","distractor":"10","target":"absent","response":"present","rt":"218.60000000009","correct":false,"confidence":-1},{"trial_n":91,"span":2,"encoder":"65","distractor":"66","target":"present","response":"present","rt":"415.29999999981","correct":true,"confidence":3},{"trial_n":92,"span":2,"encoder":"32","distractor":"39","target":"absent","response":"absent","rt":"12.399999999907","correct":true,"confidence":3},{"trial_n":93,"span":3,"encoder":"135","distractor":"035","target":"absent","response":"present","rt":"21.100000000093","correct":false,"confidence":1},{"trial_n":94,"span":2,"encoder":"86","distractor":"82","target":"present","response":"absent","rt":"36.700000000186","correct":false,"confidence":4},{"trial_n":95,"span":2,"encoder":"47","distractor":"42","target":"absent","response":"present","rt":"85.600000000093","correct":false,"confidence":2},{"trial_n":96,"span":2,"encoder":"94","distractor":"91","target":"present","response":"absent","rt":"636.29999999981","correct":false,"confidence":3},{"trial_n":97,"span":2,"encoder":"29","distractor":"59","target":"present","response":"absent","rt":"106.39999999991","correct":false,"confidence":3},{"trial_n":98,"span":2,"encoder":"75","distractor":"85","target":"present","response":"present","rt":"95.299999999814","correct":true,"confidence":1},{"trial_n":99,"span":2,"encoder":"92","distractor":"12","target":"present","response":"absent","rt":"62","correct":false,"confidence":2},{"trial_n":100,"span":2,"encoder":"39","distractor":"31","target":"absent","response":"absent","rt":"30.399999999907","correct":true,"confidence":5},{"trial_n":101,"span":2,"encoder":"96","distractor":"95","target":"absent","response":"absent","rt":"90.699999999721","correct":true,"confidence":1},{"trial_n":102,"span":3,"encoder":"763","distractor":"663","target":"absent","response":"present","rt":"30.800000000279","correct":false,"confidence":1},{"trial_n":103,"span":2,"encoder":"79","distractor":"39","target":"absent","response":"absent","rt":"39.800000000279","correct":true,"confidence":3},{"trial_n":104,"span":2,"encoder":"51","distractor":"41","target":"absent","response":"absent","rt":"58.699999999721","correct":true,"confidence":4},{"trial_n":105,"span":3,"encoder":"892","distractor":"882","target":"absent","response":"present","rt":"125.80000000028","correct":false,"confidence":3},{"trial_n":106,"span":2,"encoder":"85","distractor":"25","target":"present","response":"present","rt":"14.099999999627","correct":true,"confidence":3},{"trial_n":107,"span":2,"encoder":"98","distractor":"90","target":"present","response":"present","rt":"77.5","correct":true,"confidence":1},{"trial_n":108,"span":3,"encoder":"698","distractor":"638","target":"present","response":"absent","rt":"92.399999999907","correct":false,"confidence":5},{"trial_n":109,"span":2,"encoder":"06","distractor":"04","target":"present","response":"present","rt":"0.5","correct":true,"confidence":3},{"trial_n":110,"span":2,"encoder":"66","distractor":"65","target":"absent","response":"absent","rt":"31.899999999907","correct":true,"confidence":3},{"trial_n":111,"span":3,"encoder":"547","distractor":"747","target":"present","response":"present","rt":"45","correct":true,"confidence":3},{"trial_n":112,"span":3,"encoder":"278","distractor":"878","target":"absent","response":"absent","rt":"73.5","correct":true,"confidence":2},{"trial_n":113,"span":4,"encoder":"3647","distractor":"3247","target":"absent","response":"absent","rt":"1.1999999997206","correct":true,"confidence":5},{"trial_n":114,"span":4,"encoder":"7008","distractor":"7608","target":"absent","response":"absent","rt":"114.70000000019","correct":true,"confidence":4},{"trial_n":115,"span":5,"encoder":"04985","distractor":"04085","target":"absent","response":"absent","rt":"39.5","correct":true,"confidence":2},{"trial_n":116,"span":5,"encoder":"89607","distractor":"89207","target":"present","response":"present","rt":"22.300000000279","correct":true,"confidence":3},{"trial_n":117,"span":6,"encoder":"930644","distractor":"930624","target":"absent","response":"present","rt":"158.60000000009","correct":false,"confidence":3},{"trial_n":118,"span":5,"encoder":"28906","distractor":"24906","target":"absent","response":"present","rt":"111.79999999981","correct":false,"confidence":2},{"trial_n":119,"span":4,"encoder":"2845","distractor":"2545","target":"absent","response":"absent","rt":"25","correct":true,"confidence":3},{"trial_n":120,"span":4,"encoder":"8509","distractor":"8539","target":"absent","response":"absent","rt":"207.20000000019","correct":true,"confidence":2},{"trial_n":121,"span":5,"encoder":"57933","distractor":"57939","target":"absent","response":"absent","rt":"57.699999999721","correct":true,"confidence":4},{"trial_n":122,"span":5,"encoder":"65115","distractor":"65015","target":"present","response":"present","rt":"65","correct":true,"confidence":5},{"trial_n":123,"span":6,"encoder":"186606","distractor":"586606","target":"absent","response":"absent","rt":"74.100000000093","correct":true,"confidence":2},{"trial_n":124,"span":6,"encoder":"892400","distractor":"898400","target":"present","response":"absent","rt":"48.100000000093","correct":false,"confidence":2},{"trial_n":125,"span":5,"encoder":"69445","distractor":"69444","target":"present","response":"present","rt":"17.199999999721","correct":true,"confidence":2},{"trial_n":126,"span":5,"encoder":"64887","distractor":"69887","target":"absent","response":"absent","rt":"76.700000000186","correct":true,"confidence":2},{"trial_n":127,"span":6,"encoder":"420128","distractor":"440128","target":"present","response":"present","rt":"75.100000000093","correct":true,"confidence":1},{"trial_n":128,"span":6,"encoder":"500941","distractor":"500951","target":"present","response":"absent","rt":"122.79999999981","correct":false,"confidence":4},{"trial_n":129,"span":5,"encoder":"89618","distractor":"89678","target":"present","response":"absent","rt":"27.899999999907","correct":false,"confidence":3},{"trial_n":130,"span":4,"encoder":"2363","distractor":"2863","target":"present","response":"present","rt":"126","correct":true,"confidence":2},{"trial_n":131,"span":4,"encoder":"6640","distractor":"6440","target":"present","response":"absent","rt":"136.60000000009","correct":false,"confidence":3},{"trial_n":132,"span":3,"encoder":"027","distractor":"327","target":"present","response":"present","rt":"60.199999999721","correct":true,"confidence":5},{"trial_n":133,"span":3,"encoder":"626","distractor":"621","target":"present","response":"absent","rt":"96","correct":false,"confidence":2},{"trial_n":134,"span":2,"encoder":"29","distractor":"25","target":"absent","response":"absent","rt":"-0.1999999997206","correct":true,"confidence":5},{"trial_n":135,"span":2,"encoder":"83","distractor":"89","target":"present","response":"absent","rt":"-0.8000000002794","correct":false,"confidence":1},{"trial_n":136,"span":2,"encoder":"19","distractor":"11","target":"absent","response":"present","rt":"34.899999999907","correct":false,"confidence":4},{"trial_n":137,"span":2,"encoder":"59","distractor":"19","target":"present","response":"present","rt":"124.10000000009","correct":true,"confidence":2},{"trial_n":138,"span":2,"encoder":"49","distractor":"45","target":"absent","response":"present","rt":"199.40000000037","correct":false,"confidence":5},{"trial_n":139,"span":2,"encoder":"14","distractor":"17","target":"present","response":"present","rt":"68.100000000093","correct":true,"confidence":1},{"trial_n":140,"span":2,"encoder":"10","distractor":"17","target":"present","response":"present","rt":"83.100000000093","correct":true,"confidence":3}]