[{"trial_n":1,"min":25,"max":230,"target":"present","response":"absent","rt":5494.7000000477,"correct":false,"confidence":-1},{"trial_n":2,"min":25,"max":230,"target":"present","response":"present","rt":1524.3000000715,"correct":true,"confidence":-1},{"trial_n":3,"min":25,"max":230,"target":"absent","response":"absent","rt":20855.600000024,"correct":true,"confidence":-1},{"trial_n":4,"min":41,"max":214,"target":"absent","response":"absent","rt":873.39999997616,"correct":true,"confidence":-1},{"trial_n":5,"min":41,"max":214,"target":"present","response":"present","rt":1449.7999999523,"correct":true,"confidence":-1},{"trial_n":6,"min":57,"max":198,"target":"present","response":"present","rt":704.19999992847,"correct":true,"confidence":-1},{"trial_n":7,"min":57,"max":198,"target":"absent","response":"absent","rt":1347.8999999762,"correct":true,"confidence":-1},{"trial_n":8,"min":73,"max":182,"target":"absent","response":"present","rt":2175.5,"correct":false,"confidence":-1},{"trial_n":9,"min":57,"max":198,"target":"absent","response":"present","rt":1707.3000000715,"correct":false,"confidence":-1},{"trial_n":10,"min":41,"max":214,"target":"present","response":"present","rt":1324.1000000238,"correct":true,"confidence":-1},{"trial_n":11,"min":41,"max":214,"target":"absent","response":"present","rt":921.30000007153,"correct":false,"confidence":-1},{"trial_n":12,"min":33,"max":222,"target":"absent","response":"absent","rt":1145.5,"correct":true,"confidence":-1},{"trial_n":13,"min":33,"max":222,"target":"present","response":"present","rt":3055.8999999762,"correct":true,"confidence":-1},{"trial_n":14,"min":41,"max":214,"target":"present","response":"present","rt":665.79999995232,"correct":true,"confidence":-1},{"trial_n":15,"min":41,"max":214,"target":"absent","response":"absent","rt":2643.1000000238,"correct":true,"confidence":-1},{"trial_n":16,"min":49,"max":206,"target":"present","response":"present","rt":1298.1000000238,"correct":true,"confidence":-1},{"trial_n":17,"min":49,"max":206,"target":"present","response":"present","rt":2005.1999999285,"correct":true,"confidence":-1},{"trial_n":18,"min":57,"max":198,"target":"present","response":"present","rt":737.60000002384,"correct":true,"confidence":-1},{"trial_n":19,"min":57,"max":198,"target":"present","response":"present","rt":726.70000004768,"correct":true,"confidence":-1},{"trial_n":20,"min":65,"max":190,"target":"present","response":"present","rt":495.39999997616,"correct":true,"confidence":-1},{"trial_n":21,"min":65,"max":190,"target":"absent","response":"absent","rt":2337.1999999285,"correct":true,"confidence":3},{"trial_n":22,"min":69,"max":186,"target":"present","response":"present","rt":1054.1000000238,"correct":true,"confidence":4},{"trial_n":23,"min":69,"max":186,"target":"present","response":"present","rt":1471.1999999285,"correct":true,"confidence":5},{"trial_n":24,"min":73,"max":182,"target":"absent","response":"absent","rt":1210.3999999762,"correct":true,"confidence":5},{"trial_n":25,"min":73,"max":182,"target":"absent","response":"present","rt":1202.6999999285,"correct":false,"confidence":1},{"trial_n":26,"min":69,"max":186,"target":"absent","response":"absent","rt":1067.6000000238,"correct":true,"confidence":5},{"trial_n":27,"min":69,"max":186,"target":"present","response":"present","rt":1375.8999999762,"correct":true,"confidence":5},{"trial_n":28,"min":73,"max":182,"target":"present","response":"present","rt":1223.1000000238,"correct":true,"confidence":5},{"trial_n":29,"min":73,"max":182,"target":"absent","response":"present","rt":780.20000004768,"correct":false,"confidence":5},{"trial_n":30,"min":69,"max":186,"target":"present","response":"present","rt":972.20000004768,"correct":true,"confidence":5},{"trial_n":31,"min":69,"max":186,"target":"present","response":"present","rt":1058.7000000477,"correct":true,"confidence":1},{"trial_n":32,"min":71,"max":184,"target":"absent","response":"absent","rt":3992.7999999523,"correct":true,"confidence":1},{"trial_n":33,"min":71,"max":184,"target":"absent","response":"absent","rt":1565.6999999285,"correct":true,"confidence":4},{"trial_n":34,"min":73,"max":182,"target":"absent","response":"absent","rt":1308.1000000238,"correct":true,"confidence":3},{"trial_n":35,"min":73,"max":182,"target":"absent","response":"absent","rt":810.80000007153,"correct":true,"confidence":3},{"trial_n":36,"min":75,"max":180,"target":"present","response":"present","rt":1187.2000000477,"correct":true,"confidence":1},{"trial_n":37,"min":75,"max":180,"target":"present","response":"present","rt":1135.6999999285,"correct":true,"confidence":4},{"trial_n":38,"min":77,"max":178,"target":"absent","response":"absent","rt":918.39999997616,"correct":true,"confidence":4},{"trial_n":39,"min":77,"max":178,"target":"absent","response":"absent","rt":1146.9000000954,"correct":true,"confidence":1},{"trial_n":40,"min":79,"max":176,"target":"present","response":"absent","rt":695,"correct":false,"confidence":4},{"trial_n":41,"min":78,"max":177,"target":"present","response":"absent","rt":3545.3000000715,"correct":false,"confidence":3},{"trial_n":42,"min":77,"max":178,"target":"present","response":"absent","rt":1052.6000000238,"correct":false,"confidence":2},{"trial_n":43,"min":76,"max":179,"target":"present","response":"absent","rt":793.39999997616,"correct":false,"confidence":2},{"trial_n":44,"min":75,"max":180,"target":"present","response":"present","rt":538.5,"correct":true,"confidence":2},{"trial_n":45,"min":75,"max":180,"target":"absent","response":"absent","rt":501.90000009537,"correct":true,"confidence":1},{"trial_n":46,"min":76,"max":179,"target":"present","response":"present","rt":2185.7000000477,"correct":true,"confidence":3},{"trial_n":47,"min":76,"max":179,"target":"absent","response":"absent","rt":1542.1000000238,"correct":true,"confidence":3},{"trial_n":48,"min":77,"max":178,"target":"present","response":"absent","rt":767.29999995232,"correct":false,"confidence":3},{"trial_n":49,"min":76,"max":179,"target":"present","response":"absent","rt":1457.3000000715,"correct":false,"confidence":3},{"trial_n":50,"min":75,"max":180,"target":"absent","response":"absent","rt":747.89999997616,"correct":true,"confidence":3},{"trial_n":51,"min":75,"max":180,"target":"absent","response":"absent","rt":636.79999995232,"correct":true,"confidence":3},{"trial_n":52,"min":76,"max":179,"target":"present","response":"present","rt":825,"correct":true,"confidence":3},{"trial_n":53,"min":76,"max":179,"target":"absent","response":"absent","rt":525.40000009537,"correct":true,"confidence":3},{"trial_n":54,"min":77,"max":178,"target":"present","response":"absent","rt":543.19999992847,"correct":false,"confidence":3},{"trial_n":55,"min":76,"max":179,"target":"absent","response":"absent","rt":576.29999995232,"correct":true,"confidence":3},{"trial_n":56,"min":76,"max":179,"target":"present","response":"present","rt":605.60000002384,"correct":true,"confidence":3},{"trial_n":57,"min":77,"max":178,"target":"present","response":"present","rt":1005.1999999285,"correct":true,"confidence":3},{"trial_n":58,"min":77,"max":178,"target":"absent","response":"absent","rt":591.20000004768,"correct":true,"confidence":3},{"trial_n":59,"min":78,"max":177,"target":"absent","response":"absent","rt":593.39999997616,"correct":true,"confidence":1},{"trial_n":60,"min":78,"max":177,"target":"absent","response":"present","rt":3854.1000000238,"correct":false,"confidence":3},{"trial_n":61,"min":77,"max":178,"target":"absent","response":"absent","rt":677.10000002384,"correct":true,"confidence":3},{"trial_n":62,"min":77,"max":178,"target":"absent","response":"absent","rt":534.29999995232,"correct":true,"confidence":3},{"trial_n":63,"min":78,"max":177,"target":"present","response":"absent","rt":510.09999990463,"correct":false,"confidence":3},{"trial_n":64,"min":77,"max":178,"target":"absent","response":"absent","rt":526.80000007153,"correct":true,"confidence":3},{"trial_n":65,"min":77,"max":178,"target":"absent","response":"absent","rt":375.60000002384,"correct":true,"confidence":3},{"trial_n":66,"min":78,"max":177,"target":"absent","response":"absent","rt":343.29999995232,"correct":true,"confidence":3},{"trial_n":67,"min":78,"max":177,"target":"present","response":"absent","rt":169.30000007153,"correct":false,"confidence":3},{"trial_n":68,"min":77,"max":178,"target":"present","response":"present","rt":829.70000004768,"correct":true,"confidence":3},{"trial_n":69,"min":77,"max":178,"target":"present","response":"present","rt":662.30000007153,"correct":true,"confidence":3},{"trial_n":70,"min":78,"max":177,"target":"absent","response":"absent","rt":946.20000004768,"correct":true,"confidence":3},{"trial_n":71,"min":41,"max":214,"target":"present","response":"present","rt":3193.8999999762,"correct":true,"confidence":-1},{"trial_n":72,"min":41,"max":214,"target":"present","response":"present","rt":931.10000002384,"correct":true,"confidence":-1},{"trial_n":73,"min":57,"max":198,"target":"absent","response":"absent","rt":913.60000002384,"correct":true,"confidence":-1},{"trial_n":74,"min":57,"max":198,"target":"absent","response":"absent","rt":462.5,"correct":true,"confidence":-1},{"trial_n":75,"min":73,"max":182,"target":"present","response":"present","rt":310.39999997616,"correct":true,"confidence":-1},{"trial_n":76,"min":73,"max":182,"target":"present","response":"present","rt":338.80000007153,"correct":true,"confidence":-1},{"trial_n":77,"min":89,"max":166,"target":"present","response":"present","rt":455.39999997616,"correct":true,"confidence":-1},{"trial_n":78,"min":89,"max":166,"target":"absent","response":"present","rt":633.60000002384,"correct":false,"confidence":-1},{"trial_n":79,"min":73,"max":182,"target":"present","response":"present","rt":251.59999990463,"correct":true,"confidence":-1},{"trial_n":80,"min":73,"max":182,"target":"present","response":"present","rt":587.40000009537,"correct":true,"confidence":-1},{"trial_n":81,"min":81,"max":174,"target":"present","response":"present","rt":280.70000004768,"correct":true,"confidence":-1},{"trial_n":82,"min":81,"max":174,"target":"present","response":"absent","rt":707.39999997616,"correct":false,"confidence":-1},{"trial_n":83,"min":73,"max":182,"target":"absent","response":"present","rt":409.29999995232,"correct":false,"confidence":-1},{"trial_n":84,"min":65,"max":190,"target":"present","response":"present","rt":368.60000002384,"correct":true,"confidence":-1},{"trial_n":85,"min":65,"max":190,"target":"absent","response":"present","rt":1725.6999999285,"correct":false,"confidence":-1},{"trial_n":86,"min":57,"max":198,"target":"absent","response":"absent","rt":1325.3999999762,"correct":true,"confidence":-1},{"trial_n":87,"min":57,"max":198,"target":"absent","response":"absent","rt":702.5,"correct":true,"confidence":-1},{"trial_n":88,"min":65,"max":190,"target":"present","response":"present","rt":287.10000002384,"correct":true,"confidence":-1},{"trial_n":89,"min":65,"max":190,"target":"absent","response":"absent","rt":1899.5,"correct":true,"confidence":-1},{"trial_n":90,"min":73,"max":182,"target":"present","response":"absent","rt":667.10000002384,"correct":false,"confidence":-1},{"trial_n":91,"min":69,"max":186,"target":"absent","response":"present","rt":555.60000002384,"correct":false,"confidence":2},{"trial_n":92,"min":65,"max":190,"target":"absent","response":"present","rt":577.19999992847,"correct":false,"confidence":2},{"trial_n":93,"min":61,"max":194,"target":"present","response":"present","rt":359,"correct":true,"confidence":5},{"trial_n":94,"min":61,"max":194,"target":"absent","response":"present","rt":99,"correct":false,"confidence":1},{"trial_n":95,"min":57,"max":198,"target":"absent","response":"present","rt":631.89999997616,"correct":false,"confidence":1},{"trial_n":96,"min":53,"max":202,"target":"present","response":"present","rt":637.20000004768,"correct":true,"confidence":4},{"trial_n":97,"min":53,"max":202,"target":"present","response":"present","rt":394.89999997616,"correct":true,"confidence":3},{"trial_n":98,"min":57,"max":198,"target":"present","response":"present","rt":477.69999992847,"correct":true,"confidence":3},{"trial_n":99,"min":57,"max":198,"target":"present","response":"present","rt":422.29999995232,"correct":true,"confidence":5},{"trial_n":100,"min":61,"max":194,"target":"present","response":"present","rt":511.60000002384,"correct":true,"confidence":5},{"trial_n":101,"min":61,"max":194,"target":"present","response":"present","rt":344.5,"correct":true,"confidence":1},{"trial_n":102,"min":63,"max":192,"target":"absent","response":"present","rt":360,"correct":false,"confidence":2},{"trial_n":103,"min":61,"max":194,"target":"absent","response":"absent","rt":677.39999997616,"correct":true,"confidence":4},{"trial_n":104,"min":61,"max":194,"target":"absent","response":"absent","rt":1102.8999999762,"correct":true,"confidence":3},{"trial_n":105,"min":63,"max":192,"target":"absent","response":"absent","rt":1049.2000000477,"correct":true,"confidence":2},{"trial_n":106,"min":63,"max":192,"target":"present","response":"absent","rt":1208.6000000238,"correct":false,"confidence":1},{"trial_n":107,"min":61,"max":194,"target":"absent","response":"present","rt":847.10000002384,"correct":false,"confidence":1},{"trial_n":108,"min":59,"max":196,"target":"absent","response":"present","rt":507.89999997616,"correct":false,"confidence":1},{"trial_n":109,"min":57,"max":198,"target":"absent","response":"absent","rt":517.5,"correct":true,"confidence":3},{"trial_n":110,"min":57,"max":198,"target":"present","response":"present","rt":551.70000004768,"correct":true,"confidence":4},{"trial_n":111,"min":58,"max":197,"target":"present","response":"present","rt":2156.2000000477,"correct":true,"confidence":2},{"trial_n":112,"min":58,"max":197,"target":"present","response":"present","rt":1410,"correct":true,"confidence":3},{"trial_n":113,"min":59,"max":196,"target":"present","response":"present","rt":1484.6999999285,"correct":true,"confidence":5},{"trial_n":114,"min":59,"max":196,"target":"present","response":"absent","rt":1986.6000000238,"correct":false,"confidence":5},{"trial_n":115,"min":58,"max":197,"target":"present","response":"present","rt":223.69999992847,"correct":true,"confidence":1},{"trial_n":116,"min":58,"max":197,"target":"absent","response":"absent","rt":933.39999997616,"correct":true,"confidence":1},{"trial_n":117,"min":59,"max":196,"target":"present","response":"absent","rt":438.10000002384,"correct":false,"confidence":1},{"trial_n":118,"min":58,"max":197,"target":"absent","response":"absent","rt":1391.7999999523,"correct":true,"confidence":3},{"trial_n":119,"min":58,"max":197,"target":"absent","response":"absent","rt":224.20000004768,"correct":true,"confidence":1},{"trial_n":120,"min":59,"max":196,"target":"absent","response":"present","rt":570.90000009537,"correct":false,"confidence":1},{"trial_n":121,"min":58,"max":197,"target":"absent","response":"absent","rt":532.40000009537,"correct":true,"confidence":1},{"trial_n":122,"min":58,"max":197,"target":"absent","response":"present","rt":980.79999995232,"correct":false,"confidence":1},{"trial_n":123,"min":57,"max":198,"target":"absent","response":"absent","rt":582.10000002384,"correct":true,"confidence":3},{"trial_n":124,"min":57,"max":198,"target":"present","response":"present","rt":131.89999997616,"correct":true,"confidence":3},{"trial_n":125,"min":58,"max":197,"target":"absent","response":"absent","rt":282.29999995232,"correct":true,"confidence":5},{"trial_n":126,"min":58,"max":197,"target":"present","response":"absent","rt":1375.5,"correct":false,"confidence":4},{"trial_n":127,"min":57,"max":198,"target":"present","response":"present","rt":565.79999995232,"correct":true,"confidence":3},{"trial_n":128,"min":57,"max":198,"target":"absent","response":"absent","rt":769.20000004768,"correct":true,"confidence":3},{"trial_n":129,"min":58,"max":197,"target":"present","response":"present","rt":1257.8999999762,"correct":true,"confidence":4},{"trial_n":130,"min":58,"max":197,"target":"present","response":"absent","rt":144,"correct":false,"confidence":4},{"trial_n":131,"min":57,"max":198,"target":"absent","response":"absent","rt":906.09999990463,"correct":true,"confidence":4},{"trial_n":132,"min":57,"max":198,"target":"absent","response":"absent","rt":856.69999992847,"correct":true,"confidence":4},{"trial_n":133,"min":58,"max":197,"target":"present","response":"present","rt":122.09999990463,"correct":true,"confidence":4},{"trial_n":134,"min":58,"max":197,"target":"present","response":"absent","rt":29891.700000048,"correct":false,"confidence":3},{"trial_n":135,"min":57,"max":198,"target":"absent","response":"absent","rt":855.60000002384,"correct":true,"confidence":4},{"trial_n":136,"min":57,"max":198,"target":"present","response":"present","rt":549.10000002384,"correct":true,"confidence":4},{"trial_n":137,"min":58,"max":197,"target":"absent","response":"absent","rt":748.40000009537,"correct":true,"confidence":4},{"trial_n":138,"min":58,"max":197,"target":"absent","response":"absent","rt":804.30000007153,"correct":true,"confidence":4},{"trial_n":139,"min":59,"max":196,"target":"present","response":"present","rt":487.40000009537,"correct":true,"confidence":4},{"trial_n":140,"min":59,"max":196,"target":"absent","response":"absent","rt":770.80000007153,"correct":true,"confidence":4}]