[{"trial_n":1,"n_dots":4.25,"target":"right","response":"right","rt":10322.699999988,"correct":true,"confidence":-1},{"trial_n":2,"n_dots":4.25,"target":"right","response":"left","rt":1009.2000000477,"correct":false,"confidence":-1},{"trial_n":3,"n_dots":4.65,"target":"left","response":"left","rt":442.19999998808,"correct":true,"confidence":-1},{"trial_n":4,"n_dots":4.65,"target":"left","response":"left","rt":385.29999995232,"correct":true,"confidence":-1},{"trial_n":5,"n_dots":4.25,"target":"left","response":"left","rt":474.09999996424,"correct":true,"confidence":-1},{"trial_n":6,"n_dots":4.25,"target":"left","response":"left","rt":369.90000003576,"correct":true,"confidence":-1},{"trial_n":7,"n_dots":3.85,"target":"right","response":"right","rt":356.09999996424,"correct":true,"confidence":-1},{"trial_n":8,"n_dots":3.85,"target":"right","response":"right","rt":294.89999997616,"correct":true,"confidence":-1},{"trial_n":9,"n_dots":3.65,"target":"left","response":"right","rt":381.69999998808,"correct":false,"confidence":-1},{"trial_n":10,"n_dots":3.85,"target":"left","response":"right","rt":530.70000004768,"correct":false,"confidence":-1},{"trial_n":11,"n_dots":4.05,"target":"left","response":"left","rt":30.399999976158,"correct":true,"confidence":-1},{"trial_n":12,"n_dots":4.05,"target":"left","response":"left","rt":608.19999998808,"correct":true,"confidence":-1},{"trial_n":13,"n_dots":3.95,"target":"left","response":"right","rt":413.59999996424,"correct":false,"confidence":-1},{"trial_n":14,"n_dots":4.05,"target":"left","response":"left","rt":967,"correct":true,"confidence":-1},{"trial_n":15,"n_dots":4.05,"target":"left","response":"left","rt":650.09999996424,"correct":true,"confidence":-1},{"trial_n":16,"n_dots":3.95,"target":"right","response":"right","rt":472.79999995232,"correct":true,"confidence":-1},{"trial_n":17,"n_dots":3.95,"target":"left","response":"right","rt":663.19999998808,"correct":false,"confidence":-1},{"trial_n":18,"n_dots":4.05,"target":"left","response":"left","rt":575.30000001192,"correct":true,"confidence":-1},{"trial_n":19,"n_dots":4.05,"target":"left","response":"left","rt":439.19999998808,"correct":true,"confidence":-1},{"trial_n":20,"n_dots":3.95,"target":"right","response":"right","rt":424.10000002384,"correct":true,"confidence":-1},{"trial_n":21,"n_dots":3.95,"target":"left","response":"left","rt":358,"correct":true,"confidence":3},{"trial_n":22,"n_dots":3.85,"target":"right","response":"left","rt":2431.1000000238,"correct":false,"confidence":1},{"trial_n":23,"n_dots":3.95,"target":"right","response":"right","rt":1389,"correct":true,"confidence":3},{"trial_n":24,"n_dots":3.95,"target":"left","response":"left","rt":1356.8000000119,"correct":true,"confidence":4},{"trial_n":25,"n_dots":3.85,"target":"right","response":"right","rt":1137.6999999881,"correct":true,"confidence":3},{"trial_n":26,"n_dots":3.85,"target":"right","response":"left","rt":1354.6999999881,"correct":false,"confidence":2},{"trial_n":27,"n_dots":3.95,"target":"left","response":"left","rt":1051.0999999642,"correct":true,"confidence":1},{"trial_n":28,"n_dots":3.95,"target":"left","response":"right","rt":676.19999998808,"correct":false,"confidence":3},{"trial_n":29,"n_dots":4.05,"target":"left","response":"left","rt":426.09999996424,"correct":true,"confidence":2},{"trial_n":30,"n_dots":4.05,"target":"left","response":"left","rt":517.89999997616,"correct":true,"confidence":3},{"trial_n":31,"n_dots":3.95,"target":"left","response":"left","rt":1580.3000000119,"correct":true,"confidence":1},{"trial_n":32,"n_dots":3.95,"target":"left","response":"left","rt":754.60000002384,"correct":true,"confidence":3},{"trial_n":33,"n_dots":3.85,"target":"right","response":"right","rt":625,"correct":true,"confidence":3},{"trial_n":34,"n_dots":3.85,"target":"right","response":"right","rt":496.39999997616,"correct":true,"confidence":2},{"trial_n":35,"n_dots":3.75,"target":"right","response":"right","rt":1293.8000000119,"correct":true,"confidence":3},{"trial_n":36,"n_dots":3.75,"target":"right","response":"right","rt":1030.9000000358,"correct":true,"confidence":1},{"trial_n":37,"n_dots":3.65,"target":"left","response":"right","rt":467.80000001192,"correct":false,"confidence":2},{"trial_n":38,"n_dots":3.75,"target":"right","response":"right","rt":418.20000004768,"correct":true,"confidence":3},{"trial_n":39,"n_dots":3.75,"target":"left","response":"left","rt":980,"correct":true,"confidence":4},{"trial_n":40,"n_dots":3.65,"target":"right","response":"left","rt":1420.5,"correct":false,"confidence":1},{"trial_n":41,"n_dots":3.75,"target":"left","response":"left","rt":490.90000003576,"correct":true,"confidence":5},{"trial_n":42,"n_dots":3.75,"target":"right","response":"right","rt":604.70000004768,"correct":true,"confidence":3},{"trial_n":43,"n_dots":3.65,"target":"right","response":"right","rt":1032.1999999881,"correct":true,"confidence":1},{"trial_n":44,"n_dots":3.65,"target":"left","response":"left","rt":2325.0999999642,"correct":true,"confidence":1},{"trial_n":45,"n_dots":3.55,"target":"right","response":"right","rt":1568.6999999881,"correct":true,"confidence":1},{"trial_n":46,"n_dots":3.55,"target":"left","response":"left","rt":1039.8999999762,"correct":true,"confidence":2},{"trial_n":47,"n_dots":3.45,"target":"left","response":"left","rt":521.09999996424,"correct":true,"confidence":3},{"trial_n":48,"n_dots":3.45,"target":"right","response":"right","rt":428.30000001192,"correct":true,"confidence":3},{"trial_n":49,"n_dots":3.35,"target":"left","response":"left","rt":752.5,"correct":true,"confidence":2},{"trial_n":50,"n_dots":3.35,"target":"right","response":"right","rt":2660.3000000119,"correct":true,"confidence":2},{"trial_n":51,"n_dots":3.25,"target":"left","response":"right","rt":927.80000001192,"correct":false,"confidence":2},{"trial_n":52,"n_dots":3.35,"target":"left","response":"left","rt":714.59999996424,"correct":true,"confidence":4},{"trial_n":53,"n_dots":3.35,"target":"right","response":"left","rt":1368.8999999762,"correct":false,"confidence":3},{"trial_n":54,"n_dots":3.45,"target":"right","response":"right","rt":620.90000003576,"correct":true,"confidence":3},{"trial_n":55,"n_dots":3.45,"target":"right","response":"right","rt":789.10000002384,"correct":true,"confidence":4},{"trial_n":56,"n_dots":3.35,"target":"right","response":"left","rt":1749.0999999642,"correct":false,"confidence":3},{"trial_n":57,"n_dots":3.45,"target":"left","response":"right","rt":1783.6000000238,"correct":false,"confidence":3},{"trial_n":58,"n_dots":3.55,"target":"left","response":"right","rt":857.39999997616,"correct":false,"confidence":2},{"trial_n":59,"n_dots":3.65,"target":"left","response":"left","rt":1556.3000000119,"correct":true,"confidence":1},{"trial_n":60,"n_dots":3.65,"target":"right","response":"right","rt":546.19999998808,"correct":true,"confidence":3},{"trial_n":61,"n_dots":3.55,"target":"left","response":"right","rt":5600.3999999762,"correct":false,"confidence":1},{"trial_n":62,"n_dots":3.65,"target":"right","response":"left","rt":752.90000003576,"correct":false,"confidence":2},{"trial_n":63,"n_dots":3.75,"target":"right","response":"right","rt":570.60000002384,"correct":true,"confidence":3},{"trial_n":64,"n_dots":3.75,"target":"left","response":"left","rt":872.30000001192,"correct":true,"confidence":3},{"trial_n":65,"n_dots":3.65,"target":"left","response":"left","rt":759.5,"correct":true,"confidence":4},{"trial_n":66,"n_dots":3.65,"target":"left","response":"left","rt":882.30000001192,"correct":true,"confidence":3},{"trial_n":67,"n_dots":3.55,"target":"right","response":"right","rt":980.89999997616,"correct":true,"confidence":3},{"trial_n":68,"n_dots":3.55,"target":"right","response":"left","rt":1221.9000000358,"correct":false,"confidence":1},{"trial_n":69,"n_dots":3.65,"target":"left","response":"right","rt":738.59999996424,"correct":false,"confidence":2},{"trial_n":70,"n_dots":3.75,"target":"right","response":"right","rt":464.60000002384,"correct":true,"confidence":2},{"trial_n":71,"n_dots":3.75,"target":"right","response":"right","rt":379.19999998808,"correct":true,"confidence":3},{"trial_n":72,"n_dots":3.65,"target":"left","response":"left","rt":893.29999995232,"correct":true,"confidence":1},{"trial_n":73,"n_dots":3.65,"target":"left","response":"left","rt":977.39999997616,"correct":true,"confidence":2},{"trial_n":74,"n_dots":3.55,"target":"right","response":"right","rt":559,"correct":true,"confidence":3},{"trial_n":75,"n_dots":3.55,"target":"right","response":"right","rt":537.40000003576,"correct":true,"confidence":2},{"trial_n":76,"n_dots":3.45,"target":"right","response":"left","rt":741.69999998808,"correct":false,"confidence":1},{"trial_n":77,"n_dots":3.55,"target":"right","response":"right","rt":639.80000001192,"correct":true,"confidence":2},{"trial_n":78,"n_dots":3.55,"target":"right","response":"right","rt":990.89999997616,"correct":true,"confidence":1},{"trial_n":79,"n_dots":3.45,"target":"right","response":"left","rt":500.69999998808,"correct":false,"confidence":2},{"trial_n":80,"n_dots":3.55,"target":"right","response":"left","rt":1362.9000000358,"correct":false,"confidence":1},{"trial_n":81,"n_dots":3.65,"target":"right","response":"left","rt":460.10000002384,"correct":false,"confidence":3},{"trial_n":82,"n_dots":3.75,"target":"left","response":"left","rt":430,"correct":true,"confidence":3},{"trial_n":83,"n_dots":3.75,"target":"left","response":"left","rt":827.30000001192,"correct":true,"confidence":1},{"trial_n":84,"n_dots":3.65,"target":"right","response":"right","rt":355.5,"correct":true,"confidence":3},{"trial_n":85,"n_dots":3.65,"target":"right","response":"left","rt":563.80000001192,"correct":false,"confidence":3},{"trial_n":86,"n_dots":3.75,"target":"left","response":"left","rt":389.10000002384,"correct":true,"confidence":2},{"trial_n":87,"n_dots":3.75,"target":"right","response":"right","rt":631.09999996424,"correct":true,"confidence":3},{"trial_n":88,"n_dots":3.65,"target":"right","response":"left","rt":435.60000002384,"correct":false,"confidence":3},{"trial_n":89,"n_dots":3.75,"target":"left","response":"left","rt":1117,"correct":true,"confidence":3},{"trial_n":90,"n_dots":3.75,"target":"right","response":"left","rt":570.09999996424,"correct":false,"confidence":2},{"trial_n":91,"n_dots":3.85,"target":"left","response":"left","rt":424.30000001192,"correct":true,"confidence":3},{"trial_n":92,"n_dots":3.85,"target":"right","response":"right","rt":2400,"correct":true,"confidence":1},{"trial_n":93,"n_dots":3.75,"target":"left","response":"left","rt":675.5,"correct":true,"confidence":1},{"trial_n":94,"n_dots":3.75,"target":"right","response":"right","rt":391.69999998808,"correct":true,"confidence":3},{"trial_n":95,"n_dots":3.65,"target":"right","response":"right","rt":566.5,"correct":true,"confidence":2},{"trial_n":96,"n_dots":3.65,"target":"left","response":"left","rt":406.19999998808,"correct":true,"confidence":3},{"trial_n":97,"n_dots":3.55,"target":"left","response":"left","rt":602.09999996424,"correct":true,"confidence":4},{"trial_n":98,"n_dots":3.55,"target":"left","response":"left","rt":462,"correct":true,"confidence":3},{"trial_n":99,"n_dots":3.45,"target":"left","response":"right","rt":1200.6999999881,"correct":false,"confidence":2},{"trial_n":100,"n_dots":3.55,"target":"left","response":"left","rt":377.90000003576,"correct":true,"confidence":1},{"trial_n":101,"n_dots":3.55,"target":"right","response":"right","rt":1735.5,"correct":true,"confidence":1},{"trial_n":102,"n_dots":3.45,"target":"left","response":"left","rt":436,"correct":true,"confidence":3},{"trial_n":103,"n_dots":3.45,"target":"left","response":"left","rt":403.80000001192,"correct":true,"confidence":4},{"trial_n":104,"n_dots":3.35,"target":"right","response":"right","rt":878,"correct":true,"confidence":2},{"trial_n":105,"n_dots":3.35,"target":"left","response":"left","rt":891.10000002384,"correct":true,"confidence":1},{"trial_n":106,"n_dots":3.25,"target":"left","response":"right","rt":518.60000002384,"correct":false,"confidence":2},{"trial_n":107,"n_dots":3.35,"target":"left","response":"left","rt":411.5,"correct":true,"confidence":3},{"trial_n":108,"n_dots":3.35,"target":"right","response":"right","rt":393.40000003576,"correct":true,"confidence":2},{"trial_n":109,"n_dots":3.25,"target":"right","response":"right","rt":485,"correct":true,"confidence":3},{"trial_n":110,"n_dots":3.25,"target":"right","response":"right","rt":415.20000004768,"correct":true,"confidence":3},{"trial_n":111,"n_dots":3.15,"target":"right","response":"right","rt":433.5,"correct":true,"confidence":1},{"trial_n":112,"n_dots":3.15,"target":"left","response":"left","rt":422.89999997616,"correct":true,"confidence":2},{"trial_n":113,"n_dots":3.05,"target":"right","response":"right","rt":366.80000001192,"correct":true,"confidence":3},{"trial_n":114,"n_dots":3.05,"target":"left","response":"left","rt":453,"correct":true,"confidence":2},{"trial_n":115,"n_dots":2.95,"target":"left","response":"left","rt":369.60000002384,"correct":true,"confidence":2},{"trial_n":116,"n_dots":2.95,"target":"right","response":"left","rt":839.80000001192,"correct":false,"confidence":2},{"trial_n":117,"n_dots":3.05,"target":"right","response":"left","rt":566.40000003576,"correct":false,"confidence":3},{"trial_n":118,"n_dots":3.15,"target":"right","response":"right","rt":2199,"correct":true,"confidence":1},{"trial_n":119,"n_dots":3.15,"target":"right","response":"right","rt":495.5,"correct":true,"confidence":2},{"trial_n":120,"n_dots":3.05,"target":"right","response":"right","rt":332.20000004768,"correct":true,"confidence":3}]