[{"trial_n":1,"min":25,"max":230,"target":"present","response":"present","rt":8246.5,"correct":true,"confidence":-1},{"trial_n":2,"min":25,"max":230,"target":"present","response":"present","rt":928.40000003576,"correct":true,"confidence":-1},{"trial_n":3,"min":41,"max":214,"target":"absent","response":"absent","rt":458.5,"correct":true,"confidence":-1},{"trial_n":4,"min":41,"max":214,"target":"absent","response":"absent","rt":278.39999997616,"correct":true,"confidence":-1},{"trial_n":5,"min":57,"max":198,"target":"present","response":"present","rt":351.80000001192,"correct":true,"confidence":-1},{"trial_n":6,"min":57,"max":198,"target":"present","response":"present","rt":295,"correct":true,"confidence":-1},{"trial_n":7,"min":73,"max":182,"target":"absent","response":"absent","rt":479,"correct":true,"confidence":-1},{"trial_n":8,"min":73,"max":182,"target":"present","response":"absent","rt":432.30000001192,"correct":false,"confidence":-1},{"trial_n":9,"min":57,"max":198,"target":"absent","response":"absent","rt":1118.5,"correct":true,"confidence":-1},{"trial_n":10,"min":57,"max":198,"target":"present","response":"present","rt":358.69999998808,"correct":true,"confidence":-1},{"trial_n":11,"min":65,"max":190,"target":"present","response":"present","rt":369,"correct":true,"confidence":-1},{"trial_n":12,"min":65,"max":190,"target":"present","response":"absent","rt":463.69999998808,"correct":false,"confidence":-1},{"trial_n":13,"min":57,"max":198,"target":"present","response":"present","rt":470.80000001192,"correct":true,"confidence":-1},{"trial_n":14,"min":57,"max":198,"target":"absent","response":"present","rt":2212.6000000238,"correct":false,"confidence":-1},{"trial_n":15,"min":49,"max":206,"target":"present","response":"present","rt":1068.8000000119,"correct":true,"confidence":-1},{"trial_n":16,"min":49,"max":206,"target":"absent","response":"absent","rt":574.89999997616,"correct":true,"confidence":-1},{"trial_n":17,"min":57,"max":198,"target":"absent","response":"absent","rt":526,"correct":true,"confidence":-1},{"trial_n":18,"min":57,"max":198,"target":"absent","response":"absent","rt":241.30000001192,"correct":true,"confidence":-1},{"trial_n":19,"min":65,"max":190,"target":"present","response":"present","rt":312.19999998808,"correct":true,"confidence":-1},{"trial_n":20,"min":65,"max":190,"target":"absent","response":"absent","rt":465,"correct":true,"confidence":-1},{"trial_n":21,"min":69,"max":186,"target":"absent","response":"absent","rt":1408.1999999881,"correct":true,"confidence":1},{"trial_n":22,"min":69,"max":186,"target":"absent","response":"absent","rt":850.39999997616,"correct":true,"confidence":1},{"trial_n":23,"min":73,"max":182,"target":"present","response":"present","rt":635.19999998808,"correct":true,"confidence":4},{"trial_n":24,"min":73,"max":182,"target":"present","response":"present","rt":1969.8999999762,"correct":true,"confidence":5},{"trial_n":25,"min":77,"max":178,"target":"present","response":"present","rt":2231.9000000358,"correct":true,"confidence":1},{"trial_n":26,"min":77,"max":178,"target":"absent","response":"present","rt":3365.1999999881,"correct":false,"confidence":1},{"trial_n":27,"min":73,"max":182,"target":"present","response":"present","rt":425.80000001192,"correct":true,"confidence":4},{"trial_n":28,"min":73,"max":182,"target":"absent","response":"absent","rt":1138.2999999523,"correct":true,"confidence":2},{"trial_n":29,"min":77,"max":178,"target":"absent","response":"absent","rt":1126.7000000477,"correct":true,"confidence":4},{"trial_n":30,"min":77,"max":178,"target":"absent","response":"absent","rt":779.30000001192,"correct":true,"confidence":4},{"trial_n":31,"min":79,"max":176,"target":"present","response":"present","rt":807.30000001192,"correct":true,"confidence":5},{"trial_n":32,"min":79,"max":176,"target":"absent","response":"absent","rt":1060.1999999881,"correct":true,"confidence":3},{"trial_n":33,"min":81,"max":174,"target":"present","response":"present","rt":1151.1999999881,"correct":true,"confidence":2},{"trial_n":34,"min":81,"max":174,"target":"present","response":"present","rt":858.60000002384,"correct":true,"confidence":4},{"trial_n":35,"min":83,"max":172,"target":"absent","response":"absent","rt":973.90000003576,"correct":true,"confidence":3},{"trial_n":36,"min":83,"max":172,"target":"absent","response":"absent","rt":757,"correct":true,"confidence":3},{"trial_n":37,"min":85,"max":170,"target":"present","response":"present","rt":718.39999997616,"correct":true,"confidence":4},{"trial_n":38,"min":85,"max":170,"target":"present","response":"present","rt":1132.5,"correct":true,"confidence":2},{"trial_n":39,"min":87,"max":168,"target":"present","response":"present","rt":960.09999996424,"correct":true,"confidence":2},{"trial_n":40,"min":87,"max":168,"target":"present","response":"present","rt":641.20000004768,"correct":true,"confidence":3},{"trial_n":41,"min":88,"max":167,"target":"absent","response":"absent","rt":806.60000002384,"correct":true,"confidence":1},{"trial_n":42,"min":88,"max":167,"target":"absent","response":"absent","rt":872.30000001192,"correct":true,"confidence":4},{"trial_n":43,"min":89,"max":166,"target":"absent","response":"present","rt":1969.1000000238,"correct":false,"confidence":1},{"trial_n":44,"min":88,"max":167,"target":"absent","response":"absent","rt":992.40000003576,"correct":true,"confidence":4},{"trial_n":45,"min":88,"max":167,"target":"absent","response":"absent","rt":573.90000003576,"correct":true,"confidence":5},{"trial_n":46,"min":89,"max":166,"target":"present","response":"present","rt":714.89999997616,"correct":true,"confidence":3},{"trial_n":47,"min":89,"max":166,"target":"present","response":"present","rt":970.5,"correct":true,"confidence":4},{"trial_n":48,"min":90,"max":165,"target":"absent","response":"absent","rt":1035.3999999762,"correct":true,"confidence":3},{"trial_n":49,"min":90,"max":165,"target":"present","response":"present","rt":679.20000004768,"correct":true,"confidence":5},{"trial_n":50,"min":91,"max":164,"target":"present","response":"absent","rt":1164.1000000238,"correct":false,"confidence":3},{"trial_n":51,"min":90,"max":165,"target":"present","response":"present","rt":840.59999996424,"correct":true,"confidence":5},{"trial_n":52,"min":90,"max":165,"target":"present","response":"absent","rt":1445.8000000119,"correct":false,"confidence":1},{"trial_n":53,"min":89,"max":166,"target":"absent","response":"absent","rt":698,"correct":true,"confidence":4},{"trial_n":54,"min":89,"max":166,"target":"absent","response":"present","rt":850.20000004768,"correct":false,"confidence":4},{"trial_n":55,"min":88,"max":167,"target":"present","response":"present","rt":1030.3999999762,"correct":true,"confidence":1},{"trial_n":56,"min":88,"max":167,"target":"present","response":"absent","rt":2708.3000000119,"correct":false,"confidence":2},{"trial_n":57,"min":87,"max":168,"target":"present","response":"present","rt":1139.6000000238,"correct":true,"confidence":3},{"trial_n":58,"min":87,"max":168,"target":"absent","response":"present","rt":2069.3000000119,"correct":false,"confidence":1},{"trial_n":59,"min":86,"max":169,"target":"present","response":"present","rt":621.30000001192,"correct":true,"confidence":3},{"trial_n":60,"min":86,"max":169,"target":"absent","response":"absent","rt":690.70000004768,"correct":true,"confidence":3},{"trial_n":61,"min":87,"max":168,"target":"absent","response":"absent","rt":1172.5,"correct":true,"confidence":1},{"trial_n":62,"min":87,"max":168,"target":"absent","response":"absent","rt":1429.1999999881,"correct":true,"confidence":3},{"trial_n":63,"min":88,"max":167,"target":"absent","response":"present","rt":899.09999996424,"correct":false,"confidence":3},{"trial_n":64,"min":87,"max":168,"target":"present","response":"present","rt":610.40000003576,"correct":true,"confidence":4},{"trial_n":65,"min":87,"max":168,"target":"present","response":"absent","rt":2351.1999999881,"correct":false,"confidence":1},{"trial_n":66,"min":86,"max":169,"target":"absent","response":"present","rt":2168.5,"correct":false,"confidence":2},{"trial_n":67,"min":85,"max":170,"target":"present","response":"present","rt":601,"correct":true,"confidence":3},{"trial_n":68,"min":85,"max":170,"target":"absent","response":"absent","rt":1328.3000000119,"correct":true,"confidence":4},{"trial_n":69,"min":86,"max":169,"target":"present","response":"present","rt":789.69999998808,"correct":true,"confidence":3},{"trial_n":70,"min":86,"max":169,"target":"absent","response":"absent","rt":614.19999998808,"correct":true,"confidence":4},{"trial_n":71,"min":41,"max":214,"target":"present","response":"present","rt":2499.4000000358,"correct":true,"confidence":-1},{"trial_n":72,"min":41,"max":214,"target":"present","response":"present","rt":443.10000002384,"correct":true,"confidence":-1},{"trial_n":73,"min":57,"max":198,"target":"absent","response":"absent","rt":465.40000003576,"correct":true,"confidence":-1},{"trial_n":74,"min":57,"max":198,"target":"absent","response":"present","rt":412,"correct":false,"confidence":-1},{"trial_n":75,"min":41,"max":214,"target":"present","response":"present","rt":557.5,"correct":true,"confidence":-1},{"trial_n":76,"min":41,"max":214,"target":"absent","response":"absent","rt":608.69999998808,"correct":true,"confidence":-1},{"trial_n":77,"min":57,"max":198,"target":"present","response":"absent","rt":1000.6000000238,"correct":false,"confidence":-1},{"trial_n":78,"min":41,"max":214,"target":"absent","response":"absent","rt":653.19999998808,"correct":true,"confidence":-1},{"trial_n":79,"min":41,"max":214,"target":"absent","response":"absent","rt":777.5,"correct":true,"confidence":-1},{"trial_n":80,"min":57,"max":198,"target":"absent","response":"absent","rt":484.39999997616,"correct":true,"confidence":-1},{"trial_n":81,"min":57,"max":198,"target":"present","response":"present","rt":595.19999998808,"correct":true,"confidence":-1},{"trial_n":82,"min":65,"max":190,"target":"absent","response":"present","rt":1261.5,"correct":false,"confidence":-1},{"trial_n":83,"min":57,"max":198,"target":"absent","response":"absent","rt":742,"correct":true,"confidence":-1},{"trial_n":84,"min":57,"max":198,"target":"present","response":"present","rt":504.5,"correct":true,"confidence":-1},{"trial_n":85,"min":65,"max":190,"target":"present","response":"present","rt":744.5,"correct":true,"confidence":-1},{"trial_n":86,"min":65,"max":190,"target":"absent","response":"absent","rt":919.39999997616,"correct":true,"confidence":-1},{"trial_n":87,"min":73,"max":182,"target":"absent","response":"absent","rt":468.69999998808,"correct":true,"confidence":-1},{"trial_n":88,"min":73,"max":182,"target":"present","response":"present","rt":1016.8000000119,"correct":true,"confidence":-1},{"trial_n":89,"min":81,"max":174,"target":"present","response":"absent","rt":750.59999996424,"correct":false,"confidence":-1},{"trial_n":90,"min":73,"max":182,"target":"present","response":"present","rt":1116.6999999881,"correct":true,"confidence":-1},{"trial_n":91,"min":73,"max":182,"target":"present","response":"present","rt":1513.1000000238,"correct":true,"confidence":1},{"trial_n":92,"min":77,"max":178,"target":"present","response":"absent","rt":2850.0999999642,"correct":false,"confidence":1},{"trial_n":93,"min":73,"max":182,"target":"absent","response":"absent","rt":704.69999998808,"correct":true,"confidence":3},{"trial_n":94,"min":73,"max":182,"target":"absent","response":"absent","rt":1646,"correct":true,"confidence":3},{"trial_n":95,"min":77,"max":178,"target":"absent","response":"present","rt":4506.3999999762,"correct":false,"confidence":1},{"trial_n":96,"min":73,"max":182,"target":"present","response":"present","rt":1130.8000000119,"correct":true,"confidence":3},{"trial_n":97,"min":73,"max":182,"target":"present","response":"present","rt":1807.5,"correct":true,"confidence":1},{"trial_n":98,"min":77,"max":178,"target":"present","response":"present","rt":794.80000001192,"correct":true,"confidence":5},{"trial_n":99,"min":77,"max":178,"target":"absent","response":"present","rt":665.19999998808,"correct":false,"confidence":5},{"trial_n":100,"min":73,"max":182,"target":"absent","response":"absent","rt":1416.5,"correct":true,"confidence":1},{"trial_n":101,"min":73,"max":182,"target":"absent","response":"absent","rt":795.89999997616,"correct":true,"confidence":3},{"trial_n":102,"min":75,"max":180,"target":"absent","response":"present","rt":553.19999998808,"correct":false,"confidence":1},{"trial_n":103,"min":73,"max":182,"target":"absent","response":"absent","rt":1753.4000000358,"correct":true,"confidence":1},{"trial_n":104,"min":73,"max":182,"target":"present","response":"present","rt":1124.1000000238,"correct":true,"confidence":1},{"trial_n":105,"min":75,"max":180,"target":"absent","response":"absent","rt":912.80000001192,"correct":true,"confidence":3},{"trial_n":106,"min":75,"max":180,"target":"present","response":"present","rt":1091.1000000238,"correct":true,"confidence":3},{"trial_n":107,"min":77,"max":178,"target":"present","response":"present","rt":787.19999998808,"correct":true,"confidence":2},{"trial_n":108,"min":77,"max":178,"target":"absent","response":"absent","rt":2435.8000000119,"correct":true,"confidence":2},{"trial_n":109,"min":79,"max":176,"target":"absent","response":"absent","rt":748.80000001192,"correct":true,"confidence":3},{"trial_n":110,"min":79,"max":176,"target":"present","response":"present","rt":903.89999997616,"correct":true,"confidence":3},{"trial_n":111,"min":80,"max":175,"target":"present","response":"present","rt":630.80000001192,"correct":true,"confidence":4},{"trial_n":112,"min":80,"max":175,"target":"present","response":"present","rt":1546.1000000238,"correct":true,"confidence":3},{"trial_n":113,"min":81,"max":174,"target":"present","response":"present","rt":470.09999996424,"correct":true,"confidence":4},{"trial_n":114,"min":81,"max":174,"target":"present","response":"absent","rt":1360.3000000119,"correct":false,"confidence":1},{"trial_n":115,"min":80,"max":175,"target":"present","response":"present","rt":2101.1999999881,"correct":true,"confidence":2},{"trial_n":116,"min":80,"max":175,"target":"absent","response":"absent","rt":1461.6999999881,"correct":true,"confidence":2},{"trial_n":117,"min":81,"max":174,"target":"absent","response":"present","rt":1198.3999999762,"correct":false,"confidence":1},{"trial_n":118,"min":80,"max":175,"target":"absent","response":"absent","rt":1111.9000000358,"correct":true,"confidence":2},{"trial_n":119,"min":80,"max":175,"target":"absent","response":"absent","rt":1370.8000000119,"correct":true,"confidence":1},{"trial_n":120,"min":81,"max":174,"target":"present","response":"present","rt":834.89999997616,"correct":true,"confidence":4},{"trial_n":121,"min":81,"max":174,"target":"absent","response":"absent","rt":944.30000001192,"correct":true,"confidence":2},{"trial_n":122,"min":82,"max":173,"target":"present","response":"present","rt":1869.9000000358,"correct":true,"confidence":1},{"trial_n":123,"min":82,"max":173,"target":"present","response":"present","rt":669.5,"correct":true,"confidence":2},{"trial_n":124,"min":83,"max":172,"target":"present","response":"present","rt":936.29999995232,"correct":true,"confidence":3},{"trial_n":125,"min":83,"max":172,"target":"absent","response":"absent","rt":1601.8000000119,"correct":true,"confidence":2},{"trial_n":126,"min":84,"max":171,"target":"present","response":"present","rt":1153.8000000119,"correct":true,"confidence":1},{"trial_n":127,"min":84,"max":171,"target":"present","response":"absent","rt":4060.8000000119,"correct":false,"confidence":3},{"trial_n":128,"min":83,"max":172,"target":"absent","response":"present","rt":2655.5,"correct":false,"confidence":1},{"trial_n":129,"min":82,"max":173,"target":"absent","response":"absent","rt":1478.3000000119,"correct":true,"confidence":2},{"trial_n":130,"min":82,"max":173,"target":"present","response":"present","rt":1097.8000000119,"correct":true,"confidence":2},{"trial_n":131,"min":83,"max":172,"target":"absent","response":"absent","rt":1407.5,"correct":true,"confidence":1},{"trial_n":132,"min":83,"max":172,"target":"absent","response":"present","rt":1990.4000000358,"correct":false,"confidence":1},{"trial_n":133,"min":82,"max":173,"target":"absent","response":"absent","rt":806.69999998808,"correct":true,"confidence":3},{"trial_n":134,"min":82,"max":173,"target":"present","response":"present","rt":2151.9000000358,"correct":true,"confidence":2},{"trial_n":135,"min":83,"max":172,"target":"present","response":"present","rt":667.89999997616,"correct":true,"confidence":3},{"trial_n":136,"min":83,"max":172,"target":"absent","response":"absent","rt":902.90000003576,"correct":true,"confidence":3},{"trial_n":137,"min":84,"max":171,"target":"absent","response":"absent","rt":866.30000001192,"correct":true,"confidence":3},{"trial_n":138,"min":84,"max":171,"target":"present","response":"present","rt":2291.1000000238,"correct":true,"confidence":1},{"trial_n":139,"min":85,"max":170,"target":"present","response":"present","rt":647.5,"correct":true,"confidence":3},{"trial_n":140,"min":85,"max":170,"target":"present","response":"absent","rt":1875.0999999642,"correct":false,"confidence":2}]