[{"trial_n":1,"min":25,"max":230,"target":"present","response":"absent","rt":7246.7,"correct":false,"confidence":-1},{"trial_n":2,"min":25,"max":230,"target":"present","response":"present","rt":674.19999999995,"correct":true,"confidence":-1},{"trial_n":3,"min":25,"max":230,"target":"absent","response":"absent","rt":343.89999999991,"correct":true,"confidence":-1},{"trial_n":4,"min":41,"max":214,"target":"absent","response":"absent","rt":345.39999999991,"correct":true,"confidence":-1},{"trial_n":5,"min":41,"max":214,"target":"present","response":"present","rt":324.39999999991,"correct":true,"confidence":-1},{"trial_n":6,"min":57,"max":198,"target":"present","response":"present","rt":264.40000000014,"correct":true,"confidence":-1},{"trial_n":7,"min":57,"max":198,"target":"present","response":"absent","rt":259.60000000009,"correct":false,"confidence":-1},{"trial_n":8,"min":41,"max":214,"target":"present","response":"present","rt":628.10000000009,"correct":true,"confidence":-1},{"trial_n":9,"min":41,"max":214,"target":"present","response":"absent","rt":257.60000000009,"correct":false,"confidence":-1},{"trial_n":10,"min":25,"max":230,"target":"absent","response":"absent","rt":984.19999999995,"correct":true,"confidence":-1},{"trial_n":11,"min":25,"max":230,"target":"present","response":"present","rt":302.60000000009,"correct":true,"confidence":-1},{"trial_n":12,"min":33,"max":222,"target":"absent","response":"absent","rt":396,"correct":true,"confidence":-1},{"trial_n":13,"min":33,"max":222,"target":"present","response":"present","rt":393.39999999991,"correct":true,"confidence":-1},{"trial_n":14,"min":41,"max":214,"target":"absent","response":"absent","rt":707.80000000005,"correct":true,"confidence":-1},{"trial_n":15,"min":41,"max":214,"target":"present","response":"present","rt":345.19999999995,"correct":true,"confidence":-1},{"trial_n":16,"min":49,"max":206,"target":"absent","response":"absent","rt":422.30000000005,"correct":true,"confidence":-1},{"trial_n":17,"min":49,"max":206,"target":"absent","response":"absent","rt":304,"correct":true,"confidence":-1},{"trial_n":18,"min":57,"max":198,"target":"present","response":"present","rt":387.69999999995,"correct":true,"confidence":-1},{"trial_n":19,"min":57,"max":198,"target":"present","response":"absent","rt":245.39999999991,"correct":false,"confidence":-1},{"trial_n":20,"min":49,"max":206,"target":"absent","response":"present","rt":1473,"correct":false,"confidence":-1},{"trial_n":21,"min":45,"max":210,"target":"present","response":"present","rt":1392.8999999999,"correct":true,"confidence":4},{"trial_n":22,"min":45,"max":210,"target":"present","response":"present","rt":817.19999999995,"correct":true,"confidence":5},{"trial_n":23,"min":49,"max":206,"target":"present","response":"present","rt":997.60000000009,"correct":true,"confidence":5},{"trial_n":24,"min":49,"max":206,"target":"present","response":"present","rt":489.80000000005,"correct":true,"confidence":5},{"trial_n":25,"min":53,"max":202,"target":"absent","response":"absent","rt":865.89999999991,"correct":true,"confidence":5},{"trial_n":26,"min":53,"max":202,"target":"absent","response":"absent","rt":1651.3,"correct":true,"confidence":5},{"trial_n":27,"min":57,"max":198,"target":"absent","response":"absent","rt":680.69999999995,"correct":true,"confidence":5},{"trial_n":28,"min":57,"max":198,"target":"absent","response":"absent","rt":455.59999999986,"correct":true,"confidence":5},{"trial_n":29,"min":61,"max":194,"target":"absent","response":"absent","rt":922.5,"correct":true,"confidence":5},{"trial_n":30,"min":61,"max":194,"target":"present","response":"absent","rt":645.69999999995,"correct":false,"confidence":5},{"trial_n":31,"min":59,"max":196,"target":"present","response":"present","rt":608,"correct":true,"confidence":5},{"trial_n":32,"min":59,"max":196,"target":"absent","response":"absent","rt":499.60000000009,"correct":true,"confidence":5},{"trial_n":33,"min":61,"max":194,"target":"absent","response":"absent","rt":1217.2,"correct":true,"confidence":1},{"trial_n":34,"min":61,"max":194,"target":"absent","response":"absent","rt":3306,"correct":true,"confidence":1},{"trial_n":35,"min":63,"max":192,"target":"absent","response":"absent","rt":541.30000000005,"correct":true,"confidence":1},{"trial_n":36,"min":63,"max":192,"target":"present","response":"present","rt":754.89999999991,"correct":true,"confidence":1},{"trial_n":37,"min":65,"max":190,"target":"absent","response":"absent","rt":236.29999999981,"correct":true,"confidence":1},{"trial_n":38,"min":65,"max":190,"target":"present","response":"absent","rt":44.199999999953,"correct":false,"confidence":1},{"trial_n":39,"min":63,"max":192,"target":"absent","response":"absent","rt":49.699999999953,"correct":true,"confidence":1},{"trial_n":40,"min":63,"max":192,"target":"absent","response":"present","rt":59.199999999953,"correct":false,"confidence":1},{"trial_n":41,"min":62,"max":193,"target":"present","response":"present","rt":264,"correct":true,"confidence":1},{"trial_n":42,"min":62,"max":193,"target":"present","response":"present","rt":48.700000000186,"correct":true,"confidence":1},{"trial_n":43,"min":63,"max":192,"target":"present","response":"absent","rt":66.5,"correct":false,"confidence":1},{"trial_n":44,"min":62,"max":193,"target":"absent","response":"present","rt":2.1999999999534,"correct":false,"confidence":1},{"trial_n":45,"min":61,"max":194,"target":"absent","response":"absent","rt":137,"correct":true,"confidence":1},{"trial_n":46,"min":61,"max":194,"target":"absent","response":"present","rt":28.300000000047,"correct":false,"confidence":1},{"trial_n":47,"min":60,"max":195,"target":"present","response":"absent","rt":169.5,"correct":false,"confidence":1},{"trial_n":48,"min":59,"max":196,"target":"absent","response":"present","rt":103,"correct":false,"confidence":1},{"trial_n":49,"min":58,"max":197,"target":"absent","response":"absent","rt":15.399999999907,"correct":true,"confidence":1},{"trial_n":50,"min":58,"max":197,"target":"present","response":"present","rt":127.89999999991,"correct":true,"confidence":1},{"trial_n":51,"min":59,"max":196,"target":"absent","response":"present","rt":106.80000000005,"correct":false,"confidence":1},{"trial_n":52,"min":58,"max":197,"target":"present","response":"absent","rt":66.5,"correct":false,"confidence":1},{"trial_n":53,"min":57,"max":198,"target":"absent","response":"absent","rt":194,"correct":true,"confidence":1},{"trial_n":54,"min":57,"max":198,"target":"absent","response":"present","rt":5.6999999999534,"correct":false,"confidence":1},{"trial_n":55,"min":56,"max":199,"target":"present","response":"absent","rt":36.699999999953,"correct":false,"confidence":1},{"trial_n":56,"min":55,"max":200,"target":"absent","response":"present","rt":98.800000000047,"correct":false,"confidence":1},{"trial_n":57,"min":54,"max":201,"target":"present","response":"absent","rt":41.899999999907,"correct":false,"confidence":1},{"trial_n":58,"min":53,"max":202,"target":"present","response":"present","rt":23.399999999907,"correct":true,"confidence":1},{"trial_n":59,"min":53,"max":202,"target":"absent","response":"absent","rt":16.09999999986,"correct":true,"confidence":1},{"trial_n":60,"min":54,"max":201,"target":"absent","response":"present","rt":138.80000000005,"correct":false,"confidence":1},{"trial_n":61,"min":53,"max":202,"target":"present","response":"present","rt":24.699999999953,"correct":true,"confidence":1},{"trial_n":62,"min":53,"max":202,"target":"absent","response":"present","rt":158.5,"correct":false,"confidence":1},{"trial_n":63,"min":52,"max":203,"target":"absent","response":"absent","rt":109.5,"correct":true,"confidence":1},{"trial_n":64,"min":52,"max":203,"target":"present","response":"present","rt":169.39999999991,"correct":true,"confidence":1},{"trial_n":65,"min":53,"max":202,"target":"present","response":"present","rt":6.2999999998137,"correct":true,"confidence":1},{"trial_n":66,"min":53,"max":202,"target":"present","response":"absent","rt":0,"correct":false,"confidence":1},{"trial_n":67,"min":52,"max":203,"target":"present","response":"absent","rt":4.3999999999069,"correct":false,"confidence":1},{"trial_n":68,"min":51,"max":204,"target":"present","response":"absent","rt":96.799999999814,"correct":false,"confidence":1},{"trial_n":69,"min":50,"max":205,"target":"present","response":"present","rt":181.40000000014,"correct":true,"confidence":1},{"trial_n":70,"min":50,"max":205,"target":"absent","response":"absent","rt":102.30000000005,"correct":true,"confidence":4},{"trial_n":71,"min":41,"max":214,"target":"present","response":"present","rt":2795.2,"correct":true,"confidence":-1},{"trial_n":72,"min":41,"max":214,"target":"present","response":"present","rt":957.09999999986,"correct":true,"confidence":-1},{"trial_n":73,"min":57,"max":198,"target":"absent","response":"absent","rt":1866.4000000001,"correct":true,"confidence":-1},{"trial_n":74,"min":57,"max":198,"target":"absent","response":"absent","rt":332.89999999991,"correct":true,"confidence":-1},{"trial_n":75,"min":73,"max":182,"target":"present","response":"present","rt":530,"correct":true,"confidence":-1},{"trial_n":76,"min":73,"max":182,"target":"present","response":"absent","rt":875.29999999981,"correct":false,"confidence":-1},{"trial_n":77,"min":57,"max":198,"target":"absent","response":"absent","rt":488.90000000014,"correct":true,"confidence":-1},{"trial_n":78,"min":57,"max":198,"target":"absent","response":"present","rt":468.80000000005,"correct":false,"confidence":-1},{"trial_n":79,"min":41,"max":214,"target":"present","response":"present","rt":819.5,"correct":true,"confidence":-1},{"trial_n":80,"min":41,"max":214,"target":"absent","response":"absent","rt":362,"correct":true,"confidence":-1},{"trial_n":81,"min":49,"max":206,"target":"absent","response":"present","rt":378.89999999991,"correct":false,"confidence":-1},{"trial_n":82,"min":41,"max":214,"target":"present","response":"present","rt":877.80000000005,"correct":true,"confidence":-1},{"trial_n":83,"min":41,"max":214,"target":"present","response":"present","rt":43.899999999907,"correct":true,"confidence":-1},{"trial_n":84,"min":49,"max":206,"target":"absent","response":"absent","rt":155.80000000005,"correct":true,"confidence":-1},{"trial_n":85,"min":49,"max":206,"target":"absent","response":"absent","rt":370.79999999981,"correct":true,"confidence":-1},{"trial_n":86,"min":57,"max":198,"target":"present","response":"present","rt":115,"correct":true,"confidence":-1},{"trial_n":87,"min":57,"max":198,"target":"absent","response":"absent","rt":233.40000000014,"correct":true,"confidence":-1},{"trial_n":88,"min":65,"max":190,"target":"present","response":"present","rt":357.40000000014,"correct":true,"confidence":-1},{"trial_n":89,"min":65,"max":190,"target":"absent","response":"present","rt":530.59999999986,"correct":false,"confidence":-1},{"trial_n":90,"min":57,"max":198,"target":"present","response":"present","rt":951.19999999995,"correct":true,"confidence":-1},{"trial_n":91,"min":57,"max":198,"target":"present","response":"present","rt":194.40000000014,"correct":true,"confidence":1},{"trial_n":92,"min":61,"max":194,"target":"present","response":"absent","rt":835.30000000005,"correct":false,"confidence":1},{"trial_n":93,"min":57,"max":198,"target":"absent","response":"absent","rt":38.899999999907,"correct":true,"confidence":1},{"trial_n":94,"min":57,"max":198,"target":"absent","response":"absent","rt":114.60000000009,"correct":true,"confidence":1},{"trial_n":95,"min":61,"max":194,"target":"present","response":"present","rt":6.8999999999069,"correct":true,"confidence":1},{"trial_n":96,"min":61,"max":194,"target":"present","response":"absent","rt":128.89999999991,"correct":false,"confidence":1},{"trial_n":97,"min":57,"max":198,"target":"absent","response":"absent","rt":149.69999999995,"correct":true,"confidence":1},{"trial_n":98,"min":57,"max":198,"target":"absent","response":"present","rt":20.899999999907,"correct":false,"confidence":1},{"trial_n":99,"min":53,"max":202,"target":"present","response":"present","rt":93.5,"correct":true,"confidence":1},{"trial_n":100,"min":53,"max":202,"target":"present","response":"absent","rt":103.30000000005,"correct":false,"confidence":1},{"trial_n":101,"min":51,"max":204,"target":"present","response":"present","rt":7.8000000000466,"correct":true,"confidence":2},{"trial_n":102,"min":51,"max":204,"target":"absent","response":"absent","rt":0.30000000004657,"correct":true,"confidence":2},{"trial_n":103,"min":53,"max":202,"target":"absent","response":"absent","rt":1162.3,"correct":true,"confidence":1},{"trial_n":104,"min":53,"max":202,"target":"absent","response":"absent","rt":425.09999999986,"correct":true,"confidence":5},{"trial_n":105,"min":55,"max":200,"target":"present","response":"absent","rt":142.79999999981,"correct":false,"confidence":4},{"trial_n":106,"min":53,"max":202,"target":"present","response":"present","rt":511.89999999991,"correct":true,"confidence":5},{"trial_n":107,"min":53,"max":202,"target":"present","response":"present","rt":114.5,"correct":true,"confidence":2},{"trial_n":108,"min":55,"max":200,"target":"present","response":"present","rt":163.80000000005,"correct":true,"confidence":3},{"trial_n":109,"min":55,"max":200,"target":"absent","response":"absent","rt":670.79999999981,"correct":true,"confidence":3},{"trial_n":110,"min":57,"max":198,"target":"present","response":"absent","rt":216.79999999981,"correct":false,"confidence":3},{"trial_n":111,"min":56,"max":199,"target":"present","response":"present","rt":20.300000000047,"correct":true,"confidence":1},{"trial_n":112,"min":56,"max":199,"target":"present","response":"present","rt":11.09999999986,"correct":true,"confidence":3},{"trial_n":113,"min":57,"max":198,"target":"absent","response":"absent","rt":92.90000000014,"correct":true,"confidence":1},{"trial_n":114,"min":57,"max":198,"target":"absent","response":"absent","rt":76.199999999953,"correct":true,"confidence":1},{"trial_n":115,"min":58,"max":197,"target":"absent","response":"present","rt":594.5,"correct":false,"confidence":1},{"trial_n":116,"min":57,"max":198,"target":"absent","response":"present","rt":327.40000000014,"correct":false,"confidence":1},{"trial_n":117,"min":56,"max":199,"target":"present","response":"absent","rt":460.30000000005,"correct":false,"confidence":3},{"trial_n":118,"min":55,"max":200,"target":"absent","response":"absent","rt":161.69999999995,"correct":true,"confidence":5},{"trial_n":119,"min":55,"max":200,"target":"present","response":"present","rt":420.40000000014,"correct":true,"confidence":3},{"trial_n":120,"min":56,"max":199,"target":"present","response":"present","rt":18.5,"correct":true,"confidence":1},{"trial_n":121,"min":56,"max":199,"target":"absent","response":"present","rt":529.89999999991,"correct":false,"confidence":2},{"trial_n":122,"min":55,"max":200,"target":"absent","response":"present","rt":62.09999999986,"correct":false,"confidence":3},{"trial_n":123,"min":54,"max":201,"target":"present","response":"absent","rt":218.39999999991,"correct":false,"confidence":1},{"trial_n":124,"min":53,"max":202,"target":"present","response":"present","rt":1130.5999999999,"correct":true,"confidence":2},{"trial_n":125,"min":53,"max":202,"target":"absent","response":"absent","rt":316.90000000014,"correct":true,"confidence":1},{"trial_n":126,"min":54,"max":201,"target":"present","response":"absent","rt":395.90000000014,"correct":false,"confidence":1},{"trial_n":127,"min":53,"max":202,"target":"absent","response":"absent","rt":-0.19999999995343,"correct":true,"confidence":3},{"trial_n":128,"min":53,"max":202,"target":"absent","response":"absent","rt":383.39999999991,"correct":true,"confidence":1},{"trial_n":129,"min":54,"max":201,"target":"absent","response":"absent","rt":142.40000000014,"correct":true,"confidence":5},{"trial_n":130,"min":54,"max":201,"target":"present","response":"absent","rt":205.79999999981,"correct":false,"confidence":1},{"trial_n":131,"min":53,"max":202,"target":"absent","response":"present","rt":449,"correct":false,"confidence":2},{"trial_n":132,"min":52,"max":203,"target":"present","response":"present","rt":214.69999999995,"correct":true,"confidence":1},{"trial_n":133,"min":52,"max":203,"target":"absent","response":"absent","rt":208.39999999991,"correct":true,"confidence":3},{"trial_n":134,"min":53,"max":202,"target":"absent","response":"absent","rt":295.79999999981,"correct":true,"confidence":1},{"trial_n":135,"min":53,"max":202,"target":"present","response":"absent","rt":608.40000000014,"correct":false,"confidence":5},{"trial_n":136,"min":52,"max":203,"target":"present","response":"present","rt":251.40000000014,"correct":true,"confidence":1},{"trial_n":137,"min":52,"max":203,"target":"absent","response":"present","rt":1266.8999999999,"correct":false,"confidence":4},{"trial_n":138,"min":51,"max":204,"target":"present","response":"absent","rt":143.19999999995,"correct":false,"confidence":1},{"trial_n":139,"min":50,"max":205,"target":"absent","response":"absent","rt":321.09999999986,"correct":true,"confidence":5},{"trial_n":140,"min":50,"max":205,"target":"present","response":"present","rt":31.399999999907,"correct":true,"confidence":1}]