[{"trial_n":1,"n_dots":4.25,"target":"right","response":"right","rt":5402.799999997,"correct":true,"confidence":-1},{"trial_n":2,"n_dots":4.25,"target":"right","response":"left","rt":2939.799999997,"correct":false,"confidence":-1},{"trial_n":3,"n_dots":4.65,"target":"left","response":"left","rt":2461.1999999881,"correct":true,"confidence":-1},{"trial_n":4,"n_dots":4.65,"target":"right","response":"left","rt":2623.599999994,"correct":false,"confidence":-1},{"trial_n":5,"n_dots":5.05,"target":"left","response":"left","rt":1142.200000003,"correct":true,"confidence":-1},{"trial_n":6,"n_dots":5.05,"target":"left","response":"left","rt":1042.5,"correct":true,"confidence":-1},{"trial_n":7,"n_dots":4.65,"target":"right","response":"left","rt":1721,"correct":false,"confidence":-1},{"trial_n":8,"n_dots":4.85,"target":"right","response":"right","rt":1316,"correct":true,"confidence":-1},{"trial_n":9,"n_dots":4.85,"target":"left","response":"left","rt":1188.299999997,"correct":true,"confidence":-1},{"trial_n":10,"n_dots":4.65,"target":"right","response":"right","rt":2180,"correct":true,"confidence":-1},{"trial_n":11,"n_dots":4.65,"target":"left","response":"left","rt":1316.599999994,"correct":true,"confidence":-1},{"trial_n":12,"n_dots":4.45,"target":"right","response":"left","rt":1467.599999994,"correct":false,"confidence":-1},{"trial_n":13,"n_dots":4.55,"target":"left","response":"left","rt":806.79999999702,"correct":true,"confidence":-1},{"trial_n":14,"n_dots":4.55,"target":"right","response":"right","rt":1094.6000000089,"correct":true,"confidence":-1},{"trial_n":15,"n_dots":4.45,"target":"right","response":"left","rt":1034.799999997,"correct":false,"confidence":-1},{"trial_n":16,"n_dots":4.55,"target":"left","response":"left","rt":742.09999999404,"correct":true,"confidence":-1},{"trial_n":17,"n_dots":4.55,"target":"right","response":"right","rt":962.20000000298,"correct":true,"confidence":-1},{"trial_n":18,"n_dots":4.45,"target":"left","response":"left","rt":1042.900000006,"correct":true,"confidence":-1},{"trial_n":19,"n_dots":4.45,"target":"left","response":"left","rt":1186,"correct":true,"confidence":-1},{"trial_n":20,"n_dots":4.35,"target":"right","response":"right","rt":1180.700000003,"correct":true,"confidence":-1},{"trial_n":21,"n_dots":4.35,"target":"left","response":"left","rt":1112.200000003,"correct":true,"confidence":3},{"trial_n":22,"n_dots":4.25,"target":"left","response":"left","rt":943,"correct":true,"confidence":4},{"trial_n":23,"n_dots":4.25,"target":"right","response":"left","rt":1978.799999997,"correct":false,"confidence":2},{"trial_n":24,"n_dots":4.35,"target":"right","response":"right","rt":1249.099999994,"correct":true,"confidence":3},{"trial_n":25,"n_dots":4.35,"target":"left","response":"left","rt":1054.400000006,"correct":true,"confidence":3},{"trial_n":26,"n_dots":4.25,"target":"right","response":"left","rt":2312.599999994,"correct":false,"confidence":4},{"trial_n":27,"n_dots":4.35,"target":"left","response":"left","rt":800.79999999702,"correct":true,"confidence":4},{"trial_n":28,"n_dots":4.35,"target":"left","response":"left","rt":1098.599999994,"correct":true,"confidence":3},{"trial_n":29,"n_dots":4.25,"target":"left","response":"left","rt":939.5,"correct":true,"confidence":3},{"trial_n":30,"n_dots":4.25,"target":"right","response":"left","rt":1124.400000006,"correct":false,"confidence":2},{"trial_n":31,"n_dots":4.35,"target":"right","response":"left","rt":1337.799999997,"correct":false,"confidence":3},{"trial_n":32,"n_dots":4.45,"target":"right","response":"left","rt":3469.700000003,"correct":false,"confidence":3},{"trial_n":33,"n_dots":4.55,"target":"right","response":"right","rt":957.5,"correct":true,"confidence":5},{"trial_n":34,"n_dots":4.55,"target":"left","response":"left","rt":2473.799999997,"correct":true,"confidence":2},{"trial_n":35,"n_dots":4.45,"target":"left","response":"left","rt":867.19999998808,"correct":true,"confidence":3},{"trial_n":36,"n_dots":4.45,"target":"left","response":"left","rt":947.39999999106,"correct":true,"confidence":5},{"trial_n":37,"n_dots":4.35,"target":"left","response":"left","rt":987.29999999702,"correct":true,"confidence":3},{"trial_n":38,"n_dots":4.35,"target":"left","response":"left","rt":962.79999999702,"correct":true,"confidence":3},{"trial_n":39,"n_dots":4.25,"target":"right","response":"right","rt":2275.8999999911,"correct":true,"confidence":3},{"trial_n":40,"n_dots":4.25,"target":"right","response":"right","rt":1146.700000003,"correct":true,"confidence":4},{"trial_n":41,"n_dots":4.15,"target":"right","response":"right","rt":1990.400000006,"correct":true,"confidence":2},{"trial_n":42,"n_dots":4.15,"target":"right","response":"left","rt":1150,"correct":false,"confidence":2},{"trial_n":43,"n_dots":4.25,"target":"left","response":"left","rt":943.5,"correct":true,"confidence":3},{"trial_n":44,"n_dots":4.25,"target":"right","response":"right","rt":1039.799999997,"correct":true,"confidence":4},{"trial_n":45,"n_dots":4.15,"target":"left","response":"left","rt":933.70000000298,"correct":true,"confidence":4},{"trial_n":46,"n_dots":4.15,"target":"left","response":"left","rt":915,"correct":true,"confidence":3},{"trial_n":47,"n_dots":4.05,"target":"left","response":"left","rt":899.20000000298,"correct":true,"confidence":4},{"trial_n":48,"n_dots":4.05,"target":"right","response":"right","rt":1025.599999994,"correct":true,"confidence":4},{"trial_n":49,"n_dots":3.95,"target":"left","response":"left","rt":804.39999999106,"correct":true,"confidence":4},{"trial_n":50,"n_dots":3.95,"target":"left","response":"left","rt":790.69999998808,"correct":true,"confidence":4},{"trial_n":51,"n_dots":3.85,"target":"right","response":"right","rt":1096.200000003,"correct":true,"confidence":4},{"trial_n":52,"n_dots":3.85,"target":"right","response":"left","rt":928.39999999106,"correct":false,"confidence":3},{"trial_n":53,"n_dots":3.95,"target":"left","response":"left","rt":742.79999999702,"correct":true,"confidence":3},{"trial_n":54,"n_dots":3.95,"target":"left","response":"left","rt":1984.700000003,"correct":true,"confidence":4},{"trial_n":55,"n_dots":3.85,"target":"left","response":"left","rt":800.79999999702,"correct":true,"confidence":5},{"trial_n":56,"n_dots":3.85,"target":"left","response":"left","rt":908.5,"correct":true,"confidence":4},{"trial_n":57,"n_dots":3.75,"target":"right","response":"right","rt":1460.900000006,"correct":true,"confidence":2},{"trial_n":58,"n_dots":3.75,"target":"left","response":"left","rt":930.89999999106,"correct":true,"confidence":3},{"trial_n":59,"n_dots":3.65,"target":"right","response":"left","rt":1024.700000003,"correct":false,"confidence":3},{"trial_n":60,"n_dots":3.75,"target":"right","response":"right","rt":1336,"correct":true,"confidence":4},{"trial_n":61,"n_dots":3.75,"target":"right","response":"right","rt":1565.700000003,"correct":true,"confidence":5},{"trial_n":62,"n_dots":3.65,"target":"right","response":"right","rt":821.79999999702,"correct":true,"confidence":5},{"trial_n":63,"n_dots":3.65,"target":"right","response":"right","rt":997.60000000894,"correct":true,"confidence":5},{"trial_n":64,"n_dots":3.55,"target":"right","response":"left","rt":1267.799999997,"correct":false,"confidence":3},{"trial_n":65,"n_dots":3.65,"target":"right","response":"right","rt":817.59999999404,"correct":true,"confidence":5},{"trial_n":66,"n_dots":3.65,"target":"left","response":"left","rt":932.79999999702,"correct":true,"confidence":4},{"trial_n":67,"n_dots":3.55,"target":"right","response":"right","rt":1221.1000000089,"correct":true,"confidence":3},{"trial_n":68,"n_dots":3.55,"target":"left","response":"left","rt":1083.599999994,"correct":true,"confidence":3},{"trial_n":69,"n_dots":3.45,"target":"left","response":"left","rt":2250.5,"correct":true,"confidence":3},{"trial_n":70,"n_dots":3.45,"target":"left","response":"right","rt":1300.5,"correct":false,"confidence":3},{"trial_n":71,"n_dots":3.55,"target":"right","response":"right","rt":1361.6000000089,"correct":true,"confidence":4},{"trial_n":72,"n_dots":3.55,"target":"right","response":"right","rt":1027.799999997,"correct":true,"confidence":4},{"trial_n":73,"n_dots":3.45,"target":"left","response":"left","rt":805.09999999404,"correct":true,"confidence":4},{"trial_n":74,"n_dots":3.45,"target":"right","response":"right","rt":1360.799999997,"correct":true,"confidence":4},{"trial_n":75,"n_dots":3.35,"target":"left","response":"left","rt":765.80000001192,"correct":true,"confidence":4},{"trial_n":76,"n_dots":3.35,"target":"right","response":"right","rt":1224.200000003,"correct":true,"confidence":2},{"trial_n":77,"n_dots":3.25,"target":"left","response":"left","rt":2451.3999999911,"correct":true,"confidence":2},{"trial_n":78,"n_dots":3.25,"target":"right","response":"left","rt":3080.900000006,"correct":false,"confidence":3},{"trial_n":79,"n_dots":3.35,"target":"right","response":"right","rt":806.89999999106,"correct":true,"confidence":4},{"trial_n":80,"n_dots":3.35,"target":"right","response":"right","rt":2365.200000003,"correct":true,"confidence":3},{"trial_n":81,"n_dots":3.25,"target":"left","response":"left","rt":1544.400000006,"correct":true,"confidence":2},{"trial_n":82,"n_dots":3.25,"target":"left","response":"right","rt":1011.900000006,"correct":false,"confidence":4},{"trial_n":83,"n_dots":3.35,"target":"left","response":"left","rt":1172.5,"correct":true,"confidence":3},{"trial_n":84,"n_dots":3.35,"target":"left","response":"left","rt":1176.799999997,"correct":true,"confidence":3},{"trial_n":85,"n_dots":3.25,"target":"right","response":"right","rt":993.5,"correct":true,"confidence":3},{"trial_n":86,"n_dots":3.25,"target":"left","response":"left","rt":1298,"correct":true,"confidence":3},{"trial_n":87,"n_dots":3.15,"target":"left","response":"left","rt":1533.5,"correct":true,"confidence":3},{"trial_n":88,"n_dots":3.15,"target":"left","response":"left","rt":1517,"correct":true,"confidence":3},{"trial_n":89,"n_dots":3.05,"target":"left","response":"left","rt":2043.1000000089,"correct":true,"confidence":3},{"trial_n":90,"n_dots":3.05,"target":"left","response":"right","rt":1848.200000003,"correct":false,"confidence":4},{"trial_n":91,"n_dots":3.15,"target":"left","response":"left","rt":1222.799999997,"correct":true,"confidence":3},{"trial_n":92,"n_dots":3.15,"target":"left","response":"left","rt":1111.799999997,"correct":true,"confidence":3},{"trial_n":93,"n_dots":3.05,"target":"left","response":"left","rt":997,"correct":true,"confidence":3},{"trial_n":94,"n_dots":3.05,"target":"right","response":"left","rt":1203.200000003,"correct":false,"confidence":2},{"trial_n":95,"n_dots":3.15,"target":"right","response":"right","rt":955.40000000596,"correct":true,"confidence":3},{"trial_n":96,"n_dots":3.15,"target":"right","response":"right","rt":867.09999999404,"correct":true,"confidence":4},{"trial_n":97,"n_dots":3.05,"target":"right","response":"right","rt":1584.5,"correct":true,"confidence":3},{"trial_n":98,"n_dots":3.05,"target":"right","response":"left","rt":1308.099999994,"correct":false,"confidence":2},{"trial_n":99,"n_dots":3.15,"target":"right","response":"right","rt":880.90000000596,"correct":true,"confidence":5},{"trial_n":100,"n_dots":3.15,"target":"left","response":"right","rt":1205.400000006,"correct":false,"confidence":4},{"trial_n":101,"n_dots":3.25,"target":"right","response":"right","rt":778.59999999404,"correct":true,"confidence":5},{"trial_n":102,"n_dots":3.25,"target":"right","response":"right","rt":820,"correct":true,"confidence":5},{"trial_n":103,"n_dots":3.15,"target":"left","response":"left","rt":832.20000000298,"correct":true,"confidence":3},{"trial_n":104,"n_dots":3.15,"target":"left","response":"left","rt":820.59999999404,"correct":true,"confidence":4},{"trial_n":105,"n_dots":3.05,"target":"left","response":"right","rt":880.10000000894,"correct":false,"confidence":5},{"trial_n":106,"n_dots":3.15,"target":"right","response":"right","rt":1945.5,"correct":true,"confidence":4},{"trial_n":107,"n_dots":3.15,"target":"left","response":"right","rt":944.79999999702,"correct":false,"confidence":4},{"trial_n":108,"n_dots":3.25,"target":"left","response":"left","rt":612.79999999702,"correct":true,"confidence":5},{"trial_n":109,"n_dots":3.25,"target":"right","response":"right","rt":904.39999999106,"correct":true,"confidence":4},{"trial_n":110,"n_dots":3.15,"target":"left","response":"left","rt":678.40000000596,"correct":true,"confidence":5},{"trial_n":111,"n_dots":3.15,"target":"left","response":"left","rt":1440.400000006,"correct":true,"confidence":3},{"trial_n":112,"n_dots":3.05,"target":"right","response":"right","rt":1565.400000006,"correct":true,"confidence":4},{"trial_n":113,"n_dots":3.05,"target":"left","response":"right","rt":1502.400000006,"correct":false,"confidence":2},{"trial_n":114,"n_dots":3.15,"target":"right","response":"left","rt":853.60000000894,"correct":false,"confidence":2},{"trial_n":115,"n_dots":3.25,"target":"right","response":"left","rt":984.10000000894,"correct":false,"confidence":5},{"trial_n":116,"n_dots":3.35,"target":"left","response":"left","rt":1117.5,"correct":true,"confidence":2},{"trial_n":117,"n_dots":3.35,"target":"right","response":"left","rt":996.69999998808,"correct":false,"confidence":3},{"trial_n":118,"n_dots":3.45,"target":"right","response":"right","rt":1163.299999997,"correct":true,"confidence":5},{"trial_n":119,"n_dots":3.45,"target":"right","response":"left","rt":1811.5,"correct":false,"confidence":3},{"trial_n":120,"n_dots":3.55,"target":"right","response":"right","rt":2031.799999997,"correct":true,"confidence":2}]