[{"trial_n":1,"span":8,"encoder":"95070351","distractor":"96070351","target":"present","response":"absent","rt":"5160.8999999762","correct":false,"confidence":-1},{"trial_n":2,"span":6,"encoder":"026340","distractor":"024340","target":"present","response":"present","rt":"1800.6000000238","correct":true,"confidence":-1},{"trial_n":3,"span":6,"encoder":"749711","distractor":"759711","target":"absent","response":"present","rt":"1524.7999999523","correct":false,"confidence":-1},{"trial_n":4,"span":4,"encoder":"9329","distractor":"9029","target":"absent","response":"absent","rt":"1880.8999999762","correct":true,"confidence":-1},{"trial_n":5,"span":4,"encoder":"8920","distractor":"2920","target":"present","response":"present","rt":"2564.8999999762","correct":true,"confidence":-1},{"trial_n":6,"span":6,"encoder":"215106","distractor":"215104","target":"absent","response":"absent","rt":"2150.2000000477","correct":true,"confidence":-1},{"trial_n":7,"span":6,"encoder":"904536","distractor":"954536","target":"present","response":"present","rt":"1988.5","correct":true,"confidence":-1},{"trial_n":8,"span":8,"encoder":"58750439","distractor":"58730439","target":"absent","response":"present","rt":"1120.5","correct":false,"confidence":-1},{"trial_n":9,"span":6,"encoder":"420347","distractor":"440347","target":"absent","response":"absent","rt":"1353.0999999046","correct":true,"confidence":-1},{"trial_n":10,"span":6,"encoder":"892234","distractor":"492234","target":"absent","response":"absent","rt":"1250.7000000477","correct":true,"confidence":-1},{"trial_n":11,"span":8,"encoder":"90645898","distractor":"60645898","target":"present","response":"present","rt":"4537.3000000715","correct":true,"confidence":-1},{"trial_n":12,"span":8,"encoder":"80820848","distractor":"80820048","target":"present","response":"present","rt":"2352.6000000238","correct":true,"confidence":-1},{"trial_n":13,"span":9,"encoder":"053193623","distractor":"053393623","target":"absent","response":"absent","rt":"2286.4000000954","correct":true,"confidence":-1},{"trial_n":14,"span":9,"encoder":"484949567","distractor":"284949567","target":"absent","response":"absent","rt":"6143.5","correct":true,"confidence":-1},{"trial_n":15,"span":10,"encoder":"9841483140","distractor":"9840483140","target":"absent","response":"absent","rt":"3634.7999999523","correct":true,"confidence":-1},{"trial_n":16,"span":10,"encoder":"2218938311","distractor":"2218938319","target":"absent","response":"absent","rt":"1135.8000000715","correct":true,"confidence":-1},{"trial_n":17,"span":11,"encoder":"02488229536","distractor":"02488228536","target":"present","response":"present","rt":"1632.5","correct":true,"confidence":-1},{"trial_n":18,"span":11,"encoder":"50175974208","distractor":"50175874208","target":"absent","response":"present","rt":"1831.8999999762","correct":false,"confidence":-1},{"trial_n":19,"span":10,"encoder":"2026252315","distractor":"2026252375","target":"absent","response":"absent","rt":"2467.1000000238","correct":true,"confidence":-1},{"trial_n":20,"span":10,"encoder":"2573632037","distractor":"2575632037","target":"present","response":"absent","rt":"1747.4000000954","correct":false,"confidence":-1},{"trial_n":21,"span":9,"encoder":"827112506","distractor":"827312506","target":"absent","response":"present","rt":"1347.5999999046","correct":false,"confidence":3},{"trial_n":22,"span":8,"encoder":"10688230","distractor":"10678230","target":"absent","response":"absent","rt":"2994.2999999523","correct":true,"confidence":2},{"trial_n":23,"span":8,"encoder":"18234442","distractor":"15234442","target":"present","response":"absent","rt":"4349.6999999285","correct":false,"confidence":4},{"trial_n":24,"span":7,"encoder":"9620209","distractor":"9626209","target":"present","response":"present","rt":"4073.1000000238","correct":true,"confidence":3},{"trial_n":25,"span":7,"encoder":"1447391","distractor":"1447091","target":"present","response":"present","rt":"3646.6999999285","correct":true,"confidence":4},{"trial_n":26,"span":8,"encoder":"26473523","distractor":"16473523","target":"present","response":"absent","rt":"9970.5","correct":false,"confidence":3},{"trial_n":27,"span":7,"encoder":"9619494","distractor":"9619484","target":"absent","response":"absent","rt":"4806.2999999523","correct":true,"confidence":5},{"trial_n":28,"span":7,"encoder":"1897683","distractor":"1894683","target":"absent","response":"present","rt":"1954.1000000238","correct":false,"confidence":4},{"trial_n":29,"span":6,"encoder":"466467","distractor":"466367","target":"present","response":"present","rt":"8080","correct":true,"confidence":4},{"trial_n":30,"span":6,"encoder":"715829","distractor":"715809","target":"present","response":"absent","rt":"3087.2000000477","correct":false,"confidence":2},{"trial_n":31,"span":5,"encoder":"59017","distractor":"59027","target":"present","response":"present","rt":"2316.0999999046","correct":true,"confidence":5},{"trial_n":32,"span":5,"encoder":"76443","distractor":"76043","target":"absent","response":"absent","rt":"4043.3999999762","correct":true,"confidence":5},{"trial_n":33,"span":6,"encoder":"593869","distractor":"595869","target":"absent","response":"absent","rt":"6017.2999999523","correct":true,"confidence":2},{"trial_n":34,"span":6,"encoder":"328977","distractor":"358977","target":"absent","response":"absent","rt":"2051.7000000477","correct":true,"confidence":3},{"trial_n":35,"span":7,"encoder":"7045695","distractor":"7045195","target":"present","response":"present","rt":"2287.6000000238","correct":true,"confidence":3},{"trial_n":36,"span":7,"encoder":"6552680","distractor":"6552080","target":"present","response":"present","rt":"2787.1000000238","correct":true,"confidence":3},{"trial_n":37,"span":8,"encoder":"04698724","distractor":"04691724","target":"present","response":"absent","rt":"5221.1000000238","correct":false,"confidence":3},{"trial_n":38,"span":7,"encoder":"5201828","distractor":"5202828","target":"absent","response":"absent","rt":"2422.1000000238","correct":true,"confidence":3},{"trial_n":39,"span":7,"encoder":"6452436","distractor":"6652436","target":"present","response":"present","rt":"2706.3999999762","correct":true,"confidence":1},{"trial_n":40,"span":8,"encoder":"72895690","distractor":"72845690","target":"absent","response":"present","rt":"6865.1999999285","correct":false,"confidence":2},{"trial_n":41,"span":7,"encoder":"7143676","distractor":"4143676","target":"absent","response":"present","rt":"3092.6000000238","correct":false,"confidence":2},{"trial_n":42,"span":6,"encoder":"161036","distractor":"161031","target":"absent","response":"present","rt":"3048","correct":false,"confidence":2},{"trial_n":43,"span":5,"encoder":"33609","distractor":"33603","target":"present","response":"present","rt":"3152.6000000238","correct":true,"confidence":4},{"trial_n":44,"span":5,"encoder":"14824","distractor":"13824","target":"absent","response":"absent","rt":"1885.8999999762","correct":true,"confidence":5},{"trial_n":45,"span":6,"encoder":"694235","distractor":"604235","target":"absent","response":"absent","rt":"1685","correct":true,"confidence":5},{"trial_n":46,"span":6,"encoder":"992015","distractor":"992085","target":"absent","response":"absent","rt":"3160","correct":true,"confidence":4},{"trial_n":47,"span":7,"encoder":"8699116","distractor":"8690116","target":"present","response":"present","rt":"3837.2000000477","correct":true,"confidence":3},{"trial_n":48,"span":7,"encoder":"1892633","distractor":"1892632","target":"present","response":"present","rt":"2305.2999999523","correct":true,"confidence":2},{"trial_n":49,"span":8,"encoder":"96547494","distractor":"97547494","target":"absent","response":"absent","rt":"3759.8999999762","correct":true,"confidence":3},{"trial_n":50,"span":8,"encoder":"48614678","distractor":"48614478","target":"absent","response":"absent","rt":"3377.7999999523","correct":true,"confidence":4},{"trial_n":51,"span":9,"encoder":"997398112","distractor":"297398112","target":"absent","response":"absent","rt":"2179.7999999523","correct":true,"confidence":1},{"trial_n":52,"span":9,"encoder":"206069237","distractor":"206069233","target":"absent","response":"absent","rt":"2472.3999999762","correct":true,"confidence":5},{"trial_n":53,"span":10,"encoder":"8258392179","distractor":"8758392179","target":"present","response":"absent","rt":"4023.3000000715","correct":false,"confidence":3},{"trial_n":54,"span":9,"encoder":"635208961","distractor":"635208967","target":"present","response":"absent","rt":"7347.7999999523","correct":false,"confidence":3},{"trial_n":55,"span":8,"encoder":"60579694","distractor":"00579694","target":"absent","response":"absent","rt":"5850.2000000477","correct":true,"confidence":2},{"trial_n":56,"span":8,"encoder":"28911530","distractor":"28911330","target":"present","response":"present","rt":"4210.7999999523","correct":true,"confidence":5},{"trial_n":57,"span":9,"encoder":"625853251","distractor":"625853451","target":"present","response":"present","rt":"2834.7999999523","correct":true,"confidence":3},{"trial_n":58,"span":9,"encoder":"890376691","distractor":"891376691","target":"present","response":"present","rt":"2087.8999999762","correct":true,"confidence":4},{"trial_n":59,"span":10,"encoder":"1236926874","distractor":"1236926876","target":"present","response":"present","rt":"10424.400000095","correct":true,"confidence":2},{"trial_n":60,"span":10,"encoder":"8660690794","distractor":"8660690734","target":"present","response":"absent","rt":"2914.2000000477","correct":false,"confidence":3},{"trial_n":61,"span":9,"encoder":"324100715","distractor":"324106715","target":"present","response":"present","rt":"3457.7000000477","correct":true,"confidence":4},{"trial_n":62,"span":9,"encoder":"511938211","distractor":"511988211","target":"present","response":"present","rt":"3779.8999999762","correct":true,"confidence":1},{"trial_n":63,"span":10,"encoder":"1335902078","distractor":"6335902078","target":"present","response":"absent","rt":"6270.8999999762","correct":false,"confidence":2},{"trial_n":64,"span":9,"encoder":"798541053","distractor":"793541053","target":"absent","response":"present","rt":"4343.7000000477","correct":false,"confidence":2},{"trial_n":65,"span":8,"encoder":"91228619","distractor":"01228619","target":"present","response":"present","rt":"2915.1999999285","correct":true,"confidence":3},{"trial_n":66,"span":8,"encoder":"40066429","distractor":"41066429","target":"absent","response":"absent","rt":"4866.1000000238","correct":true,"confidence":3},{"trial_n":67,"span":9,"encoder":"232952573","distractor":"632952573","target":"present","response":"present","rt":"6812.6999999285","correct":true,"confidence":3},{"trial_n":68,"span":9,"encoder":"876007243","distractor":"872007243","target":"absent","response":"present","rt":"2672.8000000715","correct":false,"confidence":3},{"trial_n":69,"span":8,"encoder":"01113181","distractor":"01113171","target":"present","response":"present","rt":"3141.5","correct":true,"confidence":5},{"trial_n":70,"span":8,"encoder":"57983588","distractor":"97983588","target":"present","response":"present","rt":"1617.1999999285","correct":true,"confidence":3},{"trial_n":71,"span":8,"encoder":"40467319","distractor":"40467379","target":"present","response":"present","rt":"3067.1000000238","correct":true,"confidence":-1},{"trial_n":72,"span":8,"encoder":"30252273","distractor":"30252253","target":"present","response":"present","rt":"4570.6999999285","correct":true,"confidence":-1},{"trial_n":73,"span":9,"encoder":"205329304","distractor":"205349304","target":"absent","response":"absent","rt":"3163.8999999762","correct":true,"confidence":-1},{"trial_n":74,"span":9,"encoder":"752544909","distractor":"757544909","target":"absent","response":"absent","rt":"11518.100000024","correct":true,"confidence":-1},{"trial_n":75,"span":10,"encoder":"9807528088","distractor":"9507528088","target":"present","response":"absent","rt":"5824.6999999285","correct":false,"confidence":-1},{"trial_n":76,"span":9,"encoder":"628482283","distractor":"628882283","target":"present","response":"present","rt":"4714","correct":true,"confidence":-1},{"trial_n":77,"span":9,"encoder":"528518598","distractor":"528518498","target":"absent","response":"absent","rt":"6728.5","correct":true,"confidence":-1},{"trial_n":78,"span":10,"encoder":"7870252070","distractor":"7876252070","target":"present","response":"present","rt":"5324.8999999762","correct":true,"confidence":-1},{"trial_n":79,"span":10,"encoder":"9786692087","distractor":"9786602087","target":"absent","response":"present","rt":"9487.1999999285","correct":false,"confidence":-1},{"trial_n":80,"span":9,"encoder":"152051611","distractor":"155051611","target":"present","response":"present","rt":"3161","correct":true,"confidence":-1},{"trial_n":81,"span":9,"encoder":"701668987","distractor":"701678987","target":"present","response":"absent","rt":"5812.5","correct":false,"confidence":-1},{"trial_n":82,"span":8,"encoder":"19201270","distractor":"19201370","target":"absent","response":"present","rt":"2011.5","correct":false,"confidence":-1},{"trial_n":83,"span":7,"encoder":"0651214","distractor":"0671214","target":"absent","response":"present","rt":"7191.6000000238","correct":false,"confidence":-1},{"trial_n":84,"span":6,"encoder":"189821","distractor":"185821","target":"absent","response":"absent","rt":"2524.3999999762","correct":true,"confidence":-1},{"trial_n":85,"span":6,"encoder":"419604","distractor":"419634","target":"absent","response":"absent","rt":"4687.6999999285","correct":true,"confidence":-1},{"trial_n":86,"span":7,"encoder":"6854138","distractor":"6850138","target":"present","response":"present","rt":"13606.299999952","correct":true,"confidence":-1},{"trial_n":87,"span":7,"encoder":"2594166","distractor":"2584166","target":"present","response":"present","rt":"6122","correct":true,"confidence":-1},{"trial_n":88,"span":8,"encoder":"25707486","distractor":"25709486","target":"present","response":"present","rt":"3416.3999999762","correct":true,"confidence":-1},{"trial_n":89,"span":8,"encoder":"11969479","distractor":"17969479","target":"absent","response":"absent","rt":"5186.1999999285","correct":true,"confidence":-1},{"trial_n":90,"span":9,"encoder":"925627505","distractor":"925667505","target":"present","response":"present","rt":"17898.300000072","correct":true,"confidence":-1},{"trial_n":91,"span":9,"encoder":"660042395","distractor":"667042395","target":"absent","response":"present","rt":"2613.5","correct":false,"confidence":2},{"trial_n":92,"span":8,"encoder":"07171377","distractor":"07171373","target":"absent","response":"absent","rt":"7838.6000000238","correct":true,"confidence":3},{"trial_n":93,"span":8,"encoder":"85892624","distractor":"87892624","target":"present","response":"absent","rt":"3927.7999999523","correct":false,"confidence":3},{"trial_n":94,"span":7,"encoder":"3057103","distractor":"3057173","target":"present","response":"present","rt":"2040.1999999285","correct":true,"confidence":3},{"trial_n":95,"span":7,"encoder":"8633766","distractor":"8833766","target":"present","response":"absent","rt":"1648.4000000954","correct":false,"confidence":3},{"trial_n":96,"span":6,"encoder":"237657","distractor":"237659","target":"present","response":"absent","rt":"7374.6000000238","correct":false,"confidence":3},{"trial_n":97,"span":5,"encoder":"79722","distractor":"39722","target":"absent","response":"present","rt":"2528.3000000715","correct":false,"confidence":3},{"trial_n":98,"span":4,"encoder":"0181","distractor":"0131","target":"present","response":"present","rt":"2036.6000000238","correct":true,"confidence":5},{"trial_n":99,"span":4,"encoder":"6887","distractor":"6087","target":"present","response":"present","rt":"2266.7000000477","correct":true,"confidence":3},{"trial_n":100,"span":5,"encoder":"63645","distractor":"66645","target":"present","response":"present","rt":"2046.4000000954","correct":true,"confidence":3},{"trial_n":101,"span":5,"encoder":"62345","distractor":"22345","target":"present","response":"present","rt":"2699.6000000238","correct":true,"confidence":3},{"trial_n":102,"span":6,"encoder":"008209","distractor":"908209","target":"absent","response":"present","rt":"2109.8000000715","correct":false,"confidence":3},{"trial_n":103,"span":5,"encoder":"84374","distractor":"83374","target":"absent","response":"present","rt":"2041.4000000954","correct":false,"confidence":3},{"trial_n":104,"span":4,"encoder":"3937","distractor":"3938","target":"present","response":"present","rt":"2869.3999999762","correct":true,"confidence":3},{"trial_n":105,"span":4,"encoder":"3656","distractor":"3651","target":"present","response":"present","rt":"4748.2000000477","correct":true,"confidence":3},{"trial_n":106,"span":5,"encoder":"04580","distractor":"44580","target":"present","response":"present","rt":"2844.8000000715","correct":true,"confidence":3},{"trial_n":107,"span":5,"encoder":"42212","distractor":"42512","target":"absent","response":"present","rt":"4360.6999999285","correct":false,"confidence":3},{"trial_n":108,"span":4,"encoder":"8993","distractor":"8093","target":"absent","response":"present","rt":"4749","correct":false,"confidence":3},{"trial_n":109,"span":3,"encoder":"285","distractor":"585","target":"absent","response":"absent","rt":"2877.1000000238","correct":true,"confidence":3},{"trial_n":110,"span":3,"encoder":"859","distractor":"851","target":"absent","response":"absent","rt":"2355.5","correct":true,"confidence":3},{"trial_n":111,"span":4,"encoder":"7203","distractor":"8203","target":"present","response":"present","rt":"2848","correct":true,"confidence":3},{"trial_n":112,"span":4,"encoder":"3783","distractor":"7783","target":"present","response":"present","rt":"2306.8000000715","correct":true,"confidence":3},{"trial_n":113,"span":5,"encoder":"33801","distractor":"33831","target":"absent","response":"absent","rt":"2590.7000000477","correct":true,"confidence":3},{"trial_n":114,"span":5,"encoder":"01163","distractor":"01165","target":"present","response":"present","rt":"1577.3000000715","correct":true,"confidence":3},{"trial_n":115,"span":6,"encoder":"308711","distractor":"308761","target":"present","response":"present","rt":"2411.6000000238","correct":true,"confidence":5},{"trial_n":116,"span":6,"encoder":"387740","distractor":"387748","target":"absent","response":"present","rt":"5646.3000000715","correct":false,"confidence":3},{"trial_n":117,"span":5,"encoder":"52323","distractor":"51323","target":"absent","response":"absent","rt":"1461.1000000238","correct":true,"confidence":3},{"trial_n":118,"span":5,"encoder":"88127","distractor":"84127","target":"absent","response":"absent","rt":"2244.2000000477","correct":true,"confidence":3},{"trial_n":119,"span":6,"encoder":"681910","distractor":"881910","target":"present","response":"present","rt":"3050.3999999762","correct":true,"confidence":3},{"trial_n":120,"span":6,"encoder":"335224","distractor":"330224","target":"absent","response":"present","rt":"1505.5","correct":false,"confidence":3},{"trial_n":121,"span":5,"encoder":"20420","distractor":"20440","target":"present","response":"present","rt":"10392.899999976","correct":true,"confidence":3},{"trial_n":122,"span":5,"encoder":"86481","distractor":"86981","target":"absent","response":"present","rt":"4445.7999999523","correct":false,"confidence":1},{"trial_n":123,"span":4,"encoder":"6158","distractor":"6138","target":"absent","response":"present","rt":"1489.7000000477","correct":false,"confidence":1},{"trial_n":124,"span":3,"encoder":"711","distractor":"751","target":"present","response":"present","rt":"1033.2000000477","correct":true,"confidence":5},{"trial_n":125,"span":3,"encoder":"582","distractor":"583","target":"absent","response":"absent","rt":"1637.1000000238","correct":true,"confidence":5},{"trial_n":126,"span":4,"encoder":"4815","distractor":"4715","target":"present","response":"present","rt":"1829.7999999523","correct":true,"confidence":3},{"trial_n":127,"span":4,"encoder":"0356","distractor":"0856","target":"absent","response":"absent","rt":"2200.2999999523","correct":true,"confidence":5},{"trial_n":128,"span":5,"encoder":"78221","distractor":"08221","target":"absent","response":"present","rt":"2674.5","correct":false,"confidence":4},{"trial_n":129,"span":4,"encoder":"8190","distractor":"8194","target":"present","response":"present","rt":"1841.5","correct":true,"confidence":4},{"trial_n":130,"span":4,"encoder":"3227","distractor":"7227","target":"absent","response":"absent","rt":"1268.2999999523","correct":true,"confidence":5},{"trial_n":131,"span":5,"encoder":"80629","distractor":"60629","target":"absent","response":"absent","rt":"2704.7999999523","correct":true,"confidence":4},{"trial_n":132,"span":5,"encoder":"19451","distractor":"19251","target":"present","response":"present","rt":"2678.8000000715","correct":true,"confidence":4},{"trial_n":133,"span":6,"encoder":"907941","distractor":"905941","target":"absent","response":"absent","rt":"1933.1000000238","correct":true,"confidence":4},{"trial_n":134,"span":6,"encoder":"266719","distractor":"261719","target":"present","response":"present","rt":"1874.5","correct":true,"confidence":5},{"trial_n":135,"span":7,"encoder":"2877090","distractor":"2872090","target":"present","response":"present","rt":"2895.8999999762","correct":true,"confidence":4},{"trial_n":136,"span":7,"encoder":"2771608","distractor":"2071608","target":"absent","response":"absent","rt":"3304.2000000477","correct":true,"confidence":2},{"trial_n":137,"span":8,"encoder":"94337671","distractor":"94397671","target":"present","response":"absent","rt":"4489.5","correct":false,"confidence":3},{"trial_n":138,"span":7,"encoder":"4015925","distractor":"4015915","target":"present","response":"present","rt":"2189.3000000715","correct":true,"confidence":3},{"trial_n":139,"span":7,"encoder":"7048677","distractor":"7048277","target":"absent","response":"absent","rt":"1903.7000000477","correct":true,"confidence":5},{"trial_n":140,"span":8,"encoder":"73582552","distractor":"73562552","target":"absent","response":"absent","rt":"1763.6000000238","correct":true,"confidence":3}]