[{"trial_n":1,"span":8,"encoder":"48657399","distractor":"48657394","target":"present","response":"absent","rt":"10024.199999988","correct":false,"confidence":-1},{"trial_n":2,"span":6,"encoder":"681736","distractor":"681746","target":"present","response":"present","rt":"2182.5","correct":true,"confidence":-1},{"trial_n":3,"span":6,"encoder":"924086","distractor":"944086","target":"absent","response":"absent","rt":"2093.200000003","correct":true,"confidence":-1},{"trial_n":4,"span":8,"encoder":"54578095","distractor":"54571095","target":"absent","response":"absent","rt":"5402.700000003","correct":true,"confidence":-1},{"trial_n":5,"span":8,"encoder":"06059314","distractor":"06069314","target":"present","response":"present","rt":"4246.5","correct":true,"confidence":-1},{"trial_n":6,"span":10,"encoder":"1238467524","distractor":"8238467524","target":"absent","response":"absent","rt":"3063.299999997","correct":true,"confidence":-1},{"trial_n":7,"span":10,"encoder":"8599923285","distractor":"5599923285","target":"present","response":"present","rt":"3701.200000003","correct":true,"confidence":-1},{"trial_n":8,"span":12,"encoder":"773229374198","distractor":"573229374198","target":"absent","response":"absent","rt":"3938.8000000119","correct":true,"confidence":-1},{"trial_n":9,"span":12,"encoder":"095983092756","distractor":"095963092756","target":"present","response":"absent","rt":"4864.099999994","correct":false,"confidence":-1},{"trial_n":10,"span":10,"encoder":"0835436542","distractor":"0835433542","target":"absent","response":"present","rt":"3461.799999997","correct":false,"confidence":-1},{"trial_n":11,"span":8,"encoder":"25787962","distractor":"25707962","target":"present","response":"present","rt":"2635.299999997","correct":true,"confidence":-1},{"trial_n":12,"span":8,"encoder":"94966117","distractor":"94916117","target":"present","response":"absent","rt":"3896.5","correct":false,"confidence":-1},{"trial_n":13,"span":7,"encoder":"5043000","distractor":"5043060","target":"absent","response":"absent","rt":"3802.3999999911","correct":true,"confidence":-1},{"trial_n":14,"span":7,"encoder":"4522372","distractor":"4522376","target":"present","response":"absent","rt":"2270.099999994","correct":false,"confidence":-1},{"trial_n":15,"span":6,"encoder":"924380","distractor":"964380","target":"absent","response":"absent","rt":"2998.1000000089","correct":true,"confidence":-1},{"trial_n":16,"span":6,"encoder":"128694","distractor":"328694","target":"present","response":"absent","rt":"3125.099999994","correct":false,"confidence":-1},{"trial_n":17,"span":5,"encoder":"77216","distractor":"77214","target":"absent","response":"absent","rt":"60799.599999994","correct":true,"confidence":-1},{"trial_n":18,"span":5,"encoder":"06552","distractor":"06252","target":"present","response":"present","rt":"2336.200000003","correct":true,"confidence":-1},{"trial_n":19,"span":6,"encoder":"299182","distractor":"292182","target":"present","response":"absent","rt":"3068.700000003","correct":false,"confidence":-1},{"trial_n":20,"span":5,"encoder":"40280","distractor":"10280","target":"absent","response":"absent","rt":"1751.799999997","correct":true,"confidence":-1},{"trial_n":21,"span":5,"encoder":"27991","distractor":"27981","target":"present","response":"present","rt":"2459.200000003","correct":true,"confidence":5},{"trial_n":22,"span":6,"encoder":"542885","distractor":"552885","target":"present","response":"present","rt":"2427.5","correct":true,"confidence":5},{"trial_n":23,"span":6,"encoder":"040032","distractor":"240032","target":"absent","response":"absent","rt":"2794.6000000089","correct":true,"confidence":5},{"trial_n":24,"span":7,"encoder":"2629582","distractor":"2629587","target":"absent","response":"absent","rt":"3729.799999997","correct":true,"confidence":5},{"trial_n":25,"span":7,"encoder":"6708780","distractor":"6508780","target":"present","response":"present","rt":"7723","correct":true,"confidence":4},{"trial_n":26,"span":8,"encoder":"38215666","distractor":"98215666","target":"absent","response":"absent","rt":"3463.599999994","correct":true,"confidence":5},{"trial_n":27,"span":8,"encoder":"20346929","distractor":"20346629","target":"absent","response":"present","rt":"5857.299999997","correct":false,"confidence":3},{"trial_n":28,"span":7,"encoder":"3711621","distractor":"3717621","target":"present","response":"present","rt":"3027","correct":true,"confidence":5},{"trial_n":29,"span":7,"encoder":"1126436","distractor":"1126636","target":"absent","response":"absent","rt":"3946.099999994","correct":true,"confidence":5},{"trial_n":30,"span":8,"encoder":"84629720","distractor":"84639720","target":"absent","response":"absent","rt":"4664.299999997","correct":true,"confidence":4},{"trial_n":31,"span":8,"encoder":"15363261","distractor":"15333261","target":"absent","response":"absent","rt":"3577.599999994","correct":true,"confidence":5},{"trial_n":32,"span":9,"encoder":"552816345","distractor":"552866345","target":"absent","response":"absent","rt":"4753.5","correct":true,"confidence":5},{"trial_n":33,"span":9,"encoder":"582683206","distractor":"182683206","target":"absent","response":"absent","rt":"1995.400000006","correct":true,"confidence":5},{"trial_n":34,"span":10,"encoder":"9218545666","distractor":"9218546666","target":"absent","response":"present","rt":"5736.200000003","correct":false,"confidence":4},{"trial_n":35,"span":9,"encoder":"879904185","distractor":"879304185","target":"present","response":"present","rt":"3921.799999997","correct":true,"confidence":5},{"trial_n":36,"span":9,"encoder":"781196891","distractor":"782196891","target":"present","response":"present","rt":"5506.799999997","correct":true,"confidence":4},{"trial_n":37,"span":10,"encoder":"4280827679","distractor":"4289827679","target":"present","response":"present","rt":"4063.200000003","correct":true,"confidence":5},{"trial_n":38,"span":10,"encoder":"0600381524","distractor":"0600389524","target":"absent","response":"present","rt":"4714.6999999881","correct":false,"confidence":4},{"trial_n":39,"span":9,"encoder":"878443516","distractor":"878443536","target":"absent","response":"absent","rt":"4253.3000000119","correct":true,"confidence":5},{"trial_n":40,"span":9,"encoder":"647869069","distractor":"647869049","target":"present","response":"present","rt":"5186.400000006","correct":true,"confidence":4},{"trial_n":41,"span":10,"encoder":"2335928398","distractor":"9335928398","target":"present","response":"present","rt":"3882.200000003","correct":true,"confidence":5},{"trial_n":42,"span":10,"encoder":"4420887181","distractor":"4420867181","target":"present","response":"present","rt":"3836.5","correct":true,"confidence":5},{"trial_n":43,"span":11,"encoder":"96352322153","distractor":"98352322153","target":"absent","response":"present","rt":"8390.299999997","correct":false,"confidence":3},{"trial_n":44,"span":10,"encoder":"1822960050","distractor":"1822660050","target":"absent","response":"absent","rt":"4457.299999997","correct":true,"confidence":4},{"trial_n":45,"span":10,"encoder":"9657780265","distractor":"9657780263","target":"present","response":"present","rt":"4639.799999997","correct":true,"confidence":4},{"trial_n":46,"span":11,"encoder":"65285759924","distractor":"65285779924","target":"absent","response":"present","rt":"4395.6999999881","correct":false,"confidence":3},{"trial_n":47,"span":10,"encoder":"3286902199","distractor":"3286902192","target":"absent","response":"absent","rt":"5758.200000003","correct":true,"confidence":4},{"trial_n":48,"span":10,"encoder":"7858082602","distractor":"7858086602","target":"present","response":"absent","rt":"6884.700000003","correct":false,"confidence":3},{"trial_n":49,"span":9,"encoder":"759490997","distractor":"759490197","target":"present","response":"present","rt":"5473.400000006","correct":true,"confidence":4},{"trial_n":50,"span":9,"encoder":"360402675","distractor":"360407675","target":"absent","response":"present","rt":"9572.3999999911","correct":false,"confidence":4},{"trial_n":51,"span":8,"encoder":"45906879","distractor":"45966879","target":"present","response":"present","rt":"3467","correct":true,"confidence":5},{"trial_n":52,"span":8,"encoder":"70287685","distractor":"70287682","target":"absent","response":"absent","rt":"3900.400000006","correct":true,"confidence":5},{"trial_n":53,"span":9,"encoder":"993887226","distractor":"993887526","target":"present","response":"present","rt":"4051.799999997","correct":true,"confidence":5},{"trial_n":54,"span":9,"encoder":"724067578","distractor":"724067577","target":"present","response":"present","rt":"3483.400000006","correct":true,"confidence":5},{"trial_n":55,"span":10,"encoder":"0604712920","distractor":"0604719920","target":"present","response":"present","rt":"6165.400000006","correct":true,"confidence":3},{"trial_n":56,"span":10,"encoder":"3485122336","distractor":"3485122936","target":"absent","response":"absent","rt":"5709.099999994","correct":true,"confidence":5},{"trial_n":57,"span":11,"encoder":"16338942924","distractor":"16338943924","target":"absent","response":"present","rt":"5430.6000000089","correct":false,"confidence":4},{"trial_n":58,"span":10,"encoder":"9797452030","distractor":"9797452032","target":"absent","response":"absent","rt":"5958.200000003","correct":true,"confidence":4},{"trial_n":59,"span":10,"encoder":"7677959964","distractor":"7677959464","target":"present","response":"present","rt":"3714.799999997","correct":true,"confidence":5},{"trial_n":60,"span":11,"encoder":"99625641587","distractor":"99685641587","target":"present","response":"present","rt":"5516","correct":true,"confidence":4},{"trial_n":61,"span":11,"encoder":"64259168724","distractor":"64259168704","target":"present","response":"absent","rt":"6779.400000006","correct":false,"confidence":3},{"trial_n":62,"span":10,"encoder":"5773725490","distractor":"5773225490","target":"present","response":"absent","rt":"4270.5","correct":false,"confidence":4},{"trial_n":63,"span":9,"encoder":"690035472","distractor":"690035474","target":"absent","response":"absent","rt":"4085","correct":true,"confidence":5},{"trial_n":64,"span":9,"encoder":"045116596","distractor":"045116696","target":"absent","response":"absent","rt":"6328.900000006","correct":true,"confidence":5},{"trial_n":65,"span":10,"encoder":"8627718028","distractor":"8627718021","target":"present","response":"present","rt":"6083.1999999881","correct":true,"confidence":3},{"trial_n":66,"span":10,"encoder":"7171829905","distractor":"7171129905","target":"present","response":"present","rt":"4288.8999999911","correct":true,"confidence":5},{"trial_n":67,"span":11,"encoder":"18193642575","distractor":"18190642575","target":"present","response":"absent","rt":"8530.799999997","correct":false,"confidence":3},{"trial_n":68,"span":10,"encoder":"4776239873","distractor":"4776339873","target":"present","response":"present","rt":"4590.299999997","correct":true,"confidence":3},{"trial_n":69,"span":10,"encoder":"5353076313","distractor":"5323076313","target":"absent","response":"absent","rt":"5261.8000000119","correct":true,"confidence":5},{"trial_n":70,"span":11,"encoder":"84937596678","distractor":"84337596678","target":"absent","response":"absent","rt":"9824.799999997","correct":true,"confidence":3},{"trial_n":71,"span":8,"encoder":"51391634","distractor":"41391634","target":"present","response":"absent","rt":"3177.099999994","correct":false,"confidence":-1},{"trial_n":72,"span":7,"encoder":"4607153","distractor":"4907153","target":"present","response":"absent","rt":"6582","correct":false,"confidence":-1},{"trial_n":73,"span":6,"encoder":"765728","distractor":"765828","target":"absent","response":"absent","rt":"3255","correct":true,"confidence":-1},{"trial_n":74,"span":6,"encoder":"341231","distractor":"341237","target":"absent","response":"absent","rt":"3194.5","correct":true,"confidence":-1},{"trial_n":75,"span":7,"encoder":"0664671","distractor":"2664671","target":"present","response":"present","rt":"3053.200000003","correct":true,"confidence":-1},{"trial_n":76,"span":7,"encoder":"8531747","distractor":"8541747","target":"absent","response":"absent","rt":"3171.6999999881","correct":true,"confidence":-1},{"trial_n":77,"span":8,"encoder":"45044873","distractor":"85044873","target":"absent","response":"present","rt":"5104.099999994","correct":false,"confidence":-1},{"trial_n":78,"span":7,"encoder":"1112518","distractor":"1112618","target":"absent","response":"absent","rt":"2747.299999997","correct":true,"confidence":-1},{"trial_n":79,"span":7,"encoder":"2111001","distractor":"2115001","target":"absent","response":"present","rt":"6238.3999999911","correct":false,"confidence":-1},{"trial_n":80,"span":6,"encoder":"857834","distractor":"257834","target":"absent","response":"absent","rt":"2421","correct":true,"confidence":-1},{"trial_n":81,"span":6,"encoder":"972868","distractor":"972368","target":"absent","response":"absent","rt":"5729.799999997","correct":true,"confidence":-1},{"trial_n":82,"span":7,"encoder":"6884215","distractor":"6884415","target":"present","response":"present","rt":"2633.700000003","correct":true,"confidence":-1},{"trial_n":83,"span":7,"encoder":"7130025","distractor":"7190025","target":"absent","response":"absent","rt":"3019.400000006","correct":true,"confidence":-1},{"trial_n":84,"span":8,"encoder":"78617425","distractor":"78917425","target":"absent","response":"absent","rt":"6428.6000000089","correct":true,"confidence":-1},{"trial_n":85,"span":8,"encoder":"03473158","distractor":"08473158","target":"present","response":"present","rt":"2865.5","correct":true,"confidence":-1},{"trial_n":86,"span":9,"encoder":"510118443","distractor":"510118743","target":"absent","response":"absent","rt":"5137.700000003","correct":true,"confidence":-1},{"trial_n":87,"span":9,"encoder":"214981541","distractor":"214681541","target":"absent","response":"absent","rt":"8290.8999999911","correct":true,"confidence":-1},{"trial_n":88,"span":10,"encoder":"5042184005","distractor":"5082184005","target":"absent","response":"absent","rt":"5691.400000006","correct":true,"confidence":-1},{"trial_n":89,"span":10,"encoder":"5410167040","distractor":"9410167040","target":"present","response":"present","rt":"5100.799999997","correct":true,"confidence":-1},{"trial_n":90,"span":11,"encoder":"80086764724","distractor":"80026764724","target":"present","response":"present","rt":"6812.599999994","correct":true,"confidence":-1},{"trial_n":91,"span":11,"encoder":"07132715687","distractor":"07132715680","target":"absent","response":"absent","rt":"6020.8000000119","correct":true,"confidence":5},{"trial_n":92,"span":12,"encoder":"393427199002","distractor":"393427099002","target":"absent","response":"present","rt":"5999","correct":false,"confidence":4},{"trial_n":93,"span":11,"encoder":"98036517670","distractor":"98036577670","target":"present","response":"present","rt":"7266.5","correct":true,"confidence":4},{"trial_n":94,"span":11,"encoder":"76415486186","distractor":"76915486186","target":"present","response":"present","rt":"5057.200000003","correct":true,"confidence":4},{"trial_n":95,"span":12,"encoder":"676594909767","distractor":"676594902767","target":"present","response":"present","rt":"8061.1999999881","correct":true,"confidence":4},{"trial_n":96,"span":12,"encoder":"739695039365","distractor":"239695039365","target":"present","response":"absent","rt":"9206.1000000089","correct":false,"confidence":3},{"trial_n":97,"span":11,"encoder":"47282002062","distractor":"47282002032","target":"present","response":"present","rt":"10667.799999997","correct":true,"confidence":5},{"trial_n":98,"span":11,"encoder":"78270928056","distractor":"78870928056","target":"present","response":"present","rt":"6351","correct":true,"confidence":4},{"trial_n":99,"span":12,"encoder":"542255768738","distractor":"542255763738","target":"absent","response":"present","rt":"11602.600000009","correct":false,"confidence":3},{"trial_n":100,"span":11,"encoder":"82286657014","distractor":"82286657017","target":"present","response":"present","rt":"12602.599999994","correct":true,"confidence":5},{"trial_n":101,"span":11,"encoder":"13974704741","distractor":"13974404741","target":"absent","response":"present","rt":"8693.200000003","correct":false,"confidence":3},{"trial_n":102,"span":10,"encoder":"8820476707","distractor":"8120476707","target":"present","response":"present","rt":"5073","correct":true,"confidence":5},{"trial_n":103,"span":10,"encoder":"6069079944","distractor":"6769079944","target":"present","response":"present","rt":"8258.799999997","correct":true,"confidence":3},{"trial_n":104,"span":11,"encoder":"12472333530","distractor":"12772333530","target":"present","response":"present","rt":"8475.8999999911","correct":true,"confidence":4},{"trial_n":105,"span":11,"encoder":"40296872436","distractor":"40298872436","target":"present","response":"present","rt":"11205","correct":true,"confidence":3},{"trial_n":106,"span":12,"encoder":"880584074177","distractor":"880684074177","target":"present","response":"present","rt":"10368.5","correct":true,"confidence":5},{"trial_n":107,"span":12,"encoder":"423707367072","distractor":"423707347072","target":"absent","response":"present","rt":"13158.200000003","correct":false,"confidence":4},{"trial_n":108,"span":11,"encoder":"70732221763","distractor":"70762221763","target":"present","response":"absent","rt":"9782.400000006","correct":false,"confidence":4},{"trial_n":109,"span":10,"encoder":"2337056574","distractor":"2337056571","target":"absent","response":"absent","rt":"8785.799999997","correct":true,"confidence":5},{"trial_n":110,"span":10,"encoder":"8095166092","distractor":"8095166022","target":"absent","response":"absent","rt":"4047.799999997","correct":true,"confidence":5},{"trial_n":111,"span":11,"encoder":"66503307221","distractor":"66503307227","target":"present","response":"present","rt":"4081.599999994","correct":true,"confidence":5},{"trial_n":112,"span":11,"encoder":"84853493416","distractor":"84853693416","target":"present","response":"present","rt":"12238.299999997","correct":true,"confidence":4},{"trial_n":113,"span":12,"encoder":"122411083298","distractor":"122421083298","target":"absent","response":"absent","rt":"6192.599999994","correct":true,"confidence":4},{"trial_n":114,"span":12,"encoder":"532623789270","distractor":"532622789270","target":"present","response":"absent","rt":"10600.200000003","correct":false,"confidence":3},{"trial_n":115,"span":11,"encoder":"20305135524","distractor":"20307135524","target":"present","response":"absent","rt":"11777.799999997","correct":false,"confidence":3},{"trial_n":116,"span":10,"encoder":"7078325282","distractor":"7076325282","target":"absent","response":"absent","rt":"6009.6000000089","correct":true,"confidence":5},{"trial_n":117,"span":10,"encoder":"6245614653","distractor":"6245618653","target":"present","response":"absent","rt":"10452.099999994","correct":false,"confidence":3},{"trial_n":118,"span":9,"encoder":"368382088","distractor":"362382088","target":"present","response":"absent","rt":"6807.200000003","correct":false,"confidence":4},{"trial_n":119,"span":8,"encoder":"58136452","distractor":"51136452","target":"present","response":"present","rt":"9189.6000000089","correct":true,"confidence":5},{"trial_n":120,"span":8,"encoder":"89817486","distractor":"89817466","target":"present","response":"present","rt":"4129.299999997","correct":true,"confidence":5},{"trial_n":121,"span":9,"encoder":"867411739","distractor":"862411739","target":"present","response":"present","rt":"3271.299999997","correct":true,"confidence":5},{"trial_n":122,"span":9,"encoder":"784515567","distractor":"784545567","target":"absent","response":"absent","rt":"4389.6000000089","correct":true,"confidence":5},{"trial_n":123,"span":10,"encoder":"3120782548","distractor":"3120482548","target":"absent","response":"absent","rt":"6158.8999999911","correct":true,"confidence":5},{"trial_n":124,"span":10,"encoder":"1692620353","distractor":"1692680353","target":"absent","response":"absent","rt":"8831","correct":true,"confidence":3},{"trial_n":125,"span":11,"encoder":"90981533615","distractor":"90981533625","target":"absent","response":"present","rt":"4661.3999999911","correct":false,"confidence":4},{"trial_n":126,"span":10,"encoder":"8359354780","distractor":"8659354780","target":"absent","response":"absent","rt":"6601.799999997","correct":true,"confidence":4},{"trial_n":127,"span":10,"encoder":"5218543374","distractor":"2218543374","target":"present","response":"present","rt":"4489.299999997","correct":true,"confidence":5},{"trial_n":128,"span":11,"encoder":"04648684747","distractor":"04628684747","target":"absent","response":"absent","rt":"12346.099999994","correct":true,"confidence":2},{"trial_n":129,"span":11,"encoder":"84388778605","distractor":"84384778605","target":"absent","response":"present","rt":"9775.900000006","correct":false,"confidence":4},{"trial_n":130,"span":10,"encoder":"5567159972","distractor":"5567159979","target":"absent","response":"absent","rt":"5722","correct":true,"confidence":5},{"trial_n":131,"span":10,"encoder":"6231055265","distractor":"6231255265","target":"absent","response":"absent","rt":"5323.1000000089","correct":true,"confidence":5},{"trial_n":132,"span":11,"encoder":"13360260017","distractor":"13360260037","target":"absent","response":"absent","rt":"7729.700000003","correct":true,"confidence":3},{"trial_n":133,"span":11,"encoder":"58132089605","distractor":"58032089605","target":"present","response":"absent","rt":"12217.299999997","correct":false,"confidence":3},{"trial_n":134,"span":10,"encoder":"8163371964","distractor":"8163373964","target":"present","response":"present","rt":"6120.299999997","correct":true,"confidence":4},{"trial_n":135,"span":10,"encoder":"3272743686","distractor":"3271743686","target":"absent","response":"present","rt":"12319.600000009","correct":false,"confidence":4},{"trial_n":136,"span":9,"encoder":"202938181","distractor":"202938187","target":"present","response":"present","rt":"10597.200000003","correct":true,"confidence":5},{"trial_n":137,"span":9,"encoder":"230240971","distractor":"230240271","target":"absent","response":"absent","rt":"6812.700000003","correct":true,"confidence":4},{"trial_n":138,"span":10,"encoder":"0346660994","distractor":"0346660995","target":"present","response":"present","rt":"5569","correct":true,"confidence":5},{"trial_n":139,"span":10,"encoder":"9616819268","distractor":"9616889268","target":"present","response":"present","rt":"8147.5","correct":true,"confidence":4},{"trial_n":140,"span":11,"encoder":"41537818087","distractor":"41507818087","target":"present","response":"present","rt":"5674","correct":true,"confidence":4}]