[{"trial_n":1,"min":25,"max":230,"target":"present","response":"present","rt":9204.8000000119,"correct":true,"confidence":-1},{"trial_n":2,"min":25,"max":230,"target":"present","response":"present","rt":7570.5,"correct":true,"confidence":-1},{"trial_n":3,"min":41,"max":214,"target":"absent","response":"absent","rt":688.39999997616,"correct":true,"confidence":-1},{"trial_n":4,"min":41,"max":214,"target":"absent","response":"absent","rt":503.5,"correct":true,"confidence":-1},{"trial_n":5,"min":57,"max":198,"target":"present","response":"present","rt":467.80000001192,"correct":true,"confidence":-1},{"trial_n":6,"min":57,"max":198,"target":"absent","response":"absent","rt":513.39999997616,"correct":true,"confidence":-1},{"trial_n":7,"min":73,"max":182,"target":"absent","response":"absent","rt":713.69999998808,"correct":true,"confidence":-1},{"trial_n":8,"min":73,"max":182,"target":"present","response":"present","rt":546.20000004768,"correct":true,"confidence":-1},{"trial_n":9,"min":89,"max":166,"target":"present","response":"absent","rt":470.80000001192,"correct":false,"confidence":-1},{"trial_n":10,"min":73,"max":182,"target":"present","response":"present","rt":602.80000001192,"correct":true,"confidence":-1},{"trial_n":11,"min":73,"max":182,"target":"present","response":"present","rt":632.20000004768,"correct":true,"confidence":-1},{"trial_n":12,"min":81,"max":174,"target":"present","response":"present","rt":683.90000003576,"correct":true,"confidence":-1},{"trial_n":13,"min":81,"max":174,"target":"present","response":"present","rt":550.80000001192,"correct":true,"confidence":-1},{"trial_n":14,"min":89,"max":166,"target":"absent","response":"absent","rt":532,"correct":true,"confidence":-1},{"trial_n":15,"min":89,"max":166,"target":"present","response":"absent","rt":572.19999998808,"correct":false,"confidence":-1},{"trial_n":16,"min":81,"max":174,"target":"present","response":"absent","rt":664.89999997616,"correct":false,"confidence":-1},{"trial_n":17,"min":73,"max":182,"target":"absent","response":"absent","rt":569.19999998808,"correct":true,"confidence":-1},{"trial_n":18,"min":73,"max":182,"target":"present","response":"absent","rt":516.79999995232,"correct":false,"confidence":-1},{"trial_n":19,"min":65,"max":190,"target":"absent","response":"absent","rt":599.39999997616,"correct":true,"confidence":-1},{"trial_n":20,"min":65,"max":190,"target":"absent","response":"absent","rt":668,"correct":true,"confidence":-1},{"trial_n":21,"min":69,"max":186,"target":"absent","response":"absent","rt":819.89999997616,"correct":true,"confidence":2},{"trial_n":22,"min":69,"max":186,"target":"absent","response":"present","rt":20478.099999964,"correct":false,"confidence":1},{"trial_n":23,"min":65,"max":190,"target":"present","response":"present","rt":2541,"correct":true,"confidence":3},{"trial_n":24,"min":65,"max":190,"target":"absent","response":"absent","rt":647.09999996424,"correct":true,"confidence":1},{"trial_n":25,"min":69,"max":186,"target":"absent","response":"absent","rt":947.70000004768,"correct":true,"confidence":1},{"trial_n":26,"min":69,"max":186,"target":"absent","response":"present","rt":1278,"correct":false,"confidence":3},{"trial_n":27,"min":65,"max":190,"target":"present","response":"present","rt":1007.5,"correct":true,"confidence":1},{"trial_n":28,"min":65,"max":190,"target":"present","response":"present","rt":746.69999998808,"correct":true,"confidence":3},{"trial_n":29,"min":69,"max":186,"target":"absent","response":"present","rt":714.40000003576,"correct":false,"confidence":3},{"trial_n":30,"min":65,"max":190,"target":"absent","response":"present","rt":727.19999998808,"correct":false,"confidence":1},{"trial_n":31,"min":63,"max":192,"target":"absent","response":"absent","rt":2078.8999999762,"correct":true,"confidence":1},{"trial_n":32,"min":63,"max":192,"target":"present","response":"present","rt":995.60000002384,"correct":true,"confidence":5},{"trial_n":33,"min":65,"max":190,"target":"present","response":"present","rt":1780.9000000358,"correct":true,"confidence":5},{"trial_n":34,"min":65,"max":190,"target":"present","response":"present","rt":668,"correct":true,"confidence":1},{"trial_n":35,"min":67,"max":188,"target":"present","response":"present","rt":2142.3999999762,"correct":true,"confidence":5},{"trial_n":36,"min":67,"max":188,"target":"present","response":"present","rt":474.09999996424,"correct":true,"confidence":5},{"trial_n":37,"min":69,"max":186,"target":"present","response":"present","rt":563.70000004768,"correct":true,"confidence":5},{"trial_n":38,"min":69,"max":186,"target":"absent","response":"present","rt":839.60000002384,"correct":false,"confidence":4},{"trial_n":39,"min":67,"max":188,"target":"absent","response":"present","rt":1148.8999999762,"correct":false,"confidence":3},{"trial_n":40,"min":65,"max":190,"target":"present","response":"present","rt":532.90000003576,"correct":true,"confidence":5},{"trial_n":41,"min":65,"max":190,"target":"present","response":"present","rt":1043.8000000119,"correct":true,"confidence":5},{"trial_n":42,"min":66,"max":189,"target":"present","response":"present","rt":443.20000004768,"correct":true,"confidence":5},{"trial_n":43,"min":66,"max":189,"target":"absent","response":"present","rt":883.90000003576,"correct":false,"confidence":5},{"trial_n":44,"min":65,"max":190,"target":"absent","response":"present","rt":472.19999998808,"correct":false,"confidence":4},{"trial_n":45,"min":64,"max":191,"target":"absent","response":"present","rt":1209.3000000119,"correct":false,"confidence":3},{"trial_n":46,"min":63,"max":192,"target":"absent","response":"absent","rt":2132.1999999881,"correct":true,"confidence":3},{"trial_n":47,"min":63,"max":192,"target":"absent","response":"present","rt":1577.8000000119,"correct":false,"confidence":3},{"trial_n":48,"min":62,"max":193,"target":"absent","response":"present","rt":1331.3999999762,"correct":false,"confidence":3},{"trial_n":49,"min":61,"max":194,"target":"present","response":"present","rt":895.40000003576,"correct":true,"confidence":5},{"trial_n":50,"min":61,"max":194,"target":"present","response":"present","rt":821,"correct":true,"confidence":5},{"trial_n":51,"min":62,"max":193,"target":"present","response":"present","rt":1322.6999999881,"correct":true,"confidence":5},{"trial_n":52,"min":62,"max":193,"target":"absent","response":"absent","rt":1222.6000000238,"correct":true,"confidence":3},{"trial_n":53,"min":63,"max":192,"target":"present","response":"present","rt":529.80000001192,"correct":true,"confidence":5},{"trial_n":54,"min":63,"max":192,"target":"present","response":"present","rt":890.19999998808,"correct":true,"confidence":5},{"trial_n":55,"min":64,"max":191,"target":"absent","response":"absent","rt":1113.8999999762,"correct":true,"confidence":3},{"trial_n":56,"min":64,"max":191,"target":"present","response":"present","rt":917.10000002384,"correct":true,"confidence":3},{"trial_n":57,"min":65,"max":190,"target":"absent","response":"absent","rt":963.10000002384,"correct":true,"confidence":3},{"trial_n":58,"min":65,"max":190,"target":"absent","response":"absent","rt":3952.0999999642,"correct":true,"confidence":1},{"trial_n":59,"min":66,"max":189,"target":"present","response":"present","rt":1177,"correct":true,"confidence":5},{"trial_n":60,"min":66,"max":189,"target":"absent","response":"absent","rt":1121,"correct":true,"confidence":1},{"trial_n":61,"min":67,"max":188,"target":"absent","response":"absent","rt":1061.0999999642,"correct":true,"confidence":3},{"trial_n":62,"min":67,"max":188,"target":"absent","response":"present","rt":1074.1999999881,"correct":false,"confidence":5},{"trial_n":63,"min":66,"max":189,"target":"present","response":"present","rt":1096.1000000238,"correct":true,"confidence":5},{"trial_n":64,"min":66,"max":189,"target":"present","response":"present","rt":743.39999997616,"correct":true,"confidence":5},{"trial_n":65,"min":67,"max":188,"target":"present","response":"present","rt":274.39999997616,"correct":true,"confidence":5},{"trial_n":66,"min":67,"max":188,"target":"absent","response":"absent","rt":1030.3000000119,"correct":true,"confidence":4},{"trial_n":67,"min":68,"max":187,"target":"absent","response":"absent","rt":993,"correct":true,"confidence":3},{"trial_n":68,"min":68,"max":187,"target":"present","response":"present","rt":1863,"correct":true,"confidence":5},{"trial_n":69,"min":69,"max":186,"target":"present","response":"present","rt":515.10000002384,"correct":true,"confidence":5},{"trial_n":70,"min":69,"max":186,"target":"absent","response":"absent","rt":891.39999997616,"correct":true,"confidence":3},{"trial_n":71,"min":41,"max":214,"target":"present","response":"present","rt":9699.1000000238,"correct":true,"confidence":-1},{"trial_n":72,"min":41,"max":214,"target":"present","response":"present","rt":817.10000002384,"correct":true,"confidence":-1},{"trial_n":73,"min":57,"max":198,"target":"absent","response":"absent","rt":322.5,"correct":true,"confidence":-1},{"trial_n":74,"min":57,"max":198,"target":"absent","response":"absent","rt":380.30000001192,"correct":true,"confidence":-1},{"trial_n":75,"min":73,"max":182,"target":"present","response":"present","rt":377.30000001192,"correct":true,"confidence":-1},{"trial_n":76,"min":73,"max":182,"target":"present","response":"present","rt":496.80000001192,"correct":true,"confidence":-1},{"trial_n":77,"min":89,"max":166,"target":"present","response":"present","rt":1963.2999999523,"correct":true,"confidence":-1},{"trial_n":78,"min":89,"max":166,"target":"absent","response":"absent","rt":1031.1000000238,"correct":true,"confidence":-1},{"trial_n":79,"min":105,"max":150,"target":"absent","response":"absent","rt":623.90000003576,"correct":true,"confidence":-1},{"trial_n":80,"min":105,"max":150,"target":"absent","response":"absent","rt":922,"correct":true,"confidence":-1},{"trial_n":81,"min":113,"max":142,"target":"absent","response":"absent","rt":504.60000002384,"correct":true,"confidence":-1},{"trial_n":82,"min":113,"max":142,"target":"present","response":"absent","rt":748.89999997616,"correct":false,"confidence":-1},{"trial_n":83,"min":105,"max":150,"target":"absent","response":"absent","rt":678.10000002384,"correct":true,"confidence":-1},{"trial_n":84,"min":105,"max":150,"target":"present","response":"absent","rt":1973.8000000119,"correct":false,"confidence":-1},{"trial_n":85,"min":97,"max":158,"target":"absent","response":"present","rt":809.10000002384,"correct":false,"confidence":-1},{"trial_n":86,"min":89,"max":166,"target":"present","response":"absent","rt":2682.7999999523,"correct":false,"confidence":-1},{"trial_n":87,"min":81,"max":174,"target":"present","response":"present","rt":528,"correct":true,"confidence":-1},{"trial_n":88,"min":81,"max":174,"target":"absent","response":"absent","rt":768.59999996424,"correct":true,"confidence":-1},{"trial_n":89,"min":89,"max":166,"target":"present","response":"absent","rt":951,"correct":false,"confidence":-1},{"trial_n":90,"min":81,"max":174,"target":"absent","response":"absent","rt":602.60000002384,"correct":true,"confidence":-1},{"trial_n":91,"min":81,"max":174,"target":"present","response":"present","rt":734,"correct":true,"confidence":3},{"trial_n":92,"min":85,"max":170,"target":"absent","response":"absent","rt":1600.3000000119,"correct":true,"confidence":1},{"trial_n":93,"min":85,"max":170,"target":"absent","response":"absent","rt":485.10000002384,"correct":true,"confidence":1},{"trial_n":94,"min":89,"max":166,"target":"absent","response":"absent","rt":536.60000002384,"correct":true,"confidence":1},{"trial_n":95,"min":89,"max":166,"target":"present","response":"present","rt":1003.5999999642,"correct":true,"confidence":1},{"trial_n":96,"min":93,"max":162,"target":"absent","response":"absent","rt":1020.8999999762,"correct":true,"confidence":1},{"trial_n":97,"min":93,"max":162,"target":"absent","response":"absent","rt":1038.5,"correct":true,"confidence":1},{"trial_n":98,"min":97,"max":158,"target":"present","response":"absent","rt":828.89999997616,"correct":false,"confidence":1},{"trial_n":99,"min":93,"max":162,"target":"present","response":"absent","rt":600.5,"correct":false,"confidence":1},{"trial_n":100,"min":89,"max":166,"target":"present","response":"absent","rt":641.30000001192,"correct":false,"confidence":1},{"trial_n":101,"min":87,"max":168,"target":"absent","response":"absent","rt":799.5,"correct":true,"confidence":1},{"trial_n":102,"min":87,"max":168,"target":"present","response":"absent","rt":340.40000003576,"correct":false,"confidence":1},{"trial_n":103,"min":85,"max":170,"target":"absent","response":"absent","rt":590,"correct":true,"confidence":1},{"trial_n":104,"min":85,"max":170,"target":"absent","response":"absent","rt":696.60000002384,"correct":true,"confidence":1},{"trial_n":105,"min":87,"max":168,"target":"absent","response":"present","rt":739.09999996424,"correct":false,"confidence":1},{"trial_n":106,"min":85,"max":170,"target":"present","response":"absent","rt":1105.5,"correct":false,"confidence":1},{"trial_n":107,"min":83,"max":172,"target":"absent","response":"absent","rt":680.30000001192,"correct":true,"confidence":1},{"trial_n":108,"min":83,"max":172,"target":"present","response":"absent","rt":605.80000001192,"correct":false,"confidence":1},{"trial_n":109,"min":81,"max":174,"target":"present","response":"present","rt":1176.2999999523,"correct":true,"confidence":3},{"trial_n":110,"min":81,"max":174,"target":"present","response":"absent","rt":665,"correct":false,"confidence":1},{"trial_n":111,"min":80,"max":175,"target":"present","response":"absent","rt":441.19999998808,"correct":false,"confidence":1},{"trial_n":112,"min":79,"max":176,"target":"present","response":"absent","rt":677.29999995232,"correct":false,"confidence":1},{"trial_n":113,"min":78,"max":177,"target":"absent","response":"present","rt":1031.3999999762,"correct":false,"confidence":3},{"trial_n":114,"min":77,"max":178,"target":"present","response":"absent","rt":331.89999997616,"correct":false,"confidence":3},{"trial_n":115,"min":76,"max":179,"target":"absent","response":"absent","rt":685.30000001192,"correct":true,"confidence":3},{"trial_n":116,"min":76,"max":179,"target":"present","response":"present","rt":634.19999998808,"correct":true,"confidence":4},{"trial_n":117,"min":77,"max":178,"target":"present","response":"absent","rt":582.80000001192,"correct":false,"confidence":3},{"trial_n":118,"min":76,"max":179,"target":"present","response":"present","rt":592.60000002384,"correct":true,"confidence":4},{"trial_n":119,"min":76,"max":179,"target":"present","response":"present","rt":1284.8000000119,"correct":true,"confidence":5},{"trial_n":120,"min":77,"max":178,"target":"absent","response":"absent","rt":458.09999996424,"correct":true,"confidence":4},{"trial_n":121,"min":77,"max":178,"target":"absent","response":"absent","rt":524.69999998808,"correct":true,"confidence":1},{"trial_n":122,"min":78,"max":177,"target":"absent","response":"absent","rt":833.79999995232,"correct":true,"confidence":1},{"trial_n":123,"min":78,"max":177,"target":"absent","response":"absent","rt":924.29999995232,"correct":true,"confidence":3},{"trial_n":124,"min":79,"max":176,"target":"present","response":"present","rt":403.39999997616,"correct":true,"confidence":4},{"trial_n":125,"min":79,"max":176,"target":"absent","response":"absent","rt":218.30000001192,"correct":true,"confidence":2},{"trial_n":126,"min":80,"max":175,"target":"absent","response":"absent","rt":5106,"correct":true,"confidence":1},{"trial_n":127,"min":80,"max":175,"target":"absent","response":"absent","rt":914,"correct":true,"confidence":1},{"trial_n":128,"min":81,"max":174,"target":"absent","response":"absent","rt":742,"correct":true,"confidence":1},{"trial_n":129,"min":81,"max":174,"target":"present","response":"absent","rt":1425,"correct":false,"confidence":3},{"trial_n":130,"min":80,"max":175,"target":"present","response":"present","rt":2452.3999999762,"correct":true,"confidence":1},{"trial_n":131,"min":80,"max":175,"target":"absent","response":"present","rt":729.29999995232,"correct":false,"confidence":1},{"trial_n":132,"min":79,"max":176,"target":"present","response":"present","rt":1296.5,"correct":true,"confidence":3},{"trial_n":133,"min":79,"max":176,"target":"present","response":"present","rt":555.89999997616,"correct":true,"confidence":1},{"trial_n":134,"min":80,"max":175,"target":"present","response":"absent","rt":1104,"correct":false,"confidence":1},{"trial_n":135,"min":79,"max":176,"target":"present","response":"absent","rt":846.30000001192,"correct":false,"confidence":4},{"trial_n":136,"min":78,"max":177,"target":"present","response":"absent","rt":765.80000001192,"correct":false,"confidence":2},{"trial_n":137,"min":77,"max":178,"target":"absent","response":"absent","rt":666,"correct":true,"confidence":2},{"trial_n":138,"min":77,"max":178,"target":"absent","response":"absent","rt":626.80000001192,"correct":true,"confidence":1},{"trial_n":139,"min":78,"max":177,"target":"absent","response":"present","rt":511.30000001192,"correct":false,"confidence":2},{"trial_n":140,"min":77,"max":178,"target":"present","response":"present","rt":598.5,"correct":true,"confidence":5}]