[{"trial_n":1,"span":8,"encoder":"38629322","distractor":"38629326","target":"present","response":"present","rt":"7042.8000000119","correct":true,"confidence":-1},{"trial_n":2,"span":8,"encoder":"65465800","distractor":"65465700","target":"present","response":"present","rt":"2634.4000000358","correct":true,"confidence":-1},{"trial_n":3,"span":10,"encoder":"4915742334","distractor":"4910742334","target":"absent","response":"absent","rt":"2782.3999999762","correct":true,"confidence":-1},{"trial_n":4,"span":10,"encoder":"3590519803","distractor":"4590519803","target":"absent","response":"absent","rt":"3040.7999999523","correct":true,"confidence":-1},{"trial_n":5,"span":12,"encoder":"162326425847","distractor":"162326445847","target":"present","response":"absent","rt":"3343.3000000119","correct":false,"confidence":-1},{"trial_n":6,"span":10,"encoder":"6170177548","distractor":"6170173548","target":"present","response":"present","rt":"1682.4000000358","correct":true,"confidence":-1},{"trial_n":7,"span":10,"encoder":"6928873593","distractor":"6928875593","target":"present","response":"absent","rt":"775.89999997616","correct":false,"confidence":-1},{"trial_n":8,"span":8,"encoder":"23694119","distractor":"23654119","target":"present","response":"absent","rt":"1090.8000000119","correct":false,"confidence":-1},{"trial_n":9,"span":6,"encoder":"695176","distractor":"695676","target":"absent","response":"absent","rt":"1317.3999999762","correct":true,"confidence":-1},{"trial_n":10,"span":6,"encoder":"114700","distractor":"111700","target":"present","response":"absent","rt":"687.80000001192","correct":false,"confidence":-1},{"trial_n":11,"span":4,"encoder":"8156","distractor":"8176","target":"absent","response":"present","rt":"430.10000002384","correct":false,"confidence":-1},{"trial_n":12,"span":3,"encoder":"804","distractor":"104","target":"absent","response":"absent","rt":"407.80000001192","correct":true,"confidence":-1},{"trial_n":13,"span":3,"encoder":"865","distractor":"665","target":"present","response":"absent","rt":"357.20000004768","correct":false,"confidence":-1},{"trial_n":14,"span":2,"encoder":"08","distractor":"68","target":"absent","response":"absent","rt":"2427","correct":true,"confidence":-1},{"trial_n":15,"span":2,"encoder":"55","distractor":"52","target":"absent","response":"absent","rt":"787.10000002384","correct":true,"confidence":-1},{"trial_n":16,"span":3,"encoder":"644","distractor":"664","target":"present","response":"absent","rt":"559.19999998808","correct":false,"confidence":-1},{"trial_n":17,"span":2,"encoder":"32","distractor":"72","target":"absent","response":"absent","rt":"1139.4000000358","correct":true,"confidence":-1},{"trial_n":18,"span":2,"encoder":"78","distractor":"72","target":"absent","response":"present","rt":"798.10000002384","correct":false,"confidence":-1},{"trial_n":19,"span":2,"encoder":"82","distractor":"86","target":"absent","response":"absent","rt":"815.19999998808","correct":true,"confidence":-1},{"trial_n":20,"span":2,"encoder":"81","distractor":"21","target":"absent","response":"absent","rt":"811.5","correct":true,"confidence":-1},{"trial_n":21,"span":3,"encoder":"532","distractor":"332","target":"absent","response":"absent","rt":"1990.7000000477","correct":true,"confidence":5},{"trial_n":22,"span":3,"encoder":"613","distractor":"713","target":"absent","response":"absent","rt":"1343","correct":true,"confidence":3},{"trial_n":23,"span":4,"encoder":"7415","distractor":"7475","target":"present","response":"present","rt":"1466.9000000358","correct":true,"confidence":2},{"trial_n":24,"span":4,"encoder":"9267","distractor":"9277","target":"absent","response":"absent","rt":"1772.1999999881","correct":true,"confidence":5},{"trial_n":25,"span":5,"encoder":"89409","distractor":"84409","target":"present","response":"present","rt":"2004.9000000358","correct":true,"confidence":2},{"trial_n":26,"span":5,"encoder":"34643","distractor":"34343","target":"present","response":"present","rt":"2137.7999999523","correct":true,"confidence":2},{"trial_n":27,"span":6,"encoder":"735815","distractor":"735845","target":"present","response":"present","rt":"2430.1999999881","correct":true,"confidence":5},{"trial_n":28,"span":6,"encoder":"446178","distractor":"440178","target":"present","response":"absent","rt":"1639.5","correct":false,"confidence":4},{"trial_n":29,"span":5,"encoder":"31765","distractor":"71765","target":"present","response":"present","rt":"1966.8000000119","correct":true,"confidence":5},{"trial_n":30,"span":5,"encoder":"90542","distractor":"90742","target":"absent","response":"absent","rt":"1746.8999999762","correct":true,"confidence":3},{"trial_n":31,"span":6,"encoder":"672293","distractor":"677293","target":"absent","response":"absent","rt":"2558.6999999881","correct":true,"confidence":3},{"trial_n":32,"span":6,"encoder":"499989","distractor":"599989","target":"absent","response":"absent","rt":"3496.8000000119","correct":true,"confidence":3},{"trial_n":33,"span":7,"encoder":"7485914","distractor":"7485114","target":"present","response":"absent","rt":"2435.5999999642","correct":false,"confidence":2},{"trial_n":34,"span":6,"encoder":"672971","distractor":"602971","target":"absent","response":"absent","rt":"1256.5","correct":true,"confidence":1},{"trial_n":35,"span":6,"encoder":"217632","distractor":"217631","target":"absent","response":"absent","rt":"1452.8999999762","correct":true,"confidence":3},{"trial_n":36,"span":7,"encoder":"1140278","distractor":"1140275","target":"present","response":"absent","rt":"3552.8000000119","correct":false,"confidence":3},{"trial_n":37,"span":6,"encoder":"421143","distractor":"426143","target":"absent","response":"absent","rt":"2240","correct":true,"confidence":5},{"trial_n":38,"span":6,"encoder":"765337","distractor":"735337","target":"absent","response":"absent","rt":"1904.8999999762","correct":true,"confidence":4},{"trial_n":39,"span":7,"encoder":"3267585","distractor":"3267580","target":"present","response":"present","rt":"2884.3000000119","correct":true,"confidence":4},{"trial_n":40,"span":7,"encoder":"8771419","distractor":"0771419","target":"present","response":"present","rt":"2274","correct":true,"confidence":3},{"trial_n":41,"span":8,"encoder":"30037342","distractor":"37037342","target":"absent","response":"present","rt":"2462.8999999762","correct":false,"confidence":2},{"trial_n":42,"span":7,"encoder":"1568293","distractor":"1568193","target":"absent","response":"absent","rt":"3425.0999999642","correct":true,"confidence":5},{"trial_n":43,"span":7,"encoder":"4036154","distractor":"4036124","target":"absent","response":"absent","rt":"3212.1999999881","correct":true,"confidence":5},{"trial_n":44,"span":8,"encoder":"32012867","distractor":"37012867","target":"absent","response":"absent","rt":"2750.4000000358","correct":true,"confidence":4},{"trial_n":45,"span":8,"encoder":"67874346","distractor":"60874346","target":"absent","response":"present","rt":"2364.8000000119","correct":false,"confidence":2},{"trial_n":46,"span":7,"encoder":"9821387","distractor":"9821389","target":"absent","response":"absent","rt":"3191.4000000358","correct":true,"confidence":5},{"trial_n":47,"span":7,"encoder":"6347405","distractor":"6347105","target":"absent","response":"absent","rt":"2141.3000000119","correct":true,"confidence":5},{"trial_n":48,"span":8,"encoder":"71307496","distractor":"81307496","target":"present","response":"present","rt":"3235.3000000119","correct":true,"confidence":5},{"trial_n":49,"span":8,"encoder":"17498735","distractor":"17490735","target":"present","response":"present","rt":"3236.4000000358","correct":true,"confidence":3},{"trial_n":50,"span":9,"encoder":"185465819","distractor":"685465819","target":"absent","response":"present","rt":"3971.9000000358","correct":false,"confidence":3},{"trial_n":51,"span":8,"encoder":"27487784","distractor":"27787784","target":"present","response":"present","rt":"3961.1000000238","correct":true,"confidence":3},{"trial_n":52,"span":8,"encoder":"93048650","distractor":"93048750","target":"present","response":"present","rt":"2785.5999999642","correct":true,"confidence":5},{"trial_n":53,"span":9,"encoder":"460654080","distractor":"460654088","target":"present","response":"present","rt":"3998.5","correct":true,"confidence":5},{"trial_n":54,"span":9,"encoder":"176455650","distractor":"876455650","target":"present","response":"absent","rt":"2910.7999999523","correct":false,"confidence":5},{"trial_n":55,"span":8,"encoder":"92018166","distractor":"92028166","target":"present","response":"present","rt":"1978.4000000358","correct":true,"confidence":1},{"trial_n":56,"span":8,"encoder":"68822882","distractor":"68822832","target":"present","response":"present","rt":"3128.5","correct":true,"confidence":5},{"trial_n":57,"span":9,"encoder":"944421976","distractor":"944321976","target":"absent","response":"absent","rt":"2566.8000000119","correct":true,"confidence":5},{"trial_n":58,"span":9,"encoder":"257443135","distractor":"257443133","target":"absent","response":"absent","rt":"2170.6000000238","correct":true,"confidence":5},{"trial_n":59,"span":10,"encoder":"0441176615","distractor":"0441176614","target":"present","response":"present","rt":"4000.1000000238","correct":true,"confidence":2},{"trial_n":60,"span":10,"encoder":"7910920278","distractor":"7910520278","target":"absent","response":"present","rt":"3982.6000000238","correct":false,"confidence":4},{"trial_n":61,"span":9,"encoder":"985034834","distractor":"985034833","target":"present","response":"present","rt":"1666.8000000119","correct":true,"confidence":2},{"trial_n":62,"span":9,"encoder":"889513748","distractor":"883513748","target":"present","response":"absent","rt":"4445.5999999642","correct":false,"confidence":2},{"trial_n":63,"span":8,"encoder":"37372428","distractor":"37302428","target":"present","response":"present","rt":"2193.5999999642","correct":true,"confidence":2},{"trial_n":64,"span":8,"encoder":"23681822","distractor":"23081822","target":"present","response":"absent","rt":"3248.6000000238","correct":false,"confidence":2},{"trial_n":65,"span":7,"encoder":"8495345","distractor":"8425345","target":"present","response":"present","rt":"2566.6999999881","correct":true,"confidence":3},{"trial_n":66,"span":7,"encoder":"2506946","distractor":"2506948","target":"present","response":"absent","rt":"2505.1999999881","correct":false,"confidence":1},{"trial_n":67,"span":6,"encoder":"874463","distractor":"814463","target":"present","response":"present","rt":"2074.6000000238","correct":true,"confidence":5},{"trial_n":68,"span":6,"encoder":"797691","distractor":"797291","target":"absent","response":"absent","rt":"2572.2999999523","correct":true,"confidence":5},{"trial_n":69,"span":7,"encoder":"8779092","distractor":"8579092","target":"present","response":"present","rt":"2944.6000000238","correct":true,"confidence":4},{"trial_n":70,"span":7,"encoder":"2383443","distractor":"2382443","target":"absent","response":"absent","rt":"3364.6000000238","correct":true,"confidence":4},{"trial_n":71,"span":8,"encoder":"33622603","distractor":"33602603","target":"present","response":"present","rt":"5337","correct":true,"confidence":-1},{"trial_n":72,"span":8,"encoder":"26616443","distractor":"26617443","target":"present","response":"present","rt":"5074.5999999642","correct":true,"confidence":-1},{"trial_n":73,"span":9,"encoder":"017609073","distractor":"717609073","target":"absent","response":"present","rt":"1738.3999999762","correct":false,"confidence":-1},{"trial_n":74,"span":8,"encoder":"61854430","distractor":"66854430","target":"absent","response":"present","rt":"3037.1999999881","correct":false,"confidence":-1},{"trial_n":75,"span":7,"encoder":"9490490","distractor":"9990490","target":"present","response":"present","rt":"2150.6000000238","correct":true,"confidence":-1},{"trial_n":76,"span":7,"encoder":"3151684","distractor":"3551684","target":"present","response":"present","rt":"3240.3999999762","correct":true,"confidence":-1},{"trial_n":77,"span":8,"encoder":"43680247","distractor":"43280247","target":"absent","response":"absent","rt":"5790","correct":true,"confidence":-1},{"trial_n":78,"span":8,"encoder":"24362616","distractor":"24366616","target":"absent","response":"absent","rt":"2839.1999999881","correct":true,"confidence":-1},{"trial_n":79,"span":9,"encoder":"918035239","distractor":"918035231","target":"present","response":"present","rt":"3490.1999999881","correct":true,"confidence":-1},{"trial_n":80,"span":9,"encoder":"876724868","distractor":"875724868","target":"absent","response":"present","rt":"6337.6999999881","correct":false,"confidence":-1},{"trial_n":81,"span":8,"encoder":"35562885","distractor":"35562889","target":"absent","response":"absent","rt":"5719","correct":true,"confidence":-1},{"trial_n":82,"span":8,"encoder":"48252273","distractor":"98252273","target":"present","response":"absent","rt":"541.10000002384","correct":false,"confidence":-1},{"trial_n":83,"span":7,"encoder":"7268572","distractor":"7218572","target":"absent","response":"absent","rt":"381.19999998808","correct":true,"confidence":-1},{"trial_n":84,"span":7,"encoder":"4365306","distractor":"0365306","target":"present","response":"absent","rt":"507.20000004768","correct":false,"confidence":-1},{"trial_n":85,"span":6,"encoder":"499481","distractor":"496481","target":"absent","response":"present","rt":"227.10000002384","correct":false,"confidence":-1},{"trial_n":86,"span":5,"encoder":"71501","distractor":"71509","target":"absent","response":"present","rt":"528.59999996424","correct":false,"confidence":-1},{"trial_n":87,"span":4,"encoder":"4861","distractor":"4661","target":"absent","response":"absent","rt":"647.19999998808","correct":true,"confidence":-1},{"trial_n":88,"span":4,"encoder":"3527","distractor":"3587","target":"absent","response":"absent","rt":"311.59999996424","correct":true,"confidence":-1},{"trial_n":89,"span":5,"encoder":"51267","distractor":"41267","target":"absent","response":"absent","rt":"973.69999998808","correct":true,"confidence":-1},{"trial_n":90,"span":5,"encoder":"11286","distractor":"11226","target":"present","response":"present","rt":"2064.1999999881","correct":true,"confidence":-1},{"trial_n":91,"span":6,"encoder":"805541","distractor":"805041","target":"present","response":"present","rt":"1633.1999999881","correct":true,"confidence":5},{"trial_n":92,"span":6,"encoder":"075017","distractor":"075013","target":"present","response":"present","rt":"1249.8999999762","correct":true,"confidence":5},{"trial_n":93,"span":7,"encoder":"1896712","distractor":"1896312","target":"present","response":"present","rt":"7168.3999999762","correct":true,"confidence":3},{"trial_n":94,"span":7,"encoder":"5604387","distractor":"5604687","target":"present","response":"present","rt":"2947.4000000358","correct":true,"confidence":5},{"trial_n":95,"span":8,"encoder":"49913488","distractor":"49916488","target":"absent","response":"absent","rt":"3168.6999999881","correct":true,"confidence":5},{"trial_n":96,"span":8,"encoder":"09907047","distractor":"09906047","target":"present","response":"present","rt":"1864.8999999762","correct":true,"confidence":5},{"trial_n":97,"span":9,"encoder":"085302302","distractor":"085306302","target":"present","response":"present","rt":"4495.4000000358","correct":true,"confidence":5},{"trial_n":98,"span":9,"encoder":"014547744","distractor":"014547244","target":"absent","response":"present","rt":"4324.3999999762","correct":false,"confidence":3},{"trial_n":99,"span":8,"encoder":"24194223","distractor":"24194923","target":"present","response":"present","rt":"8215.5","correct":true,"confidence":4},{"trial_n":100,"span":8,"encoder":"21697145","distractor":"21897145","target":"absent","response":"absent","rt":"7617.8000000119","correct":true,"confidence":4},{"trial_n":101,"span":9,"encoder":"752440107","distractor":"752440106","target":"present","response":"present","rt":"4630.3999999762","correct":true,"confidence":5},{"trial_n":102,"span":9,"encoder":"083872141","distractor":"083872144","target":"present","response":"present","rt":"3703","correct":true,"confidence":5},{"trial_n":103,"span":10,"encoder":"6738639473","distractor":"6738639479","target":"absent","response":"absent","rt":"4470.3000000119","correct":true,"confidence":5},{"trial_n":104,"span":10,"encoder":"6433847321","distractor":"6733847321","target":"present","response":"present","rt":"9450.0999999642","correct":true,"confidence":4},{"trial_n":105,"span":11,"encoder":"47515056684","distractor":"47515056624","target":"absent","response":"present","rt":"9554.5","correct":false,"confidence":1},{"trial_n":106,"span":10,"encoder":"3892362810","distractor":"3892062810","target":"present","response":"present","rt":"12575.700000048","correct":true,"confidence":2},{"trial_n":107,"span":10,"encoder":"4793524831","distractor":"4723524831","target":"present","response":"absent","rt":"7249.8000000119","correct":false,"confidence":2},{"trial_n":108,"span":9,"encoder":"309272035","distractor":"309472035","target":"present","response":"present","rt":"9680.5999999642","correct":true,"confidence":1},{"trial_n":109,"span":9,"encoder":"125314921","distractor":"125317921","target":"absent","response":"absent","rt":"3755.7999999523","correct":true,"confidence":5},{"trial_n":110,"span":10,"encoder":"6810030455","distractor":"6810030450","target":"present","response":"present","rt":"2205","correct":true,"confidence":5},{"trial_n":111,"span":10,"encoder":"1754758441","distractor":"1759758441","target":"absent","response":"absent","rt":"4651.9000000358","correct":true,"confidence":5},{"trial_n":112,"span":11,"encoder":"46415917929","distractor":"26415917929","target":"present","response":"present","rt":"5065.6999999881","correct":true,"confidence":3},{"trial_n":113,"span":11,"encoder":"38709210392","distractor":"38709270392","target":"absent","response":"absent","rt":"7506.1999999881","correct":true,"confidence":1},{"trial_n":114,"span":12,"encoder":"497567628163","distractor":"497567628563","target":"absent","response":"present","rt":"10657.400000036","correct":false,"confidence":2},{"trial_n":115,"span":11,"encoder":"04636868903","distractor":"04636858903","target":"absent","response":"absent","rt":"4505.1999999881","correct":true,"confidence":3},{"trial_n":116,"span":11,"encoder":"64312535463","distractor":"64012535463","target":"present","response":"present","rt":"10275.099999964","correct":true,"confidence":2},{"trial_n":117,"span":12,"encoder":"848186066910","distractor":"848786066910","target":"present","response":"present","rt":"10309.900000036","correct":true,"confidence":1},{"trial_n":118,"span":12,"encoder":"399798925129","distractor":"399798525129","target":"present","response":"absent","rt":"4961.2000000477","correct":false,"confidence":1},{"trial_n":119,"span":11,"encoder":"56774512696","distractor":"56774517696","target":"present","response":"present","rt":"4461.1999999881","correct":true,"confidence":3},{"trial_n":120,"span":11,"encoder":"21907184372","distractor":"21957184372","target":"absent","response":"absent","rt":"7578.5","correct":true,"confidence":1},{"trial_n":121,"span":12,"encoder":"007916766197","distractor":"007916766497","target":"absent","response":"absent","rt":"4078.6000000238","correct":true,"confidence":4},{"trial_n":122,"span":12,"encoder":"401276937839","distractor":"401276037839","target":"present","response":"present","rt":"8413.3000000119","correct":true,"confidence":4},{"trial_n":123,"span":13,"encoder":"1720927594768","distractor":"1720927574768","target":"present","response":"absent","rt":"9811.8999999762","correct":false,"confidence":3},{"trial_n":124,"span":12,"encoder":"755143594554","distractor":"755543594554","target":"absent","response":"absent","rt":"2883","correct":true,"confidence":5},{"trial_n":125,"span":12,"encoder":"475354365695","distractor":"475354365685","target":"present","response":"absent","rt":"19409.599999964","correct":false,"confidence":2},{"trial_n":126,"span":11,"encoder":"94322340633","distractor":"94322343633","target":"present","response":"absent","rt":"1527.5","correct":false,"confidence":1},{"trial_n":127,"span":10,"encoder":"4118662437","distractor":"4112662437","target":"absent","response":"absent","rt":"3372.8999999762","correct":true,"confidence":4},{"trial_n":128,"span":10,"encoder":"2622520532","distractor":"2622580532","target":"absent","response":"absent","rt":"1579.3000000119","correct":true,"confidence":1},{"trial_n":129,"span":11,"encoder":"36856283866","distractor":"33856283866","target":"absent","response":"absent","rt":"2803.8000000119","correct":true,"confidence":1},{"trial_n":130,"span":11,"encoder":"29988066996","distractor":"29980066996","target":"absent","response":"absent","rt":"6666.8999999762","correct":true,"confidence":4},{"trial_n":131,"span":12,"encoder":"624868000641","distractor":"624863000641","target":"absent","response":"absent","rt":"6597.3000000119","correct":true,"confidence":3},{"trial_n":132,"span":12,"encoder":"431290017891","distractor":"441290017891","target":"absent","response":"present","rt":"7357.8000000119","correct":false,"confidence":1},{"trial_n":133,"span":11,"encoder":"56606773858","distractor":"56206773858","target":"present","response":"present","rt":"8638.1000000238","correct":true,"confidence":2},{"trial_n":134,"span":11,"encoder":"54938123518","distractor":"54932123518","target":"present","response":"present","rt":"2866.3999999762","correct":true,"confidence":1},{"trial_n":135,"span":12,"encoder":"537410703703","distractor":"547410703703","target":"present","response":"present","rt":"5547.3000000119","correct":true,"confidence":2},{"trial_n":136,"span":12,"encoder":"296583825137","distractor":"296583325137","target":"present","response":"present","rt":"1661.3999999762","correct":true,"confidence":1},{"trial_n":137,"span":13,"encoder":"1789332913286","distractor":"1789338913286","target":"absent","response":"present","rt":"6069.6999999881","correct":false,"confidence":2},{"trial_n":138,"span":12,"encoder":"965699034106","distractor":"965697034106","target":"present","response":"present","rt":"6801.0999999642","correct":true,"confidence":2},{"trial_n":139,"span":12,"encoder":"952429912094","distractor":"952429911094","target":"absent","response":"present","rt":"4621.1999999881","correct":false,"confidence":3},{"trial_n":140,"span":11,"encoder":"49353325581","distractor":"79353325581","target":"absent","response":"absent","rt":"8642.6999999881","correct":true,"confidence":2}]