[{"trial_n":1,"span":8,"encoder":"68065279","distractor":"68005279","target":"present","response":"present","rt":"3010","correct":true,"confidence":-1},{"trial_n":2,"span":8,"encoder":"96795483","distractor":"96795083","target":"present","response":"present","rt":"2104.6000000238","correct":true,"confidence":-1},{"trial_n":3,"span":10,"encoder":"4962852924","distractor":"4962842924","target":"absent","response":"absent","rt":"2227","correct":true,"confidence":-1},{"trial_n":4,"span":10,"encoder":"8277431572","distractor":"8277431577","target":"absent","response":"absent","rt":"3444.8999999762","correct":true,"confidence":-1},{"trial_n":5,"span":12,"encoder":"961619175364","distractor":"901619175364","target":"present","response":"present","rt":"3247.3999999762","correct":true,"confidence":-1},{"trial_n":6,"span":12,"encoder":"360997500387","distractor":"360997100387","target":"absent","response":"present","rt":"2726.2999999523","correct":false,"confidence":-1},{"trial_n":7,"span":10,"encoder":"8348204485","distractor":"9348204485","target":"present","response":"present","rt":"3306.2000000477","correct":true,"confidence":-1},{"trial_n":8,"span":10,"encoder":"1162797436","distractor":"1162797437","target":"absent","response":"absent","rt":"2723.6999999285","correct":true,"confidence":-1},{"trial_n":9,"span":12,"encoder":"524398965530","distractor":"524394965530","target":"absent","response":"absent","rt":"4474","correct":true,"confidence":-1},{"trial_n":10,"span":12,"encoder":"539037519252","distractor":"589037519252","target":"present","response":"present","rt":"3366.2000000477","correct":true,"confidence":-1},{"trial_n":11,"span":14,"encoder":"81378451880074","distractor":"81778451880074","target":"present","response":"present","rt":"3271.7000000477","correct":true,"confidence":-1},{"trial_n":12,"span":14,"encoder":"18837296540004","distractor":"18837296580004","target":"absent","response":"absent","rt":"4248.5","correct":true,"confidence":-1},{"trial_n":13,"span":15,"encoder":"744604170100636","distractor":"744104170100636","target":"absent","response":"present","rt":"3110.3999999762","correct":false,"confidence":-1},{"trial_n":14,"span":14,"encoder":"29594457629239","distractor":"29544457629239","target":"absent","response":"present","rt":"3498.6000000238","correct":false,"confidence":-1},{"trial_n":15,"span":13,"encoder":"3988232216002","distractor":"6988232216002","target":"present","response":"present","rt":"2876.5","correct":true,"confidence":-1},{"trial_n":16,"span":13,"encoder":"7831827934120","distractor":"7831857934120","target":"present","response":"absent","rt":"3330.5","correct":false,"confidence":-1},{"trial_n":17,"span":12,"encoder":"760597407813","distractor":"760097407813","target":"present","response":"present","rt":"2784.2000000477","correct":true,"confidence":-1},{"trial_n":18,"span":12,"encoder":"662322969013","distractor":"652322969013","target":"absent","response":"absent","rt":"4293.8999999762","correct":true,"confidence":-1},{"trial_n":19,"span":13,"encoder":"1286606888993","distractor":"1282606888993","target":"present","response":"present","rt":"1476.6000000238","correct":true,"confidence":-1},{"trial_n":20,"span":13,"encoder":"0623458910412","distractor":"0623498910412","target":"present","response":"absent","rt":"3206.7000000477","correct":false,"confidence":-1},{"trial_n":21,"span":12,"encoder":"102688414025","distractor":"102688416025","target":"present","response":"present","rt":"3402.6000000238","correct":true,"confidence":3},{"trial_n":22,"span":12,"encoder":"980319978924","distractor":"980319978926","target":"present","response":"present","rt":"2821.6000000238","correct":true,"confidence":4},{"trial_n":23,"span":13,"encoder":"0917920206090","distractor":"0917920206091","target":"absent","response":"absent","rt":"1660","correct":true,"confidence":5},{"trial_n":24,"span":13,"encoder":"7439338347063","distractor":"7439338347093","target":"absent","response":"absent","rt":"4937.3999999762","correct":true,"confidence":4},{"trial_n":25,"span":14,"encoder":"35248890952843","distractor":"35248890952840","target":"absent","response":"present","rt":"5607.8999999762","correct":false,"confidence":3},{"trial_n":26,"span":13,"encoder":"5549168135355","distractor":"5549768135355","target":"present","response":"present","rt":"2866.7999999523","correct":true,"confidence":4},{"trial_n":27,"span":13,"encoder":"3537485823210","distractor":"3534485823210","target":"present","response":"present","rt":"3348.3000000715","correct":true,"confidence":5},{"trial_n":28,"span":14,"encoder":"41612777608304","distractor":"41612797608304","target":"present","response":"absent","rt":"1760.2999999523","correct":false,"confidence":5},{"trial_n":29,"span":13,"encoder":"7201594334972","distractor":"7201594334976","target":"absent","response":"absent","rt":"1926.5","correct":true,"confidence":3},{"trial_n":30,"span":13,"encoder":"3903572601323","distractor":"3906572601323","target":"absent","response":"absent","rt":"1922.3000000715","correct":true,"confidence":5},{"trial_n":31,"span":14,"encoder":"19044038175032","distractor":"19044038175034","target":"absent","response":"absent","rt":"1516.8999999762","correct":true,"confidence":5},{"trial_n":32,"span":14,"encoder":"94610238854917","distractor":"94670238854917","target":"absent","response":"present","rt":"9253.3999999762","correct":false,"confidence":4},{"trial_n":33,"span":13,"encoder":"1267906273719","distractor":"1267906173719","target":"present","response":"present","rt":"4933.3000000715","correct":true,"confidence":2},{"trial_n":34,"span":13,"encoder":"3684680978968","distractor":"4684680978968","target":"present","response":"present","rt":"4208.5","correct":true,"confidence":3},{"trial_n":35,"span":14,"encoder":"47233783682835","distractor":"47233703682835","target":"absent","response":"absent","rt":"4800.6000000238","correct":true,"confidence":2},{"trial_n":36,"span":14,"encoder":"85582421525502","distractor":"86582421525502","target":"absent","response":"absent","rt":"2406.4000000954","correct":true,"confidence":5},{"trial_n":37,"span":15,"encoder":"390654547480116","distractor":"390654547420116","target":"absent","response":"absent","rt":"7460.5","correct":true,"confidence":3},{"trial_n":38,"span":15,"encoder":"342991388146477","distractor":"342993388146477","target":"absent","response":"present","rt":"3539.7999999523","correct":false,"confidence":2},{"trial_n":39,"span":14,"encoder":"68717491190823","distractor":"68717491490823","target":"absent","response":"absent","rt":"4733.1000000238","correct":true,"confidence":4},{"trial_n":40,"span":14,"encoder":"94163195547895","distractor":"94163195547195","target":"present","response":"present","rt":"6725.4000000954","correct":true,"confidence":4},{"trial_n":41,"span":15,"encoder":"440517984627020","distractor":"440517984627920","target":"absent","response":"absent","rt":"5712.6999999285","correct":true,"confidence":5},{"trial_n":42,"span":15,"encoder":"499492210739237","distractor":"499492210734237","target":"present","response":"absent","rt":"2947.2000000477","correct":false,"confidence":4},{"trial_n":43,"span":14,"encoder":"83217359263893","distractor":"83217359263896","target":"present","response":"present","rt":"6735.6000000238","correct":true,"confidence":2},{"trial_n":44,"span":14,"encoder":"40550778304110","distractor":"40520778304110","target":"present","response":"present","rt":"5265.7999999523","correct":true,"confidence":3},{"trial_n":45,"span":15,"encoder":"967584551588191","distractor":"967484551588191","target":"present","response":"present","rt":"3145.7999999523","correct":true,"confidence":3},{"trial_n":46,"span":15,"encoder":"629035055896193","distractor":"629035055896693","target":"present","response":"present","rt":"5327.8999999762","correct":true,"confidence":3},{"trial_n":47,"span":16,"encoder":"7304378508727740","distractor":"7307378508727740","target":"present","response":"present","rt":"10063.199999928","correct":true,"confidence":4},{"trial_n":48,"span":16,"encoder":"9303684490577763","distractor":"9303684890577763","target":"present","response":"absent","rt":"5216.1000000238","correct":false,"confidence":3},{"trial_n":49,"span":15,"encoder":"377030512143041","distractor":"377030612143041","target":"absent","response":"absent","rt":"3346.5","correct":true,"confidence":4},{"trial_n":50,"span":15,"encoder":"960595705093404","distractor":"968595705093404","target":"present","response":"absent","rt":"6128.1000000238","correct":false,"confidence":3},{"trial_n":51,"span":14,"encoder":"92353667268023","distractor":"92353667264023","target":"absent","response":"absent","rt":"3214","correct":true,"confidence":3},{"trial_n":52,"span":14,"encoder":"28715857751308","distractor":"22715857751308","target":"absent","response":"present","rt":"2803.2000000477","correct":false,"confidence":3},{"trial_n":53,"span":13,"encoder":"4010588211974","distractor":"4010584211974","target":"absent","response":"present","rt":"3519.8999999762","correct":false,"confidence":3},{"trial_n":54,"span":12,"encoder":"292145923516","distractor":"292145123516","target":"present","response":"present","rt":"3335.1999999285","correct":true,"confidence":4},{"trial_n":55,"span":12,"encoder":"717732687382","distractor":"617732687382","target":"absent","response":"present","rt":"4381.3999999762","correct":false,"confidence":5},{"trial_n":56,"span":11,"encoder":"38005110265","distractor":"30005110265","target":"absent","response":"absent","rt":"2201.2999999523","correct":true,"confidence":5},{"trial_n":57,"span":11,"encoder":"63758390244","distractor":"63798390244","target":"absent","response":"absent","rt":"7638","correct":true,"confidence":3},{"trial_n":58,"span":12,"encoder":"806395687067","distractor":"806395687967","target":"absent","response":"present","rt":"2809.3999999762","correct":false,"confidence":1},{"trial_n":59,"span":11,"encoder":"40427360122","distractor":"43427360122","target":"absent","response":"present","rt":"3467.1000000238","correct":false,"confidence":5},{"trial_n":60,"span":10,"encoder":"8025007857","distractor":"8025007757","target":"present","response":"present","rt":"3010.3999999762","correct":true,"confidence":5},{"trial_n":61,"span":10,"encoder":"1314059467","distractor":"1314059767","target":"present","response":"present","rt":"2656.4000000954","correct":true,"confidence":5},{"trial_n":62,"span":11,"encoder":"61186607297","distractor":"60186607297","target":"present","response":"present","rt":"2565.9000000954","correct":true,"confidence":5},{"trial_n":63,"span":11,"encoder":"70500701004","distractor":"70500701006","target":"present","response":"present","rt":"2626.1000000238","correct":true,"confidence":5},{"trial_n":64,"span":12,"encoder":"517390675604","distractor":"517390675654","target":"present","response":"present","rt":"4101.6999999285","correct":true,"confidence":3},{"trial_n":65,"span":12,"encoder":"574525915141","distractor":"574525915641","target":"absent","response":"absent","rt":"6441.6999999285","correct":true,"confidence":2},{"trial_n":66,"span":13,"encoder":"7625350066749","distractor":"7625351066749","target":"absent","response":"absent","rt":"4407.2000000477","correct":true,"confidence":4},{"trial_n":67,"span":13,"encoder":"2013552616756","distractor":"2013582616756","target":"present","response":"present","rt":"3550.1000000238","correct":true,"confidence":3},{"trial_n":68,"span":14,"encoder":"43781019256328","distractor":"43781019256928","target":"present","response":"present","rt":"3192.6000000238","correct":true,"confidence":5},{"trial_n":69,"span":14,"encoder":"72982171028653","distractor":"72182171028653","target":"present","response":"present","rt":"6020.2000000477","correct":true,"confidence":4},{"trial_n":70,"span":15,"encoder":"396705994543653","distractor":"396705934543653","target":"absent","response":"absent","rt":"7615.1000000238","correct":true,"confidence":5},{"trial_n":71,"span":8,"encoder":"14331947","distractor":"15331947","target":"present","response":"present","rt":"2742.3999999762","correct":true,"confidence":-1},{"trial_n":72,"span":8,"encoder":"83501425","distractor":"88501425","target":"present","response":"present","rt":"2305.6000000238","correct":true,"confidence":-1},{"trial_n":73,"span":9,"encoder":"361985428","distractor":"301985428","target":"absent","response":"absent","rt":"4359","correct":true,"confidence":-1},{"trial_n":74,"span":9,"encoder":"229111132","distractor":"229111142","target":"absent","response":"absent","rt":"3561.5","correct":true,"confidence":-1},{"trial_n":75,"span":10,"encoder":"8556425557","distractor":"8556426557","target":"present","response":"present","rt":"4678.5999999046","correct":true,"confidence":-1},{"trial_n":76,"span":10,"encoder":"0567500126","distractor":"0567500120","target":"present","response":"present","rt":"2511.8999999762","correct":true,"confidence":-1},{"trial_n":77,"span":11,"encoder":"23024879287","distractor":"25024879287","target":"absent","response":"present","rt":"2923.5","correct":false,"confidence":-1},{"trial_n":78,"span":10,"encoder":"3164271371","distractor":"3164871371","target":"absent","response":"absent","rt":"2534.2000000477","correct":true,"confidence":-1},{"trial_n":79,"span":10,"encoder":"0641598306","distractor":"0641598301","target":"absent","response":"absent","rt":"3370.7999999523","correct":true,"confidence":-1},{"trial_n":80,"span":11,"encoder":"80078478328","distractor":"80078488328","target":"absent","response":"absent","rt":"4660.3999999762","correct":true,"confidence":-1},{"trial_n":81,"span":11,"encoder":"65030261617","distractor":"65035261617","target":"absent","response":"absent","rt":"7632.7999999523","correct":true,"confidence":-1},{"trial_n":82,"span":12,"encoder":"401274108164","distractor":"401074108164","target":"absent","response":"absent","rt":"2296.4000000954","correct":true,"confidence":-1},{"trial_n":83,"span":12,"encoder":"842149206070","distractor":"812149206070","target":"absent","response":"absent","rt":"3049.5","correct":true,"confidence":-1},{"trial_n":84,"span":13,"encoder":"5623906381556","distractor":"5623956381556","target":"present","response":"present","rt":"5975.6000000238","correct":true,"confidence":-1},{"trial_n":85,"span":13,"encoder":"1713514473903","distractor":"2713514473903","target":"absent","response":"present","rt":"4923","correct":false,"confidence":-1},{"trial_n":86,"span":12,"encoder":"616065034506","distractor":"626065034506","target":"absent","response":"present","rt":"6426.8999999762","correct":false,"confidence":-1},{"trial_n":87,"span":11,"encoder":"94484732586","distractor":"94484732589","target":"absent","response":"absent","rt":"3511.1999999285","correct":true,"confidence":-1},{"trial_n":88,"span":11,"encoder":"14836553389","distractor":"16836553389","target":"absent","response":"present","rt":"3710.2000000477","correct":false,"confidence":-1},{"trial_n":89,"span":10,"encoder":"2416263732","distractor":"2416363732","target":"absent","response":"present","rt":"2914.2000000477","correct":false,"confidence":-1},{"trial_n":90,"span":9,"encoder":"066271321","distractor":"066277321","target":"present","response":"present","rt":"3598.7999999523","correct":true,"confidence":-1},{"trial_n":91,"span":9,"encoder":"876423682","distractor":"874423682","target":"present","response":"present","rt":"3249.2000000477","correct":true,"confidence":5},{"trial_n":92,"span":10,"encoder":"8039339600","distractor":"8039339630","target":"present","response":"present","rt":"5036.5","correct":true,"confidence":5},{"trial_n":93,"span":10,"encoder":"8294308353","distractor":"8294308313","target":"present","response":"present","rt":"4626.3999999762","correct":true,"confidence":5},{"trial_n":94,"span":11,"encoder":"47381156095","distractor":"47381176095","target":"present","response":"present","rt":"6710.6000000238","correct":true,"confidence":5},{"trial_n":95,"span":11,"encoder":"60704517619","distractor":"60204517619","target":"present","response":"present","rt":"4146.5999999046","correct":true,"confidence":5},{"trial_n":96,"span":12,"encoder":"378618117571","distractor":"371618117571","target":"present","response":"present","rt":"5987.1000000238","correct":true,"confidence":5},{"trial_n":97,"span":12,"encoder":"474070458391","distractor":"074070458391","target":"present","response":"present","rt":"3093.6000000238","correct":true,"confidence":5},{"trial_n":98,"span":13,"encoder":"2585892242347","distractor":"2585892242307","target":"present","response":"present","rt":"5060","correct":true,"confidence":5},{"trial_n":99,"span":13,"encoder":"0010663415776","distractor":"0010613415776","target":"present","response":"present","rt":"7895","correct":true,"confidence":5},{"trial_n":100,"span":14,"encoder":"38052518358325","distractor":"98052518358325","target":"absent","response":"absent","rt":"7779.0999999046","correct":true,"confidence":3},{"trial_n":101,"span":14,"encoder":"74854180175313","distractor":"74854180175213","target":"present","response":"present","rt":"3121.6999999285","correct":true,"confidence":5},{"trial_n":102,"span":15,"encoder":"859592391662524","distractor":"859592391662514","target":"absent","response":"absent","rt":"7365.5","correct":true,"confidence":4},{"trial_n":103,"span":15,"encoder":"775653498888197","distractor":"772653498888197","target":"absent","response":"absent","rt":"6938.6999999285","correct":true,"confidence":3},{"trial_n":104,"span":16,"encoder":"8764896294373981","distractor":"8764896244373981","target":"present","response":"present","rt":"7405.1000000238","correct":true,"confidence":4},{"trial_n":105,"span":16,"encoder":"2849010096963265","distractor":"2849010056963265","target":"absent","response":"absent","rt":"5862.1000000238","correct":true,"confidence":5},{"trial_n":106,"span":17,"encoder":"97148158100932740","distractor":"97148158109932740","target":"present","response":"present","rt":"7179.8999999762","correct":true,"confidence":5},{"trial_n":107,"span":17,"encoder":"56751974541244617","distractor":"56251974541244617","target":"present","response":"absent","rt":"8351.8999999762","correct":false,"confidence":4},{"trial_n":108,"span":16,"encoder":"6299987328242172","distractor":"6299987329242172","target":"present","response":"absent","rt":"14628.199999928","correct":false,"confidence":4},{"trial_n":109,"span":15,"encoder":"109721519372909","distractor":"109721519372309","target":"present","response":"present","rt":"2409.8000000715","correct":true,"confidence":5},{"trial_n":110,"span":15,"encoder":"478344990141521","distractor":"478344990141561","target":"present","response":"present","rt":"4694.6000000238","correct":true,"confidence":5},{"trial_n":111,"span":16,"encoder":"4734692532533790","distractor":"4734692532583790","target":"absent","response":"present","rt":"12145.099999905","correct":false,"confidence":3},{"trial_n":112,"span":15,"encoder":"042050769523916","distractor":"042050769573916","target":"absent","response":"absent","rt":"2650.7000000477","correct":true,"confidence":4},{"trial_n":113,"span":15,"encoder":"686509497882165","distractor":"486509497882165","target":"present","response":"present","rt":"7281.3000000715","correct":true,"confidence":5},{"trial_n":114,"span":16,"encoder":"8756437494377829","distractor":"8756437494377629","target":"present","response":"present","rt":"3749.3999999762","correct":true,"confidence":5},{"trial_n":115,"span":16,"encoder":"2394200524481552","distractor":"2374200524481552","target":"present","response":"absent","rt":"3879.9000000954","correct":false,"confidence":4},{"trial_n":116,"span":15,"encoder":"157661940068690","distractor":"157661940068640","target":"absent","response":"absent","rt":"5924.5","correct":true,"confidence":5},{"trial_n":117,"span":15,"encoder":"031592162325239","distractor":"031592162329239","target":"present","response":"present","rt":"1953.3999999762","correct":true,"confidence":5},{"trial_n":118,"span":16,"encoder":"4695322708681640","distractor":"4695322708681646","target":"absent","response":"absent","rt":"2191.3999999762","correct":true,"confidence":5},{"trial_n":119,"span":16,"encoder":"1590415009220729","distractor":"9590415009220729","target":"absent","response":"present","rt":"2543.5","correct":false,"confidence":5},{"trial_n":120,"span":15,"encoder":"782317799353801","distractor":"782317789353801","target":"absent","response":"absent","rt":"11774.100000024","correct":true,"confidence":4},{"trial_n":121,"span":15,"encoder":"262035840848264","distractor":"262034840848264","target":"present","response":"present","rt":"4646.7999999523","correct":true,"confidence":5},{"trial_n":122,"span":16,"encoder":"8498153572424007","distractor":"8478153572424007","target":"absent","response":"absent","rt":"8231.1999999285","correct":true,"confidence":4},{"trial_n":123,"span":16,"encoder":"7390008213232340","distractor":"7190008213232340","target":"present","response":"present","rt":"8762.1999999285","correct":true,"confidence":4},{"trial_n":124,"span":17,"encoder":"25800027445689731","distractor":"25800027405689731","target":"absent","response":"present","rt":"5941.8999999762","correct":false,"confidence":5},{"trial_n":125,"span":16,"encoder":"7106255243806306","distractor":"7106255243804306","target":"absent","response":"absent","rt":"1996","correct":true,"confidence":5},{"trial_n":126,"span":16,"encoder":"2311338007107631","distractor":"2311338007107630","target":"present","response":"present","rt":"4069.7999999523","correct":true,"confidence":5},{"trial_n":127,"span":17,"encoder":"97585741767196758","distractor":"97585746767196758","target":"present","response":"present","rt":"8943.2999999523","correct":true,"confidence":5},{"trial_n":128,"span":17,"encoder":"81177394694345839","distractor":"81177394894345839","target":"present","response":"absent","rt":"11330.300000072","correct":false,"confidence":4},{"trial_n":129,"span":16,"encoder":"4616389783764279","distractor":"4616389723764279","target":"absent","response":"present","rt":"17695.899999976","correct":false,"confidence":4},{"trial_n":130,"span":15,"encoder":"332193659921970","distractor":"332193159921970","target":"absent","response":"present","rt":"10533.900000095","correct":false,"confidence":4},{"trial_n":131,"span":14,"encoder":"31013903324770","distractor":"31013903324771","target":"absent","response":"absent","rt":"1671.6000000238","correct":true,"confidence":5},{"trial_n":132,"span":14,"encoder":"14908989681777","distractor":"14901989681777","target":"absent","response":"present","rt":"6553.0999999046","correct":false,"confidence":5},{"trial_n":133,"span":13,"encoder":"7138092861212","distractor":"7138092861213","target":"absent","response":"absent","rt":"1864.6000000238","correct":true,"confidence":5},{"trial_n":134,"span":13,"encoder":"3803886501202","distractor":"3003886501202","target":"absent","response":"absent","rt":"2836.7000000477","correct":true,"confidence":5},{"trial_n":135,"span":14,"encoder":"22163684226045","distractor":"22163684126045","target":"present","response":"absent","rt":"11741.700000048","correct":false,"confidence":4},{"trial_n":136,"span":13,"encoder":"8798106869240","distractor":"8708106869240","target":"present","response":"absent","rt":"9564.1000000238","correct":false,"confidence":3},{"trial_n":137,"span":12,"encoder":"714349249059","distractor":"814349249059","target":"absent","response":"present","rt":"3521","correct":false,"confidence":4},{"trial_n":138,"span":11,"encoder":"45347809779","distractor":"45347409779","target":"present","response":"present","rt":"7534.5","correct":true,"confidence":5},{"trial_n":139,"span":11,"encoder":"25372281826","distractor":"25372781826","target":"present","response":"present","rt":"10555.799999952","correct":true,"confidence":4},{"trial_n":140,"span":12,"encoder":"452475324695","distractor":"452405324695","target":"present","response":"present","rt":"3098.8999999762","correct":true,"confidence":5}]