[{"trial_n":1,"min":25,"max":230,"target":"present","response":"absent","rt":6314.1000000238,"correct":false,"confidence":-1},{"trial_n":2,"min":25,"max":230,"target":"present","response":"present","rt":1057.3999999762,"correct":true,"confidence":-1},{"trial_n":3,"min":25,"max":230,"target":"absent","response":"absent","rt":1020.4000000954,"correct":true,"confidence":-1},{"trial_n":4,"min":41,"max":214,"target":"absent","response":"absent","rt":387.90000009537,"correct":true,"confidence":-1},{"trial_n":5,"min":41,"max":214,"target":"present","response":"present","rt":610.80000007153,"correct":true,"confidence":-1},{"trial_n":6,"min":57,"max":198,"target":"absent","response":"absent","rt":477.10000002384,"correct":true,"confidence":-1},{"trial_n":7,"min":57,"max":198,"target":"present","response":"present","rt":864.70000004768,"correct":true,"confidence":-1},{"trial_n":8,"min":73,"max":182,"target":"absent","response":"absent","rt":400.60000002384,"correct":true,"confidence":-1},{"trial_n":9,"min":73,"max":182,"target":"absent","response":"absent","rt":578.80000007153,"correct":true,"confidence":-1},{"trial_n":10,"min":89,"max":166,"target":"absent","response":"absent","rt":447.10000002384,"correct":true,"confidence":-1},{"trial_n":11,"min":89,"max":166,"target":"present","response":"absent","rt":452.10000002384,"correct":false,"confidence":-1},{"trial_n":12,"min":81,"max":174,"target":"present","response":"present","rt":673.39999997616,"correct":true,"confidence":-1},{"trial_n":13,"min":81,"max":174,"target":"present","response":"present","rt":1353.3999999762,"correct":true,"confidence":-1},{"trial_n":14,"min":89,"max":166,"target":"present","response":"present","rt":475.5,"correct":true,"confidence":-1},{"trial_n":15,"min":89,"max":166,"target":"absent","response":"absent","rt":764.20000004768,"correct":true,"confidence":-1},{"trial_n":16,"min":97,"max":158,"target":"absent","response":"absent","rt":478.5,"correct":true,"confidence":-1},{"trial_n":17,"min":97,"max":158,"target":"present","response":"absent","rt":435.39999997616,"correct":false,"confidence":-1},{"trial_n":18,"min":89,"max":166,"target":"present","response":"absent","rt":475.90000009537,"correct":false,"confidence":-1},{"trial_n":19,"min":81,"max":174,"target":"absent","response":"absent","rt":401.5,"correct":true,"confidence":-1},{"trial_n":20,"min":81,"max":174,"target":"present","response":"present","rt":982.29999995232,"correct":true,"confidence":-1},{"trial_n":21,"min":85,"max":170,"target":"absent","response":"absent","rt":403.30000007153,"correct":true,"confidence":4},{"trial_n":22,"min":85,"max":170,"target":"absent","response":"absent","rt":549.60000002384,"correct":true,"confidence":1},{"trial_n":23,"min":89,"max":166,"target":"absent","response":"absent","rt":566.39999997616,"correct":true,"confidence":4},{"trial_n":24,"min":89,"max":166,"target":"present","response":"present","rt":568,"correct":true,"confidence":4},{"trial_n":25,"min":93,"max":162,"target":"present","response":"absent","rt":604.5,"correct":false,"confidence":4},{"trial_n":26,"min":89,"max":166,"target":"present","response":"present","rt":742.89999997616,"correct":true,"confidence":4},{"trial_n":27,"min":89,"max":166,"target":"present","response":"present","rt":746.89999997616,"correct":true,"confidence":4},{"trial_n":28,"min":93,"max":162,"target":"absent","response":"present","rt":583,"correct":false,"confidence":4},{"trial_n":29,"min":89,"max":166,"target":"absent","response":"absent","rt":817.60000002384,"correct":true,"confidence":4},{"trial_n":30,"min":89,"max":166,"target":"present","response":"present","rt":662.10000002384,"correct":true,"confidence":4},{"trial_n":31,"min":91,"max":164,"target":"present","response":"absent","rt":1390.7999999523,"correct":false,"confidence":4},{"trial_n":32,"min":89,"max":166,"target":"present","response":"absent","rt":548.39999997616,"correct":false,"confidence":4},{"trial_n":33,"min":87,"max":168,"target":"present","response":"present","rt":771,"correct":true,"confidence":4},{"trial_n":34,"min":87,"max":168,"target":"absent","response":"absent","rt":1136.3999999762,"correct":true,"confidence":4},{"trial_n":35,"min":89,"max":166,"target":"present","response":"absent","rt":3915.2999999523,"correct":false,"confidence":4},{"trial_n":36,"min":87,"max":168,"target":"absent","response":"present","rt":764.39999997616,"correct":false,"confidence":3},{"trial_n":37,"min":85,"max":170,"target":"present","response":"present","rt":576.89999997616,"correct":true,"confidence":3},{"trial_n":38,"min":85,"max":170,"target":"absent","response":"absent","rt":1837.1999999285,"correct":true,"confidence":3},{"trial_n":39,"min":87,"max":168,"target":"present","response":"absent","rt":1596.7999999523,"correct":false,"confidence":4},{"trial_n":40,"min":85,"max":170,"target":"absent","response":"absent","rt":679.39999997616,"correct":true,"confidence":1},{"trial_n":41,"min":85,"max":170,"target":"absent","response":"absent","rt":928.60000002384,"correct":true,"confidence":4},{"trial_n":42,"min":86,"max":169,"target":"absent","response":"absent","rt":695.89999997616,"correct":true,"confidence":4},{"trial_n":43,"min":86,"max":169,"target":"absent","response":"absent","rt":1369,"correct":true,"confidence":4},{"trial_n":44,"min":87,"max":168,"target":"present","response":"present","rt":853.5,"correct":true,"confidence":4},{"trial_n":45,"min":87,"max":168,"target":"present","response":"present","rt":523.10000002384,"correct":true,"confidence":4},{"trial_n":46,"min":88,"max":167,"target":"present","response":"present","rt":1225.6999999285,"correct":true,"confidence":4},{"trial_n":47,"min":88,"max":167,"target":"present","response":"present","rt":627.10000002384,"correct":true,"confidence":4},{"trial_n":48,"min":89,"max":166,"target":"absent","response":"present","rt":2164.7000000477,"correct":false,"confidence":4},{"trial_n":49,"min":88,"max":167,"target":"present","response":"present","rt":583,"correct":true,"confidence":4},{"trial_n":50,"min":88,"max":167,"target":"absent","response":"present","rt":700.69999992847,"correct":false,"confidence":4},{"trial_n":51,"min":87,"max":168,"target":"present","response":"absent","rt":2655.5,"correct":false,"confidence":3},{"trial_n":52,"min":86,"max":169,"target":"absent","response":"absent","rt":1447.3999999762,"correct":true,"confidence":4},{"trial_n":53,"min":86,"max":169,"target":"present","response":"present","rt":1209.5,"correct":true,"confidence":3},{"trial_n":54,"min":87,"max":168,"target":"absent","response":"present","rt":684,"correct":false,"confidence":4},{"trial_n":55,"min":86,"max":169,"target":"absent","response":"present","rt":951.60000002384,"correct":false,"confidence":4},{"trial_n":56,"min":85,"max":170,"target":"absent","response":"present","rt":583.39999997616,"correct":false,"confidence":4},{"trial_n":57,"min":84,"max":171,"target":"present","response":"present","rt":616.59999990463,"correct":true,"confidence":2},{"trial_n":58,"min":84,"max":171,"target":"absent","response":"absent","rt":1102.5999999046,"correct":true,"confidence":4},{"trial_n":59,"min":85,"max":170,"target":"absent","response":"absent","rt":521.79999995232,"correct":true,"confidence":4},{"trial_n":60,"min":85,"max":170,"target":"absent","response":"present","rt":766.60000002384,"correct":false,"confidence":4},{"trial_n":61,"min":84,"max":171,"target":"present","response":"absent","rt":1323.2000000477,"correct":false,"confidence":4},{"trial_n":62,"min":83,"max":172,"target":"absent","response":"absent","rt":614.90000009537,"correct":true,"confidence":4},{"trial_n":63,"min":83,"max":172,"target":"absent","response":"present","rt":2246.1000000238,"correct":false,"confidence":3},{"trial_n":64,"min":82,"max":173,"target":"present","response":"present","rt":881.89999997616,"correct":true,"confidence":3},{"trial_n":65,"min":82,"max":173,"target":"present","response":"present","rt":523.5,"correct":true,"confidence":4},{"trial_n":66,"min":83,"max":172,"target":"absent","response":"present","rt":971.29999995232,"correct":false,"confidence":4},{"trial_n":67,"min":82,"max":173,"target":"present","response":"present","rt":577.20000004768,"correct":true,"confidence":4},{"trial_n":68,"min":82,"max":173,"target":"absent","response":"present","rt":501.69999992847,"correct":false,"confidence":4},{"trial_n":69,"min":81,"max":174,"target":"present","response":"present","rt":567.29999995232,"correct":true,"confidence":4},{"trial_n":70,"min":81,"max":174,"target":"present","response":"present","rt":673.80000007153,"correct":true,"confidence":5},{"trial_n":71,"min":41,"max":214,"target":"present","response":"present","rt":8823.8000000715,"correct":true,"confidence":-1},{"trial_n":72,"min":41,"max":214,"target":"present","response":"absent","rt":9384.6000000238,"correct":false,"confidence":-1},{"trial_n":73,"min":25,"max":230,"target":"absent","response":"present","rt":2687.1000000238,"correct":false,"confidence":-1},{"trial_n":74,"min":9,"max":246,"target":"absent","response":"absent","rt":815.80000007153,"correct":true,"confidence":-1},{"trial_n":75,"min":9,"max":246,"target":"present","response":"present","rt":665.19999992847,"correct":true,"confidence":-1},{"trial_n":76,"min":25,"max":230,"target":"present","response":"present","rt":693.80000007153,"correct":true,"confidence":-1},{"trial_n":77,"min":25,"max":230,"target":"present","response":"present","rt":475.29999995232,"correct":true,"confidence":-1},{"trial_n":78,"min":41,"max":214,"target":"absent","response":"present","rt":614.39999997616,"correct":false,"confidence":-1},{"trial_n":79,"min":25,"max":230,"target":"absent","response":"absent","rt":908.59999990463,"correct":true,"confidence":-1},{"trial_n":80,"min":25,"max":230,"target":"present","response":"present","rt":1606.3000000715,"correct":true,"confidence":-1},{"trial_n":81,"min":33,"max":222,"target":"present","response":"present","rt":453.39999997616,"correct":true,"confidence":-1},{"trial_n":82,"min":33,"max":222,"target":"present","response":"absent","rt":506.80000007153,"correct":false,"confidence":-1},{"trial_n":83,"min":25,"max":230,"target":"present","response":"present","rt":817.5,"correct":true,"confidence":-1},{"trial_n":84,"min":25,"max":230,"target":"absent","response":"absent","rt":532.5,"correct":true,"confidence":-1},{"trial_n":85,"min":33,"max":222,"target":"absent","response":"absent","rt":1383.8000000715,"correct":true,"confidence":-1},{"trial_n":86,"min":33,"max":222,"target":"present","response":"present","rt":340.29999995232,"correct":true,"confidence":-1},{"trial_n":87,"min":41,"max":214,"target":"present","response":"present","rt":881.70000004768,"correct":true,"confidence":-1},{"trial_n":88,"min":41,"max":214,"target":"absent","response":"absent","rt":576.90000009537,"correct":true,"confidence":-1},{"trial_n":89,"min":49,"max":206,"target":"present","response":"present","rt":380.19999992847,"correct":true,"confidence":-1},{"trial_n":90,"min":49,"max":206,"target":"present","response":"absent","rt":189.69999992847,"correct":false,"confidence":-1},{"trial_n":91,"min":45,"max":210,"target":"absent","response":"absent","rt":704.80000007153,"correct":true,"confidence":5},{"trial_n":92,"min":45,"max":210,"target":"absent","response":"absent","rt":1339.5,"correct":true,"confidence":5},{"trial_n":93,"min":49,"max":206,"target":"absent","response":"absent","rt":1018.7000000477,"correct":true,"confidence":5},{"trial_n":94,"min":49,"max":206,"target":"present","response":"present","rt":460.30000007153,"correct":true,"confidence":5},{"trial_n":95,"min":53,"max":202,"target":"present","response":"present","rt":570.80000007153,"correct":true,"confidence":5},{"trial_n":96,"min":53,"max":202,"target":"absent","response":"absent","rt":761.89999997616,"correct":true,"confidence":5},{"trial_n":97,"min":57,"max":198,"target":"present","response":"present","rt":611.29999995232,"correct":true,"confidence":5},{"trial_n":98,"min":57,"max":198,"target":"absent","response":"absent","rt":318,"correct":true,"confidence":5},{"trial_n":99,"min":61,"max":194,"target":"absent","response":"present","rt":628.30000007153,"correct":false,"confidence":1},{"trial_n":100,"min":57,"max":198,"target":"present","response":"present","rt":1871.7000000477,"correct":true,"confidence":5},{"trial_n":101,"min":57,"max":198,"target":"absent","response":"absent","rt":840.30000007153,"correct":true,"confidence":5},{"trial_n":102,"min":59,"max":196,"target":"absent","response":"absent","rt":556.19999992847,"correct":true,"confidence":5},{"trial_n":103,"min":59,"max":196,"target":"absent","response":"absent","rt":539.80000007153,"correct":true,"confidence":5},{"trial_n":104,"min":61,"max":194,"target":"present","response":"present","rt":525.5,"correct":true,"confidence":5},{"trial_n":105,"min":61,"max":194,"target":"present","response":"present","rt":414.5,"correct":true,"confidence":5},{"trial_n":106,"min":63,"max":192,"target":"absent","response":"absent","rt":721.5,"correct":true,"confidence":5},{"trial_n":107,"min":63,"max":192,"target":"present","response":"present","rt":952.09999990463,"correct":true,"confidence":5},{"trial_n":108,"min":65,"max":190,"target":"present","response":"present","rt":338.70000004768,"correct":true,"confidence":5},{"trial_n":109,"min":65,"max":190,"target":"present","response":"present","rt":353.39999997616,"correct":true,"confidence":5},{"trial_n":110,"min":67,"max":188,"target":"present","response":"present","rt":713.10000002384,"correct":true,"confidence":5},{"trial_n":111,"min":67,"max":188,"target":"absent","response":"absent","rt":867.39999997616,"correct":true,"confidence":5},{"trial_n":112,"min":68,"max":187,"target":"present","response":"present","rt":343.70000004768,"correct":true,"confidence":5},{"trial_n":113,"min":68,"max":187,"target":"present","response":"present","rt":384.89999997616,"correct":true,"confidence":5},{"trial_n":114,"min":69,"max":186,"target":"present","response":"present","rt":713.10000002384,"correct":true,"confidence":5},{"trial_n":115,"min":69,"max":186,"target":"present","response":"present","rt":719.60000002384,"correct":true,"confidence":5},{"trial_n":116,"min":70,"max":185,"target":"absent","response":"absent","rt":1110.9000000954,"correct":true,"confidence":5},{"trial_n":117,"min":70,"max":185,"target":"absent","response":"absent","rt":537.89999997616,"correct":true,"confidence":5},{"trial_n":118,"min":71,"max":184,"target":"absent","response":"absent","rt":2140.8999999762,"correct":true,"confidence":5},{"trial_n":119,"min":71,"max":184,"target":"absent","response":"absent","rt":547.79999995232,"correct":true,"confidence":5},{"trial_n":120,"min":72,"max":183,"target":"absent","response":"absent","rt":1036.8000000715,"correct":true,"confidence":5},{"trial_n":121,"min":72,"max":183,"target":"absent","response":"absent","rt":815.39999997616,"correct":true,"confidence":5},{"trial_n":122,"min":73,"max":182,"target":"absent","response":"absent","rt":552.89999997616,"correct":true,"confidence":5},{"trial_n":123,"min":73,"max":182,"target":"absent","response":"absent","rt":917.19999992847,"correct":true,"confidence":5},{"trial_n":124,"min":74,"max":181,"target":"absent","response":"absent","rt":585,"correct":true,"confidence":5},{"trial_n":125,"min":74,"max":181,"target":"present","response":"present","rt":677,"correct":true,"confidence":5},{"trial_n":126,"min":75,"max":180,"target":"present","response":"present","rt":499.5,"correct":true,"confidence":5},{"trial_n":127,"min":75,"max":180,"target":"absent","response":"absent","rt":1068.5999999046,"correct":true,"confidence":5},{"trial_n":128,"min":76,"max":179,"target":"present","response":"present","rt":632.29999995232,"correct":true,"confidence":5},{"trial_n":129,"min":76,"max":179,"target":"absent","response":"present","rt":773.79999995232,"correct":false,"confidence":5},{"trial_n":130,"min":75,"max":180,"target":"present","response":"present","rt":581.20000004768,"correct":true,"confidence":5},{"trial_n":131,"min":75,"max":180,"target":"present","response":"present","rt":373.20000004768,"correct":true,"confidence":5},{"trial_n":132,"min":76,"max":179,"target":"absent","response":"absent","rt":847.10000002384,"correct":true,"confidence":5},{"trial_n":133,"min":76,"max":179,"target":"absent","response":"absent","rt":598,"correct":true,"confidence":5},{"trial_n":134,"min":77,"max":178,"target":"present","response":"present","rt":596.19999992847,"correct":true,"confidence":5},{"trial_n":135,"min":77,"max":178,"target":"present","response":"present","rt":567,"correct":true,"confidence":5},{"trial_n":136,"min":78,"max":177,"target":"present","response":"present","rt":383.70000004768,"correct":true,"confidence":5},{"trial_n":137,"min":78,"max":177,"target":"present","response":"present","rt":421.79999995232,"correct":true,"confidence":5},{"trial_n":138,"min":79,"max":176,"target":"absent","response":"present","rt":1064.5,"correct":false,"confidence":2},{"trial_n":139,"min":78,"max":177,"target":"absent","response":"absent","rt":848.5,"correct":true,"confidence":3},{"trial_n":140,"min":78,"max":177,"target":"absent","response":"absent","rt":1152,"correct":true,"confidence":5}]