[{"trial_n":1,"n_dots":4.25,"target":"right","response":"left","rt":10940.200000048,"correct":false,"confidence":-1},{"trial_n":2,"n_dots":4.25,"target":"left","response":"right","rt":1362.8000000119,"correct":false,"confidence":-1},{"trial_n":3,"n_dots":4.65,"target":"right","response":"right","rt":50.299999952316,"correct":true,"confidence":-1},{"trial_n":4,"n_dots":4.65,"target":"right","response":"right","rt":3918.3000000119,"correct":true,"confidence":-1},{"trial_n":5,"n_dots":4.25,"target":"left","response":"left","rt":714.5,"correct":true,"confidence":-1},{"trial_n":6,"n_dots":4.25,"target":"right","response":"right","rt":119.80000001192,"correct":true,"confidence":-1},{"trial_n":7,"n_dots":3.85,"target":"left","response":"left","rt":180.89999997616,"correct":true,"confidence":-1},{"trial_n":8,"n_dots":3.85,"target":"right","response":"right","rt":1029.8999999762,"correct":true,"confidence":-1},{"trial_n":9,"n_dots":3.65,"target":"left","response":"left","rt":764.09999996424,"correct":true,"confidence":-1},{"trial_n":10,"n_dots":3.65,"target":"right","response":"right","rt":852.30000001192,"correct":true,"confidence":-1},{"trial_n":11,"n_dots":3.45,"target":"right","response":"right","rt":546.30000001192,"correct":true,"confidence":-1},{"trial_n":12,"n_dots":3.45,"target":"right","response":"right","rt":544.5,"correct":true,"confidence":-1},{"trial_n":13,"n_dots":3.35,"target":"right","response":"right","rt":631.69999998808,"correct":true,"confidence":-1},{"trial_n":14,"n_dots":3.35,"target":"right","response":"right","rt":181.10000002384,"correct":true,"confidence":-1},{"trial_n":15,"n_dots":3.25,"target":"left","response":"right","rt":287.80000001192,"correct":false,"confidence":-1},{"trial_n":16,"n_dots":3.35,"target":"left","response":"left","rt":2428.7000000477,"correct":true,"confidence":-1},{"trial_n":17,"n_dots":3.35,"target":"right","response":"right","rt":24,"correct":true,"confidence":-1},{"trial_n":18,"n_dots":3.25,"target":"right","response":"right","rt":102.40000003576,"correct":true,"confidence":-1},{"trial_n":19,"n_dots":3.25,"target":"right","response":"right","rt":2750.8999999762,"correct":true,"confidence":-1},{"trial_n":20,"n_dots":3.15,"target":"right","response":"left","rt":671.89999997616,"correct":false,"confidence":-1},{"trial_n":21,"n_dots":3.25,"target":"right","response":"right","rt":633.30000001192,"correct":true,"confidence":3},{"trial_n":22,"n_dots":3.25,"target":"left","response":"right","rt":1129.1999999881,"correct":false,"confidence":2},{"trial_n":23,"n_dots":3.35,"target":"left","response":"right","rt":909.5,"correct":false,"confidence":2},{"trial_n":24,"n_dots":3.45,"target":"left","response":"right","rt":819.19999998808,"correct":false,"confidence":2},{"trial_n":25,"n_dots":3.55,"target":"right","response":"right","rt":1236.6000000238,"correct":true,"confidence":3},{"trial_n":26,"n_dots":3.55,"target":"left","response":"left","rt":960,"correct":true,"confidence":2},{"trial_n":27,"n_dots":3.45,"target":"right","response":"right","rt":1477.3999999762,"correct":true,"confidence":3},{"trial_n":28,"n_dots":3.45,"target":"left","response":"left","rt":623.5,"correct":true,"confidence":2},{"trial_n":29,"n_dots":3.35,"target":"right","response":"right","rt":1083.5,"correct":true,"confidence":1},{"trial_n":30,"n_dots":3.35,"target":"left","response":"left","rt":489.89999997616,"correct":true,"confidence":1},{"trial_n":31,"n_dots":3.25,"target":"left","response":"right","rt":1277.8000000119,"correct":false,"confidence":1},{"trial_n":32,"n_dots":3.35,"target":"right","response":"right","rt":452.90000003576,"correct":true,"confidence":2},{"trial_n":33,"n_dots":3.35,"target":"right","response":"left","rt":775.80000001192,"correct":false,"confidence":1},{"trial_n":34,"n_dots":3.45,"target":"left","response":"right","rt":691.59999996424,"correct":false,"confidence":1},{"trial_n":35,"n_dots":3.55,"target":"left","response":"right","rt":490.89999997616,"correct":false,"confidence":1},{"trial_n":36,"n_dots":3.65,"target":"left","response":"left","rt":376.80000001192,"correct":true,"confidence":1},{"trial_n":37,"n_dots":3.65,"target":"left","response":"left","rt":582.89999997616,"correct":true,"confidence":1},{"trial_n":38,"n_dots":3.55,"target":"left","response":"left","rt":413,"correct":true,"confidence":1},{"trial_n":39,"n_dots":3.55,"target":"right","response":"right","rt":466.69999998808,"correct":true,"confidence":2},{"trial_n":40,"n_dots":3.45,"target":"right","response":"right","rt":422.40000003576,"correct":true,"confidence":1},{"trial_n":41,"n_dots":3.45,"target":"right","response":"right","rt":683.19999998808,"correct":true,"confidence":2},{"trial_n":42,"n_dots":3.35,"target":"left","response":"right","rt":472.89999997616,"correct":false,"confidence":1},{"trial_n":43,"n_dots":3.45,"target":"left","response":"right","rt":528.30000001192,"correct":false,"confidence":1},{"trial_n":44,"n_dots":3.55,"target":"right","response":"right","rt":461.30000001192,"correct":true,"confidence":2},{"trial_n":45,"n_dots":3.55,"target":"left","response":"right","rt":380.29999995232,"correct":false,"confidence":1},{"trial_n":46,"n_dots":3.65,"target":"right","response":"right","rt":704.39999997616,"correct":true,"confidence":2},{"trial_n":47,"n_dots":3.65,"target":"right","response":"right","rt":688.70000004768,"correct":true,"confidence":1},{"trial_n":48,"n_dots":3.55,"target":"right","response":"right","rt":404.30000001192,"correct":true,"confidence":2},{"trial_n":49,"n_dots":3.55,"target":"left","response":"left","rt":235.09999996424,"correct":true,"confidence":2},{"trial_n":50,"n_dots":3.45,"target":"right","response":"right","rt":218.30000001192,"correct":true,"confidence":1},{"trial_n":51,"n_dots":3.45,"target":"right","response":"right","rt":410.80000001192,"correct":true,"confidence":2},{"trial_n":52,"n_dots":3.35,"target":"left","response":"right","rt":406.69999998808,"correct":false,"confidence":2},{"trial_n":53,"n_dots":3.45,"target":"left","response":"right","rt":215.39999997616,"correct":false,"confidence":2},{"trial_n":54,"n_dots":3.55,"target":"right","response":"right","rt":1053.5,"correct":true,"confidence":3},{"trial_n":55,"n_dots":3.55,"target":"left","response":"right","rt":216.89999997616,"correct":false,"confidence":2},{"trial_n":56,"n_dots":3.65,"target":"right","response":"right","rt":306,"correct":true,"confidence":2},{"trial_n":57,"n_dots":3.65,"target":"left","response":"right","rt":367.29999995232,"correct":false,"confidence":2},{"trial_n":58,"n_dots":3.75,"target":"left","response":"left","rt":877.59999996424,"correct":true,"confidence":3},{"trial_n":59,"n_dots":3.75,"target":"right","response":"right","rt":17.799999952316,"correct":true,"confidence":2},{"trial_n":60,"n_dots":3.65,"target":"right","response":"right","rt":238,"correct":true,"confidence":1},{"trial_n":61,"n_dots":3.65,"target":"left","response":"right","rt":439.80000001192,"correct":false,"confidence":2},{"trial_n":62,"n_dots":3.75,"target":"right","response":"right","rt":435.69999998808,"correct":true,"confidence":3},{"trial_n":63,"n_dots":3.75,"target":"right","response":"right","rt":479.19999998808,"correct":true,"confidence":2},{"trial_n":64,"n_dots":3.65,"target":"left","response":"left","rt":523.60000002384,"correct":true,"confidence":1},{"trial_n":65,"n_dots":3.65,"target":"left","response":"right","rt":876.19999998808,"correct":false,"confidence":1},{"trial_n":66,"n_dots":3.75,"target":"left","response":"left","rt":1069.2000000477,"correct":true,"confidence":3},{"trial_n":67,"n_dots":3.75,"target":"right","response":"right","rt":768.80000001192,"correct":true,"confidence":3},{"trial_n":68,"n_dots":3.65,"target":"right","response":"right","rt":719.30000001192,"correct":true,"confidence":4},{"trial_n":69,"n_dots":3.65,"target":"right","response":"right","rt":331,"correct":true,"confidence":3},{"trial_n":70,"n_dots":3.55,"target":"left","response":"left","rt":270.19999998808,"correct":true,"confidence":3},{"trial_n":71,"n_dots":3.55,"target":"left","response":"left","rt":305.19999998808,"correct":true,"confidence":2},{"trial_n":72,"n_dots":3.45,"target":"left","response":"left","rt":220,"correct":true,"confidence":2},{"trial_n":73,"n_dots":3.45,"target":"right","response":"right","rt":424.89999997616,"correct":true,"confidence":2},{"trial_n":74,"n_dots":3.35,"target":"left","response":"left","rt":265.30000001192,"correct":true,"confidence":2},{"trial_n":75,"n_dots":3.35,"target":"left","response":"left","rt":116.59999996424,"correct":true,"confidence":2},{"trial_n":76,"n_dots":3.25,"target":"left","response":"left","rt":306.89999997616,"correct":true,"confidence":2},{"trial_n":77,"n_dots":3.25,"target":"left","response":"right","rt":418,"correct":false,"confidence":2},{"trial_n":78,"n_dots":3.35,"target":"right","response":"right","rt":538.5,"correct":true,"confidence":3},{"trial_n":79,"n_dots":3.35,"target":"right","response":"right","rt":265.80000001192,"correct":true,"confidence":2},{"trial_n":80,"n_dots":3.25,"target":"left","response":"right","rt":3101.6999999881,"correct":false,"confidence":1},{"trial_n":81,"n_dots":3.35,"target":"left","response":"right","rt":343.5,"correct":false,"confidence":3},{"trial_n":82,"n_dots":3.45,"target":"right","response":"right","rt":393.19999998808,"correct":true,"confidence":1},{"trial_n":83,"n_dots":3.45,"target":"left","response":"right","rt":273,"correct":false,"confidence":2},{"trial_n":84,"n_dots":3.55,"target":"right","response":"right","rt":1363.6999999881,"correct":true,"confidence":3},{"trial_n":85,"n_dots":3.55,"target":"right","response":"right","rt":264.10000002384,"correct":true,"confidence":2},{"trial_n":86,"n_dots":3.45,"target":"left","response":"right","rt":874.30000001192,"correct":false,"confidence":2},{"trial_n":87,"n_dots":3.55,"target":"right","response":"right","rt":768.69999998808,"correct":true,"confidence":3},{"trial_n":88,"n_dots":3.55,"target":"right","response":"right","rt":462.30000001192,"correct":true,"confidence":3},{"trial_n":89,"n_dots":3.45,"target":"left","response":"right","rt":623,"correct":false,"confidence":3},{"trial_n":90,"n_dots":3.55,"target":"left","response":"right","rt":784.39999997616,"correct":false,"confidence":3},{"trial_n":91,"n_dots":3.65,"target":"right","response":"right","rt":291.30000001192,"correct":true,"confidence":4},{"trial_n":92,"n_dots":3.65,"target":"left","response":"left","rt":563.69999998808,"correct":true,"confidence":2},{"trial_n":93,"n_dots":3.55,"target":"right","response":"right","rt":428.19999998808,"correct":true,"confidence":3},{"trial_n":94,"n_dots":3.55,"target":"left","response":"left","rt":512.5,"correct":true,"confidence":2},{"trial_n":95,"n_dots":3.45,"target":"right","response":"right","rt":1886.5,"correct":true,"confidence":1},{"trial_n":96,"n_dots":3.45,"target":"right","response":"right","rt":370.60000002384,"correct":true,"confidence":3},{"trial_n":97,"n_dots":3.35,"target":"left","response":"left","rt":470.59999996424,"correct":true,"confidence":2},{"trial_n":98,"n_dots":3.35,"target":"right","response":"right","rt":527.10000002384,"correct":true,"confidence":3},{"trial_n":99,"n_dots":3.25,"target":"right","response":"right","rt":146.80000001192,"correct":true,"confidence":3},{"trial_n":100,"n_dots":3.25,"target":"left","response":"left","rt":516.89999997616,"correct":true,"confidence":3},{"trial_n":101,"n_dots":3.15,"target":"right","response":"right","rt":536.79999995232,"correct":true,"confidence":3},{"trial_n":102,"n_dots":3.15,"target":"left","response":"left","rt":620.80000001192,"correct":true,"confidence":3},{"trial_n":103,"n_dots":3.05,"target":"left","response":"right","rt":356,"correct":false,"confidence":2},{"trial_n":104,"n_dots":3.15,"target":"left","response":"right","rt":3344.3000000119,"correct":false,"confidence":3},{"trial_n":105,"n_dots":3.25,"target":"left","response":"left","rt":1002.4000000358,"correct":true,"confidence":2},{"trial_n":106,"n_dots":3.25,"target":"right","response":"right","rt":463.19999998808,"correct":true,"confidence":3},{"trial_n":107,"n_dots":3.15,"target":"left","response":"right","rt":419.5,"correct":false,"confidence":3},{"trial_n":108,"n_dots":3.25,"target":"right","response":"right","rt":517.30000001192,"correct":true,"confidence":3},{"trial_n":109,"n_dots":3.25,"target":"left","response":"right","rt":1082.6999999881,"correct":false,"confidence":3},{"trial_n":110,"n_dots":3.35,"target":"right","response":"right","rt":681.39999997616,"correct":true,"confidence":3},{"trial_n":111,"n_dots":3.35,"target":"left","response":"right","rt":719.30000001192,"correct":false,"confidence":3},{"trial_n":112,"n_dots":3.45,"target":"left","response":"right","rt":391.39999997616,"correct":false,"confidence":1},{"trial_n":113,"n_dots":3.55,"target":"right","response":"right","rt":685.19999998808,"correct":true,"confidence":3},{"trial_n":114,"n_dots":3.55,"target":"right","response":"right","rt":557.20000004768,"correct":true,"confidence":3},{"trial_n":115,"n_dots":3.45,"target":"left","response":"right","rt":68.299999952316,"correct":false,"confidence":3},{"trial_n":116,"n_dots":3.55,"target":"left","response":"left","rt":377.60000002384,"correct":true,"confidence":3},{"trial_n":117,"n_dots":3.55,"target":"right","response":"right","rt":700.89999997616,"correct":true,"confidence":4},{"trial_n":118,"n_dots":3.45,"target":"left","response":"right","rt":663.30000001192,"correct":false,"confidence":3},{"trial_n":119,"n_dots":3.55,"target":"right","response":"right","rt":1119.3999999762,"correct":true,"confidence":3},{"trial_n":120,"n_dots":3.55,"target":"left","response":"left","rt":428,"correct":true,"confidence":3}]