[{"trial_n":1,"n_dots":4.25,"target":"right","response":"left","rt":4495.8000000003,"correct":false,"confidence":-1},{"trial_n":2,"n_dots":4.25,"target":"left","response":"left","rt":1901.2999999998,"correct":true,"confidence":-1},{"trial_n":3,"n_dots":4.25,"target":"left","response":"left","rt":1187.5999999996,"correct":true,"confidence":-1},{"trial_n":4,"n_dots":3.85,"target":"left","response":"right","rt":811.79999999981,"correct":false,"confidence":-1},{"trial_n":5,"n_dots":4.25,"target":"left","response":"left","rt":550.5,"correct":true,"confidence":-1},{"trial_n":6,"n_dots":4.25,"target":"left","response":"left","rt":794.70000000019,"correct":true,"confidence":-1},{"trial_n":7,"n_dots":3.85,"target":"right","response":"right","rt":1581.1000000001,"correct":true,"confidence":-1},{"trial_n":8,"n_dots":3.85,"target":"left","response":"left","rt":545.70000000019,"correct":true,"confidence":-1},{"trial_n":9,"n_dots":3.65,"target":"right","response":"right","rt":905,"correct":true,"confidence":-1},{"trial_n":10,"n_dots":3.65,"target":"left","response":"left","rt":507.79999999981,"correct":true,"confidence":-1},{"trial_n":11,"n_dots":3.45,"target":"right","response":"right","rt":200.5,"correct":true,"confidence":-1},{"trial_n":12,"n_dots":3.45,"target":"left","response":"left","rt":292.79999999981,"correct":true,"confidence":-1},{"trial_n":13,"n_dots":3.35,"target":"right","response":"left","rt":547.30000000028,"correct":false,"confidence":-1},{"trial_n":14,"n_dots":3.45,"target":"right","response":"right","rt":615,"correct":true,"confidence":-1},{"trial_n":15,"n_dots":3.45,"target":"right","response":"left","rt":564.60000000009,"correct":false,"confidence":-1},{"trial_n":16,"n_dots":3.55,"target":"right","response":"right","rt":776.40000000037,"correct":true,"confidence":-1},{"trial_n":17,"n_dots":3.55,"target":"left","response":"left","rt":340,"correct":true,"confidence":-1},{"trial_n":18,"n_dots":3.45,"target":"right","response":"right","rt":192.60000000009,"correct":true,"confidence":-1},{"trial_n":19,"n_dots":3.45,"target":"left","response":"left","rt":372.09999999963,"correct":true,"confidence":-1},{"trial_n":20,"n_dots":3.35,"target":"left","response":"left","rt":370.5,"correct":true,"confidence":-1},{"trial_n":21,"n_dots":3.35,"target":"right","response":"left","rt":629.5,"correct":false,"confidence":3},{"trial_n":22,"n_dots":3.45,"target":"left","response":"left","rt":744.59999999963,"correct":true,"confidence":3},{"trial_n":23,"n_dots":3.45,"target":"left","response":"left","rt":1385.6000000006,"correct":true,"confidence":2},{"trial_n":24,"n_dots":3.35,"target":"left","response":"left","rt":1073.7000000002,"correct":true,"confidence":3},{"trial_n":25,"n_dots":3.35,"target":"left","response":"left","rt":1116.7000000002,"correct":true,"confidence":2},{"trial_n":26,"n_dots":3.25,"target":"left","response":"left","rt":823.40000000037,"correct":true,"confidence":2},{"trial_n":27,"n_dots":3.25,"target":"right","response":"left","rt":799.20000000019,"correct":false,"confidence":3},{"trial_n":28,"n_dots":3.35,"target":"right","response":"left","rt":977.79999999981,"correct":false,"confidence":2},{"trial_n":29,"n_dots":3.45,"target":"right","response":"right","rt":1555.1999999993,"correct":true,"confidence":3},{"trial_n":30,"n_dots":3.45,"target":"right","response":"left","rt":785.30000000075,"correct":false,"confidence":2},{"trial_n":31,"n_dots":3.55,"target":"left","response":"left","rt":1090.1999999993,"correct":true,"confidence":2},{"trial_n":32,"n_dots":3.55,"target":"left","response":"left","rt":550.70000000019,"correct":true,"confidence":4},{"trial_n":33,"n_dots":3.45,"target":"left","response":"left","rt":686.20000000019,"correct":true,"confidence":3},{"trial_n":34,"n_dots":3.45,"target":"left","response":"left","rt":1499.7999999998,"correct":true,"confidence":3},{"trial_n":35,"n_dots":3.35,"target":"left","response":"left","rt":587.80000000075,"correct":true,"confidence":4},{"trial_n":36,"n_dots":3.35,"target":"right","response":"right","rt":955,"correct":true,"confidence":3},{"trial_n":37,"n_dots":3.25,"target":"right","response":"right","rt":812.89999999944,"correct":true,"confidence":3},{"trial_n":38,"n_dots":3.25,"target":"right","response":"left","rt":456.5,"correct":false,"confidence":1},{"trial_n":39,"n_dots":3.35,"target":"right","response":"right","rt":698.40000000037,"correct":true,"confidence":2},{"trial_n":40,"n_dots":3.35,"target":"right","response":"left","rt":675.09999999963,"correct":false,"confidence":1},{"trial_n":41,"n_dots":3.45,"target":"right","response":"right","rt":657.40000000037,"correct":true,"confidence":4},{"trial_n":42,"n_dots":3.45,"target":"left","response":"left","rt":590.29999999981,"correct":true,"confidence":3},{"trial_n":43,"n_dots":3.35,"target":"left","response":"left","rt":588.90000000037,"correct":true,"confidence":3},{"trial_n":44,"n_dots":3.35,"target":"left","response":"left","rt":627,"correct":true,"confidence":3},{"trial_n":45,"n_dots":3.25,"target":"left","response":"left","rt":512.10000000056,"correct":true,"confidence":4},{"trial_n":46,"n_dots":3.25,"target":"right","response":"left","rt":610.70000000019,"correct":false,"confidence":3},{"trial_n":47,"n_dots":3.35,"target":"left","response":"left","rt":542.29999999981,"correct":true,"confidence":4},{"trial_n":48,"n_dots":3.35,"target":"right","response":"right","rt":688.20000000019,"correct":true,"confidence":4},{"trial_n":49,"n_dots":3.25,"target":"left","response":"left","rt":553.39999999944,"correct":true,"confidence":5},{"trial_n":50,"n_dots":3.25,"target":"right","response":"left","rt":484.90000000037,"correct":false,"confidence":4},{"trial_n":51,"n_dots":3.35,"target":"right","response":"left","rt":1286.7000000002,"correct":false,"confidence":1},{"trial_n":52,"n_dots":3.45,"target":"left","response":"left","rt":521.5,"correct":true,"confidence":3},{"trial_n":53,"n_dots":3.45,"target":"left","response":"left","rt":380.79999999981,"correct":true,"confidence":2},{"trial_n":54,"n_dots":3.35,"target":"right","response":"left","rt":579,"correct":false,"confidence":2},{"trial_n":55,"n_dots":3.45,"target":"right","response":"left","rt":637.59999999963,"correct":false,"confidence":3},{"trial_n":56,"n_dots":3.55,"target":"left","response":"left","rt":625.10000000056,"correct":true,"confidence":4},{"trial_n":57,"n_dots":3.55,"target":"left","response":"left","rt":497,"correct":true,"confidence":3},{"trial_n":58,"n_dots":3.45,"target":"right","response":"left","rt":618.40000000037,"correct":false,"confidence":3},{"trial_n":59,"n_dots":3.55,"target":"right","response":"right","rt":842.70000000019,"correct":true,"confidence":3},{"trial_n":60,"n_dots":3.55,"target":"left","response":"left","rt":1441.7000000002,"correct":true,"confidence":3},{"trial_n":61,"n_dots":3.45,"target":"right","response":"right","rt":942.20000000019,"correct":true,"confidence":3},{"trial_n":62,"n_dots":3.45,"target":"right","response":"right","rt":603.29999999981,"correct":true,"confidence":4},{"trial_n":63,"n_dots":3.35,"target":"right","response":"left","rt":1423.5,"correct":false,"confidence":2},{"trial_n":64,"n_dots":3.45,"target":"right","response":"right","rt":1121.4000000004,"correct":true,"confidence":2},{"trial_n":65,"n_dots":3.45,"target":"left","response":"left","rt":571.90000000037,"correct":true,"confidence":3},{"trial_n":66,"n_dots":3.35,"target":"right","response":"right","rt":1078.5,"correct":true,"confidence":2},{"trial_n":67,"n_dots":3.35,"target":"left","response":"left","rt":565.29999999981,"correct":true,"confidence":2},{"trial_n":68,"n_dots":3.25,"target":"right","response":"right","rt":1096.1000000006,"correct":true,"confidence":3},{"trial_n":69,"n_dots":3.25,"target":"right","response":"right","rt":671.80000000075,"correct":true,"confidence":4},{"trial_n":70,"n_dots":3.15,"target":"left","response":"left","rt":561.5,"correct":true,"confidence":3},{"trial_n":71,"n_dots":3.15,"target":"left","response":"left","rt":744.70000000019,"correct":true,"confidence":2},{"trial_n":72,"n_dots":3.05,"target":"right","response":"right","rt":602.69999999925,"correct":true,"confidence":3},{"trial_n":73,"n_dots":3.05,"target":"left","response":"left","rt":599.69999999925,"correct":true,"confidence":4},{"trial_n":74,"n_dots":2.95,"target":"left","response":"left","rt":1840.6000000006,"correct":true,"confidence":1},{"trial_n":75,"n_dots":2.95,"target":"right","response":"right","rt":704.89999999944,"correct":true,"confidence":3},{"trial_n":76,"n_dots":2.85,"target":"right","response":"left","rt":1069,"correct":false,"confidence":2},{"trial_n":77,"n_dots":2.95,"target":"left","response":"left","rt":1134.7999999998,"correct":true,"confidence":1},{"trial_n":78,"n_dots":2.95,"target":"left","response":"left","rt":573.29999999981,"correct":true,"confidence":1},{"trial_n":79,"n_dots":2.85,"target":"right","response":"left","rt":519.80000000075,"correct":false,"confidence":1},{"trial_n":80,"n_dots":2.95,"target":"right","response":"right","rt":1050.6999999993,"correct":true,"confidence":2},{"trial_n":81,"n_dots":2.95,"target":"left","response":"right","rt":1635.2000000002,"correct":false,"confidence":2},{"trial_n":82,"n_dots":3.05,"target":"right","response":"right","rt":771.20000000019,"correct":true,"confidence":3},{"trial_n":83,"n_dots":3.05,"target":"right","response":"right","rt":1009.5999999996,"correct":true,"confidence":3},{"trial_n":84,"n_dots":2.95,"target":"right","response":"left","rt":1712.4000000004,"correct":false,"confidence":1},{"trial_n":85,"n_dots":3.05,"target":"right","response":"left","rt":769.29999999981,"correct":false,"confidence":1},{"trial_n":86,"n_dots":3.15,"target":"right","response":"left","rt":1129.9000000004,"correct":false,"confidence":1},{"trial_n":87,"n_dots":3.25,"target":"left","response":"left","rt":725.90000000037,"correct":true,"confidence":2},{"trial_n":88,"n_dots":3.25,"target":"left","response":"left","rt":501.79999999981,"correct":true,"confidence":1},{"trial_n":89,"n_dots":3.15,"target":"right","response":"left","rt":687.5,"correct":false,"confidence":1},{"trial_n":90,"n_dots":3.25,"target":"left","response":"left","rt":547.09999999963,"correct":true,"confidence":4},{"trial_n":91,"n_dots":3.25,"target":"right","response":"right","rt":889.09999999963,"correct":true,"confidence":4},{"trial_n":92,"n_dots":3.15,"target":"right","response":"left","rt":1200.7000000002,"correct":false,"confidence":1},{"trial_n":93,"n_dots":3.25,"target":"right","response":"left","rt":691.5,"correct":false,"confidence":1},{"trial_n":94,"n_dots":3.35,"target":"right","response":"left","rt":2388.0999999996,"correct":false,"confidence":1},{"trial_n":95,"n_dots":3.45,"target":"left","response":"left","rt":878.20000000019,"correct":true,"confidence":3},{"trial_n":96,"n_dots":3.45,"target":"left","response":"left","rt":933.70000000019,"correct":true,"confidence":2},{"trial_n":97,"n_dots":3.35,"target":"left","response":"left","rt":745.20000000019,"correct":true,"confidence":4},{"trial_n":98,"n_dots":3.35,"target":"right","response":"right","rt":1811.6000000006,"correct":true,"confidence":2},{"trial_n":99,"n_dots":3.25,"target":"right","response":"right","rt":1505.2000000002,"correct":true,"confidence":2},{"trial_n":100,"n_dots":3.25,"target":"left","response":"left","rt":599.5,"correct":true,"confidence":4},{"trial_n":101,"n_dots":3.15,"target":"left","response":"left","rt":414.59999999963,"correct":true,"confidence":2},{"trial_n":102,"n_dots":3.15,"target":"left","response":"left","rt":860.59999999963,"correct":true,"confidence":2},{"trial_n":103,"n_dots":3.05,"target":"right","response":"left","rt":964.70000000019,"correct":false,"confidence":1},{"trial_n":104,"n_dots":3.15,"target":"left","response":"left","rt":1432.6999999993,"correct":true,"confidence":2},{"trial_n":105,"n_dots":3.15,"target":"left","response":"left","rt":849.5,"correct":true,"confidence":2},{"trial_n":106,"n_dots":3.05,"target":"right","response":"left","rt":1112.7000000002,"correct":false,"confidence":1},{"trial_n":107,"n_dots":3.15,"target":"left","response":"left","rt":1791,"correct":true,"confidence":2},{"trial_n":108,"n_dots":3.15,"target":"left","response":"left","rt":1061.2000000002,"correct":true,"confidence":2},{"trial_n":109,"n_dots":3.05,"target":"left","response":"left","rt":970.30000000075,"correct":true,"confidence":3},{"trial_n":110,"n_dots":3.05,"target":"right","response":"left","rt":3374.2999999998,"correct":false,"confidence":2},{"trial_n":111,"n_dots":3.15,"target":"right","response":"left","rt":1364.3000000007,"correct":false,"confidence":1},{"trial_n":112,"n_dots":3.25,"target":"left","response":"right","rt":4296.8999999994,"correct":false,"confidence":2},{"trial_n":113,"n_dots":3.35,"target":"right","response":"right","rt":1199.8999999994,"correct":true,"confidence":3},{"trial_n":114,"n_dots":3.35,"target":"left","response":"left","rt":1116.2000000002,"correct":true,"confidence":4},{"trial_n":115,"n_dots":3.25,"target":"left","response":"left","rt":1021.5999999996,"correct":true,"confidence":4},{"trial_n":116,"n_dots":3.25,"target":"left","response":"left","rt":1100.9000000004,"correct":true,"confidence":3},{"trial_n":117,"n_dots":3.15,"target":"right","response":"right","rt":1251.5,"correct":true,"confidence":2},{"trial_n":118,"n_dots":3.15,"target":"right","response":"left","rt":1068.2000000002,"correct":false,"confidence":2},{"trial_n":119,"n_dots":3.25,"target":"left","response":"left","rt":852.5,"correct":true,"confidence":2},{"trial_n":120,"n_dots":3.25,"target":"right","response":"right","rt":1101.7000000002,"correct":true,"confidence":1}]