[{"trial_n":1,"min":25,"max":230,"target":"present","response":"absent","rt":10119,"correct":false,"confidence":-1},{"trial_n":2,"min":25,"max":230,"target":"present","response":"present","rt":1508.4000000358,"correct":true,"confidence":-1},{"trial_n":3,"min":25,"max":230,"target":"absent","response":"absent","rt":1773.5,"correct":true,"confidence":-1},{"trial_n":4,"min":41,"max":214,"target":"absent","response":"absent","rt":623.60000002384,"correct":true,"confidence":-1},{"trial_n":5,"min":41,"max":214,"target":"present","response":"present","rt":143.10000002384,"correct":true,"confidence":-1},{"trial_n":6,"min":57,"max":198,"target":"absent","response":"absent","rt":338.40000003576,"correct":true,"confidence":-1},{"trial_n":7,"min":57,"max":198,"target":"present","response":"present","rt":570.09999996424,"correct":true,"confidence":-1},{"trial_n":8,"min":73,"max":182,"target":"present","response":"present","rt":487.89999997616,"correct":true,"confidence":-1},{"trial_n":9,"min":73,"max":182,"target":"absent","response":"present","rt":397.80000001192,"correct":false,"confidence":-1},{"trial_n":10,"min":57,"max":198,"target":"present","response":"absent","rt":5361.9000000358,"correct":false,"confidence":-1},{"trial_n":11,"min":49,"max":206,"target":"present","response":"present","rt":430.09999996424,"correct":true,"confidence":-1},{"trial_n":12,"min":49,"max":206,"target":"absent","response":"absent","rt":241.60000002384,"correct":true,"confidence":-1},{"trial_n":13,"min":57,"max":198,"target":"absent","response":"absent","rt":399.60000002384,"correct":true,"confidence":-1},{"trial_n":14,"min":57,"max":198,"target":"present","response":"present","rt":421.80000001192,"correct":true,"confidence":-1},{"trial_n":15,"min":65,"max":190,"target":"absent","response":"absent","rt":316.29999995232,"correct":true,"confidence":-1},{"trial_n":16,"min":65,"max":190,"target":"absent","response":"absent","rt":368.39999997616,"correct":true,"confidence":-1},{"trial_n":17,"min":73,"max":182,"target":"present","response":"present","rt":790.69999998808,"correct":true,"confidence":-1},{"trial_n":18,"min":73,"max":182,"target":"present","response":"present","rt":252.19999998808,"correct":true,"confidence":-1},{"trial_n":19,"min":81,"max":174,"target":"present","response":"absent","rt":455.69999998808,"correct":false,"confidence":-1},{"trial_n":20,"min":73,"max":182,"target":"absent","response":"absent","rt":706.5,"correct":true,"confidence":-1},{"trial_n":21,"min":73,"max":182,"target":"present","response":"absent","rt":698.29999995232,"correct":false,"confidence":2},{"trial_n":22,"min":69,"max":186,"target":"absent","response":"absent","rt":1572.0999999642,"correct":true,"confidence":5},{"trial_n":23,"min":69,"max":186,"target":"absent","response":"absent","rt":1462.3000000119,"correct":true,"confidence":4},{"trial_n":24,"min":73,"max":182,"target":"absent","response":"absent","rt":847.59999996424,"correct":true,"confidence":5},{"trial_n":25,"min":73,"max":182,"target":"present","response":"present","rt":799.39999997616,"correct":true,"confidence":5},{"trial_n":26,"min":77,"max":178,"target":"absent","response":"absent","rt":1105.5,"correct":true,"confidence":4},{"trial_n":27,"min":77,"max":178,"target":"absent","response":"present","rt":1251.6999999881,"correct":false,"confidence":2},{"trial_n":28,"min":73,"max":182,"target":"absent","response":"present","rt":1632.3000000119,"correct":false,"confidence":3},{"trial_n":29,"min":69,"max":186,"target":"absent","response":"absent","rt":862.10000002384,"correct":true,"confidence":4},{"trial_n":30,"min":69,"max":186,"target":"absent","response":"absent","rt":747,"correct":true,"confidence":4},{"trial_n":31,"min":71,"max":184,"target":"absent","response":"absent","rt":1349.3999999762,"correct":true,"confidence":2},{"trial_n":32,"min":71,"max":184,"target":"present","response":"present","rt":822.69999998808,"correct":true,"confidence":4},{"trial_n":33,"min":73,"max":182,"target":"absent","response":"present","rt":1196.2999999523,"correct":false,"confidence":3},{"trial_n":34,"min":71,"max":184,"target":"present","response":"present","rt":1108.3000000119,"correct":true,"confidence":5},{"trial_n":35,"min":71,"max":184,"target":"absent","response":"present","rt":949.69999998808,"correct":false,"confidence":4},{"trial_n":36,"min":69,"max":186,"target":"absent","response":"present","rt":1111.8000000119,"correct":false,"confidence":3},{"trial_n":37,"min":67,"max":188,"target":"absent","response":"present","rt":1025.6000000238,"correct":false,"confidence":1},{"trial_n":38,"min":65,"max":190,"target":"absent","response":"present","rt":754.40000003576,"correct":false,"confidence":5},{"trial_n":39,"min":63,"max":192,"target":"absent","response":"present","rt":980.89999997616,"correct":false,"confidence":3},{"trial_n":40,"min":61,"max":194,"target":"present","response":"present","rt":916.80000001192,"correct":true,"confidence":5},{"trial_n":41,"min":61,"max":194,"target":"absent","response":"absent","rt":1032.9000000358,"correct":true,"confidence":3},{"trial_n":42,"min":62,"max":193,"target":"present","response":"present","rt":742.39999997616,"correct":true,"confidence":5},{"trial_n":43,"min":62,"max":193,"target":"present","response":"present","rt":765.69999998808,"correct":true,"confidence":5},{"trial_n":44,"min":63,"max":192,"target":"present","response":"present","rt":769.90000003576,"correct":true,"confidence":5},{"trial_n":45,"min":63,"max":192,"target":"absent","response":"absent","rt":831.5,"correct":true,"confidence":4},{"trial_n":46,"min":64,"max":191,"target":"absent","response":"present","rt":967.29999995232,"correct":false,"confidence":4},{"trial_n":47,"min":63,"max":192,"target":"present","response":"present","rt":949.69999998808,"correct":true,"confidence":5},{"trial_n":48,"min":63,"max":192,"target":"absent","response":"absent","rt":780.69999998808,"correct":true,"confidence":3},{"trial_n":49,"min":64,"max":191,"target":"present","response":"present","rt":856.90000003576,"correct":true,"confidence":5},{"trial_n":50,"min":64,"max":191,"target":"absent","response":"absent","rt":1547.5,"correct":true,"confidence":3},{"trial_n":51,"min":65,"max":190,"target":"absent","response":"absent","rt":1203.1000000238,"correct":true,"confidence":3},{"trial_n":52,"min":65,"max":190,"target":"present","response":"absent","rt":2570.5999999642,"correct":false,"confidence":2},{"trial_n":53,"min":64,"max":191,"target":"absent","response":"absent","rt":921.30000001192,"correct":true,"confidence":3},{"trial_n":54,"min":64,"max":191,"target":"absent","response":"absent","rt":4605.5,"correct":true,"confidence":2},{"trial_n":55,"min":65,"max":190,"target":"present","response":"present","rt":2304.1000000238,"correct":true,"confidence":3},{"trial_n":56,"min":65,"max":190,"target":"present","response":"present","rt":743.5,"correct":true,"confidence":5},{"trial_n":57,"min":66,"max":189,"target":"present","response":"present","rt":734.10000002384,"correct":true,"confidence":5},{"trial_n":58,"min":66,"max":189,"target":"present","response":"present","rt":756.79999995232,"correct":true,"confidence":5},{"trial_n":59,"min":67,"max":188,"target":"present","response":"present","rt":678,"correct":true,"confidence":5},{"trial_n":60,"min":67,"max":188,"target":"present","response":"present","rt":702.5,"correct":true,"confidence":5},{"trial_n":61,"min":68,"max":187,"target":"present","response":"present","rt":658.79999995232,"correct":true,"confidence":5},{"trial_n":62,"min":68,"max":187,"target":"present","response":"present","rt":1170.8000000119,"correct":true,"confidence":5},{"trial_n":63,"min":69,"max":186,"target":"present","response":"present","rt":773.30000001192,"correct":true,"confidence":5},{"trial_n":64,"min":69,"max":186,"target":"present","response":"present","rt":681.80000001192,"correct":true,"confidence":4},{"trial_n":65,"min":70,"max":185,"target":"present","response":"present","rt":836.39999997616,"correct":true,"confidence":4},{"trial_n":66,"min":70,"max":185,"target":"present","response":"present","rt":615,"correct":true,"confidence":4},{"trial_n":67,"min":71,"max":184,"target":"present","response":"present","rt":651.30000001192,"correct":true,"confidence":5},{"trial_n":68,"min":71,"max":184,"target":"present","response":"present","rt":710.10000002384,"correct":true,"confidence":5},{"trial_n":69,"min":72,"max":183,"target":"absent","response":"absent","rt":674.09999996424,"correct":true,"confidence":5},{"trial_n":70,"min":72,"max":183,"target":"absent","response":"absent","rt":1311,"correct":true,"confidence":3},{"trial_n":71,"min":41,"max":214,"target":"present","response":"absent","rt":15637.399999976,"correct":false,"confidence":-1},{"trial_n":72,"min":41,"max":214,"target":"present","response":"absent","rt":596.69999998808,"correct":false,"confidence":-1},{"trial_n":73,"min":25,"max":230,"target":"absent","response":"present","rt":2006.0999999642,"correct":false,"confidence":-1},{"trial_n":74,"min":9,"max":246,"target":"absent","response":"absent","rt":2921.3000000119,"correct":true,"confidence":-1},{"trial_n":75,"min":9,"max":246,"target":"present","response":"present","rt":133,"correct":true,"confidence":-1},{"trial_n":76,"min":25,"max":230,"target":"absent","response":"absent","rt":913.80000001192,"correct":true,"confidence":-1},{"trial_n":77,"min":25,"max":230,"target":"absent","response":"absent","rt":354.10000002384,"correct":true,"confidence":-1},{"trial_n":78,"min":41,"max":214,"target":"absent","response":"absent","rt":464.09999996424,"correct":true,"confidence":-1},{"trial_n":79,"min":41,"max":214,"target":"absent","response":"absent","rt":445.89999997616,"correct":true,"confidence":-1},{"trial_n":80,"min":57,"max":198,"target":"absent","response":"absent","rt":358.39999997616,"correct":true,"confidence":-1},{"trial_n":81,"min":57,"max":198,"target":"absent","response":"absent","rt":1462.5999999642,"correct":true,"confidence":-1},{"trial_n":82,"min":65,"max":190,"target":"absent","response":"absent","rt":308.19999998808,"correct":true,"confidence":-1},{"trial_n":83,"min":65,"max":190,"target":"present","response":"present","rt":882,"correct":true,"confidence":-1},{"trial_n":84,"min":73,"max":182,"target":"present","response":"present","rt":743.40000003576,"correct":true,"confidence":-1},{"trial_n":85,"min":73,"max":182,"target":"present","response":"present","rt":320.10000002384,"correct":true,"confidence":-1},{"trial_n":86,"min":81,"max":174,"target":"present","response":"present","rt":962.19999998808,"correct":true,"confidence":-1},{"trial_n":87,"min":81,"max":174,"target":"present","response":"present","rt":360.90000003576,"correct":true,"confidence":-1},{"trial_n":88,"min":89,"max":166,"target":"present","response":"present","rt":1157.3000000119,"correct":true,"confidence":-1},{"trial_n":89,"min":89,"max":166,"target":"absent","response":"present","rt":297.80000001192,"correct":false,"confidence":-1},{"trial_n":90,"min":81,"max":174,"target":"absent","response":"absent","rt":507.69999998808,"correct":true,"confidence":-1},{"trial_n":91,"min":81,"max":174,"target":"present","response":"absent","rt":147.20000004768,"correct":false,"confidence":2},{"trial_n":92,"min":77,"max":178,"target":"absent","response":"absent","rt":654.40000003576,"correct":true,"confidence":5},{"trial_n":93,"min":77,"max":178,"target":"present","response":"present","rt":1583.7999999523,"correct":true,"confidence":3},{"trial_n":94,"min":81,"max":174,"target":"absent","response":"absent","rt":575,"correct":true,"confidence":1},{"trial_n":95,"min":81,"max":174,"target":"present","response":"absent","rt":1278.4000000358,"correct":false,"confidence":5},{"trial_n":96,"min":77,"max":178,"target":"absent","response":"absent","rt":2217.1000000238,"correct":true,"confidence":5},{"trial_n":97,"min":77,"max":178,"target":"present","response":"present","rt":771.70000004768,"correct":true,"confidence":5},{"trial_n":98,"min":81,"max":174,"target":"absent","response":"absent","rt":736.89999997616,"correct":true,"confidence":4},{"trial_n":99,"min":81,"max":174,"target":"present","response":"present","rt":1666.3000000119,"correct":true,"confidence":2},{"trial_n":100,"min":85,"max":170,"target":"present","response":"present","rt":1064.5999999642,"correct":true,"confidence":4},{"trial_n":101,"min":85,"max":170,"target":"absent","response":"absent","rt":2721.1999999881,"correct":true,"confidence":4},{"trial_n":102,"min":87,"max":168,"target":"present","response":"present","rt":932.19999998808,"correct":true,"confidence":4},{"trial_n":103,"min":87,"max":168,"target":"present","response":"present","rt":1077,"correct":true,"confidence":4},{"trial_n":104,"min":89,"max":166,"target":"absent","response":"absent","rt":830.60000002384,"correct":true,"confidence":4},{"trial_n":105,"min":89,"max":166,"target":"absent","response":"absent","rt":990.90000003576,"correct":true,"confidence":3},{"trial_n":106,"min":91,"max":164,"target":"present","response":"present","rt":880.5,"correct":true,"confidence":3},{"trial_n":107,"min":91,"max":164,"target":"absent","response":"absent","rt":896.60000002384,"correct":true,"confidence":3},{"trial_n":108,"min":93,"max":162,"target":"present","response":"absent","rt":2687.2000000477,"correct":false,"confidence":4},{"trial_n":109,"min":91,"max":164,"target":"present","response":"present","rt":1359.8999999762,"correct":true,"confidence":4},{"trial_n":110,"min":91,"max":164,"target":"present","response":"present","rt":998,"correct":true,"confidence":3},{"trial_n":111,"min":92,"max":163,"target":"present","response":"present","rt":883.70000004768,"correct":true,"confidence":3},{"trial_n":112,"min":92,"max":163,"target":"absent","response":"present","rt":972.19999998808,"correct":false,"confidence":3},{"trial_n":113,"min":91,"max":164,"target":"absent","response":"present","rt":811.39999997616,"correct":false,"confidence":3},{"trial_n":114,"min":90,"max":165,"target":"absent","response":"present","rt":902.80000001192,"correct":false,"confidence":3},{"trial_n":115,"min":89,"max":166,"target":"absent","response":"present","rt":1954.5999999642,"correct":false,"confidence":2},{"trial_n":116,"min":88,"max":167,"target":"present","response":"present","rt":689.10000002384,"correct":true,"confidence":5},{"trial_n":117,"min":88,"max":167,"target":"absent","response":"present","rt":972.10000002384,"correct":false,"confidence":2},{"trial_n":118,"min":87,"max":168,"target":"absent","response":"absent","rt":841.69999998808,"correct":true,"confidence":2},{"trial_n":119,"min":87,"max":168,"target":"present","response":"present","rt":853.09999996424,"correct":true,"confidence":4},{"trial_n":120,"min":88,"max":167,"target":"present","response":"present","rt":899.79999995232,"correct":true,"confidence":4},{"trial_n":121,"min":88,"max":167,"target":"absent","response":"present","rt":1066.6999999881,"correct":false,"confidence":2},{"trial_n":122,"min":87,"max":168,"target":"present","response":"present","rt":741.30000001192,"correct":true,"confidence":3},{"trial_n":123,"min":87,"max":168,"target":"present","response":"present","rt":741.30000001192,"correct":true,"confidence":4},{"trial_n":124,"min":88,"max":167,"target":"present","response":"absent","rt":825.60000002384,"correct":false,"confidence":4},{"trial_n":125,"min":87,"max":168,"target":"present","response":"present","rt":1496.5,"correct":true,"confidence":3},{"trial_n":126,"min":87,"max":168,"target":"absent","response":"absent","rt":811.80000001192,"correct":true,"confidence":4},{"trial_n":127,"min":88,"max":167,"target":"absent","response":"present","rt":1259.5999999642,"correct":false,"confidence":2},{"trial_n":128,"min":87,"max":168,"target":"present","response":"present","rt":1120.4000000358,"correct":true,"confidence":5},{"trial_n":129,"min":87,"max":168,"target":"present","response":"present","rt":963.5,"correct":true,"confidence":5},{"trial_n":130,"min":88,"max":167,"target":"absent","response":"absent","rt":1108.5,"correct":true,"confidence":4},{"trial_n":131,"min":88,"max":167,"target":"present","response":"present","rt":817,"correct":true,"confidence":3},{"trial_n":132,"min":89,"max":166,"target":"absent","response":"present","rt":1087.6999999881,"correct":false,"confidence":2},{"trial_n":133,"min":88,"max":167,"target":"absent","response":"absent","rt":1313.5,"correct":true,"confidence":3},{"trial_n":134,"min":88,"max":167,"target":"present","response":"present","rt":672.19999998808,"correct":true,"confidence":4},{"trial_n":135,"min":89,"max":166,"target":"absent","response":"absent","rt":1124.0999999642,"correct":true,"confidence":2},{"trial_n":136,"min":89,"max":166,"target":"absent","response":"absent","rt":1239.5,"correct":true,"confidence":3},{"trial_n":137,"min":90,"max":165,"target":"present","response":"present","rt":1556.8000000119,"correct":true,"confidence":4},{"trial_n":138,"min":90,"max":165,"target":"present","response":"present","rt":854.19999998808,"correct":true,"confidence":3},{"trial_n":139,"min":91,"max":164,"target":"present","response":"absent","rt":898.89999997616,"correct":false,"confidence":1},{"trial_n":140,"min":90,"max":165,"target":"absent","response":"absent","rt":988.89999997616,"correct":true,"confidence":2}]