[{"trial_n":1,"span":8,"encoder":"88166056","distractor":"82166056","target":"present","response":"absent","rt":"7198","correct":false,"confidence":-1},{"trial_n":2,"span":6,"encoder":"340819","distractor":"240819","target":"present","response":"present","rt":"1892","correct":true,"confidence":-1},{"trial_n":3,"span":6,"encoder":"942809","distractor":"842809","target":"absent","response":"present","rt":"2546","correct":false,"confidence":-1},{"trial_n":4,"span":4,"encoder":"6925","distractor":"2925","target":"absent","response":"present","rt":"1805","correct":false,"confidence":-1},{"trial_n":5,"span":2,"encoder":"39","distractor":"32","target":"present","response":"present","rt":"1562","correct":true,"confidence":-1},{"trial_n":6,"span":2,"encoder":"84","distractor":"81","target":"present","response":"present","rt":"1141","correct":true,"confidence":-1},{"trial_n":7,"span":4,"encoder":"0557","distractor":"7557","target":"present","response":"present","rt":"1558","correct":true,"confidence":-1},{"trial_n":8,"span":4,"encoder":"1042","distractor":"6042","target":"absent","response":"absent","rt":"1369","correct":true,"confidence":-1},{"trial_n":9,"span":6,"encoder":"910300","distractor":"915300","target":"present","response":"present","rt":"1694","correct":true,"confidence":-1},{"trial_n":10,"span":6,"encoder":"484807","distractor":"484887","target":"present","response":"present","rt":"2169","correct":true,"confidence":-1},{"trial_n":11,"span":8,"encoder":"22592425","distractor":"22502425","target":"absent","response":"absent","rt":"2080","correct":true,"confidence":-1},{"trial_n":12,"span":8,"encoder":"45910754","distractor":"45900754","target":"absent","response":"absent","rt":"2115","correct":true,"confidence":-1},{"trial_n":13,"span":9,"encoder":"322477567","distractor":"322477561","target":"absent","response":"present","rt":"5849","correct":false,"confidence":-1},{"trial_n":14,"span":8,"encoder":"80770609","distractor":"80770649","target":"present","response":"absent","rt":"2257","correct":false,"confidence":-1},{"trial_n":15,"span":7,"encoder":"2578891","distractor":"2558891","target":"absent","response":"present","rt":"2846","correct":false,"confidence":-1},{"trial_n":16,"span":6,"encoder":"018989","distractor":"058989","target":"present","response":"present","rt":"1264","correct":true,"confidence":-1},{"trial_n":17,"span":6,"encoder":"134690","distractor":"135690","target":"absent","response":"absent","rt":"1651","correct":true,"confidence":-1},{"trial_n":18,"span":7,"encoder":"7426154","distractor":"7426054","target":"present","response":"present","rt":"2150","correct":true,"confidence":-1},{"trial_n":19,"span":7,"encoder":"8558390","distractor":"9558390","target":"present","response":"absent","rt":"1678","correct":false,"confidence":-1},{"trial_n":20,"span":6,"encoder":"522575","distractor":"562575","target":"present","response":"absent","rt":"1579","correct":false,"confidence":-1},{"trial_n":21,"span":5,"encoder":"72073","distractor":"73073","target":"present","response":"present","rt":"2608","correct":true,"confidence":5},{"trial_n":22,"span":5,"encoder":"87636","distractor":"87606","target":"absent","response":"absent","rt":"6262","correct":true,"confidence":3},{"trial_n":23,"span":6,"encoder":"703582","distractor":"704582","target":"present","response":"present","rt":"3059","correct":true,"confidence":5},{"trial_n":24,"span":6,"encoder":"528482","distractor":"728482","target":"present","response":"absent","rt":"2324","correct":false,"confidence":2},{"trial_n":25,"span":5,"encoder":"96399","distractor":"96396","target":"present","response":"absent","rt":"4488","correct":false,"confidence":2},{"trial_n":26,"span":4,"encoder":"5058","distractor":"5078","target":"absent","response":"absent","rt":"2320","correct":true,"confidence":5},{"trial_n":27,"span":4,"encoder":"7870","distractor":"7170","target":"absent","response":"absent","rt":"1697","correct":true,"confidence":5},{"trial_n":28,"span":5,"encoder":"26102","distractor":"26902","target":"absent","response":"absent","rt":"1719","correct":true,"confidence":5},{"trial_n":29,"span":5,"encoder":"77708","distractor":"77709","target":"absent","response":"absent","rt":"1522","correct":true,"confidence":5},{"trial_n":30,"span":6,"encoder":"941332","distractor":"946332","target":"present","response":"absent","rt":"3974","correct":false,"confidence":3},{"trial_n":31,"span":5,"encoder":"34043","distractor":"34041","target":"absent","response":"absent","rt":"2715","correct":true,"confidence":5},{"trial_n":32,"span":5,"encoder":"74626","distractor":"74616","target":"absent","response":"absent","rt":"2007.0000000001","correct":true,"confidence":5},{"trial_n":33,"span":6,"encoder":"388299","distractor":"288299","target":"absent","response":"absent","rt":"1826","correct":true,"confidence":3},{"trial_n":34,"span":6,"encoder":"977579","distractor":"977539","target":"absent","response":"present","rt":"2223.0000000001","correct":false,"confidence":3},{"trial_n":35,"span":5,"encoder":"12221","distractor":"12229","target":"present","response":"present","rt":"1953.0000000001","correct":true,"confidence":4},{"trial_n":36,"span":5,"encoder":"00611","distractor":"00621","target":"absent","response":"present","rt":"3663","correct":false,"confidence":2},{"trial_n":37,"span":4,"encoder":"1985","distractor":"1935","target":"absent","response":"absent","rt":"2185","correct":true,"confidence":5},{"trial_n":38,"span":4,"encoder":"2872","distractor":"2878","target":"present","response":"present","rt":"1527.9999999999","correct":true,"confidence":5},{"trial_n":39,"span":5,"encoder":"32862","distractor":"32852","target":"present","response":"present","rt":"2077","correct":true,"confidence":2},{"trial_n":40,"span":5,"encoder":"69084","distractor":"69034","target":"absent","response":"absent","rt":"2831","correct":true,"confidence":2},{"trial_n":41,"span":6,"encoder":"679554","distractor":"672554","target":"present","response":"absent","rt":"3179","correct":false,"confidence":1},{"trial_n":42,"span":5,"encoder":"16013","distractor":"11013","target":"present","response":"present","rt":"1978","correct":true,"confidence":4},{"trial_n":43,"span":5,"encoder":"76256","distractor":"76216","target":"absent","response":"absent","rt":"3441","correct":true,"confidence":2},{"trial_n":44,"span":6,"encoder":"266242","distractor":"266248","target":"absent","response":"absent","rt":"3188","correct":true,"confidence":4},{"trial_n":45,"span":6,"encoder":"849087","distractor":"949087","target":"present","response":"present","rt":"3510.9999999999","correct":true,"confidence":3},{"trial_n":46,"span":7,"encoder":"0654543","distractor":"0653543","target":"present","response":"present","rt":"2088","correct":true,"confidence":1},{"trial_n":47,"span":7,"encoder":"1230371","distractor":"1240371","target":"present","response":"absent","rt":"4431.9999999999","correct":false,"confidence":2},{"trial_n":48,"span":6,"encoder":"134143","distractor":"124143","target":"absent","response":"absent","rt":"3319.0000000001","correct":true,"confidence":5},{"trial_n":49,"span":6,"encoder":"354930","distractor":"354530","target":"absent","response":"absent","rt":"2483.9999999999","correct":true,"confidence":1},{"trial_n":50,"span":7,"encoder":"1815015","distractor":"1815019","target":"absent","response":"absent","rt":"3576","correct":true,"confidence":5},{"trial_n":51,"span":7,"encoder":"1023366","distractor":"1033366","target":"present","response":"present","rt":"3152.9999999999","correct":true,"confidence":4},{"trial_n":52,"span":8,"encoder":"53334080","distractor":"51334080","target":"present","response":"present","rt":"2900","correct":true,"confidence":3},{"trial_n":53,"span":8,"encoder":"78663013","distractor":"78663010","target":"present","response":"present","rt":"2628","correct":true,"confidence":5},{"trial_n":54,"span":9,"encoder":"662633192","distractor":"672633192","target":"absent","response":"absent","rt":"3325","correct":true,"confidence":4},{"trial_n":55,"span":9,"encoder":"516592832","distractor":"516542832","target":"present","response":"present","rt":"3635","correct":true,"confidence":2},{"trial_n":56,"span":10,"encoder":"3251138566","distractor":"3252138566","target":"absent","response":"present","rt":"3431","correct":false,"confidence":2},{"trial_n":57,"span":9,"encoder":"636068233","distractor":"036068233","target":"absent","response":"absent","rt":"2232.9999999999","correct":true,"confidence":3},{"trial_n":58,"span":9,"encoder":"724468165","distractor":"784468165","target":"present","response":"present","rt":"2664.0000000001","correct":true,"confidence":3},{"trial_n":59,"span":10,"encoder":"8403747897","distractor":"0403747897","target":"absent","response":"absent","rt":"3089","correct":true,"confidence":1},{"trial_n":60,"span":10,"encoder":"8594026678","distractor":"8594021678","target":"absent","response":"absent","rt":"4316","correct":true,"confidence":1},{"trial_n":61,"span":11,"encoder":"71038304710","distractor":"71039304710","target":"absent","response":"present","rt":"5501","correct":false,"confidence":1},{"trial_n":62,"span":10,"encoder":"4565931520","distractor":"4565931620","target":"present","response":"present","rt":"3078","correct":true,"confidence":2},{"trial_n":63,"span":10,"encoder":"0168076348","distractor":"8168076348","target":"present","response":"present","rt":"3699","correct":true,"confidence":2},{"trial_n":64,"span":11,"encoder":"49317167733","distractor":"49317167735","target":"absent","response":"absent","rt":"3017","correct":true,"confidence":4},{"trial_n":65,"span":11,"encoder":"12869028387","distractor":"12869068387","target":"present","response":"present","rt":"4574","correct":true,"confidence":2},{"trial_n":66,"span":12,"encoder":"874212792394","distractor":"474212792394","target":"present","response":"absent","rt":"4068","correct":false,"confidence":1},{"trial_n":67,"span":11,"encoder":"94244801679","distractor":"44244801679","target":"absent","response":"absent","rt":"3472","correct":true,"confidence":3},{"trial_n":68,"span":11,"encoder":"95470877987","distractor":"95470577987","target":"absent","response":"present","rt":"4132","correct":false,"confidence":1},{"trial_n":69,"span":10,"encoder":"9454688687","distractor":"9450688687","target":"present","response":"absent","rt":"2245","correct":false,"confidence":1},{"trial_n":70,"span":9,"encoder":"389688452","distractor":"389698452","target":"present","response":"present","rt":"2586","correct":true,"confidence":2},{"trial_n":71,"span":8,"encoder":"03381187","distractor":"03389187","target":"present","response":"present","rt":"6766.9999999999","correct":true,"confidence":-1},{"trial_n":72,"span":8,"encoder":"87528005","distractor":"86528005","target":"present","response":"present","rt":"2824","correct":true,"confidence":-1},{"trial_n":73,"span":9,"encoder":"942249273","distractor":"942249283","target":"absent","response":"absent","rt":"1978.0000000001","correct":true,"confidence":-1},{"trial_n":74,"span":9,"encoder":"193233551","distractor":"183233551","target":"absent","response":"absent","rt":"4974","correct":true,"confidence":-1},{"trial_n":75,"span":10,"encoder":"5317714368","distractor":"5319714368","target":"present","response":"present","rt":"1445","correct":true,"confidence":-1},{"trial_n":76,"span":10,"encoder":"0751416396","distractor":"0751486396","target":"absent","response":"absent","rt":"12387","correct":true,"confidence":-1},{"trial_n":77,"span":11,"encoder":"34701395819","distractor":"34701394819","target":"present","response":"present","rt":"1905","correct":true,"confidence":-1},{"trial_n":78,"span":11,"encoder":"66937871474","distractor":"66939871474","target":"present","response":"present","rt":"4916","correct":true,"confidence":-1},{"trial_n":79,"span":12,"encoder":"207050768879","distractor":"207050268879","target":"absent","response":"present","rt":"3472","correct":false,"confidence":-1},{"trial_n":80,"span":11,"encoder":"46352422526","distractor":"16352422526","target":"absent","response":"absent","rt":"552","correct":true,"confidence":-1},{"trial_n":81,"span":11,"encoder":"01597012720","distractor":"01597012220","target":"present","response":"present","rt":"2079","correct":true,"confidence":-1},{"trial_n":82,"span":12,"encoder":"937392389596","distractor":"937392381596","target":"absent","response":"absent","rt":"9937","correct":true,"confidence":-1},{"trial_n":83,"span":12,"encoder":"585070212852","distractor":"385070212852","target":"absent","response":"absent","rt":"663","correct":true,"confidence":-1},{"trial_n":84,"span":13,"encoder":"4431953377765","distractor":"4430953377765","target":"absent","response":"present","rt":"473","correct":false,"confidence":-1},{"trial_n":85,"span":12,"encoder":"727680604801","distractor":"725680604801","target":"present","response":"absent","rt":"374","correct":false,"confidence":-1},{"trial_n":86,"span":11,"encoder":"64181769861","distractor":"68181769861","target":"present","response":"absent","rt":"422","correct":false,"confidence":-1},{"trial_n":87,"span":10,"encoder":"8045766079","distractor":"8041766079","target":"absent","response":"present","rt":"602","correct":false,"confidence":-1},{"trial_n":88,"span":9,"encoder":"865327367","distractor":"865327357","target":"present","response":"absent","rt":"358","correct":false,"confidence":-1},{"trial_n":89,"span":8,"encoder":"14316223","distractor":"14016223","target":"present","response":"absent","rt":"495","correct":false,"confidence":-1},{"trial_n":90,"span":7,"encoder":"1228751","distractor":"4228751","target":"absent","response":"absent","rt":"1690.9999999999","correct":true,"confidence":-1},{"trial_n":91,"span":7,"encoder":"5687949","distractor":"5647949","target":"absent","response":"absent","rt":"5629.0000000001","correct":true,"confidence":4},{"trial_n":92,"span":8,"encoder":"04586135","distractor":"04596135","target":"present","response":"absent","rt":"6309","correct":false,"confidence":3},{"trial_n":93,"span":7,"encoder":"4588507","distractor":"4582507","target":"present","response":"present","rt":"6768","correct":true,"confidence":5},{"trial_n":94,"span":7,"encoder":"1913694","distractor":"6913694","target":"absent","response":"absent","rt":"3207","correct":true,"confidence":5},{"trial_n":95,"span":8,"encoder":"66178103","distractor":"66178403","target":"absent","response":"absent","rt":"6301","correct":true,"confidence":4},{"trial_n":96,"span":8,"encoder":"93980133","distractor":"93980933","target":"present","response":"present","rt":"4746","correct":true,"confidence":4},{"trial_n":97,"span":9,"encoder":"635271061","distractor":"435271061","target":"absent","response":"absent","rt":"4020.9999999999","correct":true,"confidence":5},{"trial_n":98,"span":9,"encoder":"722083074","distractor":"722583074","target":"absent","response":"absent","rt":"7493","correct":true,"confidence":5},{"trial_n":99,"span":10,"encoder":"9333738094","distractor":"9333738044","target":"present","response":"present","rt":"2729","correct":true,"confidence":5},{"trial_n":100,"span":10,"encoder":"1928310498","distractor":"1928310490","target":"present","response":"present","rt":"9351","correct":true,"confidence":5},{"trial_n":101,"span":11,"encoder":"96617401873","distractor":"96617409873","target":"absent","response":"absent","rt":"12297","correct":true,"confidence":4},{"trial_n":102,"span":11,"encoder":"65754578078","distractor":"64754578078","target":"absent","response":"absent","rt":"10579","correct":true,"confidence":3},{"trial_n":103,"span":12,"encoder":"295730146027","distractor":"295730116027","target":"present","response":"present","rt":"5830","correct":true,"confidence":5},{"trial_n":104,"span":12,"encoder":"698453041172","distractor":"698433041172","target":"absent","response":"present","rt":"7962.9999999998","correct":false,"confidence":2},{"trial_n":105,"span":11,"encoder":"48431003764","distractor":"48431033764","target":"absent","response":"absent","rt":"9585","correct":true,"confidence":3},{"trial_n":106,"span":11,"encoder":"74035392943","distractor":"84035392943","target":"absent","response":"absent","rt":"15202","correct":true,"confidence":2},{"trial_n":107,"span":12,"encoder":"779070595182","distractor":"779070505182","target":"present","response":"present","rt":"7568","correct":true,"confidence":2},{"trial_n":108,"span":12,"encoder":"481830119165","distractor":"481830119765","target":"absent","response":"absent","rt":"10990","correct":true,"confidence":1},{"trial_n":109,"span":13,"encoder":"7969210387634","distractor":"7969260387634","target":"present","response":"absent","rt":"10555","correct":false,"confidence":2},{"trial_n":110,"span":12,"encoder":"504854116231","distractor":"504854116131","target":"absent","response":"absent","rt":"12135","correct":true,"confidence":4},{"trial_n":111,"span":12,"encoder":"404264995654","distractor":"404265995654","target":"absent","response":"present","rt":"8528.0000000002","correct":false,"confidence":1},{"trial_n":112,"span":11,"encoder":"85086713589","distractor":"85086913589","target":"present","response":"absent","rt":"11698","correct":false,"confidence":1},{"trial_n":113,"span":10,"encoder":"7057415525","distractor":"7057815525","target":"absent","response":"absent","rt":"7620","correct":true,"confidence":4},{"trial_n":114,"span":10,"encoder":"8721233737","distractor":"1721233737","target":"absent","response":"absent","rt":"4668","correct":true,"confidence":1},{"trial_n":115,"span":11,"encoder":"22206942880","distractor":"22236942880","target":"absent","response":"present","rt":"3813","correct":false,"confidence":1},{"trial_n":116,"span":10,"encoder":"9673384086","distractor":"9643384086","target":"present","response":"present","rt":"4144","correct":true,"confidence":4},{"trial_n":117,"span":10,"encoder":"2693749159","distractor":"2653749159","target":"absent","response":"absent","rt":"3574","correct":true,"confidence":4},{"trial_n":118,"span":11,"encoder":"20375040495","distractor":"26375040495","target":"absent","response":"absent","rt":"5563","correct":true,"confidence":3},{"trial_n":119,"span":11,"encoder":"26717177099","distractor":"21717177099","target":"absent","response":"absent","rt":"3288","correct":true,"confidence":3},{"trial_n":120,"span":12,"encoder":"200877085465","distractor":"200870085465","target":"absent","response":"present","rt":"3587","correct":false,"confidence":2},{"trial_n":121,"span":11,"encoder":"23386464034","distractor":"23386465034","target":"present","response":"absent","rt":"7463.9999999998","correct":false,"confidence":1},{"trial_n":122,"span":10,"encoder":"0746674857","distractor":"0446674857","target":"present","response":"present","rt":"2626","correct":true,"confidence":3},{"trial_n":123,"span":10,"encoder":"5894194266","distractor":"5895194266","target":"present","response":"present","rt":"6048.9999999998","correct":true,"confidence":2},{"trial_n":124,"span":11,"encoder":"25501362222","distractor":"25501062222","target":"present","response":"present","rt":"6733.9999999998","correct":true,"confidence":4},{"trial_n":125,"span":11,"encoder":"98136883211","distractor":"98136183211","target":"present","response":"present","rt":"2819","correct":true,"confidence":5},{"trial_n":126,"span":12,"encoder":"849449473262","distractor":"849447473262","target":"present","response":"absent","rt":"15775","correct":false,"confidence":2},{"trial_n":127,"span":11,"encoder":"54029163804","distractor":"54019163804","target":"present","response":"present","rt":"9826","correct":true,"confidence":1},{"trial_n":128,"span":11,"encoder":"53759088752","distractor":"53759083752","target":"absent","response":"absent","rt":"2441","correct":true,"confidence":5},{"trial_n":129,"span":12,"encoder":"445331742341","distractor":"444331742341","target":"present","response":"absent","rt":"2591","correct":false,"confidence":1},{"trial_n":130,"span":11,"encoder":"07563098654","distractor":"07863098654","target":"present","response":"present","rt":"7264.9999999998","correct":true,"confidence":1},{"trial_n":131,"span":11,"encoder":"83602523081","distractor":"33602523081","target":"present","response":"present","rt":"3487.0000000002","correct":true,"confidence":3},{"trial_n":132,"span":12,"encoder":"960381040822","distractor":"960981040822","target":"absent","response":"absent","rt":"4843","correct":true,"confidence":1},{"trial_n":133,"span":12,"encoder":"377682112034","distractor":"377682112134","target":"absent","response":"present","rt":"4370","correct":false,"confidence":1},{"trial_n":134,"span":11,"encoder":"57272151207","distractor":"47272151207","target":"present","response":"present","rt":"2947.0000000002","correct":true,"confidence":3},{"trial_n":135,"span":11,"encoder":"98679873849","distractor":"98674873849","target":"present","response":"present","rt":"3697","correct":true,"confidence":1},{"trial_n":136,"span":12,"encoder":"609250399942","distractor":"689250399942","target":"absent","response":"absent","rt":"7345","correct":true,"confidence":1},{"trial_n":137,"span":12,"encoder":"126166475218","distractor":"126186475218","target":"present","response":"absent","rt":"39907","correct":false,"confidence":1},{"trial_n":138,"span":11,"encoder":"29973160514","distractor":"29973160544","target":"present","response":"absent","rt":"3707","correct":false,"confidence":1},{"trial_n":139,"span":10,"encoder":"6765473926","distractor":"6765473966","target":"present","response":"present","rt":"3064","correct":true,"confidence":1},{"trial_n":140,"span":10,"encoder":"5305785909","distractor":"6305785909","target":"present","response":"present","rt":"5094","correct":true,"confidence":1}]