[{"trial_n":1,"min":25,"max":230,"target":"present","response":"absent","rt":3144.4000000004,"correct":false,"confidence":-1},{"trial_n":2,"min":25,"max":230,"target":"present","response":"present","rt":1133.5,"correct":true,"confidence":-1},{"trial_n":3,"min":25,"max":230,"target":"absent","response":"absent","rt":1379.2999999998,"correct":true,"confidence":-1},{"trial_n":4,"min":41,"max":214,"target":"absent","response":"absent","rt":605.59999999963,"correct":true,"confidence":-1},{"trial_n":5,"min":41,"max":214,"target":"present","response":"present","rt":707.70000000019,"correct":true,"confidence":-1},{"trial_n":6,"min":57,"max":198,"target":"absent","response":"absent","rt":659.90000000037,"correct":true,"confidence":-1},{"trial_n":7,"min":57,"max":198,"target":"absent","response":"absent","rt":752,"correct":true,"confidence":-1},{"trial_n":8,"min":73,"max":182,"target":"present","response":"present","rt":698.79999999981,"correct":true,"confidence":-1},{"trial_n":9,"min":73,"max":182,"target":"absent","response":"absent","rt":469.60000000056,"correct":true,"confidence":-1},{"trial_n":10,"min":89,"max":166,"target":"absent","response":"absent","rt":629.89999999944,"correct":true,"confidence":-1},{"trial_n":11,"min":89,"max":166,"target":"present","response":"absent","rt":489,"correct":false,"confidence":-1},{"trial_n":12,"min":81,"max":174,"target":"present","response":"absent","rt":503.70000000019,"correct":false,"confidence":-1},{"trial_n":13,"min":73,"max":182,"target":"absent","response":"absent","rt":458.79999999981,"correct":true,"confidence":-1},{"trial_n":14,"min":73,"max":182,"target":"absent","response":"absent","rt":428.59999999963,"correct":true,"confidence":-1},{"trial_n":15,"min":81,"max":174,"target":"absent","response":"absent","rt":394.60000000056,"correct":true,"confidence":-1},{"trial_n":16,"min":81,"max":174,"target":"present","response":"absent","rt":514.20000000019,"correct":false,"confidence":-1},{"trial_n":17,"min":73,"max":182,"target":"absent","response":"absent","rt":436.09999999963,"correct":true,"confidence":-1},{"trial_n":18,"min":73,"max":182,"target":"present","response":"present","rt":993.70000000019,"correct":true,"confidence":-1},{"trial_n":19,"min":81,"max":174,"target":"absent","response":"absent","rt":1021.8999999994,"correct":true,"confidence":-1},{"trial_n":20,"min":81,"max":174,"target":"absent","response":"absent","rt":803.79999999981,"correct":true,"confidence":-1},{"trial_n":21,"min":85,"max":170,"target":"present","response":"absent","rt":755.59999999963,"correct":false,"confidence":3},{"trial_n":22,"min":81,"max":174,"target":"absent","response":"absent","rt":700.29999999981,"correct":true,"confidence":3},{"trial_n":23,"min":81,"max":174,"target":"present","response":"present","rt":1927.7000000002,"correct":true,"confidence":2},{"trial_n":24,"min":85,"max":170,"target":"present","response":"present","rt":885.60000000056,"correct":true,"confidence":4},{"trial_n":25,"min":85,"max":170,"target":"absent","response":"absent","rt":1359.2999999998,"correct":true,"confidence":3},{"trial_n":26,"min":89,"max":166,"target":"present","response":"absent","rt":744.70000000019,"correct":false,"confidence":3},{"trial_n":27,"min":85,"max":170,"target":"absent","response":"absent","rt":880.60000000056,"correct":true,"confidence":3},{"trial_n":28,"min":85,"max":170,"target":"present","response":"absent","rt":782.20000000019,"correct":false,"confidence":3},{"trial_n":29,"min":81,"max":174,"target":"present","response":"present","rt":1274.2000000002,"correct":true,"confidence":2},{"trial_n":30,"min":81,"max":174,"target":"present","response":"present","rt":1148,"correct":true,"confidence":3},{"trial_n":31,"min":83,"max":172,"target":"absent","response":"absent","rt":2823.5,"correct":true,"confidence":3},{"trial_n":32,"min":83,"max":172,"target":"absent","response":"present","rt":1129.5,"correct":false,"confidence":3},{"trial_n":33,"min":81,"max":174,"target":"absent","response":"present","rt":766.29999999981,"correct":false,"confidence":3},{"trial_n":34,"min":79,"max":176,"target":"present","response":"present","rt":794.79999999981,"correct":true,"confidence":4},{"trial_n":35,"min":79,"max":176,"target":"present","response":"present","rt":1881.4000000004,"correct":true,"confidence":3},{"trial_n":36,"min":81,"max":174,"target":"absent","response":"absent","rt":2559.7000000002,"correct":true,"confidence":3},{"trial_n":37,"min":81,"max":174,"target":"absent","response":"absent","rt":2430.5,"correct":true,"confidence":3},{"trial_n":38,"min":83,"max":172,"target":"present","response":"absent","rt":1819.7000000002,"correct":false,"confidence":3},{"trial_n":39,"min":81,"max":174,"target":"present","response":"absent","rt":767.70000000019,"correct":false,"confidence":3},{"trial_n":40,"min":79,"max":176,"target":"absent","response":"absent","rt":727.80000000075,"correct":true,"confidence":3},{"trial_n":41,"min":79,"max":176,"target":"absent","response":"absent","rt":912.5,"correct":true,"confidence":3},{"trial_n":42,"min":80,"max":175,"target":"present","response":"present","rt":843.79999999981,"correct":true,"confidence":4},{"trial_n":43,"min":80,"max":175,"target":"present","response":"absent","rt":1117.3999999994,"correct":false,"confidence":3},{"trial_n":44,"min":79,"max":176,"target":"present","response":"present","rt":835.70000000019,"correct":true,"confidence":4},{"trial_n":45,"min":79,"max":176,"target":"absent","response":"present","rt":922.39999999944,"correct":false,"confidence":4},{"trial_n":46,"min":78,"max":177,"target":"present","response":"present","rt":904.90000000037,"correct":true,"confidence":3},{"trial_n":47,"min":78,"max":177,"target":"absent","response":"absent","rt":2218.6000000006,"correct":true,"confidence":2},{"trial_n":48,"min":79,"max":176,"target":"absent","response":"present","rt":1269.7999999998,"correct":false,"confidence":3},{"trial_n":49,"min":78,"max":177,"target":"present","response":"present","rt":2048.5,"correct":true,"confidence":3},{"trial_n":50,"min":78,"max":177,"target":"absent","response":"present","rt":833.70000000019,"correct":false,"confidence":3},{"trial_n":51,"min":77,"max":178,"target":"present","response":"present","rt":853.40000000037,"correct":true,"confidence":3},{"trial_n":52,"min":77,"max":178,"target":"present","response":"present","rt":869.59999999963,"correct":true,"confidence":3},{"trial_n":53,"min":78,"max":177,"target":"present","response":"present","rt":1011.5999999996,"correct":true,"confidence":4},{"trial_n":54,"min":78,"max":177,"target":"absent","response":"absent","rt":1718.6999999993,"correct":true,"confidence":2},{"trial_n":55,"min":79,"max":176,"target":"absent","response":"present","rt":1003,"correct":false,"confidence":3},{"trial_n":56,"min":78,"max":177,"target":"absent","response":"present","rt":793.60000000056,"correct":false,"confidence":3},{"trial_n":57,"min":77,"max":178,"target":"present","response":"present","rt":800.29999999981,"correct":true,"confidence":3},{"trial_n":58,"min":77,"max":178,"target":"present","response":"present","rt":1207.7000000002,"correct":true,"confidence":3},{"trial_n":59,"min":78,"max":177,"target":"present","response":"present","rt":1621,"correct":true,"confidence":3},{"trial_n":60,"min":78,"max":177,"target":"present","response":"absent","rt":1090,"correct":false,"confidence":4},{"trial_n":61,"min":77,"max":178,"target":"absent","response":"present","rt":1453.2000000002,"correct":false,"confidence":3},{"trial_n":62,"min":76,"max":179,"target":"present","response":"absent","rt":918.59999999963,"correct":false,"confidence":4},{"trial_n":63,"min":75,"max":180,"target":"present","response":"present","rt":704.90000000037,"correct":true,"confidence":4},{"trial_n":64,"min":75,"max":180,"target":"present","response":"absent","rt":985.20000000019,"correct":false,"confidence":4},{"trial_n":65,"min":74,"max":181,"target":"absent","response":"absent","rt":708.79999999981,"correct":true,"confidence":5},{"trial_n":66,"min":74,"max":181,"target":"absent","response":"absent","rt":1139.2999999998,"correct":true,"confidence":4},{"trial_n":67,"min":75,"max":180,"target":"absent","response":"absent","rt":943.79999999981,"correct":true,"confidence":4},{"trial_n":68,"min":75,"max":180,"target":"present","response":"absent","rt":1021,"correct":false,"confidence":4},{"trial_n":69,"min":74,"max":181,"target":"absent","response":"absent","rt":956,"correct":true,"confidence":4},{"trial_n":70,"min":74,"max":181,"target":"present","response":"present","rt":771.79999999981,"correct":true,"confidence":5},{"trial_n":71,"min":41,"max":214,"target":"present","response":"present","rt":3931,"correct":true,"confidence":-1},{"trial_n":72,"min":41,"max":214,"target":"present","response":"present","rt":1106.7000000002,"correct":true,"confidence":-1},{"trial_n":73,"min":57,"max":198,"target":"absent","response":"absent","rt":941.29999999981,"correct":true,"confidence":-1},{"trial_n":74,"min":57,"max":198,"target":"absent","response":"absent","rt":695.70000000019,"correct":true,"confidence":-1},{"trial_n":75,"min":73,"max":182,"target":"present","response":"absent","rt":423.29999999981,"correct":false,"confidence":-1},{"trial_n":76,"min":57,"max":198,"target":"absent","response":"absent","rt":961.20000000019,"correct":true,"confidence":-1},{"trial_n":77,"min":57,"max":198,"target":"absent","response":"absent","rt":1404,"correct":true,"confidence":-1},{"trial_n":78,"min":73,"max":182,"target":"present","response":"present","rt":1512.6000000006,"correct":true,"confidence":-1},{"trial_n":79,"min":73,"max":182,"target":"absent","response":"absent","rt":738.89999999944,"correct":true,"confidence":-1},{"trial_n":80,"min":89,"max":166,"target":"absent","response":"absent","rt":815,"correct":true,"confidence":-1},{"trial_n":81,"min":89,"max":166,"target":"present","response":"present","rt":1185.9000000004,"correct":true,"confidence":-1},{"trial_n":82,"min":97,"max":158,"target":"present","response":"present","rt":1485.4000000004,"correct":true,"confidence":-1},{"trial_n":83,"min":97,"max":158,"target":"absent","response":"present","rt":790.30000000075,"correct":false,"confidence":-1},{"trial_n":84,"min":89,"max":166,"target":"absent","response":"absent","rt":1030,"correct":true,"confidence":-1},{"trial_n":85,"min":89,"max":166,"target":"present","response":"present","rt":792.39999999944,"correct":true,"confidence":-1},{"trial_n":86,"min":97,"max":158,"target":"present","response":"absent","rt":658.90000000037,"correct":false,"confidence":-1},{"trial_n":87,"min":89,"max":166,"target":"present","response":"absent","rt":945,"correct":false,"confidence":-1},{"trial_n":88,"min":81,"max":174,"target":"absent","response":"absent","rt":997.70000000019,"correct":true,"confidence":-1},{"trial_n":89,"min":81,"max":174,"target":"present","response":"absent","rt":1048.8999999994,"correct":false,"confidence":-1},{"trial_n":90,"min":73,"max":182,"target":"present","response":"present","rt":711.5,"correct":true,"confidence":-1},{"trial_n":91,"min":73,"max":182,"target":"present","response":"present","rt":718.90000000037,"correct":true,"confidence":4},{"trial_n":92,"min":77,"max":178,"target":"absent","response":"present","rt":1804.5,"correct":false,"confidence":1},{"trial_n":93,"min":73,"max":182,"target":"present","response":"present","rt":705.10000000056,"correct":true,"confidence":5},{"trial_n":94,"min":73,"max":182,"target":"present","response":"present","rt":1332.7000000002,"correct":true,"confidence":3},{"trial_n":95,"min":77,"max":178,"target":"present","response":"present","rt":790,"correct":true,"confidence":4},{"trial_n":96,"min":77,"max":178,"target":"absent","response":"absent","rt":2456.8000000007,"correct":true,"confidence":2},{"trial_n":97,"min":81,"max":174,"target":"absent","response":"absent","rt":1582.2000000002,"correct":true,"confidence":2},{"trial_n":98,"min":81,"max":174,"target":"present","response":"absent","rt":1651.7000000002,"correct":false,"confidence":2},{"trial_n":99,"min":77,"max":178,"target":"absent","response":"absent","rt":1390.9000000004,"correct":true,"confidence":3},{"trial_n":100,"min":77,"max":178,"target":"absent","response":"absent","rt":2053.7000000002,"correct":true,"confidence":3},{"trial_n":101,"min":79,"max":176,"target":"present","response":"present","rt":708.40000000037,"correct":true,"confidence":4},{"trial_n":102,"min":79,"max":176,"target":"present","response":"present","rt":1252.2000000002,"correct":true,"confidence":5},{"trial_n":103,"min":81,"max":174,"target":"present","response":"present","rt":907.5,"correct":true,"confidence":4},{"trial_n":104,"min":81,"max":174,"target":"absent","response":"absent","rt":1814.9000000004,"correct":true,"confidence":1},{"trial_n":105,"min":83,"max":172,"target":"present","response":"present","rt":671.09999999963,"correct":true,"confidence":4},{"trial_n":106,"min":83,"max":172,"target":"absent","response":"absent","rt":1062.8000000007,"correct":true,"confidence":4},{"trial_n":107,"min":85,"max":170,"target":"absent","response":"present","rt":949.59999999963,"correct":false,"confidence":1},{"trial_n":108,"min":83,"max":172,"target":"present","response":"present","rt":886,"correct":true,"confidence":2},{"trial_n":109,"min":83,"max":172,"target":"present","response":"present","rt":951.60000000056,"correct":true,"confidence":2},{"trial_n":110,"min":85,"max":170,"target":"present","response":"present","rt":759.20000000019,"correct":true,"confidence":1},{"trial_n":111,"min":85,"max":170,"target":"present","response":"present","rt":840.09999999963,"correct":true,"confidence":1},{"trial_n":112,"min":86,"max":169,"target":"present","response":"present","rt":706.79999999981,"correct":true,"confidence":3},{"trial_n":113,"min":86,"max":169,"target":"absent","response":"present","rt":1063.5,"correct":false,"confidence":3},{"trial_n":114,"min":85,"max":170,"target":"absent","response":"absent","rt":1570.9000000004,"correct":true,"confidence":2},{"trial_n":115,"min":85,"max":170,"target":"absent","response":"present","rt":716.89999999944,"correct":false,"confidence":3},{"trial_n":116,"min":84,"max":171,"target":"absent","response":"absent","rt":1096.5,"correct":true,"confidence":3},{"trial_n":117,"min":84,"max":171,"target":"absent","response":"absent","rt":1091.7000000002,"correct":true,"confidence":3},{"trial_n":118,"min":85,"max":170,"target":"absent","response":"present","rt":752.90000000037,"correct":false,"confidence":3},{"trial_n":119,"min":84,"max":171,"target":"absent","response":"absent","rt":922.80000000075,"correct":true,"confidence":4},{"trial_n":120,"min":84,"max":171,"target":"absent","response":"present","rt":1542.5,"correct":false,"confidence":2},{"trial_n":121,"min":83,"max":172,"target":"absent","response":"present","rt":854.60000000056,"correct":false,"confidence":3},{"trial_n":122,"min":82,"max":173,"target":"present","response":"present","rt":1154.1000000006,"correct":true,"confidence":3},{"trial_n":123,"min":82,"max":173,"target":"present","response":"present","rt":674.40000000037,"correct":true,"confidence":3},{"trial_n":124,"min":83,"max":172,"target":"present","response":"present","rt":1292.5,"correct":true,"confidence":2},{"trial_n":125,"min":83,"max":172,"target":"present","response":"present","rt":615,"correct":true,"confidence":5},{"trial_n":126,"min":84,"max":171,"target":"absent","response":"present","rt":946.19999999925,"correct":false,"confidence":1},{"trial_n":127,"min":83,"max":172,"target":"present","response":"present","rt":1184.5999999996,"correct":true,"confidence":1},{"trial_n":128,"min":83,"max":172,"target":"present","response":"present","rt":639.10000000056,"correct":true,"confidence":2},{"trial_n":129,"min":84,"max":171,"target":"absent","response":"absent","rt":1298.8999999994,"correct":true,"confidence":3},{"trial_n":130,"min":84,"max":171,"target":"absent","response":"present","rt":939.19999999925,"correct":false,"confidence":3},{"trial_n":131,"min":83,"max":172,"target":"present","response":"absent","rt":984,"correct":false,"confidence":2},{"trial_n":132,"min":82,"max":173,"target":"absent","response":"present","rt":1328.5,"correct":false,"confidence":2},{"trial_n":133,"min":81,"max":174,"target":"present","response":"present","rt":1020,"correct":true,"confidence":2},{"trial_n":134,"min":81,"max":174,"target":"present","response":"present","rt":840.10000000056,"correct":true,"confidence":3},{"trial_n":135,"min":82,"max":173,"target":"present","response":"absent","rt":1974,"correct":false,"confidence":1},{"trial_n":136,"min":81,"max":174,"target":"absent","response":"absent","rt":2348.2999999998,"correct":true,"confidence":1},{"trial_n":137,"min":81,"max":174,"target":"absent","response":"absent","rt":757.5,"correct":true,"confidence":3},{"trial_n":138,"min":82,"max":173,"target":"present","response":"present","rt":638,"correct":true,"confidence":3},{"trial_n":139,"min":82,"max":173,"target":"absent","response":"absent","rt":1618.3999999994,"correct":true,"confidence":3},{"trial_n":140,"min":83,"max":172,"target":"absent","response":"present","rt":1163.5999999996,"correct":false,"confidence":2}]