[{"trial_n":1,"min":25,"max":230,"target":"present","response":"present","rt":5828,"correct":true,"confidence":-1},{"trial_n":2,"min":25,"max":230,"target":"present","response":"present","rt":1317.6000000238,"correct":true,"confidence":-1},{"trial_n":3,"min":41,"max":214,"target":"absent","response":"absent","rt":1144.2000000477,"correct":true,"confidence":-1},{"trial_n":4,"min":41,"max":214,"target":"absent","response":"absent","rt":770.60000002384,"correct":true,"confidence":-1},{"trial_n":5,"min":57,"max":198,"target":"present","response":"present","rt":1076.5999999046,"correct":true,"confidence":-1},{"trial_n":6,"min":57,"max":198,"target":"absent","response":"absent","rt":674.70000004768,"correct":true,"confidence":-1},{"trial_n":7,"min":73,"max":182,"target":"absent","response":"absent","rt":737.70000004768,"correct":true,"confidence":-1},{"trial_n":8,"min":73,"max":182,"target":"present","response":"present","rt":1062.9000000954,"correct":true,"confidence":-1},{"trial_n":9,"min":89,"max":166,"target":"present","response":"absent","rt":1664.3000000715,"correct":false,"confidence":-1},{"trial_n":10,"min":73,"max":182,"target":"absent","response":"absent","rt":1482.3999999762,"correct":true,"confidence":-1},{"trial_n":11,"min":73,"max":182,"target":"absent","response":"absent","rt":1075.3999999762,"correct":true,"confidence":-1},{"trial_n":12,"min":81,"max":174,"target":"absent","response":"absent","rt":576,"correct":true,"confidence":-1},{"trial_n":13,"min":81,"max":174,"target":"present","response":"present","rt":1813.6000000238,"correct":true,"confidence":-1},{"trial_n":14,"min":89,"max":166,"target":"absent","response":"absent","rt":769.29999995232,"correct":true,"confidence":-1},{"trial_n":15,"min":89,"max":166,"target":"absent","response":"absent","rt":675.60000002384,"correct":true,"confidence":-1},{"trial_n":16,"min":97,"max":158,"target":"absent","response":"absent","rt":591.39999997616,"correct":true,"confidence":-1},{"trial_n":17,"min":97,"max":158,"target":"absent","response":"absent","rt":709.30000007153,"correct":true,"confidence":-1},{"trial_n":18,"min":105,"max":150,"target":"absent","response":"absent","rt":556.90000009537,"correct":true,"confidence":-1},{"trial_n":19,"min":105,"max":150,"target":"absent","response":"absent","rt":492.40000009537,"correct":true,"confidence":-1},{"trial_n":20,"min":113,"max":142,"target":"absent","response":"absent","rt":715.19999992847,"correct":true,"confidence":-1},{"trial_n":21,"min":113,"max":142,"target":"present","response":"present","rt":3463.4000000954,"correct":true,"confidence":2},{"trial_n":22,"min":117,"max":138,"target":"present","response":"present","rt":3612.7000000477,"correct":true,"confidence":2},{"trial_n":23,"min":117,"max":138,"target":"present","response":"absent","rt":1137.5999999046,"correct":false,"confidence":4},{"trial_n":24,"min":113,"max":142,"target":"present","response":"absent","rt":1612,"correct":false,"confidence":4},{"trial_n":25,"min":109,"max":146,"target":"present","response":"absent","rt":2483.9000000954,"correct":false,"confidence":4},{"trial_n":26,"min":105,"max":150,"target":"present","response":"absent","rt":1893,"correct":false,"confidence":4},{"trial_n":27,"min":101,"max":154,"target":"absent","response":"absent","rt":5018.7000000477,"correct":true,"confidence":4},{"trial_n":28,"min":101,"max":154,"target":"present","response":"absent","rt":1713.8999999762,"correct":false,"confidence":4},{"trial_n":29,"min":97,"max":158,"target":"absent","response":"absent","rt":2219.1000000238,"correct":true,"confidence":3},{"trial_n":30,"min":97,"max":158,"target":"absent","response":"absent","rt":1856.1000000238,"correct":true,"confidence":3},{"trial_n":31,"min":99,"max":156,"target":"present","response":"present","rt":2770.6999999285,"correct":true,"confidence":3},{"trial_n":32,"min":99,"max":156,"target":"absent","response":"absent","rt":1975.4000000954,"correct":true,"confidence":3},{"trial_n":33,"min":101,"max":154,"target":"absent","response":"absent","rt":2403.3999999762,"correct":true,"confidence":2},{"trial_n":34,"min":101,"max":154,"target":"absent","response":"absent","rt":1889,"correct":true,"confidence":3},{"trial_n":35,"min":103,"max":152,"target":"present","response":"present","rt":2035.8999999762,"correct":true,"confidence":3},{"trial_n":36,"min":103,"max":152,"target":"present","response":"absent","rt":946.39999997616,"correct":false,"confidence":3},{"trial_n":37,"min":101,"max":154,"target":"absent","response":"present","rt":1483.7000000477,"correct":false,"confidence":3},{"trial_n":38,"min":99,"max":156,"target":"absent","response":"absent","rt":1382.8000000715,"correct":true,"confidence":2},{"trial_n":39,"min":99,"max":156,"target":"absent","response":"absent","rt":1130.1999999285,"correct":true,"confidence":2},{"trial_n":40,"min":101,"max":154,"target":"absent","response":"absent","rt":789.5,"correct":true,"confidence":2},{"trial_n":41,"min":101,"max":154,"target":"present","response":"present","rt":2441.5,"correct":true,"confidence":1},{"trial_n":42,"min":102,"max":153,"target":"absent","response":"absent","rt":2064.7999999523,"correct":true,"confidence":2},{"trial_n":43,"min":102,"max":153,"target":"present","response":"absent","rt":1210,"correct":false,"confidence":2},{"trial_n":44,"min":101,"max":154,"target":"present","response":"absent","rt":1402.8000000715,"correct":false,"confidence":1},{"trial_n":45,"min":100,"max":155,"target":"absent","response":"absent","rt":1381.9000000954,"correct":true,"confidence":2},{"trial_n":46,"min":100,"max":155,"target":"present","response":"absent","rt":1277,"correct":false,"confidence":2},{"trial_n":47,"min":99,"max":156,"target":"present","response":"absent","rt":881.29999995232,"correct":false,"confidence":1},{"trial_n":48,"min":98,"max":157,"target":"absent","response":"absent","rt":1211.7000000477,"correct":true,"confidence":2},{"trial_n":49,"min":98,"max":157,"target":"present","response":"absent","rt":1731.6999999285,"correct":false,"confidence":1},{"trial_n":50,"min":97,"max":158,"target":"present","response":"present","rt":1552.3000000715,"correct":true,"confidence":3},{"trial_n":51,"min":97,"max":158,"target":"present","response":"present","rt":1751.5,"correct":true,"confidence":2},{"trial_n":52,"min":98,"max":157,"target":"present","response":"present","rt":1876.5,"correct":true,"confidence":1},{"trial_n":53,"min":98,"max":157,"target":"present","response":"present","rt":5786.3000000715,"correct":true,"confidence":1},{"trial_n":54,"min":99,"max":156,"target":"absent","response":"present","rt":1893,"correct":false,"confidence":2},{"trial_n":55,"min":98,"max":157,"target":"present","response":"present","rt":1959.8999999762,"correct":true,"confidence":2},{"trial_n":56,"min":98,"max":157,"target":"absent","response":"absent","rt":2435.3999999762,"correct":true,"confidence":2},{"trial_n":57,"min":99,"max":156,"target":"present","response":"present","rt":1868.1999999285,"correct":true,"confidence":3},{"trial_n":58,"min":99,"max":156,"target":"present","response":"present","rt":2753,"correct":true,"confidence":4},{"trial_n":59,"min":100,"max":155,"target":"absent","response":"absent","rt":1293.3999999762,"correct":true,"confidence":2},{"trial_n":60,"min":100,"max":155,"target":"present","response":"present","rt":1490.3000000715,"correct":true,"confidence":3},{"trial_n":61,"min":101,"max":154,"target":"present","response":"absent","rt":1261.5,"correct":false,"confidence":1},{"trial_n":62,"min":100,"max":155,"target":"present","response":"absent","rt":1100,"correct":false,"confidence":2},{"trial_n":63,"min":99,"max":156,"target":"absent","response":"absent","rt":831.60000002384,"correct":true,"confidence":2},{"trial_n":64,"min":99,"max":156,"target":"absent","response":"absent","rt":1375.9000000954,"correct":true,"confidence":3},{"trial_n":65,"min":100,"max":155,"target":"absent","response":"present","rt":2122.3999999762,"correct":false,"confidence":4},{"trial_n":66,"min":99,"max":156,"target":"present","response":"absent","rt":1221.2000000477,"correct":false,"confidence":2},{"trial_n":67,"min":98,"max":157,"target":"absent","response":"absent","rt":1122.5,"correct":true,"confidence":4},{"trial_n":68,"min":98,"max":157,"target":"present","response":"absent","rt":1157.1000000238,"correct":false,"confidence":4},{"trial_n":69,"min":97,"max":158,"target":"present","response":"absent","rt":2408.8999999762,"correct":false,"confidence":3},{"trial_n":70,"min":96,"max":159,"target":"present","response":"absent","rt":1186.2000000477,"correct":false,"confidence":1},{"trial_n":71,"min":41,"max":214,"target":"present","response":"present","rt":3572.3999999762,"correct":true,"confidence":-1},{"trial_n":72,"min":41,"max":214,"target":"present","response":"present","rt":89.800000071526,"correct":true,"confidence":-1},{"trial_n":73,"min":57,"max":198,"target":"absent","response":"absent","rt":412.29999995232,"correct":true,"confidence":-1},{"trial_n":74,"min":57,"max":198,"target":"absent","response":"absent","rt":365.89999997616,"correct":true,"confidence":-1},{"trial_n":75,"min":73,"max":182,"target":"present","response":"present","rt":348.30000007153,"correct":true,"confidence":-1},{"trial_n":76,"min":73,"max":182,"target":"absent","response":"present","rt":746.89999997616,"correct":false,"confidence":-1},{"trial_n":77,"min":57,"max":198,"target":"present","response":"present","rt":346.59999990463,"correct":true,"confidence":-1},{"trial_n":78,"min":57,"max":198,"target":"present","response":"absent","rt":440,"correct":false,"confidence":-1},{"trial_n":79,"min":41,"max":214,"target":"present","response":"present","rt":411.09999990463,"correct":true,"confidence":-1},{"trial_n":80,"min":41,"max":214,"target":"present","response":"present","rt":283.39999997616,"correct":true,"confidence":-1},{"trial_n":81,"min":49,"max":206,"target":"absent","response":"absent","rt":384.5,"correct":true,"confidence":-1},{"trial_n":82,"min":49,"max":206,"target":"absent","response":"absent","rt":418.29999995232,"correct":true,"confidence":-1},{"trial_n":83,"min":57,"max":198,"target":"absent","response":"absent","rt":422.39999997616,"correct":true,"confidence":-1},{"trial_n":84,"min":57,"max":198,"target":"absent","response":"absent","rt":379.5,"correct":true,"confidence":-1},{"trial_n":85,"min":65,"max":190,"target":"absent","response":"absent","rt":466.79999995232,"correct":true,"confidence":-1},{"trial_n":86,"min":65,"max":190,"target":"present","response":"present","rt":383.40000009537,"correct":true,"confidence":-1},{"trial_n":87,"min":73,"max":182,"target":"absent","response":"present","rt":672.39999997616,"correct":false,"confidence":-1},{"trial_n":88,"min":65,"max":190,"target":"absent","response":"absent","rt":560.70000004768,"correct":true,"confidence":-1},{"trial_n":89,"min":65,"max":190,"target":"present","response":"present","rt":472,"correct":true,"confidence":-1},{"trial_n":90,"min":73,"max":182,"target":"absent","response":"absent","rt":493.80000007153,"correct":true,"confidence":-1},{"trial_n":91,"min":73,"max":182,"target":"present","response":"present","rt":638.29999995232,"correct":true,"confidence":3},{"trial_n":92,"min":77,"max":178,"target":"absent","response":"absent","rt":328.69999992847,"correct":true,"confidence":4},{"trial_n":93,"min":77,"max":178,"target":"present","response":"present","rt":560,"correct":true,"confidence":4},{"trial_n":94,"min":81,"max":174,"target":"absent","response":"present","rt":963.89999997616,"correct":false,"confidence":2},{"trial_n":95,"min":77,"max":178,"target":"absent","response":"absent","rt":412.19999992847,"correct":true,"confidence":4},{"trial_n":96,"min":77,"max":178,"target":"present","response":"present","rt":567.69999992847,"correct":true,"confidence":4},{"trial_n":97,"min":81,"max":174,"target":"absent","response":"absent","rt":1182.2999999523,"correct":true,"confidence":4},{"trial_n":98,"min":81,"max":174,"target":"absent","response":"present","rt":3564.5,"correct":false,"confidence":1},{"trial_n":99,"min":77,"max":178,"target":"absent","response":"absent","rt":803.19999992847,"correct":true,"confidence":2},{"trial_n":100,"min":77,"max":178,"target":"present","response":"present","rt":933.70000004768,"correct":true,"confidence":1},{"trial_n":101,"min":79,"max":176,"target":"absent","response":"absent","rt":133.09999990463,"correct":true,"confidence":3},{"trial_n":102,"min":79,"max":176,"target":"present","response":"absent","rt":387.29999995232,"correct":false,"confidence":2},{"trial_n":103,"min":77,"max":178,"target":"absent","response":"absent","rt":620.60000002384,"correct":true,"confidence":4},{"trial_n":104,"min":77,"max":178,"target":"present","response":"absent","rt":588.39999997616,"correct":false,"confidence":2},{"trial_n":105,"min":75,"max":180,"target":"present","response":"present","rt":233.39999997616,"correct":true,"confidence":5},{"trial_n":106,"min":75,"max":180,"target":"absent","response":"absent","rt":748.89999997616,"correct":true,"confidence":5},{"trial_n":107,"min":77,"max":178,"target":"absent","response":"present","rt":605.40000009537,"correct":false,"confidence":2},{"trial_n":108,"min":75,"max":180,"target":"absent","response":"present","rt":840.80000007153,"correct":false,"confidence":3},{"trial_n":109,"min":73,"max":182,"target":"present","response":"present","rt":832.59999990463,"correct":true,"confidence":3},{"trial_n":110,"min":73,"max":182,"target":"present","response":"present","rt":469.29999995232,"correct":true,"confidence":4},{"trial_n":111,"min":74,"max":181,"target":"absent","response":"absent","rt":526,"correct":true,"confidence":2},{"trial_n":112,"min":74,"max":181,"target":"absent","response":"present","rt":2069.3000000715,"correct":false,"confidence":1},{"trial_n":113,"min":73,"max":182,"target":"present","response":"present","rt":1287.2999999523,"correct":true,"confidence":2},{"trial_n":114,"min":73,"max":182,"target":"present","response":"present","rt":304,"correct":true,"confidence":3},{"trial_n":115,"min":74,"max":181,"target":"absent","response":"absent","rt":514.10000002384,"correct":true,"confidence":4},{"trial_n":116,"min":74,"max":181,"target":"absent","response":"absent","rt":515.29999995232,"correct":true,"confidence":4},{"trial_n":117,"min":75,"max":180,"target":"present","response":"present","rt":415.80000007153,"correct":true,"confidence":1},{"trial_n":118,"min":75,"max":180,"target":"present","response":"present","rt":1016.3999999762,"correct":true,"confidence":4},{"trial_n":119,"min":76,"max":179,"target":"present","response":"present","rt":314.10000002384,"correct":true,"confidence":4},{"trial_n":120,"min":76,"max":179,"target":"absent","response":"absent","rt":528.19999992847,"correct":true,"confidence":4},{"trial_n":121,"min":77,"max":178,"target":"absent","response":"absent","rt":374.20000004768,"correct":true,"confidence":2},{"trial_n":122,"min":77,"max":178,"target":"present","response":"present","rt":515.89999997616,"correct":true,"confidence":3},{"trial_n":123,"min":78,"max":177,"target":"present","response":"present","rt":263.30000007153,"correct":true,"confidence":4},{"trial_n":124,"min":78,"max":177,"target":"absent","response":"absent","rt":1427.3000000715,"correct":true,"confidence":2},{"trial_n":125,"min":79,"max":176,"target":"present","response":"present","rt":311.09999990463,"correct":true,"confidence":4},{"trial_n":126,"min":79,"max":176,"target":"present","response":"present","rt":677.69999992847,"correct":true,"confidence":4},{"trial_n":127,"min":80,"max":175,"target":"absent","response":"absent","rt":553.19999992847,"correct":true,"confidence":4},{"trial_n":128,"min":80,"max":175,"target":"present","response":"present","rt":656.20000004768,"correct":true,"confidence":4},{"trial_n":129,"min":81,"max":174,"target":"absent","response":"absent","rt":668.5,"correct":true,"confidence":2},{"trial_n":130,"min":81,"max":174,"target":"absent","response":"absent","rt":675.19999992847,"correct":true,"confidence":4},{"trial_n":131,"min":82,"max":173,"target":"present","response":"absent","rt":742.39999997616,"correct":false,"confidence":3},{"trial_n":132,"min":81,"max":174,"target":"absent","response":"absent","rt":566.5,"correct":true,"confidence":4},{"trial_n":133,"min":81,"max":174,"target":"present","response":"present","rt":379.5,"correct":true,"confidence":4},{"trial_n":134,"min":82,"max":173,"target":"present","response":"present","rt":1590.3999999762,"correct":true,"confidence":1},{"trial_n":135,"min":82,"max":173,"target":"present","response":"present","rt":892,"correct":true,"confidence":1},{"trial_n":136,"min":83,"max":172,"target":"present","response":"present","rt":530.79999995232,"correct":true,"confidence":3},{"trial_n":137,"min":83,"max":172,"target":"absent","response":"absent","rt":558.5,"correct":true,"confidence":4},{"trial_n":138,"min":84,"max":171,"target":"present","response":"present","rt":687.39999997616,"correct":true,"confidence":4},{"trial_n":139,"min":84,"max":171,"target":"present","response":"present","rt":398.10000002384,"correct":true,"confidence":4},{"trial_n":140,"min":85,"max":170,"target":"present","response":"present","rt":586.5,"correct":true,"confidence":4}]