[{"trial_n":1,"span":8,"encoder":"72461821","distractor":"72861821","target":"present","response":"present","rt":"4156.1000000238","correct":true,"confidence":-1},{"trial_n":2,"span":8,"encoder":"14904304","distractor":"16904304","target":"present","response":"present","rt":"2401.8999999762","correct":true,"confidence":-1},{"trial_n":3,"span":10,"encoder":"2007151246","distractor":"2007152246","target":"absent","response":"present","rt":"1169.7000000477","correct":false,"confidence":-1},{"trial_n":4,"span":8,"encoder":"17651097","distractor":"17651037","target":"absent","response":"present","rt":"1879.1000000238","correct":false,"confidence":-1},{"trial_n":5,"span":6,"encoder":"428689","distractor":"228689","target":"present","response":"absent","rt":"1251","correct":false,"confidence":-1},{"trial_n":6,"span":4,"encoder":"0426","distractor":"7426","target":"absent","response":"present","rt":"1179.6000000238","correct":false,"confidence":-1},{"trial_n":7,"span":2,"encoder":"79","distractor":"77","target":"absent","response":"present","rt":"3930","correct":false,"confidence":-1},{"trial_n":8,"span":2,"encoder":"45","distractor":"48","target":"present","response":"present","rt":"1611.2999999523","correct":true,"confidence":-1},{"trial_n":9,"span":2,"encoder":"44","distractor":"49","target":"absent","response":"absent","rt":"1202.7000000477","correct":true,"confidence":-1},{"trial_n":10,"span":4,"encoder":"4273","distractor":"4973","target":"present","response":"present","rt":"1777.8999999762","correct":true,"confidence":-1},{"trial_n":11,"span":4,"encoder":"9704","distractor":"9700","target":"absent","response":"absent","rt":"1748.7000000477","correct":true,"confidence":-1},{"trial_n":12,"span":5,"encoder":"23469","distractor":"23467","target":"present","response":"present","rt":"2221","correct":true,"confidence":-1},{"trial_n":13,"span":5,"encoder":"84483","distractor":"84783","target":"present","response":"present","rt":"1186.1000000238","correct":true,"confidence":-1},{"trial_n":14,"span":6,"encoder":"035493","distractor":"035494","target":"present","response":"absent","rt":"1218.6000000238","correct":false,"confidence":-1},{"trial_n":15,"span":5,"encoder":"19904","distractor":"13904","target":"present","response":"absent","rt":"1226.1999999285","correct":false,"confidence":-1},{"trial_n":16,"span":4,"encoder":"0131","distractor":"0171","target":"absent","response":"present","rt":"625.10000002384","correct":false,"confidence":-1},{"trial_n":17,"span":3,"encoder":"284","distractor":"684","target":"absent","response":"present","rt":"1832.3999999762","correct":false,"confidence":-1},{"trial_n":18,"span":2,"encoder":"19","distractor":"11","target":"absent","response":"absent","rt":"963.70000004768","correct":true,"confidence":-1},{"trial_n":19,"span":2,"encoder":"91","distractor":"21","target":"absent","response":"absent","rt":"1321.3999999762","correct":true,"confidence":-1},{"trial_n":20,"span":3,"encoder":"988","distractor":"928","target":"present","response":"present","rt":"889.5","correct":true,"confidence":-1},{"trial_n":21,"span":3,"encoder":"632","distractor":"612","target":"present","response":"present","rt":"964.5","correct":true,"confidence":5},{"trial_n":22,"span":4,"encoder":"1809","distractor":"4809","target":"absent","response":"absent","rt":"1201.5","correct":true,"confidence":5},{"trial_n":23,"span":4,"encoder":"1293","distractor":"1273","target":"absent","response":"absent","rt":"1621.2999999523","correct":true,"confidence":5},{"trial_n":24,"span":5,"encoder":"96482","distractor":"94482","target":"present","response":"present","rt":"1622.5","correct":true,"confidence":5},{"trial_n":25,"span":5,"encoder":"72051","distractor":"72151","target":"absent","response":"absent","rt":"1467.3999999762","correct":true,"confidence":5},{"trial_n":26,"span":6,"encoder":"186081","distractor":"186085","target":"present","response":"present","rt":"3819.1000000238","correct":true,"confidence":3},{"trial_n":27,"span":6,"encoder":"341082","distractor":"341087","target":"absent","response":"present","rt":"1462.2999999523","correct":false,"confidence":1},{"trial_n":28,"span":5,"encoder":"71318","distractor":"78318","target":"present","response":"present","rt":"2725.3000000715","correct":true,"confidence":5},{"trial_n":29,"span":5,"encoder":"90766","distractor":"90466","target":"present","response":"present","rt":"1268.1999999285","correct":true,"confidence":4},{"trial_n":30,"span":6,"encoder":"185058","distractor":"115058","target":"present","response":"present","rt":"527.29999995232","correct":true,"confidence":4},{"trial_n":31,"span":6,"encoder":"926003","distractor":"726003","target":"present","response":"present","rt":"451","correct":true,"confidence":3},{"trial_n":32,"span":7,"encoder":"7815024","distractor":"7812024","target":"absent","response":"present","rt":"1180.6999999285","correct":false,"confidence":3},{"trial_n":33,"span":6,"encoder":"950720","distractor":"950820","target":"present","response":"absent","rt":"1676.2000000477","correct":false,"confidence":2},{"trial_n":34,"span":5,"encoder":"10475","distractor":"10471","target":"present","response":"present","rt":"2345.1000000238","correct":true,"confidence":5},{"trial_n":35,"span":5,"encoder":"11111","distractor":"16111","target":"absent","response":"absent","rt":"1086.3000000715","correct":true,"confidence":5},{"trial_n":36,"span":6,"encoder":"272662","distractor":"272162","target":"absent","response":"absent","rt":"1223.3000000715","correct":true,"confidence":5},{"trial_n":37,"span":6,"encoder":"229794","distractor":"249794","target":"present","response":"present","rt":"2852.5","correct":true,"confidence":3},{"trial_n":38,"span":7,"encoder":"9105272","distractor":"9105202","target":"absent","response":"absent","rt":"3508.2999999523","correct":true,"confidence":3},{"trial_n":39,"span":7,"encoder":"0514784","distractor":"0514684","target":"absent","response":"absent","rt":"3616.2999999523","correct":true,"confidence":4},{"trial_n":40,"span":8,"encoder":"76897296","distractor":"76887296","target":"present","response":"absent","rt":"750.80000007153","correct":false,"confidence":2},{"trial_n":41,"span":7,"encoder":"9955753","distractor":"9955653","target":"absent","response":"absent","rt":"1745.7999999523","correct":true,"confidence":1},{"trial_n":42,"span":7,"encoder":"2100217","distractor":"2100717","target":"absent","response":"present","rt":"2985.3999999762","correct":false,"confidence":2},{"trial_n":43,"span":6,"encoder":"766619","distractor":"766612","target":"present","response":"present","rt":"2340.2000000477","correct":true,"confidence":5},{"trial_n":44,"span":6,"encoder":"556698","distractor":"556694","target":"absent","response":"present","rt":"1965.5","correct":false,"confidence":5},{"trial_n":45,"span":5,"encoder":"93383","distractor":"63383","target":"present","response":"absent","rt":"9170.8999999762","correct":false,"confidence":2},{"trial_n":46,"span":4,"encoder":"1438","distractor":"1838","target":"present","response":"present","rt":"2298.3000000715","correct":true,"confidence":5},{"trial_n":47,"span":4,"encoder":"8606","distractor":"8616","target":"absent","response":"present","rt":"2716.2999999523","correct":false,"confidence":3},{"trial_n":48,"span":3,"encoder":"695","distractor":"694","target":"absent","response":"absent","rt":"1595.8999999762","correct":true,"confidence":5},{"trial_n":49,"span":3,"encoder":"108","distractor":"107","target":"absent","response":"absent","rt":"1742","correct":true,"confidence":5},{"trial_n":50,"span":4,"encoder":"2054","distractor":"2554","target":"absent","response":"absent","rt":"1632.7000000477","correct":true,"confidence":5},{"trial_n":51,"span":4,"encoder":"1463","distractor":"8463","target":"present","response":"present","rt":"1497.1999999285","correct":true,"confidence":5},{"trial_n":52,"span":5,"encoder":"91471","distractor":"21471","target":"present","response":"present","rt":"2424.7000000477","correct":true,"confidence":5},{"trial_n":53,"span":5,"encoder":"59833","distractor":"59843","target":"present","response":"present","rt":"1664.1999999285","correct":true,"confidence":5},{"trial_n":54,"span":6,"encoder":"735664","distractor":"935664","target":"present","response":"present","rt":"1388.8999999762","correct":true,"confidence":5},{"trial_n":55,"span":6,"encoder":"611760","distractor":"612760","target":"absent","response":"absent","rt":"3547.3000000715","correct":true,"confidence":1},{"trial_n":56,"span":7,"encoder":"3120582","distractor":"3820582","target":"present","response":"absent","rt":"2556.2999999523","correct":false,"confidence":1},{"trial_n":57,"span":6,"encoder":"915152","distractor":"915122","target":"present","response":"absent","rt":"3590.6000000238","correct":false,"confidence":3},{"trial_n":58,"span":5,"encoder":"16530","distractor":"16590","target":"absent","response":"absent","rt":"4878.6999999285","correct":true,"confidence":1},{"trial_n":59,"span":5,"encoder":"62100","distractor":"22100","target":"present","response":"absent","rt":"6241.5","correct":false,"confidence":1},{"trial_n":60,"span":4,"encoder":"2982","distractor":"2782","target":"absent","response":"present","rt":"2867.7000000477","correct":false,"confidence":4},{"trial_n":61,"span":3,"encoder":"030","distractor":"020","target":"absent","response":"absent","rt":"1757.7999999523","correct":true,"confidence":5},{"trial_n":62,"span":3,"encoder":"966","distractor":"986","target":"absent","response":"absent","rt":"1919.8999999762","correct":true,"confidence":5},{"trial_n":63,"span":4,"encoder":"1462","distractor":"1412","target":"absent","response":"absent","rt":"1495.1000000238","correct":true,"confidence":5},{"trial_n":64,"span":4,"encoder":"3245","distractor":"3225","target":"absent","response":"absent","rt":"2745.0999999046","correct":true,"confidence":1},{"trial_n":65,"span":5,"encoder":"97639","distractor":"97609","target":"present","response":"absent","rt":"1527.2999999523","correct":false,"confidence":1},{"trial_n":66,"span":4,"encoder":"5498","distractor":"5998","target":"present","response":"present","rt":"1787.8999999762","correct":true,"confidence":5},{"trial_n":67,"span":4,"encoder":"6012","distractor":"6013","target":"present","response":"present","rt":"1186.5999999046","correct":true,"confidence":5},{"trial_n":68,"span":5,"encoder":"37383","distractor":"37386","target":"present","response":"present","rt":"1072.5","correct":true,"confidence":1},{"trial_n":69,"span":5,"encoder":"85905","distractor":"84905","target":"present","response":"present","rt":"3612.8000000715","correct":true,"confidence":1},{"trial_n":70,"span":6,"encoder":"389848","distractor":"384848","target":"absent","response":"absent","rt":"2515.5999999046","correct":true,"confidence":4},{"trial_n":71,"span":8,"encoder":"80355593","distractor":"80055593","target":"present","response":"present","rt":"4577.7999999523","correct":true,"confidence":-1},{"trial_n":72,"span":8,"encoder":"35721205","distractor":"35721265","target":"present","response":"present","rt":"4796.2000000477","correct":true,"confidence":-1},{"trial_n":73,"span":9,"encoder":"926424178","distractor":"926424108","target":"absent","response":"absent","rt":"1003.2999999523","correct":true,"confidence":-1},{"trial_n":74,"span":9,"encoder":"914407038","distractor":"914427038","target":"absent","response":"absent","rt":"6188.2000000477","correct":true,"confidence":-1},{"trial_n":75,"span":10,"encoder":"8374558525","distractor":"9374558525","target":"present","response":"present","rt":"4603.1000000238","correct":true,"confidence":-1},{"trial_n":76,"span":10,"encoder":"7337003606","distractor":"7037003606","target":"present","response":"present","rt":"2431.4000000954","correct":true,"confidence":-1},{"trial_n":77,"span":11,"encoder":"03636357324","distractor":"03636557324","target":"present","response":"absent","rt":"438.20000004768","correct":false,"confidence":-1},{"trial_n":78,"span":10,"encoder":"1961776129","distractor":"1961746129","target":"absent","response":"absent","rt":"2801.1000000238","correct":true,"confidence":-1},{"trial_n":79,"span":10,"encoder":"3582102491","distractor":"3582102411","target":"present","response":"absent","rt":"221.70000004768","correct":false,"confidence":-1},{"trial_n":80,"span":9,"encoder":"794035008","distractor":"794535008","target":"absent","response":"present","rt":"330.40000009537","correct":false,"confidence":-1},{"trial_n":81,"span":8,"encoder":"85573273","distractor":"85573271","target":"absent","response":"absent","rt":"690.29999995232","correct":true,"confidence":-1},{"trial_n":82,"span":8,"encoder":"74770738","distractor":"74770638","target":"present","response":"absent","rt":"323.19999992847","correct":false,"confidence":-1},{"trial_n":83,"span":7,"encoder":"8669663","distractor":"8667663","target":"present","response":"absent","rt":"483","correct":false,"confidence":-1},{"trial_n":84,"span":6,"encoder":"378559","distractor":"318559","target":"absent","response":"present","rt":"327.39999997616","correct":false,"confidence":-1},{"trial_n":85,"span":5,"encoder":"12112","distractor":"12812","target":"present","response":"absent","rt":"420.70000004768","correct":false,"confidence":-1},{"trial_n":86,"span":4,"encoder":"9482","distractor":"9882","target":"absent","response":"absent","rt":"466.39999997616","correct":true,"confidence":-1},{"trial_n":87,"span":4,"encoder":"5625","distractor":"5629","target":"absent","response":"absent","rt":"718.70000004768","correct":true,"confidence":-1},{"trial_n":88,"span":5,"encoder":"70798","distractor":"70398","target":"present","response":"absent","rt":"536.89999997616","correct":false,"confidence":-1},{"trial_n":89,"span":4,"encoder":"0516","distractor":"0216","target":"present","response":"present","rt":"1807.6999999285","correct":true,"confidence":-1},{"trial_n":90,"span":4,"encoder":"2941","distractor":"5941","target":"absent","response":"present","rt":"3086","correct":false,"confidence":-1},{"trial_n":91,"span":3,"encoder":"580","distractor":"581","target":"absent","response":"absent","rt":"3804.3000000715","correct":true,"confidence":4},{"trial_n":92,"span":3,"encoder":"888","distractor":"889","target":"present","response":"absent","rt":"3701.6000000238","correct":false,"confidence":3},{"trial_n":93,"span":2,"encoder":"13","distractor":"23","target":"absent","response":"absent","rt":"871.79999995232","correct":true,"confidence":5},{"trial_n":94,"span":2,"encoder":"31","distractor":"32","target":"absent","response":"absent","rt":"849.60000002384","correct":true,"confidence":5},{"trial_n":95,"span":3,"encoder":"576","distractor":"536","target":"absent","response":"absent","rt":"838.80000007153","correct":true,"confidence":5},{"trial_n":96,"span":3,"encoder":"119","distractor":"159","target":"absent","response":"absent","rt":"854.70000004768","correct":true,"confidence":5},{"trial_n":97,"span":4,"encoder":"1128","distractor":"1628","target":"present","response":"present","rt":"1304.1000000238","correct":true,"confidence":5},{"trial_n":98,"span":4,"encoder":"6311","distractor":"6381","target":"present","response":"absent","rt":"1382.9000000954","correct":false,"confidence":1},{"trial_n":99,"span":3,"encoder":"731","distractor":"781","target":"present","response":"present","rt":"1158.3000000715","correct":true,"confidence":5},{"trial_n":100,"span":3,"encoder":"141","distractor":"171","target":"absent","response":"absent","rt":"737.29999995232","correct":true,"confidence":1},{"trial_n":101,"span":4,"encoder":"7062","distractor":"7067","target":"present","response":"present","rt":"2442.6999999285","correct":true,"confidence":5},{"trial_n":102,"span":4,"encoder":"0405","distractor":"0402","target":"absent","response":"absent","rt":"1257.1000000238","correct":true,"confidence":5},{"trial_n":103,"span":5,"encoder":"29748","distractor":"79748","target":"present","response":"present","rt":"2112.2999999523","correct":true,"confidence":5},{"trial_n":104,"span":5,"encoder":"41698","distractor":"01698","target":"absent","response":"absent","rt":"1248","correct":true,"confidence":5},{"trial_n":105,"span":6,"encoder":"649444","distractor":"649434","target":"present","response":"present","rt":"1285.6000000238","correct":true,"confidence":5},{"trial_n":106,"span":6,"encoder":"347381","distractor":"307381","target":"present","response":"present","rt":"2494.9000000954","correct":true,"confidence":5},{"trial_n":107,"span":7,"encoder":"2497361","distractor":"2497861","target":"absent","response":"absent","rt":"2130.5999999046","correct":true,"confidence":5},{"trial_n":108,"span":7,"encoder":"5007601","distractor":"5000601","target":"absent","response":"absent","rt":"2647.7000000477","correct":true,"confidence":2},{"trial_n":109,"span":8,"encoder":"83952499","distractor":"83052499","target":"present","response":"absent","rt":"1756.8999999762","correct":false,"confidence":2},{"trial_n":110,"span":7,"encoder":"7484922","distractor":"7684922","target":"present","response":"present","rt":"560","correct":true,"confidence":5},{"trial_n":111,"span":7,"encoder":"8197352","distractor":"8193352","target":"absent","response":"absent","rt":"436.60000002384","correct":true,"confidence":3},{"trial_n":112,"span":8,"encoder":"79913188","distractor":"79913182","target":"absent","response":"present","rt":"3123.6000000238","correct":false,"confidence":4},{"trial_n":113,"span":7,"encoder":"2401878","distractor":"2401873","target":"present","response":"absent","rt":"3123.7000000477","correct":false,"confidence":4},{"trial_n":114,"span":6,"encoder":"573233","distractor":"573223","target":"present","response":"absent","rt":"2953.8999999762","correct":false,"confidence":4},{"trial_n":115,"span":5,"encoder":"92606","distractor":"22606","target":"absent","response":"present","rt":"1281.1999999285","correct":false,"confidence":3},{"trial_n":116,"span":4,"encoder":"3447","distractor":"9447","target":"absent","response":"absent","rt":"1909.7999999523","correct":true,"confidence":3},{"trial_n":117,"span":4,"encoder":"3092","distractor":"3792","target":"absent","response":"absent","rt":"2036.4000000954","correct":true,"confidence":2},{"trial_n":118,"span":5,"encoder":"27425","distractor":"26425","target":"absent","response":"absent","rt":"4833.8999999762","correct":true,"confidence":3},{"trial_n":119,"span":5,"encoder":"85328","distractor":"85828","target":"absent","response":"present","rt":"795.79999995232","correct":false,"confidence":3},{"trial_n":120,"span":4,"encoder":"8453","distractor":"8451","target":"absent","response":"absent","rt":"1549.9000000954","correct":true,"confidence":2},{"trial_n":121,"span":4,"encoder":"7490","distractor":"7480","target":"present","response":"absent","rt":"2949.1999999285","correct":false,"confidence":2},{"trial_n":122,"span":3,"encoder":"530","distractor":"532","target":"absent","response":"absent","rt":"3891.6000000238","correct":true,"confidence":5},{"trial_n":123,"span":3,"encoder":"168","distractor":"178","target":"absent","response":"absent","rt":"1591.2999999523","correct":true,"confidence":5},{"trial_n":124,"span":4,"encoder":"4305","distractor":"7305","target":"absent","response":"absent","rt":"2037.0999999046","correct":true,"confidence":5},{"trial_n":125,"span":4,"encoder":"6801","distractor":"6831","target":"present","response":"present","rt":"2120.1999999285","correct":true,"confidence":4},{"trial_n":126,"span":5,"encoder":"17685","distractor":"17675","target":"absent","response":"absent","rt":"3304.1000000238","correct":true,"confidence":5},{"trial_n":127,"span":5,"encoder":"60587","distractor":"60887","target":"present","response":"present","rt":"3264.2999999523","correct":true,"confidence":5},{"trial_n":128,"span":6,"encoder":"315366","distractor":"319366","target":"present","response":"absent","rt":"1833.1000000238","correct":false,"confidence":3},{"trial_n":129,"span":5,"encoder":"84230","distractor":"84250","target":"present","response":"present","rt":"3263.7999999523","correct":true,"confidence":4},{"trial_n":130,"span":5,"encoder":"51246","distractor":"51245","target":"present","response":"absent","rt":"1203.1000000238","correct":false,"confidence":3},{"trial_n":131,"span":4,"encoder":"0904","distractor":"0909","target":"present","response":"absent","rt":"1230","correct":false,"confidence":4},{"trial_n":132,"span":3,"encoder":"229","distractor":"219","target":"present","response":"present","rt":"2485.3999999762","correct":true,"confidence":3},{"trial_n":133,"span":3,"encoder":"233","distractor":"633","target":"absent","response":"absent","rt":"4195.1999999285","correct":true,"confidence":3},{"trial_n":134,"span":4,"encoder":"3093","distractor":"5093","target":"present","response":"absent","rt":"3431.6000000238","correct":false,"confidence":2},{"trial_n":135,"span":3,"encoder":"218","distractor":"718","target":"present","response":"present","rt":"2495.3999999762","correct":true,"confidence":4},{"trial_n":136,"span":3,"encoder":"308","distractor":"378","target":"present","response":"present","rt":"1554.9000000954","correct":true,"confidence":5},{"trial_n":137,"span":4,"encoder":"2514","distractor":"2517","target":"present","response":"present","rt":"2905.7000000477","correct":true,"confidence":5},{"trial_n":138,"span":4,"encoder":"6541","distractor":"6544","target":"present","response":"present","rt":"1898","correct":true,"confidence":5},{"trial_n":139,"span":5,"encoder":"90559","distractor":"00559","target":"absent","response":"absent","rt":"2257.8999999762","correct":true,"confidence":5},{"trial_n":140,"span":5,"encoder":"31329","distractor":"31321","target":"absent","response":"absent","rt":"3919.6999999285","correct":true,"confidence":5}]