[{"trial_n":1,"min":25,"max":230,"target":"present","response":"present","rt":7615.8000000119,"correct":true,"confidence":-1},{"trial_n":2,"min":25,"max":230,"target":"present","response":"present","rt":1127.900000006,"correct":true,"confidence":-1},{"trial_n":3,"min":41,"max":214,"target":"absent","response":"absent","rt":675.80000001192,"correct":true,"confidence":-1},{"trial_n":4,"min":41,"max":214,"target":"absent","response":"absent","rt":698.5,"correct":true,"confidence":-1},{"trial_n":5,"min":57,"max":198,"target":"present","response":"present","rt":755.10000002384,"correct":true,"confidence":-1},{"trial_n":6,"min":57,"max":198,"target":"present","response":"present","rt":766.5,"correct":true,"confidence":-1},{"trial_n":7,"min":73,"max":182,"target":"absent","response":"absent","rt":620,"correct":true,"confidence":-1},{"trial_n":8,"min":73,"max":182,"target":"present","response":"present","rt":763.40000000596,"correct":true,"confidence":-1},{"trial_n":9,"min":89,"max":166,"target":"present","response":"present","rt":636.59999999404,"correct":true,"confidence":-1},{"trial_n":10,"min":89,"max":166,"target":"present","response":"absent","rt":752.5,"correct":false,"confidence":-1},{"trial_n":11,"min":81,"max":174,"target":"absent","response":"absent","rt":976.90000000596,"correct":true,"confidence":-1},{"trial_n":12,"min":81,"max":174,"target":"absent","response":"absent","rt":599.70000001788,"correct":true,"confidence":-1},{"trial_n":13,"min":89,"max":166,"target":"present","response":"present","rt":898.80000001192,"correct":true,"confidence":-1},{"trial_n":14,"min":89,"max":166,"target":"absent","response":"absent","rt":810.5,"correct":true,"confidence":-1},{"trial_n":15,"min":97,"max":158,"target":"present","response":"absent","rt":698.90000000596,"correct":false,"confidence":-1},{"trial_n":16,"min":89,"max":166,"target":"present","response":"present","rt":704.39999997616,"correct":true,"confidence":-1},{"trial_n":17,"min":89,"max":166,"target":"present","response":"absent","rt":641.5,"correct":false,"confidence":-1},{"trial_n":18,"min":81,"max":174,"target":"absent","response":"present","rt":762.19999998808,"correct":false,"confidence":-1},{"trial_n":19,"min":73,"max":182,"target":"absent","response":"absent","rt":902.59999999404,"correct":true,"confidence":-1},{"trial_n":20,"min":73,"max":182,"target":"present","response":"present","rt":766.5,"correct":true,"confidence":-1},{"trial_n":21,"min":77,"max":178,"target":"absent","response":"present","rt":1000.2999999821,"correct":false,"confidence":3},{"trial_n":22,"min":73,"max":182,"target":"present","response":"present","rt":654.20000001788,"correct":true,"confidence":5},{"trial_n":23,"min":73,"max":182,"target":"present","response":"present","rt":609.40000000596,"correct":true,"confidence":5},{"trial_n":24,"min":77,"max":178,"target":"present","response":"present","rt":668.89999997616,"correct":true,"confidence":5},{"trial_n":25,"min":77,"max":178,"target":"absent","response":"absent","rt":1665.3000000119,"correct":true,"confidence":3},{"trial_n":26,"min":81,"max":174,"target":"absent","response":"present","rt":1102.599999994,"correct":false,"confidence":4},{"trial_n":27,"min":77,"max":178,"target":"absent","response":"absent","rt":3398.400000006,"correct":true,"confidence":3},{"trial_n":28,"min":77,"max":178,"target":"absent","response":"present","rt":956.5,"correct":false,"confidence":4},{"trial_n":29,"min":73,"max":182,"target":"absent","response":"present","rt":1176.2000000179,"correct":false,"confidence":4},{"trial_n":30,"min":69,"max":186,"target":"absent","response":"present","rt":892.59999999404,"correct":false,"confidence":4},{"trial_n":31,"min":67,"max":188,"target":"present","response":"present","rt":804.90000000596,"correct":true,"confidence":5},{"trial_n":32,"min":67,"max":188,"target":"absent","response":"present","rt":962.09999999404,"correct":false,"confidence":4},{"trial_n":33,"min":65,"max":190,"target":"present","response":"present","rt":1014.3000000119,"correct":true,"confidence":4},{"trial_n":34,"min":65,"max":190,"target":"absent","response":"present","rt":978.30000001192,"correct":false,"confidence":4},{"trial_n":35,"min":63,"max":192,"target":"present","response":"present","rt":694.40000000596,"correct":true,"confidence":5},{"trial_n":36,"min":63,"max":192,"target":"present","response":"present","rt":663,"correct":true,"confidence":5},{"trial_n":37,"min":65,"max":190,"target":"present","response":"present","rt":726.09999999404,"correct":true,"confidence":5},{"trial_n":38,"min":65,"max":190,"target":"absent","response":"present","rt":934.60000002384,"correct":false,"confidence":4},{"trial_n":39,"min":63,"max":192,"target":"absent","response":"present","rt":1427.6999999881,"correct":false,"confidence":3},{"trial_n":40,"min":61,"max":194,"target":"absent","response":"present","rt":2246.8000000119,"correct":false,"confidence":2},{"trial_n":41,"min":60,"max":195,"target":"absent","response":"absent","rt":2077.900000006,"correct":true,"confidence":2},{"trial_n":42,"min":60,"max":195,"target":"present","response":"present","rt":671.90000000596,"correct":true,"confidence":5},{"trial_n":43,"min":61,"max":194,"target":"present","response":"present","rt":2001.2000000179,"correct":true,"confidence":5},{"trial_n":44,"min":61,"max":194,"target":"present","response":"present","rt":619.30000001192,"correct":true,"confidence":5},{"trial_n":45,"min":62,"max":193,"target":"present","response":"present","rt":591.5,"correct":true,"confidence":5},{"trial_n":46,"min":62,"max":193,"target":"present","response":"present","rt":599.59999999404,"correct":true,"confidence":5},{"trial_n":47,"min":63,"max":192,"target":"absent","response":"absent","rt":724.89999997616,"correct":true,"confidence":4},{"trial_n":48,"min":63,"max":192,"target":"absent","response":"absent","rt":2745.3000000119,"correct":true,"confidence":3},{"trial_n":49,"min":64,"max":191,"target":"absent","response":"absent","rt":1029.5,"correct":true,"confidence":3},{"trial_n":50,"min":64,"max":191,"target":"absent","response":"absent","rt":755.90000000596,"correct":true,"confidence":2},{"trial_n":51,"min":65,"max":190,"target":"absent","response":"absent","rt":790.80000001192,"correct":true,"confidence":3},{"trial_n":52,"min":65,"max":190,"target":"present","response":"present","rt":823.30000001192,"correct":true,"confidence":5},{"trial_n":53,"min":66,"max":189,"target":"absent","response":"absent","rt":1323.599999994,"correct":true,"confidence":4},{"trial_n":54,"min":66,"max":189,"target":"present","response":"present","rt":1096.900000006,"correct":true,"confidence":5},{"trial_n":55,"min":67,"max":188,"target":"present","response":"present","rt":800.30000001192,"correct":true,"confidence":5},{"trial_n":56,"min":67,"max":188,"target":"present","response":"present","rt":1000,"correct":true,"confidence":5},{"trial_n":57,"min":68,"max":187,"target":"absent","response":"absent","rt":786.69999998808,"correct":true,"confidence":4},{"trial_n":58,"min":68,"max":187,"target":"present","response":"present","rt":624,"correct":true,"confidence":5},{"trial_n":59,"min":69,"max":186,"target":"absent","response":"absent","rt":882.29999998212,"correct":true,"confidence":4},{"trial_n":60,"min":69,"max":186,"target":"present","response":"present","rt":868.39999997616,"correct":true,"confidence":5},{"trial_n":61,"min":70,"max":185,"target":"absent","response":"absent","rt":716.80000001192,"correct":true,"confidence":1},{"trial_n":62,"min":70,"max":185,"target":"present","response":"present","rt":1616.2000000179,"correct":true,"confidence":5},{"trial_n":63,"min":71,"max":184,"target":"absent","response":"present","rt":1958.2999999821,"correct":false,"confidence":3},{"trial_n":64,"min":70,"max":185,"target":"present","response":"present","rt":1082,"correct":true,"confidence":5},{"trial_n":65,"min":70,"max":185,"target":"present","response":"present","rt":1319.599999994,"correct":true,"confidence":5},{"trial_n":66,"min":71,"max":184,"target":"absent","response":"absent","rt":903.09999999404,"correct":true,"confidence":4},{"trial_n":67,"min":71,"max":184,"target":"absent","response":"absent","rt":2080.3000000119,"correct":true,"confidence":3},{"trial_n":68,"min":72,"max":183,"target":"present","response":"present","rt":958.59999999404,"correct":true,"confidence":5},{"trial_n":69,"min":72,"max":183,"target":"present","response":"present","rt":676.30000001192,"correct":true,"confidence":5},{"trial_n":70,"min":73,"max":182,"target":"absent","response":"absent","rt":807.70000001788,"correct":true,"confidence":4},{"trial_n":71,"min":41,"max":214,"target":"present","response":"present","rt":1749.8000000119,"correct":true,"confidence":-1},{"trial_n":72,"min":41,"max":214,"target":"present","response":"present","rt":579.19999998808,"correct":true,"confidence":-1},{"trial_n":73,"min":57,"max":198,"target":"absent","response":"absent","rt":465.59999999404,"correct":true,"confidence":-1},{"trial_n":74,"min":57,"max":198,"target":"absent","response":"absent","rt":507,"correct":true,"confidence":-1},{"trial_n":75,"min":73,"max":182,"target":"present","response":"present","rt":544.09999999404,"correct":true,"confidence":-1},{"trial_n":76,"min":73,"max":182,"target":"absent","response":"absent","rt":454.5,"correct":true,"confidence":-1},{"trial_n":77,"min":89,"max":166,"target":"present","response":"present","rt":571.60000002384,"correct":true,"confidence":-1},{"trial_n":78,"min":89,"max":166,"target":"present","response":"absent","rt":715.69999998808,"correct":false,"confidence":-1},{"trial_n":79,"min":73,"max":182,"target":"present","response":"present","rt":504.20000001788,"correct":true,"confidence":-1},{"trial_n":80,"min":73,"max":182,"target":"absent","response":"absent","rt":581.30000001192,"correct":true,"confidence":-1},{"trial_n":81,"min":81,"max":174,"target":"absent","response":"absent","rt":454.90000000596,"correct":true,"confidence":-1},{"trial_n":82,"min":81,"max":174,"target":"present","response":"present","rt":503.70000001788,"correct":true,"confidence":-1},{"trial_n":83,"min":89,"max":166,"target":"present","response":"present","rt":412.5,"correct":true,"confidence":-1},{"trial_n":84,"min":89,"max":166,"target":"present","response":"present","rt":597.5,"correct":true,"confidence":-1},{"trial_n":85,"min":97,"max":158,"target":"present","response":"present","rt":468.5,"correct":true,"confidence":-1},{"trial_n":86,"min":97,"max":158,"target":"present","response":"absent","rt":591.89999997616,"correct":false,"confidence":-1},{"trial_n":87,"min":89,"max":166,"target":"present","response":"present","rt":379.90000000596,"correct":true,"confidence":-1},{"trial_n":88,"min":89,"max":166,"target":"present","response":"absent","rt":609.90000000596,"correct":false,"confidence":-1},{"trial_n":89,"min":81,"max":174,"target":"absent","response":"absent","rt":604.40000000596,"correct":true,"confidence":-1},{"trial_n":90,"min":81,"max":174,"target":"absent","response":"absent","rt":450.69999998808,"correct":true,"confidence":-1},{"trial_n":91,"min":85,"max":170,"target":"absent","response":"absent","rt":456.90000000596,"correct":true,"confidence":4},{"trial_n":92,"min":85,"max":170,"target":"absent","response":"absent","rt":1125.7000000179,"correct":true,"confidence":3},{"trial_n":93,"min":89,"max":166,"target":"present","response":"present","rt":1248.099999994,"correct":true,"confidence":4},{"trial_n":94,"min":89,"max":166,"target":"absent","response":"absent","rt":420.90000000596,"correct":true,"confidence":5},{"trial_n":95,"min":93,"max":162,"target":"absent","response":"absent","rt":923.09999999404,"correct":true,"confidence":4},{"trial_n":96,"min":93,"max":162,"target":"present","response":"present","rt":869.5,"correct":true,"confidence":3},{"trial_n":97,"min":97,"max":158,"target":"absent","response":"absent","rt":728.79999998212,"correct":true,"confidence":4},{"trial_n":98,"min":97,"max":158,"target":"absent","response":"present","rt":716.30000001192,"correct":false,"confidence":3},{"trial_n":99,"min":93,"max":162,"target":"present","response":"absent","rt":1296.5,"correct":false,"confidence":3},{"trial_n":100,"min":89,"max":166,"target":"present","response":"present","rt":804,"correct":true,"confidence":5},{"trial_n":101,"min":89,"max":166,"target":"absent","response":"absent","rt":662.5,"correct":true,"confidence":4},{"trial_n":102,"min":91,"max":164,"target":"present","response":"present","rt":711.90000000596,"correct":true,"confidence":3},{"trial_n":103,"min":91,"max":164,"target":"absent","response":"absent","rt":532.09999999404,"correct":true,"confidence":3},{"trial_n":104,"min":93,"max":162,"target":"present","response":"present","rt":438.40000000596,"correct":true,"confidence":5},{"trial_n":105,"min":93,"max":162,"target":"absent","response":"present","rt":616.80000001192,"correct":false,"confidence":4},{"trial_n":106,"min":91,"max":164,"target":"absent","response":"absent","rt":589,"correct":true,"confidence":4},{"trial_n":107,"min":91,"max":164,"target":"absent","response":"present","rt":846.80000001192,"correct":false,"confidence":3},{"trial_n":108,"min":89,"max":166,"target":"present","response":"present","rt":708,"correct":true,"confidence":5},{"trial_n":109,"min":89,"max":166,"target":"absent","response":"absent","rt":1066.1999999881,"correct":true,"confidence":1},{"trial_n":110,"min":91,"max":164,"target":"absent","response":"present","rt":3875.1999999881,"correct":false,"confidence":1},{"trial_n":111,"min":90,"max":165,"target":"present","response":"absent","rt":3958.3000000119,"correct":false,"confidence":4},{"trial_n":112,"min":89,"max":166,"target":"present","response":"absent","rt":373.30000001192,"correct":false,"confidence":4},{"trial_n":113,"min":88,"max":167,"target":"present","response":"absent","rt":607.60000002384,"correct":false,"confidence":1},{"trial_n":114,"min":87,"max":168,"target":"absent","response":"present","rt":1182.099999994,"correct":false,"confidence":2},{"trial_n":115,"min":86,"max":169,"target":"absent","response":"absent","rt":436.89999997616,"correct":true,"confidence":4},{"trial_n":116,"min":86,"max":169,"target":"present","response":"present","rt":546.09999999404,"correct":true,"confidence":5},{"trial_n":117,"min":87,"max":168,"target":"present","response":"present","rt":1277.7000000179,"correct":true,"confidence":5},{"trial_n":118,"min":87,"max":168,"target":"present","response":"present","rt":792,"correct":true,"confidence":5},{"trial_n":119,"min":88,"max":167,"target":"present","response":"present","rt":1048.1999999881,"correct":true,"confidence":3},{"trial_n":120,"min":88,"max":167,"target":"absent","response":"present","rt":2797.7999999821,"correct":false,"confidence":2},{"trial_n":121,"min":87,"max":168,"target":"absent","response":"absent","rt":900.20000001788,"correct":true,"confidence":5},{"trial_n":122,"min":87,"max":168,"target":"present","response":"present","rt":517.40000000596,"correct":true,"confidence":5},{"trial_n":123,"min":88,"max":167,"target":"present","response":"present","rt":930.09999999404,"correct":true,"confidence":5},{"trial_n":124,"min":88,"max":167,"target":"present","response":"present","rt":466.5,"correct":true,"confidence":5},{"trial_n":125,"min":89,"max":166,"target":"absent","response":"absent","rt":553.20000001788,"correct":true,"confidence":4},{"trial_n":126,"min":89,"max":166,"target":"absent","response":"absent","rt":629.20000001788,"correct":true,"confidence":4},{"trial_n":127,"min":90,"max":165,"target":"absent","response":"absent","rt":361,"correct":true,"confidence":3},{"trial_n":128,"min":90,"max":165,"target":"absent","response":"present","rt":581.90000000596,"correct":false,"confidence":3},{"trial_n":129,"min":89,"max":166,"target":"present","response":"absent","rt":875.40000000596,"correct":false,"confidence":4},{"trial_n":130,"min":88,"max":167,"target":"absent","response":"absent","rt":718.80000001192,"correct":true,"confidence":3},{"trial_n":131,"min":88,"max":167,"target":"absent","response":"absent","rt":570.20000001788,"correct":true,"confidence":4},{"trial_n":132,"min":89,"max":166,"target":"absent","response":"absent","rt":1434,"correct":true,"confidence":3},{"trial_n":133,"min":89,"max":166,"target":"present","response":"present","rt":448.30000001192,"correct":true,"confidence":5},{"trial_n":134,"min":90,"max":165,"target":"absent","response":"present","rt":486.59999999404,"correct":false,"confidence":4},{"trial_n":135,"min":89,"max":166,"target":"present","response":"present","rt":596.90000000596,"correct":true,"confidence":5},{"trial_n":136,"min":89,"max":166,"target":"present","response":"present","rt":414.20000001788,"correct":true,"confidence":5},{"trial_n":137,"min":90,"max":165,"target":"present","response":"present","rt":455.19999998808,"correct":true,"confidence":5},{"trial_n":138,"min":90,"max":165,"target":"absent","response":"absent","rt":735.20000001788,"correct":true,"confidence":5},{"trial_n":139,"min":91,"max":164,"target":"absent","response":"absent","rt":675.09999999404,"correct":true,"confidence":4},{"trial_n":140,"min":91,"max":164,"target":"present","response":"present","rt":453.69999998808,"correct":true,"confidence":4}]