[{"trial_n":1,"span":8,"encoder":"32908179","distractor":"35908179","target":"present","response":"present","rt":"4634.7999999523","correct":true,"confidence":-1},{"trial_n":2,"span":8,"encoder":"34742090","distractor":"39742090","target":"present","response":"present","rt":"3458.5","correct":true,"confidence":-1},{"trial_n":3,"span":10,"encoder":"4972225296","distractor":"4972925296","target":"absent","response":"absent","rt":"2625.5","correct":true,"confidence":-1},{"trial_n":4,"span":10,"encoder":"2993234447","distractor":"2997234447","target":"absent","response":"present","rt":"2117.8000000715","correct":false,"confidence":-1},{"trial_n":5,"span":8,"encoder":"01601754","distractor":"01601753","target":"present","response":"present","rt":"5058.7999999523","correct":true,"confidence":-1},{"trial_n":6,"span":8,"encoder":"09138164","distractor":"09538164","target":"absent","response":"present","rt":"4527.1000000238","correct":false,"confidence":-1},{"trial_n":7,"span":6,"encoder":"704009","distractor":"704029","target":"absent","response":"absent","rt":"1992.2000000477","correct":true,"confidence":-1},{"trial_n":8,"span":6,"encoder":"917481","distractor":"217481","target":"absent","response":"absent","rt":"1691.3999999762","correct":true,"confidence":-1},{"trial_n":9,"span":8,"encoder":"89445069","distractor":"80445069","target":"absent","response":"absent","rt":"4003.6999999285","correct":true,"confidence":-1},{"trial_n":10,"span":8,"encoder":"98249243","distractor":"98249443","target":"absent","response":"present","rt":"1922.1999999285","correct":false,"confidence":-1},{"trial_n":11,"span":6,"encoder":"948832","distractor":"958832","target":"present","response":"absent","rt":"2030.3999999762","correct":false,"confidence":-1},{"trial_n":12,"span":5,"encoder":"23247","distractor":"28247","target":"absent","response":"absent","rt":"2196.1000000238","correct":true,"confidence":-1},{"trial_n":13,"span":5,"encoder":"15972","distractor":"15072","target":"present","response":"present","rt":"2094.3000000715","correct":true,"confidence":-1},{"trial_n":14,"span":6,"encoder":"562379","distractor":"561379","target":"present","response":"present","rt":"1924.6000000238","correct":true,"confidence":-1},{"trial_n":15,"span":6,"encoder":"112725","distractor":"117725","target":"absent","response":"absent","rt":"2490.1000000238","correct":true,"confidence":-1},{"trial_n":16,"span":7,"encoder":"6774519","distractor":"6974519","target":"present","response":"present","rt":"2976.5","correct":true,"confidence":-1},{"trial_n":17,"span":7,"encoder":"8880572","distractor":"3880572","target":"present","response":"present","rt":"3271.5999999046","correct":true,"confidence":-1},{"trial_n":18,"span":8,"encoder":"00803329","distractor":"00803129","target":"absent","response":"present","rt":"2279.8000000715","correct":false,"confidence":-1},{"trial_n":19,"span":7,"encoder":"2075685","distractor":"2085685","target":"absent","response":"present","rt":"2159.3999999762","correct":false,"confidence":-1},{"trial_n":20,"span":6,"encoder":"578761","distractor":"578764","target":"absent","response":"absent","rt":"2600.6000000238","correct":true,"confidence":-1},{"trial_n":21,"span":6,"encoder":"236246","distractor":"236248","target":"present","response":"present","rt":"2291.5","correct":true,"confidence":5},{"trial_n":22,"span":7,"encoder":"2009533","distractor":"2609533","target":"present","response":"present","rt":"3893.8999999762","correct":true,"confidence":4},{"trial_n":23,"span":7,"encoder":"8625512","distractor":"3625512","target":"present","response":"absent","rt":"3153.1000000238","correct":false,"confidence":4},{"trial_n":24,"span":6,"encoder":"891748","distractor":"891778","target":"absent","response":"absent","rt":"3121.3999999762","correct":true,"confidence":5},{"trial_n":25,"span":6,"encoder":"605462","distractor":"635462","target":"absent","response":"absent","rt":"2237.1999999285","correct":true,"confidence":5},{"trial_n":26,"span":7,"encoder":"3237869","distractor":"3637869","target":"present","response":"present","rt":"2558.5","correct":true,"confidence":5},{"trial_n":27,"span":7,"encoder":"9393017","distractor":"9393717","target":"absent","response":"absent","rt":"4218.3999999762","correct":true,"confidence":4},{"trial_n":28,"span":8,"encoder":"82264535","distractor":"82274535","target":"absent","response":"present","rt":"5609.8000000715","correct":false,"confidence":2},{"trial_n":29,"span":7,"encoder":"4672563","distractor":"7672563","target":"present","response":"present","rt":"3287.7999999523","correct":true,"confidence":5},{"trial_n":30,"span":7,"encoder":"8419706","distractor":"8319706","target":"present","response":"present","rt":"4443","correct":true,"confidence":5},{"trial_n":31,"span":8,"encoder":"50232593","distractor":"90232593","target":"absent","response":"present","rt":"4739.3999999762","correct":false,"confidence":4},{"trial_n":32,"span":7,"encoder":"0805945","distractor":"0405945","target":"absent","response":"absent","rt":"2067.6000000238","correct":true,"confidence":5},{"trial_n":33,"span":7,"encoder":"5679585","distractor":"5679785","target":"absent","response":"present","rt":"3310","correct":false,"confidence":4},{"trial_n":34,"span":6,"encoder":"815698","distractor":"315698","target":"present","response":"present","rt":"2694.1000000238","correct":true,"confidence":5},{"trial_n":35,"span":6,"encoder":"765469","distractor":"765669","target":"absent","response":"absent","rt":"2511.3000000715","correct":true,"confidence":5},{"trial_n":36,"span":7,"encoder":"5429738","distractor":"5329738","target":"present","response":"absent","rt":"2405.8999999762","correct":false,"confidence":5},{"trial_n":37,"span":6,"encoder":"921540","distractor":"923540","target":"present","response":"present","rt":"3391.7000000477","correct":true,"confidence":4},{"trial_n":38,"span":6,"encoder":"518971","distractor":"518071","target":"present","response":"absent","rt":"1759.7999999523","correct":false,"confidence":5},{"trial_n":39,"span":5,"encoder":"74141","distractor":"54141","target":"absent","response":"absent","rt":"1579.5","correct":true,"confidence":5},{"trial_n":40,"span":5,"encoder":"42276","distractor":"42273","target":"present","response":"present","rt":"1415.6000000238","correct":true,"confidence":5},{"trial_n":41,"span":6,"encoder":"787665","distractor":"787695","target":"absent","response":"absent","rt":"2323.8999999762","correct":true,"confidence":5},{"trial_n":42,"span":6,"encoder":"488534","distractor":"488734","target":"absent","response":"absent","rt":"1885.5","correct":true,"confidence":5},{"trial_n":43,"span":7,"encoder":"1885161","distractor":"1785161","target":"present","response":"present","rt":"3401.3000000715","correct":true,"confidence":4},{"trial_n":44,"span":7,"encoder":"3332313","distractor":"3232313","target":"absent","response":"absent","rt":"1669.7000000477","correct":true,"confidence":5},{"trial_n":45,"span":8,"encoder":"17069061","distractor":"17069091","target":"absent","response":"present","rt":"6911","correct":false,"confidence":2},{"trial_n":46,"span":7,"encoder":"8585085","distractor":"0585085","target":"present","response":"present","rt":"2596","correct":true,"confidence":5},{"trial_n":47,"span":7,"encoder":"9424170","distractor":"9424270","target":"present","response":"present","rt":"2313.6000000238","correct":true,"confidence":5},{"trial_n":48,"span":8,"encoder":"52445193","distractor":"82445193","target":"present","response":"present","rt":"4387.5","correct":true,"confidence":3},{"trial_n":49,"span":8,"encoder":"70009908","distractor":"70004908","target":"present","response":"present","rt":"3458.4000000954","correct":true,"confidence":4},{"trial_n":50,"span":9,"encoder":"097795796","distractor":"097795795","target":"absent","response":"absent","rt":"4730.7000000477","correct":true,"confidence":5},{"trial_n":51,"span":9,"encoder":"260218048","distractor":"860218048","target":"present","response":"present","rt":"5557.5","correct":true,"confidence":3},{"trial_n":52,"span":10,"encoder":"4708119113","distractor":"4708189113","target":"present","response":"present","rt":"2440.2999999523","correct":true,"confidence":4},{"trial_n":53,"span":10,"encoder":"8680788516","distractor":"8680788616","target":"present","response":"absent","rt":"5767.0999999046","correct":false,"confidence":3},{"trial_n":54,"span":9,"encoder":"180888276","distractor":"180888976","target":"absent","response":"absent","rt":"2968.7999999523","correct":true,"confidence":5},{"trial_n":55,"span":9,"encoder":"494102229","distractor":"491102229","target":"absent","response":"present","rt":"2713.2000000477","correct":false,"confidence":3},{"trial_n":56,"span":8,"encoder":"53998338","distractor":"53968338","target":"absent","response":"present","rt":"4998.5","correct":false,"confidence":3},{"trial_n":57,"span":7,"encoder":"1603802","distractor":"1663802","target":"present","response":"present","rt":"3015.8999999762","correct":true,"confidence":5},{"trial_n":58,"span":7,"encoder":"0606904","distractor":"0606404","target":"present","response":"present","rt":"2800.0999999046","correct":true,"confidence":5},{"trial_n":59,"span":8,"encoder":"63108553","distractor":"63107553","target":"absent","response":"absent","rt":"3789.3999999762","correct":true,"confidence":5},{"trial_n":60,"span":8,"encoder":"65192181","distractor":"65192191","target":"present","response":"present","rt":"4538.8999999762","correct":true,"confidence":4},{"trial_n":61,"span":9,"encoder":"813813281","distractor":"513813281","target":"present","response":"present","rt":"3615.7000000477","correct":true,"confidence":5},{"trial_n":62,"span":9,"encoder":"023653844","distractor":"823653844","target":"absent","response":"absent","rt":"4137","correct":true,"confidence":3},{"trial_n":63,"span":10,"encoder":"2050398759","distractor":"2070398759","target":"present","response":"present","rt":"2827.2999999523","correct":true,"confidence":4},{"trial_n":64,"span":10,"encoder":"0321969511","distractor":"0325969511","target":"absent","response":"present","rt":"3229.1999999285","correct":false,"confidence":2},{"trial_n":65,"span":9,"encoder":"334090846","distractor":"334990846","target":"present","response":"present","rt":"2980.9000000954","correct":true,"confidence":4},{"trial_n":66,"span":9,"encoder":"260003767","distractor":"260003777","target":"present","response":"present","rt":"3528.1000000238","correct":true,"confidence":3},{"trial_n":67,"span":10,"encoder":"2800813547","distractor":"2800313547","target":"absent","response":"absent","rt":"4227.8999999762","correct":true,"confidence":5},{"trial_n":68,"span":10,"encoder":"0779482383","distractor":"0719482383","target":"present","response":"absent","rt":"11364.300000072","correct":false,"confidence":3},{"trial_n":69,"span":9,"encoder":"749383148","distractor":"729383148","target":"absent","response":"present","rt":"3722.6000000238","correct":false,"confidence":3},{"trial_n":70,"span":8,"encoder":"23359964","distractor":"23359864","target":"present","response":"present","rt":"2782.6999999285","correct":true,"confidence":5},{"trial_n":71,"span":8,"encoder":"78025983","distractor":"72025983","target":"present","response":"absent","rt":"2902.8999999762","correct":false,"confidence":-1},{"trial_n":72,"span":7,"encoder":"3176643","distractor":"3176043","target":"present","response":"present","rt":"3459.1999999285","correct":true,"confidence":-1},{"trial_n":73,"span":7,"encoder":"9496330","distractor":"9494330","target":"absent","response":"absent","rt":"2301.8999999762","correct":true,"confidence":-1},{"trial_n":74,"span":8,"encoder":"35444845","distractor":"35244845","target":"absent","response":"absent","rt":"3285.6000000238","correct":true,"confidence":-1},{"trial_n":75,"span":8,"encoder":"68610891","distractor":"68610191","target":"present","response":"present","rt":"2109.7999999523","correct":true,"confidence":-1},{"trial_n":76,"span":9,"encoder":"519786058","distractor":"519716058","target":"present","response":"present","rt":"2539.2999999523","correct":true,"confidence":-1},{"trial_n":77,"span":9,"encoder":"084363821","distractor":"884363821","target":"present","response":"present","rt":"2898.6000000238","correct":true,"confidence":-1},{"trial_n":78,"span":10,"encoder":"7651832011","distractor":"7651732011","target":"absent","response":"absent","rt":"2229","correct":true,"confidence":-1},{"trial_n":79,"span":10,"encoder":"4925100403","distractor":"4925800403","target":"present","response":"absent","rt":"1926.8999999762","correct":false,"confidence":-1},{"trial_n":80,"span":9,"encoder":"777118447","distractor":"777418447","target":"present","response":"present","rt":"2124.8000000715","correct":true,"confidence":-1},{"trial_n":81,"span":9,"encoder":"593142179","distractor":"593142177","target":"absent","response":"absent","rt":"1902.7000000477","correct":true,"confidence":-1},{"trial_n":82,"span":10,"encoder":"2068236683","distractor":"2468236683","target":"absent","response":"absent","rt":"1640.3999999762","correct":true,"confidence":-1},{"trial_n":83,"span":10,"encoder":"3893052726","distractor":"3898052726","target":"present","response":"present","rt":"1153.1000000238","correct":true,"confidence":-1},{"trial_n":84,"span":11,"encoder":"76982345228","distractor":"76982345258","target":"present","response":"present","rt":"1491.7000000477","correct":true,"confidence":-1},{"trial_n":85,"span":11,"encoder":"00661331759","distractor":"00661341759","target":"absent","response":"absent","rt":"1278.1999999285","correct":true,"confidence":-1},{"trial_n":86,"span":12,"encoder":"712084982416","distractor":"711084982416","target":"present","response":"present","rt":"446.19999992847","correct":true,"confidence":-1},{"trial_n":87,"span":12,"encoder":"324494781453","distractor":"324498781453","target":"absent","response":"present","rt":"357.39999997616","correct":false,"confidence":-1},{"trial_n":88,"span":11,"encoder":"26696608164","distractor":"26696605164","target":"present","response":"absent","rt":"871.29999995232","correct":false,"confidence":-1},{"trial_n":89,"span":10,"encoder":"0892201893","distractor":"0892201883","target":"present","response":"present","rt":"1741.0999999046","correct":true,"confidence":-1},{"trial_n":90,"span":10,"encoder":"2735598867","distractor":"2735598667","target":"present","response":"absent","rt":"1419","correct":false,"confidence":-1},{"trial_n":91,"span":9,"encoder":"374186625","distractor":"374186624","target":"present","response":"absent","rt":"571.39999997616","correct":false,"confidence":3},{"trial_n":92,"span":8,"encoder":"95189946","distractor":"95139946","target":"absent","response":"absent","rt":"1516.4000000954","correct":true,"confidence":4},{"trial_n":93,"span":8,"encoder":"51011940","distractor":"52011940","target":"present","response":"present","rt":"2091.6000000238","correct":true,"confidence":4},{"trial_n":94,"span":9,"encoder":"179471231","distractor":"189471231","target":"present","response":"present","rt":"4256.5","correct":true,"confidence":2},{"trial_n":95,"span":9,"encoder":"981920477","distractor":"781920477","target":"absent","response":"absent","rt":"1854.6999999285","correct":true,"confidence":5},{"trial_n":96,"span":10,"encoder":"4639346316","distractor":"4609346316","target":"absent","response":"present","rt":"2676.1000000238","correct":false,"confidence":1},{"trial_n":97,"span":9,"encoder":"461504606","distractor":"468504606","target":"absent","response":"present","rt":"1705.1000000238","correct":false,"confidence":3},{"trial_n":98,"span":8,"encoder":"61388554","distractor":"61388954","target":"present","response":"present","rt":"3593.5","correct":true,"confidence":5},{"trial_n":99,"span":8,"encoder":"58003418","distractor":"58003428","target":"present","response":"present","rt":"2972.7999999523","correct":true,"confidence":4},{"trial_n":100,"span":9,"encoder":"294591144","distractor":"294591184","target":"present","response":"present","rt":"1761.8000000715","correct":true,"confidence":4},{"trial_n":101,"span":9,"encoder":"528969660","distractor":"528969760","target":"present","response":"present","rt":"1895.5999999046","correct":true,"confidence":4},{"trial_n":102,"span":10,"encoder":"0423116111","distractor":"6423116111","target":"absent","response":"absent","rt":"4861.8999999762","correct":true,"confidence":3},{"trial_n":103,"span":10,"encoder":"6204054625","distractor":"6204054665","target":"absent","response":"absent","rt":"2361.9000000954","correct":true,"confidence":5},{"trial_n":104,"span":11,"encoder":"12722642836","distractor":"12762642836","target":"present","response":"present","rt":"2336.6999999285","correct":true,"confidence":5},{"trial_n":105,"span":11,"encoder":"90747982986","distractor":"90447982986","target":"absent","response":"present","rt":"3203.7999999523","correct":false,"confidence":5},{"trial_n":106,"span":10,"encoder":"5254312798","distractor":"4254312798","target":"present","response":"absent","rt":"4201","correct":false,"confidence":4},{"trial_n":107,"span":9,"encoder":"752570211","distractor":"752770211","target":"absent","response":"present","rt":"5894.8000000715","correct":false,"confidence":2},{"trial_n":108,"span":8,"encoder":"96200319","distractor":"96100319","target":"absent","response":"present","rt":"2687.8000000715","correct":false,"confidence":4},{"trial_n":109,"span":7,"encoder":"1573644","distractor":"1573646","target":"absent","response":"absent","rt":"1826.7000000477","correct":true,"confidence":5},{"trial_n":110,"span":7,"encoder":"7621286","distractor":"7621266","target":"absent","response":"absent","rt":"3461.7999999523","correct":true,"confidence":5},{"trial_n":111,"span":8,"encoder":"21916440","distractor":"21946440","target":"present","response":"present","rt":"3527.7000000477","correct":true,"confidence":5},{"trial_n":112,"span":8,"encoder":"30837050","distractor":"10837050","target":"absent","response":"present","rt":"7393.5999999046","correct":false,"confidence":3},{"trial_n":113,"span":7,"encoder":"3172262","distractor":"3171262","target":"present","response":"present","rt":"2104.7999999523","correct":true,"confidence":5},{"trial_n":114,"span":7,"encoder":"9631414","distractor":"9631410","target":"absent","response":"present","rt":"4060.6999999285","correct":false,"confidence":1},{"trial_n":115,"span":6,"encoder":"123170","distractor":"143170","target":"present","response":"present","rt":"6377.1999999285","correct":true,"confidence":3},{"trial_n":116,"span":6,"encoder":"221264","distractor":"221214","target":"present","response":"present","rt":"3165.0999999046","correct":true,"confidence":5},{"trial_n":117,"span":7,"encoder":"9452421","distractor":"9752421","target":"absent","response":"absent","rt":"2077.1000000238","correct":true,"confidence":5},{"trial_n":118,"span":7,"encoder":"4955583","distractor":"4945583","target":"present","response":"present","rt":"6180.8999999762","correct":true,"confidence":5},{"trial_n":119,"span":8,"encoder":"89950432","distractor":"89950412","target":"present","response":"absent","rt":"3377.1000000238","correct":false,"confidence":4},{"trial_n":120,"span":7,"encoder":"3363474","distractor":"3303474","target":"absent","response":"absent","rt":"2959.4000000954","correct":true,"confidence":4},{"trial_n":121,"span":7,"encoder":"0607416","distractor":"0007416","target":"absent","response":"absent","rt":"4330.3000000715","correct":true,"confidence":5},{"trial_n":122,"span":8,"encoder":"99422733","distractor":"99420733","target":"present","response":"present","rt":"4952.6000000238","correct":true,"confidence":5},{"trial_n":123,"span":8,"encoder":"26563375","distractor":"26565375","target":"present","response":"present","rt":"3061.8000000715","correct":true,"confidence":5},{"trial_n":124,"span":9,"encoder":"929018901","distractor":"929018904","target":"absent","response":"absent","rt":"5188.5","correct":true,"confidence":5},{"trial_n":125,"span":9,"encoder":"964948151","distractor":"962948151","target":"absent","response":"absent","rt":"6265.1999999285","correct":true,"confidence":3},{"trial_n":126,"span":10,"encoder":"2423717678","distractor":"2423717672","target":"absent","response":"absent","rt":"1946","correct":true,"confidence":5},{"trial_n":127,"span":10,"encoder":"4921653098","distractor":"4981653098","target":"absent","response":"present","rt":"6564.2999999523","correct":false,"confidence":3},{"trial_n":128,"span":9,"encoder":"990196059","distractor":"990196959","target":"present","response":"present","rt":"5598.7000000477","correct":true,"confidence":2},{"trial_n":129,"span":9,"encoder":"182903548","distractor":"112903548","target":"present","response":"absent","rt":"7057.5","correct":false,"confidence":3},{"trial_n":130,"span":8,"encoder":"57197079","distractor":"17197079","target":"absent","response":"absent","rt":"3974.2999999523","correct":true,"confidence":4},{"trial_n":131,"span":8,"encoder":"51234786","distractor":"51294786","target":"present","response":"absent","rt":"5649.2999999523","correct":false,"confidence":2},{"trial_n":132,"span":7,"encoder":"8439951","distractor":"8439958","target":"present","response":"present","rt":"1700.8999999762","correct":true,"confidence":5},{"trial_n":133,"span":7,"encoder":"2292662","distractor":"2212662","target":"absent","response":"absent","rt":"2275.3000000715","correct":true,"confidence":5},{"trial_n":134,"span":8,"encoder":"30748837","distractor":"30745837","target":"absent","response":"absent","rt":"2514","correct":true,"confidence":5},{"trial_n":135,"span":8,"encoder":"52563860","distractor":"52563840","target":"absent","response":"absent","rt":"2919.2000000477","correct":true,"confidence":5},{"trial_n":136,"span":9,"encoder":"380649268","distractor":"380649266","target":"absent","response":"absent","rt":"3950.0999999046","correct":true,"confidence":5},{"trial_n":137,"span":9,"encoder":"396258230","distractor":"393258230","target":"present","response":"present","rt":"7245.7999999523","correct":true,"confidence":1},{"trial_n":138,"span":10,"encoder":"2005053506","distractor":"2005053508","target":"absent","response":"absent","rt":"1900.8999999762","correct":true,"confidence":5},{"trial_n":139,"span":10,"encoder":"7442966666","distractor":"7342966666","target":"present","response":"absent","rt":"4313.7000000477","correct":false,"confidence":3},{"trial_n":140,"span":9,"encoder":"037715813","distractor":"037715803","target":"absent","response":"absent","rt":"3371.8999999762","correct":true,"confidence":5}]