[{"trial_n":1,"span":8,"encoder":"09114462","distractor":"09114662","target":"present","response":"present","rt":"2739.6000000238","correct":true,"confidence":-1},{"trial_n":2,"span":8,"encoder":"29949412","distractor":"29549412","target":"present","response":"present","rt":"1701.7000000477","correct":true,"confidence":-1},{"trial_n":3,"span":10,"encoder":"3974579983","distractor":"3979579983","target":"absent","response":"present","rt":"1802.5999999642","correct":false,"confidence":-1},{"trial_n":4,"span":8,"encoder":"03899152","distractor":"03892152","target":"absent","response":"absent","rt":"2465.1999999881","correct":true,"confidence":-1},{"trial_n":5,"span":8,"encoder":"23053161","distractor":"23051161","target":"present","response":"present","rt":"1777.5","correct":true,"confidence":-1},{"trial_n":6,"span":10,"encoder":"0380985791","distractor":"0380985795","target":"present","response":"present","rt":"2646.6000000238","correct":true,"confidence":-1},{"trial_n":7,"span":10,"encoder":"9820215643","distractor":"9220215643","target":"absent","response":"present","rt":"1118.8000000119","correct":false,"confidence":-1},{"trial_n":8,"span":8,"encoder":"30086414","distractor":"30086214","target":"absent","response":"absent","rt":"2092.6000000238","correct":true,"confidence":-1},{"trial_n":9,"span":8,"encoder":"23584474","distractor":"23582474","target":"absent","response":"absent","rt":"1943.1000000238","correct":true,"confidence":-1},{"trial_n":10,"span":10,"encoder":"6958821217","distractor":"6918821217","target":"absent","response":"present","rt":"2975.1999999881","correct":false,"confidence":-1},{"trial_n":11,"span":8,"encoder":"95843988","distractor":"95863988","target":"absent","response":"present","rt":"1867.1000000238","correct":false,"confidence":-1},{"trial_n":12,"span":7,"encoder":"2040428","distractor":"2640428","target":"present","response":"absent","rt":"2662.5","correct":false,"confidence":-1},{"trial_n":13,"span":6,"encoder":"405068","distractor":"465068","target":"present","response":"absent","rt":"1404.3000000119","correct":false,"confidence":-1},{"trial_n":14,"span":5,"encoder":"14951","distractor":"11951","target":"absent","response":"present","rt":"1657.3000000119","correct":false,"confidence":-1},{"trial_n":15,"span":4,"encoder":"4349","distractor":"4649","target":"present","response":"present","rt":"2245","correct":true,"confidence":-1},{"trial_n":16,"span":4,"encoder":"6251","distractor":"6201","target":"absent","response":"absent","rt":"1895.3999999762","correct":true,"confidence":-1},{"trial_n":17,"span":5,"encoder":"33837","distractor":"13837","target":"present","response":"present","rt":"1427.3999999762","correct":true,"confidence":-1},{"trial_n":18,"span":5,"encoder":"83714","distractor":"33714","target":"present","response":"present","rt":"1233.8000000119","correct":true,"confidence":-1},{"trial_n":19,"span":6,"encoder":"649015","distractor":"649115","target":"present","response":"present","rt":"1647.6000000238","correct":true,"confidence":-1},{"trial_n":20,"span":6,"encoder":"958523","distractor":"958503","target":"present","response":"present","rt":"1534.8999999762","correct":true,"confidence":-1},{"trial_n":21,"span":7,"encoder":"8737876","distractor":"8737870","target":"absent","response":"absent","rt":"2131","correct":true,"confidence":5},{"trial_n":22,"span":7,"encoder":"4154133","distractor":"4174133","target":"absent","response":"present","rt":"1967","correct":false,"confidence":3},{"trial_n":23,"span":6,"encoder":"159091","distractor":"159097","target":"absent","response":"absent","rt":"1707.1999999881","correct":true,"confidence":5},{"trial_n":24,"span":6,"encoder":"298673","distractor":"298670","target":"present","response":"present","rt":"2148.1999999881","correct":true,"confidence":4},{"trial_n":25,"span":7,"encoder":"5303418","distractor":"5305418","target":"absent","response":"present","rt":"2175.8999999762","correct":false,"confidence":3},{"trial_n":26,"span":6,"encoder":"223998","distractor":"123998","target":"absent","response":"absent","rt":"2082.5999999642","correct":true,"confidence":4},{"trial_n":27,"span":6,"encoder":"632458","distractor":"637458","target":"present","response":"present","rt":"6421.1999999881","correct":true,"confidence":2},{"trial_n":28,"span":7,"encoder":"9033739","distractor":"9133739","target":"present","response":"absent","rt":"2012.1999999881","correct":false,"confidence":3},{"trial_n":29,"span":6,"encoder":"228571","distractor":"228551","target":"present","response":"present","rt":"2078.5","correct":true,"confidence":3},{"trial_n":30,"span":6,"encoder":"273496","distractor":"273466","target":"present","response":"absent","rt":"4392.3000000119","correct":false,"confidence":2},{"trial_n":31,"span":5,"encoder":"10582","distractor":"10512","target":"absent","response":"absent","rt":"1584.1000000238","correct":true,"confidence":5},{"trial_n":32,"span":5,"encoder":"24928","distractor":"24958","target":"absent","response":"present","rt":"2290.0999999642","correct":false,"confidence":4},{"trial_n":33,"span":4,"encoder":"0465","distractor":"0865","target":"present","response":"present","rt":"2169.1999999881","correct":true,"confidence":3},{"trial_n":34,"span":4,"encoder":"4710","distractor":"0710","target":"present","response":"present","rt":"2154.6000000238","correct":true,"confidence":4},{"trial_n":35,"span":5,"encoder":"94671","distractor":"94621","target":"absent","response":"absent","rt":"2158.8999999762","correct":true,"confidence":4},{"trial_n":36,"span":5,"encoder":"74102","distractor":"74132","target":"present","response":"absent","rt":"3728.2000000477","correct":false,"confidence":2},{"trial_n":37,"span":4,"encoder":"9032","distractor":"9432","target":"present","response":"present","rt":"1726.6000000238","correct":true,"confidence":5},{"trial_n":38,"span":4,"encoder":"3493","distractor":"7493","target":"absent","response":"absent","rt":"3218.5","correct":true,"confidence":4},{"trial_n":39,"span":5,"encoder":"90096","distractor":"96096","target":"absent","response":"absent","rt":"1485.4000000358","correct":true,"confidence":5},{"trial_n":40,"span":5,"encoder":"55943","distractor":"56943","target":"present","response":"present","rt":"2631.8999999762","correct":true,"confidence":4},{"trial_n":41,"span":6,"encoder":"921156","distractor":"991156","target":"present","response":"present","rt":"1583","correct":true,"confidence":4},{"trial_n":42,"span":6,"encoder":"965785","distractor":"965085","target":"present","response":"present","rt":"2367.6000000238","correct":true,"confidence":3},{"trial_n":43,"span":7,"encoder":"1821997","distractor":"1827997","target":"present","response":"present","rt":"1332","correct":true,"confidence":3},{"trial_n":44,"span":7,"encoder":"0041856","distractor":"0049856","target":"absent","response":"absent","rt":"3716.1999999881","correct":true,"confidence":2},{"trial_n":45,"span":8,"encoder":"12829313","distractor":"42829313","target":"present","response":"present","rt":"1233.8000000119","correct":true,"confidence":2},{"trial_n":46,"span":8,"encoder":"14877062","distractor":"14977062","target":"absent","response":"present","rt":"1572.5999999642","correct":false,"confidence":4},{"trial_n":47,"span":7,"encoder":"2013374","distractor":"2013344","target":"absent","response":"absent","rt":"1444.3000000119","correct":true,"confidence":4},{"trial_n":48,"span":7,"encoder":"5007118","distractor":"6007118","target":"present","response":"present","rt":"1776.1999999881","correct":true,"confidence":5},{"trial_n":49,"span":8,"encoder":"58759985","distractor":"58779985","target":"absent","response":"present","rt":"2689.1999999881","correct":false,"confidence":3},{"trial_n":50,"span":7,"encoder":"5134382","distractor":"5534382","target":"absent","response":"absent","rt":"2047.4000000358","correct":true,"confidence":5},{"trial_n":51,"span":7,"encoder":"4764854","distractor":"0764854","target":"present","response":"absent","rt":"2246.6999999881","correct":false,"confidence":4},{"trial_n":52,"span":6,"encoder":"379675","distractor":"375675","target":"present","response":"present","rt":"3180.1000000238","correct":true,"confidence":3},{"trial_n":53,"span":6,"encoder":"837892","distractor":"817892","target":"absent","response":"absent","rt":"4051.1999999881","correct":true,"confidence":3},{"trial_n":54,"span":7,"encoder":"5357938","distractor":"5357928","target":"absent","response":"absent","rt":"3210.6999999881","correct":true,"confidence":3},{"trial_n":55,"span":7,"encoder":"7411672","distractor":"7411692","target":"absent","response":"absent","rt":"1773.6999999881","correct":true,"confidence":4},{"trial_n":56,"span":8,"encoder":"69921729","distractor":"69901729","target":"absent","response":"absent","rt":"4117.2000000477","correct":true,"confidence":4},{"trial_n":57,"span":8,"encoder":"60520618","distractor":"60526618","target":"present","response":"present","rt":"3047","correct":true,"confidence":4},{"trial_n":58,"span":9,"encoder":"268475514","distractor":"268473514","target":"absent","response":"absent","rt":"2988.8999999762","correct":true,"confidence":5},{"trial_n":59,"span":9,"encoder":"041529607","distractor":"041929607","target":"present","response":"present","rt":"1935.9000000358","correct":true,"confidence":4},{"trial_n":60,"span":10,"encoder":"8695295132","distractor":"8695295152","target":"absent","response":"absent","rt":"2823.7999999523","correct":true,"confidence":5},{"trial_n":61,"span":10,"encoder":"7503812836","distractor":"7503812036","target":"absent","response":"present","rt":"3168.9000000358","correct":false,"confidence":3},{"trial_n":62,"span":9,"encoder":"735064002","distractor":"734064002","target":"present","response":"present","rt":"2092.8000000119","correct":true,"confidence":4},{"trial_n":63,"span":9,"encoder":"550749378","distractor":"150749378","target":"present","response":"absent","rt":"4721.7999999523","correct":false,"confidence":1},{"trial_n":64,"span":8,"encoder":"09648768","distractor":"09646768","target":"absent","response":"present","rt":"1861.8999999762","correct":false,"confidence":3},{"trial_n":65,"span":7,"encoder":"1764260","distractor":"1704260","target":"present","response":"present","rt":"1779.3000000119","correct":true,"confidence":4},{"trial_n":66,"span":7,"encoder":"5611238","distractor":"5611234","target":"present","response":"present","rt":"1508.3000000119","correct":true,"confidence":3},{"trial_n":67,"span":8,"encoder":"62383366","distractor":"62380366","target":"present","response":"present","rt":"2441.3000000119","correct":true,"confidence":3},{"trial_n":68,"span":8,"encoder":"98283818","distractor":"98583818","target":"absent","response":"present","rt":"2713.4000000358","correct":false,"confidence":2},{"trial_n":69,"span":7,"encoder":"1514983","distractor":"1517983","target":"absent","response":"present","rt":"2586","correct":false,"confidence":4},{"trial_n":70,"span":6,"encoder":"329269","distractor":"329769","target":"present","response":"present","rt":"2404.2000000477","correct":true,"confidence":5},{"trial_n":71,"span":8,"encoder":"56490421","distractor":"56490441","target":"present","response":"present","rt":"2457.6999999881","correct":true,"confidence":-1},{"trial_n":72,"span":8,"encoder":"41191186","distractor":"41111186","target":"present","response":"present","rt":"1814.8000000119","correct":true,"confidence":-1},{"trial_n":73,"span":9,"encoder":"547940314","distractor":"047940314","target":"absent","response":"present","rt":"2784.2000000477","correct":false,"confidence":-1},{"trial_n":74,"span":8,"encoder":"56927775","distractor":"56924775","target":"absent","response":"absent","rt":"2218","correct":true,"confidence":-1},{"trial_n":75,"span":8,"encoder":"52251823","distractor":"50251823","target":"present","response":"absent","rt":"6538.5","correct":false,"confidence":-1},{"trial_n":76,"span":7,"encoder":"9431707","distractor":"9431708","target":"present","response":"present","rt":"1402.6999999881","correct":true,"confidence":-1},{"trial_n":77,"span":7,"encoder":"1840179","distractor":"1840172","target":"present","response":"present","rt":"1272.9000000358","correct":true,"confidence":-1},{"trial_n":78,"span":8,"encoder":"91976941","distractor":"91976911","target":"absent","response":"absent","rt":"1210.5","correct":true,"confidence":-1},{"trial_n":79,"span":8,"encoder":"52603756","distractor":"52613756","target":"present","response":"present","rt":"4480","correct":true,"confidence":-1},{"trial_n":80,"span":9,"encoder":"184369307","distractor":"184363307","target":"absent","response":"absent","rt":"2420","correct":true,"confidence":-1},{"trial_n":81,"span":9,"encoder":"860522709","distractor":"860522209","target":"absent","response":"absent","rt":"5702.1000000238","correct":true,"confidence":-1},{"trial_n":82,"span":10,"encoder":"0815102726","distractor":"0835102726","target":"absent","response":"present","rt":"2916.1999999881","correct":false,"confidence":-1},{"trial_n":83,"span":9,"encoder":"540287766","distractor":"640287766","target":"absent","response":"present","rt":"2241.3999999762","correct":false,"confidence":-1},{"trial_n":84,"span":8,"encoder":"87251195","distractor":"87251145","target":"present","response":"present","rt":"1481.5","correct":true,"confidence":-1},{"trial_n":85,"span":8,"encoder":"33366532","distractor":"33366538","target":"absent","response":"present","rt":"3275.4000000358","correct":false,"confidence":-1},{"trial_n":86,"span":7,"encoder":"1806093","distractor":"1846093","target":"present","response":"present","rt":"3835.3000000119","correct":true,"confidence":-1},{"trial_n":87,"span":7,"encoder":"1141484","distractor":"1141284","target":"present","response":"present","rt":"2735.7999999523","correct":true,"confidence":-1},{"trial_n":88,"span":8,"encoder":"42942363","distractor":"42949363","target":"present","response":"present","rt":"1376.2000000477","correct":true,"confidence":-1},{"trial_n":89,"span":8,"encoder":"44429781","distractor":"44429741","target":"absent","response":"present","rt":"2873.3000000119","correct":false,"confidence":-1},{"trial_n":90,"span":7,"encoder":"1103617","distractor":"1101617","target":"present","response":"absent","rt":"1967.4000000358","correct":false,"confidence":-1},{"trial_n":91,"span":6,"encoder":"521676","distractor":"921676","target":"present","response":"present","rt":"2961.0999999642","correct":true,"confidence":5},{"trial_n":92,"span":6,"encoder":"073119","distractor":"073116","target":"absent","response":"absent","rt":"3610.6000000238","correct":true,"confidence":4},{"trial_n":93,"span":7,"encoder":"6099694","distractor":"6092694","target":"present","response":"present","rt":"3771.6000000238","correct":true,"confidence":3},{"trial_n":94,"span":7,"encoder":"9613290","distractor":"9313290","target":"absent","response":"present","rt":"4458","correct":false,"confidence":2},{"trial_n":95,"span":6,"encoder":"669820","distractor":"663820","target":"present","response":"present","rt":"4255.6000000238","correct":true,"confidence":3},{"trial_n":96,"span":6,"encoder":"543742","distractor":"543752","target":"absent","response":"absent","rt":"4233.8000000119","correct":true,"confidence":5},{"trial_n":97,"span":7,"encoder":"7117366","distractor":"7137366","target":"present","response":"present","rt":"3106.1000000238","correct":true,"confidence":5},{"trial_n":98,"span":7,"encoder":"5142868","distractor":"5042868","target":"absent","response":"absent","rt":"3919.6000000238","correct":true,"confidence":4},{"trial_n":99,"span":8,"encoder":"78283207","distractor":"98283207","target":"present","response":"present","rt":"9254.3000000119","correct":true,"confidence":2},{"trial_n":100,"span":8,"encoder":"66495049","distractor":"96495049","target":"present","response":"present","rt":"2395.3999999762","correct":true,"confidence":4},{"trial_n":101,"span":9,"encoder":"679130296","distractor":"679136296","target":"absent","response":"present","rt":"5840.6000000238","correct":false,"confidence":3},{"trial_n":102,"span":8,"encoder":"20620838","distractor":"40620838","target":"absent","response":"absent","rt":"3749.1000000238","correct":true,"confidence":4},{"trial_n":103,"span":8,"encoder":"61869419","distractor":"61861419","target":"absent","response":"absent","rt":"3485.5999999642","correct":true,"confidence":5},{"trial_n":104,"span":9,"encoder":"380751756","distractor":"330751756","target":"present","response":"present","rt":"2911.4000000358","correct":true,"confidence":3},{"trial_n":105,"span":9,"encoder":"434751070","distractor":"034751070","target":"absent","response":"absent","rt":"3706","correct":true,"confidence":2},{"trial_n":106,"span":10,"encoder":"1241234369","distractor":"1541234369","target":"present","response":"present","rt":"5733.6999999881","correct":true,"confidence":2},{"trial_n":107,"span":10,"encoder":"5116058845","distractor":"5116058045","target":"absent","response":"absent","rt":"1504","correct":true,"confidence":5},{"trial_n":108,"span":11,"encoder":"92293728674","distractor":"92293718674","target":"absent","response":"absent","rt":"5959.7999999523","correct":true,"confidence":3},{"trial_n":109,"span":11,"encoder":"88295259134","distractor":"88895259134","target":"absent","response":"present","rt":"5189.1999999881","correct":false,"confidence":3},{"trial_n":110,"span":10,"encoder":"8131280554","distractor":"8191280554","target":"absent","response":"absent","rt":"7397.4000000358","correct":true,"confidence":2},{"trial_n":111,"span":10,"encoder":"7875343533","distractor":"7875333533","target":"present","response":"present","rt":"7659.6000000238","correct":true,"confidence":3},{"trial_n":112,"span":11,"encoder":"54134692108","distractor":"54184692108","target":"present","response":"absent","rt":"8277.8000000119","correct":false,"confidence":2},{"trial_n":113,"span":10,"encoder":"3946502106","distractor":"3946532106","target":"absent","response":"present","rt":"6052.1999999881","correct":false,"confidence":2},{"trial_n":114,"span":9,"encoder":"239210666","distractor":"239210366","target":"present","response":"present","rt":"1474.3999999762","correct":true,"confidence":5},{"trial_n":115,"span":9,"encoder":"166279489","distractor":"166279429","target":"present","response":"absent","rt":"7145.0999999642","correct":false,"confidence":3},{"trial_n":116,"span":8,"encoder":"35285508","distractor":"35485508","target":"present","response":"absent","rt":"5943.8999999762","correct":false,"confidence":3},{"trial_n":117,"span":7,"encoder":"1485050","distractor":"2485050","target":"absent","response":"absent","rt":"3564.6000000238","correct":true,"confidence":3},{"trial_n":118,"span":7,"encoder":"5759680","distractor":"0759680","target":"absent","response":"absent","rt":"2736.5","correct":true,"confidence":4},{"trial_n":119,"span":8,"encoder":"57544350","distractor":"57584350","target":"absent","response":"absent","rt":"3338.3999999762","correct":true,"confidence":5},{"trial_n":120,"span":8,"encoder":"68770152","distractor":"98770152","target":"present","response":"present","rt":"3463.8000000119","correct":true,"confidence":5},{"trial_n":121,"span":9,"encoder":"882591746","distractor":"882599746","target":"present","response":"present","rt":"6401.6000000238","correct":true,"confidence":1},{"trial_n":122,"span":9,"encoder":"317673266","distractor":"317573266","target":"present","response":"absent","rt":"3013.0999999642","correct":false,"confidence":2},{"trial_n":123,"span":8,"encoder":"38522928","distractor":"38522927","target":"present","response":"present","rt":"2261.8000000119","correct":true,"confidence":4},{"trial_n":124,"span":8,"encoder":"68813554","distractor":"68413554","target":"absent","response":"absent","rt":"5526.3000000119","correct":true,"confidence":5},{"trial_n":125,"span":9,"encoder":"197805810","distractor":"193805810","target":"present","response":"present","rt":"6042.3000000119","correct":true,"confidence":2},{"trial_n":126,"span":9,"encoder":"010805756","distractor":"010805755","target":"absent","response":"absent","rt":"1310.3000000119","correct":true,"confidence":5},{"trial_n":127,"span":10,"encoder":"4705569610","distractor":"4704569610","target":"present","response":"present","rt":"4015.4000000358","correct":true,"confidence":4},{"trial_n":128,"span":10,"encoder":"4650964056","distractor":"4650964058","target":"absent","response":"absent","rt":"3563.6999999881","correct":true,"confidence":5},{"trial_n":129,"span":11,"encoder":"37605098987","distractor":"37605098887","target":"present","response":"present","rt":"1532.4000000358","correct":true,"confidence":5},{"trial_n":130,"span":11,"encoder":"49205427065","distractor":"49205428065","target":"absent","response":"absent","rt":"3551.5999999642","correct":true,"confidence":3},{"trial_n":131,"span":12,"encoder":"690822152060","distractor":"696822152060","target":"absent","response":"absent","rt":"6761.5999999642","correct":true,"confidence":3},{"trial_n":132,"span":12,"encoder":"370311921923","distractor":"360311921923","target":"present","response":"present","rt":"6513.4000000358","correct":true,"confidence":3},{"trial_n":133,"span":13,"encoder":"2678105198943","distractor":"2678105098943","target":"present","response":"present","rt":"8916.5","correct":true,"confidence":3},{"trial_n":134,"span":13,"encoder":"9809248251876","distractor":"9899248251876","target":"present","response":"present","rt":"5372.6999999881","correct":true,"confidence":3},{"trial_n":135,"span":14,"encoder":"50807492924195","distractor":"50807692924195","target":"absent","response":"absent","rt":"8177.3999999762","correct":true,"confidence":3},{"trial_n":136,"span":14,"encoder":"25815997069961","distractor":"25895997069961","target":"absent","response":"absent","rt":"7398.1000000238","correct":true,"confidence":3},{"trial_n":137,"span":15,"encoder":"413445684570989","distractor":"413485684570989","target":"absent","response":"absent","rt":"12236","correct":true,"confidence":2},{"trial_n":138,"span":15,"encoder":"621882064457870","distractor":"621892064457870","target":"present","response":"absent","rt":"8080.3999999762","correct":false,"confidence":2},{"trial_n":139,"span":14,"encoder":"77336875293080","distractor":"77336875293380","target":"present","response":"absent","rt":"4301.7000000477","correct":false,"confidence":2},{"trial_n":140,"span":13,"encoder":"2979885081711","distractor":"2979985081711","target":"absent","response":"absent","rt":"3372.1999999881","correct":true,"confidence":5}]