[{"trial_n":1,"min":25,"max":230,"target":"present","response":"present","rt":7632,"correct":true,"confidence":-1},{"trial_n":2,"min":25,"max":230,"target":"present","response":"present","rt":1019,"correct":true,"confidence":-1},{"trial_n":3,"min":41,"max":214,"target":"absent","response":"absent","rt":1106,"correct":true,"confidence":-1},{"trial_n":4,"min":41,"max":214,"target":"absent","response":"absent","rt":754.99999999999,"correct":true,"confidence":-1},{"trial_n":5,"min":57,"max":198,"target":"present","response":"present","rt":1091,"correct":true,"confidence":-1},{"trial_n":6,"min":57,"max":198,"target":"absent","response":"present","rt":1268,"correct":false,"confidence":-1},{"trial_n":7,"min":41,"max":214,"target":"absent","response":"absent","rt":893,"correct":true,"confidence":-1},{"trial_n":8,"min":41,"max":214,"target":"present","response":"present","rt":969,"correct":true,"confidence":-1},{"trial_n":9,"min":57,"max":198,"target":"present","response":"present","rt":718.00000000001,"correct":true,"confidence":-1},{"trial_n":10,"min":57,"max":198,"target":"present","response":"present","rt":1235,"correct":true,"confidence":-1},{"trial_n":11,"min":65,"max":190,"target":"absent","response":"absent","rt":875,"correct":true,"confidence":-1},{"trial_n":12,"min":65,"max":190,"target":"present","response":"present","rt":1027,"correct":true,"confidence":-1},{"trial_n":13,"min":73,"max":182,"target":"absent","response":"absent","rt":833,"correct":true,"confidence":-1},{"trial_n":14,"min":73,"max":182,"target":"absent","response":"absent","rt":739,"correct":true,"confidence":-1},{"trial_n":15,"min":81,"max":174,"target":"present","response":"present","rt":936.99999999999,"correct":true,"confidence":-1},{"trial_n":16,"min":81,"max":174,"target":"present","response":"present","rt":805,"correct":true,"confidence":-1},{"trial_n":17,"min":89,"max":166,"target":"absent","response":"absent","rt":854,"correct":true,"confidence":-1},{"trial_n":18,"min":89,"max":166,"target":"absent","response":"absent","rt":795,"correct":true,"confidence":-1},{"trial_n":19,"min":97,"max":158,"target":"present","response":"absent","rt":670.99999999999,"correct":false,"confidence":-1},{"trial_n":20,"min":89,"max":166,"target":"absent","response":"absent","rt":835,"correct":true,"confidence":-1},{"trial_n":21,"min":89,"max":166,"target":"absent","response":"absent","rt":829.00000000001,"correct":true,"confidence":4},{"trial_n":22,"min":93,"max":162,"target":"present","response":"absent","rt":1410,"correct":false,"confidence":1},{"trial_n":23,"min":89,"max":166,"target":"present","response":"absent","rt":811,"correct":false,"confidence":3},{"trial_n":24,"min":85,"max":170,"target":"absent","response":"absent","rt":3392,"correct":true,"confidence":5},{"trial_n":25,"min":85,"max":170,"target":"absent","response":"absent","rt":849,"correct":true,"confidence":5},{"trial_n":26,"min":89,"max":166,"target":"absent","response":"absent","rt":799,"correct":true,"confidence":5},{"trial_n":27,"min":89,"max":166,"target":"present","response":"absent","rt":919,"correct":false,"confidence":5},{"trial_n":28,"min":85,"max":170,"target":"present","response":"absent","rt":1065,"correct":false,"confidence":5},{"trial_n":29,"min":81,"max":174,"target":"present","response":"absent","rt":1029,"correct":false,"confidence":5},{"trial_n":30,"min":77,"max":178,"target":"present","response":"present","rt":1118,"correct":true,"confidence":4},{"trial_n":31,"min":77,"max":178,"target":"absent","response":"absent","rt":886,"correct":true,"confidence":4},{"trial_n":32,"min":79,"max":176,"target":"absent","response":"absent","rt":807.99999999997,"correct":true,"confidence":4},{"trial_n":33,"min":79,"max":176,"target":"present","response":"present","rt":981.99999999997,"correct":true,"confidence":5},{"trial_n":34,"min":81,"max":174,"target":"absent","response":"present","rt":1691,"correct":false,"confidence":4},{"trial_n":35,"min":79,"max":176,"target":"absent","response":"absent","rt":925,"correct":true,"confidence":1},{"trial_n":36,"min":79,"max":176,"target":"absent","response":"absent","rt":900.99999999997,"correct":true,"confidence":5},{"trial_n":37,"min":81,"max":174,"target":"present","response":"present","rt":1376,"correct":true,"confidence":5},{"trial_n":38,"min":81,"max":174,"target":"present","response":"absent","rt":730,"correct":false,"confidence":3},{"trial_n":39,"min":79,"max":176,"target":"absent","response":"present","rt":1939,"correct":false,"confidence":3},{"trial_n":40,"min":77,"max":178,"target":"absent","response":"absent","rt":897,"correct":true,"confidence":4},{"trial_n":41,"min":77,"max":178,"target":"present","response":"present","rt":1169,"correct":true,"confidence":4},{"trial_n":42,"min":78,"max":177,"target":"absent","response":"absent","rt":1261,"correct":true,"confidence":2},{"trial_n":43,"min":78,"max":177,"target":"absent","response":"present","rt":1081,"correct":false,"confidence":5},{"trial_n":44,"min":77,"max":178,"target":"absent","response":"absent","rt":1555,"correct":true,"confidence":1},{"trial_n":45,"min":77,"max":178,"target":"present","response":"present","rt":1037,"correct":true,"confidence":5},{"trial_n":46,"min":78,"max":177,"target":"absent","response":"present","rt":1177,"correct":false,"confidence":3},{"trial_n":47,"min":77,"max":178,"target":"present","response":"present","rt":1088,"correct":true,"confidence":5},{"trial_n":48,"min":77,"max":178,"target":"present","response":"present","rt":1024,"correct":true,"confidence":5},{"trial_n":49,"min":78,"max":177,"target":"present","response":"present","rt":1077,"correct":true,"confidence":5},{"trial_n":50,"min":78,"max":177,"target":"present","response":"present","rt":1045,"correct":true,"confidence":5},{"trial_n":51,"min":79,"max":176,"target":"absent","response":"absent","rt":1287,"correct":true,"confidence":2},{"trial_n":52,"min":79,"max":176,"target":"present","response":"absent","rt":963,"correct":false,"confidence":4},{"trial_n":53,"min":78,"max":177,"target":"present","response":"absent","rt":700,"correct":false,"confidence":1},{"trial_n":54,"min":77,"max":178,"target":"absent","response":"absent","rt":999,"correct":true,"confidence":1},{"trial_n":55,"min":77,"max":178,"target":"absent","response":"present","rt":923,"correct":false,"confidence":2},{"trial_n":56,"min":76,"max":179,"target":"absent","response":"absent","rt":834,"correct":true,"confidence":5},{"trial_n":57,"min":76,"max":179,"target":"absent","response":"absent","rt":990,"correct":true,"confidence":3},{"trial_n":58,"min":77,"max":178,"target":"absent","response":"absent","rt":1218,"correct":true,"confidence":1},{"trial_n":59,"min":77,"max":178,"target":"present","response":"present","rt":1119.0000000001,"correct":true,"confidence":4},{"trial_n":60,"min":78,"max":177,"target":"present","response":"present","rt":1141,"correct":true,"confidence":5},{"trial_n":61,"min":78,"max":177,"target":"present","response":"present","rt":1246,"correct":true,"confidence":5},{"trial_n":62,"min":79,"max":176,"target":"present","response":"absent","rt":1564,"correct":false,"confidence":2},{"trial_n":63,"min":78,"max":177,"target":"present","response":"present","rt":1130,"correct":true,"confidence":5},{"trial_n":64,"min":78,"max":177,"target":"present","response":"present","rt":991.00000000006,"correct":true,"confidence":5},{"trial_n":65,"min":79,"max":176,"target":"present","response":"present","rt":1311.0000000001,"correct":true,"confidence":4},{"trial_n":66,"min":79,"max":176,"target":"absent","response":"absent","rt":966,"correct":true,"confidence":3},{"trial_n":67,"min":80,"max":175,"target":"present","response":"present","rt":1180,"correct":true,"confidence":4},{"trial_n":68,"min":80,"max":175,"target":"absent","response":"absent","rt":1678,"correct":true,"confidence":5},{"trial_n":69,"min":81,"max":174,"target":"absent","response":"absent","rt":1448,"correct":true,"confidence":2},{"trial_n":70,"min":81,"max":174,"target":"present","response":"absent","rt":1234.0000000001,"correct":false,"confidence":3},{"trial_n":71,"min":41,"max":214,"target":"present","response":"present","rt":5703,"correct":true,"confidence":-1},{"trial_n":72,"min":41,"max":214,"target":"present","response":"present","rt":1368,"correct":true,"confidence":-1},{"trial_n":73,"min":57,"max":198,"target":"absent","response":"absent","rt":1022,"correct":true,"confidence":-1},{"trial_n":74,"min":57,"max":198,"target":"absent","response":"absent","rt":1174,"correct":true,"confidence":-1},{"trial_n":75,"min":73,"max":182,"target":"present","response":"absent","rt":1233,"correct":false,"confidence":-1},{"trial_n":76,"min":57,"max":198,"target":"present","response":"present","rt":957,"correct":true,"confidence":-1},{"trial_n":77,"min":57,"max":198,"target":"absent","response":"absent","rt":1188,"correct":true,"confidence":-1},{"trial_n":78,"min":73,"max":182,"target":"present","response":"present","rt":860.99999999994,"correct":true,"confidence":-1},{"trial_n":79,"min":73,"max":182,"target":"absent","response":"absent","rt":990,"correct":true,"confidence":-1},{"trial_n":80,"min":89,"max":166,"target":"present","response":"absent","rt":1036,"correct":false,"confidence":-1},{"trial_n":81,"min":81,"max":174,"target":"present","response":"present","rt":2126,"correct":true,"confidence":-1},{"trial_n":82,"min":81,"max":174,"target":"present","response":"present","rt":1129,"correct":true,"confidence":-1},{"trial_n":83,"min":89,"max":166,"target":"present","response":"present","rt":1207,"correct":true,"confidence":-1},{"trial_n":84,"min":89,"max":166,"target":"present","response":"present","rt":961.00000000006,"correct":true,"confidence":-1},{"trial_n":85,"min":97,"max":158,"target":"absent","response":"present","rt":1122.9999999999,"correct":false,"confidence":-1},{"trial_n":86,"min":89,"max":166,"target":"absent","response":"present","rt":1248.9999999999,"correct":false,"confidence":-1},{"trial_n":87,"min":81,"max":174,"target":"present","response":"absent","rt":1101,"correct":false,"confidence":-1},{"trial_n":88,"min":73,"max":182,"target":"present","response":"present","rt":734,"correct":true,"confidence":-1},{"trial_n":89,"min":73,"max":182,"target":"present","response":"present","rt":760,"correct":true,"confidence":-1},{"trial_n":90,"min":81,"max":174,"target":"absent","response":"absent","rt":1006,"correct":true,"confidence":-1},{"trial_n":91,"min":81,"max":174,"target":"absent","response":"absent","rt":1106,"correct":true,"confidence":4},{"trial_n":92,"min":85,"max":170,"target":"absent","response":"present","rt":1668.9999999999,"correct":false,"confidence":3},{"trial_n":93,"min":81,"max":174,"target":"absent","response":"present","rt":1157,"correct":false,"confidence":1},{"trial_n":94,"min":77,"max":178,"target":"absent","response":"absent","rt":1204.9999999999,"correct":true,"confidence":5},{"trial_n":95,"min":77,"max":178,"target":"present","response":"present","rt":1599,"correct":true,"confidence":5},{"trial_n":96,"min":81,"max":174,"target":"present","response":"present","rt":1055.9999999999,"correct":true,"confidence":4},{"trial_n":97,"min":81,"max":174,"target":"present","response":"present","rt":1147,"correct":true,"confidence":2},{"trial_n":98,"min":85,"max":170,"target":"present","response":"present","rt":1099,"correct":true,"confidence":4},{"trial_n":99,"min":85,"max":170,"target":"absent","response":"absent","rt":880,"correct":true,"confidence":3},{"trial_n":100,"min":89,"max":166,"target":"absent","response":"absent","rt":1224.0000000001,"correct":true,"confidence":2},{"trial_n":101,"min":89,"max":166,"target":"absent","response":"absent","rt":1054,"correct":true,"confidence":1},{"trial_n":102,"min":91,"max":164,"target":"present","response":"present","rt":1465,"correct":true,"confidence":4},{"trial_n":103,"min":91,"max":164,"target":"absent","response":"absent","rt":1060,"correct":true,"confidence":1},{"trial_n":104,"min":93,"max":162,"target":"absent","response":"absent","rt":1339,"correct":true,"confidence":1},{"trial_n":105,"min":93,"max":162,"target":"present","response":"absent","rt":1123,"correct":false,"confidence":1},{"trial_n":106,"min":91,"max":164,"target":"present","response":"present","rt":1700,"correct":true,"confidence":1},{"trial_n":107,"min":91,"max":164,"target":"absent","response":"present","rt":1337,"correct":false,"confidence":1},{"trial_n":108,"min":89,"max":166,"target":"present","response":"present","rt":1248,"correct":true,"confidence":4},{"trial_n":109,"min":89,"max":166,"target":"absent","response":"present","rt":1012,"correct":false,"confidence":4},{"trial_n":110,"min":87,"max":168,"target":"absent","response":"absent","rt":1578,"correct":true,"confidence":2},{"trial_n":111,"min":87,"max":168,"target":"absent","response":"absent","rt":1712,"correct":true,"confidence":2},{"trial_n":112,"min":88,"max":167,"target":"absent","response":"absent","rt":1319,"correct":true,"confidence":4},{"trial_n":113,"min":88,"max":167,"target":"present","response":"present","rt":932,"correct":true,"confidence":4},{"trial_n":114,"min":89,"max":166,"target":"present","response":"present","rt":925.99999999988,"correct":true,"confidence":2},{"trial_n":115,"min":89,"max":166,"target":"absent","response":"absent","rt":968,"correct":true,"confidence":1},{"trial_n":116,"min":90,"max":165,"target":"present","response":"present","rt":791.00000000012,"correct":true,"confidence":4},{"trial_n":117,"min":90,"max":165,"target":"present","response":"present","rt":773,"correct":true,"confidence":5},{"trial_n":118,"min":91,"max":164,"target":"absent","response":"present","rt":1059,"correct":false,"confidence":4},{"trial_n":119,"min":90,"max":165,"target":"absent","response":"present","rt":1021.9999999999,"correct":false,"confidence":3},{"trial_n":120,"min":89,"max":166,"target":"present","response":"absent","rt":881.00000000012,"correct":false,"confidence":1},{"trial_n":121,"min":88,"max":167,"target":"absent","response":"present","rt":1104,"correct":false,"confidence":4},{"trial_n":122,"min":87,"max":168,"target":"absent","response":"present","rt":839,"correct":false,"confidence":5},{"trial_n":123,"min":86,"max":169,"target":"present","response":"present","rt":1190,"correct":true,"confidence":5},{"trial_n":124,"min":86,"max":169,"target":"absent","response":"absent","rt":893,"correct":true,"confidence":4},{"trial_n":125,"min":87,"max":168,"target":"absent","response":"present","rt":891,"correct":false,"confidence":3},{"trial_n":126,"min":86,"max":169,"target":"present","response":"present","rt":755,"correct":true,"confidence":5},{"trial_n":127,"min":86,"max":169,"target":"present","response":"present","rt":895,"correct":true,"confidence":5},{"trial_n":128,"min":87,"max":168,"target":"present","response":"absent","rt":614.00000000012,"correct":false,"confidence":2},{"trial_n":129,"min":86,"max":169,"target":"absent","response":"absent","rt":1577,"correct":true,"confidence":1},{"trial_n":130,"min":86,"max":169,"target":"present","response":"present","rt":618,"correct":true,"confidence":5},{"trial_n":131,"min":87,"max":168,"target":"present","response":"present","rt":903,"correct":true,"confidence":4},{"trial_n":132,"min":87,"max":168,"target":"absent","response":"present","rt":986,"correct":false,"confidence":5},{"trial_n":133,"min":86,"max":169,"target":"present","response":"present","rt":828,"correct":true,"confidence":5},{"trial_n":134,"min":86,"max":169,"target":"present","response":"present","rt":943,"correct":true,"confidence":5},{"trial_n":135,"min":87,"max":168,"target":"present","response":"present","rt":1030,"correct":true,"confidence":5},{"trial_n":136,"min":87,"max":168,"target":"absent","response":"present","rt":1399,"correct":false,"confidence":3},{"trial_n":137,"min":86,"max":169,"target":"present","response":"present","rt":752.99999999988,"correct":true,"confidence":5},{"trial_n":138,"min":86,"max":169,"target":"absent","response":"absent","rt":1374,"correct":true,"confidence":1},{"trial_n":139,"min":87,"max":168,"target":"absent","response":"absent","rt":1621,"correct":true,"confidence":1},{"trial_n":140,"min":87,"max":168,"target":"absent","response":"present","rt":834,"correct":false,"confidence":3}]