[{"trial_n":1,"n_dots":4.25,"target":"right","response":"right","rt":745.69999992847,"correct":true,"confidence":-1},{"trial_n":2,"n_dots":4.25,"target":"right","response":"left","rt":179,"correct":false,"confidence":-1},{"trial_n":3,"n_dots":4.65,"target":"right","response":"right","rt":475.20000004768,"correct":true,"confidence":-1},{"trial_n":4,"n_dots":4.65,"target":"left","response":"left","rt":159,"correct":true,"confidence":-1},{"trial_n":5,"n_dots":4.25,"target":"left","response":"left","rt":223.30000007153,"correct":true,"confidence":-1},{"trial_n":6,"n_dots":4.25,"target":"right","response":"right","rt":323.5,"correct":true,"confidence":-1},{"trial_n":7,"n_dots":3.85,"target":"left","response":"left","rt":342.29999995232,"correct":true,"confidence":-1},{"trial_n":8,"n_dots":3.85,"target":"right","response":"right","rt":336.90000009537,"correct":true,"confidence":-1},{"trial_n":9,"n_dots":3.65,"target":"left","response":"left","rt":152.29999995232,"correct":true,"confidence":-1},{"trial_n":10,"n_dots":3.65,"target":"left","response":"left","rt":168,"correct":true,"confidence":-1},{"trial_n":11,"n_dots":3.45,"target":"right","response":"right","rt":229.10000002384,"correct":true,"confidence":-1},{"trial_n":12,"n_dots":3.45,"target":"left","response":"left","rt":171.5,"correct":true,"confidence":-1},{"trial_n":13,"n_dots":3.35,"target":"right","response":"right","rt":239.10000002384,"correct":true,"confidence":-1},{"trial_n":14,"n_dots":3.35,"target":"left","response":"left","rt":33.699999928474,"correct":true,"confidence":-1},{"trial_n":15,"n_dots":3.25,"target":"right","response":"left","rt":253.20000004768,"correct":false,"confidence":-1},{"trial_n":16,"n_dots":3.35,"target":"right","response":"right","rt":512.20000004768,"correct":true,"confidence":-1},{"trial_n":17,"n_dots":3.35,"target":"right","response":"right","rt":425.20000004768,"correct":true,"confidence":-1},{"trial_n":18,"n_dots":3.25,"target":"right","response":"left","rt":281.5,"correct":false,"confidence":-1},{"trial_n":19,"n_dots":3.35,"target":"right","response":"right","rt":460.70000004768,"correct":true,"confidence":-1},{"trial_n":20,"n_dots":3.35,"target":"left","response":"right","rt":453,"correct":false,"confidence":-1},{"trial_n":21,"n_dots":3.45,"target":"right","response":"left","rt":398.89999997616,"correct":false,"confidence":3},{"trial_n":22,"n_dots":3.55,"target":"right","response":"right","rt":328.69999992847,"correct":true,"confidence":3},{"trial_n":23,"n_dots":3.55,"target":"right","response":"right","rt":806.20000004768,"correct":true,"confidence":4},{"trial_n":24,"n_dots":3.45,"target":"left","response":"left","rt":380.5,"correct":true,"confidence":2},{"trial_n":25,"n_dots":3.45,"target":"left","response":"left","rt":1549.7999999523,"correct":true,"confidence":4},{"trial_n":26,"n_dots":3.35,"target":"left","response":"right","rt":539.79999995232,"correct":false,"confidence":3},{"trial_n":27,"n_dots":3.45,"target":"left","response":"right","rt":293.20000004768,"correct":false,"confidence":2},{"trial_n":28,"n_dots":3.55,"target":"right","response":"left","rt":428.5,"correct":false,"confidence":4},{"trial_n":29,"n_dots":3.65,"target":"right","response":"left","rt":744.19999992847,"correct":false,"confidence":5},{"trial_n":30,"n_dots":3.75,"target":"left","response":"left","rt":626.20000004768,"correct":true,"confidence":5},{"trial_n":31,"n_dots":3.75,"target":"left","response":"right","rt":911.10000002384,"correct":false,"confidence":2},{"trial_n":32,"n_dots":3.85,"target":"left","response":"right","rt":573.09999990463,"correct":false,"confidence":2},{"trial_n":33,"n_dots":3.95,"target":"right","response":"right","rt":810.79999995232,"correct":true,"confidence":4},{"trial_n":34,"n_dots":3.95,"target":"right","response":"right","rt":390,"correct":true,"confidence":5},{"trial_n":35,"n_dots":3.85,"target":"right","response":"right","rt":375.40000009537,"correct":true,"confidence":3},{"trial_n":36,"n_dots":3.85,"target":"right","response":"right","rt":481.90000009537,"correct":true,"confidence":2},{"trial_n":37,"n_dots":3.75,"target":"left","response":"left","rt":1043.2999999523,"correct":true,"confidence":4},{"trial_n":38,"n_dots":3.75,"target":"left","response":"left","rt":575.60000002384,"correct":true,"confidence":5},{"trial_n":39,"n_dots":3.65,"target":"left","response":"left","rt":321.89999997616,"correct":true,"confidence":5},{"trial_n":40,"n_dots":3.65,"target":"left","response":"left","rt":370.80000007153,"correct":true,"confidence":5},{"trial_n":41,"n_dots":3.55,"target":"left","response":"left","rt":158,"correct":true,"confidence":5},{"trial_n":42,"n_dots":3.55,"target":"left","response":"left","rt":569.69999992847,"correct":true,"confidence":4},{"trial_n":43,"n_dots":3.45,"target":"left","response":"left","rt":562.69999992847,"correct":true,"confidence":4},{"trial_n":44,"n_dots":3.45,"target":"left","response":"left","rt":311.29999995232,"correct":true,"confidence":3},{"trial_n":45,"n_dots":3.35,"target":"left","response":"left","rt":210.79999995232,"correct":true,"confidence":5},{"trial_n":46,"n_dots":3.35,"target":"left","response":"right","rt":774.69999992847,"correct":false,"confidence":2},{"trial_n":47,"n_dots":3.45,"target":"left","response":"left","rt":187.19999992847,"correct":true,"confidence":4},{"trial_n":48,"n_dots":3.45,"target":"left","response":"left","rt":414.70000004768,"correct":true,"confidence":5},{"trial_n":49,"n_dots":3.35,"target":"right","response":"right","rt":610,"correct":true,"confidence":2},{"trial_n":50,"n_dots":3.35,"target":"left","response":"left","rt":99.100000023842,"correct":true,"confidence":5},{"trial_n":51,"n_dots":3.25,"target":"right","response":"left","rt":505.79999995232,"correct":false,"confidence":4},{"trial_n":52,"n_dots":3.35,"target":"right","response":"left","rt":693.20000004768,"correct":false,"confidence":3},{"trial_n":53,"n_dots":3.45,"target":"left","response":"left","rt":1001.5,"correct":true,"confidence":5},{"trial_n":54,"n_dots":3.45,"target":"left","response":"right","rt":1226.1000000238,"correct":false,"confidence":3},{"trial_n":55,"n_dots":3.55,"target":"left","response":"left","rt":371.30000007153,"correct":true,"confidence":4},{"trial_n":56,"n_dots":3.55,"target":"right","response":"left","rt":770,"correct":false,"confidence":3},{"trial_n":57,"n_dots":3.65,"target":"right","response":"right","rt":309.5,"correct":true,"confidence":4},{"trial_n":58,"n_dots":3.65,"target":"right","response":"right","rt":1066.1000000238,"correct":true,"confidence":2},{"trial_n":59,"n_dots":3.55,"target":"right","response":"left","rt":480.60000002384,"correct":false,"confidence":2},{"trial_n":60,"n_dots":3.65,"target":"left","response":"left","rt":441.89999997616,"correct":true,"confidence":4},{"trial_n":61,"n_dots":3.65,"target":"right","response":"right","rt":845.5,"correct":true,"confidence":4},{"trial_n":62,"n_dots":3.55,"target":"left","response":"left","rt":109.39999997616,"correct":true,"confidence":5},{"trial_n":63,"n_dots":3.55,"target":"right","response":"left","rt":788.70000004768,"correct":false,"confidence":2},{"trial_n":64,"n_dots":3.65,"target":"right","response":"left","rt":1069.4000000954,"correct":false,"confidence":2},{"trial_n":65,"n_dots":3.75,"target":"left","response":"left","rt":583.89999997616,"correct":true,"confidence":3},{"trial_n":66,"n_dots":3.75,"target":"left","response":"right","rt":1151.8999999762,"correct":false,"confidence":3},{"trial_n":67,"n_dots":3.85,"target":"left","response":"left","rt":867.60000002384,"correct":true,"confidence":4},{"trial_n":68,"n_dots":3.85,"target":"right","response":"right","rt":317.10000002384,"correct":true,"confidence":4},{"trial_n":69,"n_dots":3.75,"target":"right","response":"right","rt":584.19999992847,"correct":true,"confidence":3},{"trial_n":70,"n_dots":3.75,"target":"left","response":"left","rt":590.89999997616,"correct":true,"confidence":3},{"trial_n":71,"n_dots":3.65,"target":"left","response":"left","rt":593.70000004768,"correct":true,"confidence":3},{"trial_n":72,"n_dots":3.65,"target":"right","response":"left","rt":1055.3999999762,"correct":false,"confidence":2},{"trial_n":73,"n_dots":3.75,"target":"right","response":"right","rt":478.29999995232,"correct":true,"confidence":3},{"trial_n":74,"n_dots":3.75,"target":"right","response":"right","rt":462.19999992847,"correct":true,"confidence":3},{"trial_n":75,"n_dots":3.65,"target":"left","response":"left","rt":471.89999997616,"correct":true,"confidence":3},{"trial_n":76,"n_dots":3.65,"target":"left","response":"left","rt":133.5,"correct":true,"confidence":5},{"trial_n":77,"n_dots":3.55,"target":"left","response":"left","rt":161.70000004768,"correct":true,"confidence":5},{"trial_n":78,"n_dots":3.55,"target":"left","response":"left","rt":386.89999997616,"correct":true,"confidence":4},{"trial_n":79,"n_dots":3.45,"target":"right","response":"right","rt":361.70000004768,"correct":true,"confidence":2},{"trial_n":80,"n_dots":3.45,"target":"left","response":"right","rt":1118.6000000238,"correct":false,"confidence":2},{"trial_n":81,"n_dots":3.55,"target":"right","response":"right","rt":343.19999992847,"correct":true,"confidence":4},{"trial_n":82,"n_dots":3.55,"target":"right","response":"right","rt":508.10000002384,"correct":true,"confidence":3},{"trial_n":83,"n_dots":3.45,"target":"right","response":"right","rt":587.59999990463,"correct":true,"confidence":3},{"trial_n":84,"n_dots":3.45,"target":"left","response":"right","rt":938.10000002384,"correct":false,"confidence":3},{"trial_n":85,"n_dots":3.55,"target":"left","response":"right","rt":1255.8999999762,"correct":false,"confidence":2},{"trial_n":86,"n_dots":3.65,"target":"right","response":"right","rt":514,"correct":true,"confidence":2},{"trial_n":87,"n_dots":3.65,"target":"right","response":"left","rt":1200.6000000238,"correct":false,"confidence":2},{"trial_n":88,"n_dots":3.75,"target":"left","response":"right","rt":642.69999992847,"correct":false,"confidence":1},{"trial_n":89,"n_dots":3.85,"target":"left","response":"left","rt":475.70000004768,"correct":true,"confidence":4},{"trial_n":90,"n_dots":3.85,"target":"left","response":"left","rt":562.69999992847,"correct":true,"confidence":3},{"trial_n":91,"n_dots":3.75,"target":"left","response":"right","rt":809.20000004768,"correct":false,"confidence":1},{"trial_n":92,"n_dots":3.85,"target":"right","response":"right","rt":440,"correct":true,"confidence":4},{"trial_n":93,"n_dots":3.85,"target":"left","response":"left","rt":278.29999995232,"correct":true,"confidence":5},{"trial_n":94,"n_dots":3.75,"target":"right","response":"right","rt":211.79999995232,"correct":true,"confidence":5},{"trial_n":95,"n_dots":3.75,"target":"right","response":"right","rt":316.20000004768,"correct":true,"confidence":4},{"trial_n":96,"n_dots":3.65,"target":"left","response":"left","rt":1241.2999999523,"correct":true,"confidence":2},{"trial_n":97,"n_dots":3.65,"target":"right","response":"right","rt":327.69999992847,"correct":true,"confidence":3},{"trial_n":98,"n_dots":3.55,"target":"left","response":"left","rt":1487.8999999762,"correct":true,"confidence":1},{"trial_n":99,"n_dots":3.55,"target":"left","response":"left","rt":422.80000007153,"correct":true,"confidence":4},{"trial_n":100,"n_dots":3.45,"target":"right","response":"left","rt":860.30000007153,"correct":false,"confidence":1},{"trial_n":101,"n_dots":3.55,"target":"right","response":"right","rt":349.60000002384,"correct":true,"confidence":5},{"trial_n":102,"n_dots":3.55,"target":"right","response":"right","rt":414.89999997616,"correct":true,"confidence":4},{"trial_n":103,"n_dots":3.45,"target":"right","response":"right","rt":1191.3999999762,"correct":true,"confidence":1},{"trial_n":104,"n_dots":3.45,"target":"right","response":"right","rt":646.60000002384,"correct":true,"confidence":3},{"trial_n":105,"n_dots":3.35,"target":"left","response":"left","rt":611,"correct":true,"confidence":3},{"trial_n":106,"n_dots":3.35,"target":"left","response":"left","rt":607.40000009537,"correct":true,"confidence":3},{"trial_n":107,"n_dots":3.25,"target":"right","response":"right","rt":598.5,"correct":true,"confidence":2},{"trial_n":108,"n_dots":3.25,"target":"right","response":"right","rt":509,"correct":true,"confidence":2},{"trial_n":109,"n_dots":3.15,"target":"right","response":"left","rt":1019.8999999762,"correct":false,"confidence":1},{"trial_n":110,"n_dots":3.25,"target":"right","response":"right","rt":735.10000002384,"correct":true,"confidence":4},{"trial_n":111,"n_dots":3.25,"target":"right","response":"right","rt":2275.7000000477,"correct":true,"confidence":2},{"trial_n":112,"n_dots":3.15,"target":"right","response":"right","rt":3348.8000000715,"correct":true,"confidence":1},{"trial_n":113,"n_dots":3.15,"target":"left","response":"left","rt":523.5,"correct":true,"confidence":3},{"trial_n":114,"n_dots":3.05,"target":"right","response":"left","rt":540.10000002384,"correct":false,"confidence":3},{"trial_n":115,"n_dots":3.15,"target":"right","response":"right","rt":683.5,"correct":true,"confidence":1},{"trial_n":116,"n_dots":3.15,"target":"left","response":"left","rt":370.89999997616,"correct":true,"confidence":3},{"trial_n":117,"n_dots":3.05,"target":"left","response":"left","rt":724.39999997616,"correct":true,"confidence":2},{"trial_n":118,"n_dots":3.05,"target":"left","response":"left","rt":779.5,"correct":true,"confidence":2},{"trial_n":119,"n_dots":2.95,"target":"right","response":"left","rt":200,"correct":false,"confidence":3},{"trial_n":120,"n_dots":3.05,"target":"left","response":"left","rt":386.90000009537,"correct":true,"confidence":3}]