[{"trial_n":1,"span":8,"encoder":"46137021","distractor":"46137121","target":"present","response":"present","rt":"4266","correct":true,"confidence":-1},{"trial_n":2,"span":8,"encoder":"27125890","distractor":"27025890","target":"present","response":"present","rt":"4075.900000006","correct":true,"confidence":-1},{"trial_n":3,"span":10,"encoder":"6037725415","distractor":"6037225415","target":"absent","response":"present","rt":"6003.099999994","correct":false,"confidence":-1},{"trial_n":4,"span":8,"encoder":"75775727","distractor":"75775797","target":"absent","response":"absent","rt":"3496.599999994","correct":true,"confidence":-1},{"trial_n":5,"span":8,"encoder":"87736045","distractor":"87436045","target":"present","response":"absent","rt":"3219.8000000119","correct":false,"confidence":-1},{"trial_n":6,"span":6,"encoder":"162064","distractor":"162061","target":"present","response":"present","rt":"5767.599999994","correct":true,"confidence":-1},{"trial_n":7,"span":6,"encoder":"915306","distractor":"925306","target":"absent","response":"present","rt":"2649.3000000119","correct":false,"confidence":-1},{"trial_n":8,"span":4,"encoder":"0769","distractor":"0569","target":"absent","response":"present","rt":"2680.099999994","correct":false,"confidence":-1},{"trial_n":9,"span":2,"encoder":"52","distractor":"32","target":"absent","response":"present","rt":"1363.5","correct":false,"confidence":-1},{"trial_n":10,"span":2,"encoder":"03","distractor":"05","target":"present","response":"present","rt":"1183.8000000119","correct":true,"confidence":-1},{"trial_n":11,"span":2,"encoder":"72","distractor":"73","target":"present","response":"present","rt":"1017.8999999762","correct":true,"confidence":-1},{"trial_n":12,"span":3,"encoder":"622","distractor":"222","target":"present","response":"present","rt":"1094.599999994","correct":true,"confidence":-1},{"trial_n":13,"span":3,"encoder":"447","distractor":"047","target":"absent","response":"absent","rt":"1688","correct":true,"confidence":-1},{"trial_n":14,"span":4,"encoder":"7213","distractor":"7243","target":"absent","response":"present","rt":"1792.400000006","correct":false,"confidence":-1},{"trial_n":15,"span":3,"encoder":"669","distractor":"619","target":"absent","response":"absent","rt":"1361.5","correct":true,"confidence":-1},{"trial_n":16,"span":3,"encoder":"458","distractor":"478","target":"absent","response":"absent","rt":"1462.099999994","correct":true,"confidence":-1},{"trial_n":17,"span":4,"encoder":"2639","distractor":"5639","target":"absent","response":"absent","rt":"2102.7000000179","correct":true,"confidence":-1},{"trial_n":18,"span":4,"encoder":"0829","distractor":"0889","target":"absent","response":"absent","rt":"2009.900000006","correct":true,"confidence":-1},{"trial_n":19,"span":5,"encoder":"42548","distractor":"42538","target":"absent","response":"absent","rt":"1996.099999994","correct":true,"confidence":-1},{"trial_n":20,"span":5,"encoder":"78856","distractor":"08856","target":"absent","response":"absent","rt":"3106.5","correct":true,"confidence":-1},{"trial_n":21,"span":6,"encoder":"131489","distractor":"131486","target":"absent","response":"absent","rt":"4197.099999994","correct":true,"confidence":2},{"trial_n":22,"span":6,"encoder":"988433","distractor":"988733","target":"present","response":"present","rt":"1858.599999994","correct":true,"confidence":3},{"trial_n":23,"span":7,"encoder":"3954593","distractor":"3954093","target":"present","response":"present","rt":"5359.6999999881","correct":true,"confidence":4},{"trial_n":24,"span":7,"encoder":"8975226","distractor":"8975228","target":"absent","response":"absent","rt":"6581.1999999881","correct":true,"confidence":2},{"trial_n":25,"span":8,"encoder":"52681479","distractor":"57681479","target":"present","response":"absent","rt":"3672.1999999881","correct":false,"confidence":2},{"trial_n":26,"span":7,"encoder":"3419291","distractor":"3416291","target":"absent","response":"absent","rt":"3490.6999999881","correct":true,"confidence":3},{"trial_n":27,"span":7,"encoder":"0733984","distractor":"0433984","target":"present","response":"present","rt":"2603.2000000179","correct":true,"confidence":3},{"trial_n":28,"span":8,"encoder":"91815648","distractor":"91815448","target":"absent","response":"absent","rt":"5022.400000006","correct":true,"confidence":3},{"trial_n":29,"span":8,"encoder":"82356032","distractor":"82756032","target":"present","response":"absent","rt":"5275.7000000179","correct":false,"confidence":3},{"trial_n":30,"span":7,"encoder":"3386745","distractor":"6386745","target":"present","response":"present","rt":"2790.2000000179","correct":true,"confidence":3},{"trial_n":31,"span":7,"encoder":"3088790","distractor":"3188790","target":"absent","response":"absent","rt":"4062.6999999881","correct":true,"confidence":3},{"trial_n":32,"span":8,"encoder":"61390178","distractor":"61390170","target":"present","response":"absent","rt":"4705","correct":false,"confidence":2},{"trial_n":33,"span":7,"encoder":"4265801","distractor":"2265801","target":"absent","response":"absent","rt":"1888.8000000119","correct":true,"confidence":5},{"trial_n":34,"span":7,"encoder":"3395820","distractor":"3395420","target":"absent","response":"absent","rt":"3290.1999999881","correct":true,"confidence":4},{"trial_n":35,"span":8,"encoder":"27753479","distractor":"27753429","target":"present","response":"present","rt":"2899.900000006","correct":true,"confidence":4},{"trial_n":36,"span":8,"encoder":"09945177","distractor":"09945170","target":"present","response":"present","rt":"3425.7000000179","correct":true,"confidence":4},{"trial_n":37,"span":9,"encoder":"866295724","distractor":"866895724","target":"absent","response":"absent","rt":"7299.1999999881","correct":true,"confidence":3},{"trial_n":38,"span":9,"encoder":"419123800","distractor":"619123800","target":"present","response":"present","rt":"4339.7999999821","correct":true,"confidence":2},{"trial_n":39,"span":10,"encoder":"9573705166","distractor":"6573705166","target":"present","response":"present","rt":"4767.900000006","correct":true,"confidence":3},{"trial_n":40,"span":10,"encoder":"5349916093","distractor":"5349916053","target":"present","response":"present","rt":"6113.1999999881","correct":true,"confidence":3},{"trial_n":41,"span":11,"encoder":"50924657503","distractor":"50921657503","target":"present","response":"present","rt":"5760.7000000179","correct":true,"confidence":2},{"trial_n":42,"span":11,"encoder":"16475772826","distractor":"16275772826","target":"absent","response":"present","rt":"5053","correct":false,"confidence":2},{"trial_n":43,"span":10,"encoder":"9263991653","distractor":"9263991655","target":"present","response":"absent","rt":"2356.900000006","correct":false,"confidence":3},{"trial_n":44,"span":9,"encoder":"510414847","distractor":"530414847","target":"present","response":"absent","rt":"5174.099999994","correct":false,"confidence":1},{"trial_n":45,"span":8,"encoder":"25325884","distractor":"25345884","target":"absent","response":"present","rt":"6657.2999999821","correct":false,"confidence":2},{"trial_n":46,"span":7,"encoder":"1976540","distractor":"1976570","target":"absent","response":"absent","rt":"4162.1999999881","correct":true,"confidence":2},{"trial_n":47,"span":7,"encoder":"1334689","distractor":"1334687","target":"present","response":"present","rt":"3036.3999999762","correct":true,"confidence":2},{"trial_n":48,"span":8,"encoder":"86580390","distractor":"86580310","target":"present","response":"present","rt":"6514.3000000119","correct":true,"confidence":2},{"trial_n":49,"span":8,"encoder":"05447571","distractor":"65447571","target":"present","response":"absent","rt":"4091.1999999881","correct":false,"confidence":1},{"trial_n":50,"span":7,"encoder":"8758322","distractor":"8058322","target":"present","response":"present","rt":"3799.6999999881","correct":true,"confidence":1},{"trial_n":51,"span":7,"encoder":"4756834","distractor":"4750834","target":"absent","response":"present","rt":"3209.6000000238","correct":false,"confidence":2},{"trial_n":52,"span":6,"encoder":"291939","distractor":"391939","target":"present","response":"absent","rt":"3334.7000000179","correct":false,"confidence":2},{"trial_n":53,"span":5,"encoder":"62775","distractor":"02775","target":"absent","response":"absent","rt":"3967","correct":true,"confidence":2},{"trial_n":54,"span":5,"encoder":"81545","distractor":"81515","target":"present","response":"present","rt":"2484","correct":true,"confidence":4},{"trial_n":55,"span":6,"encoder":"542099","distractor":"042099","target":"present","response":"present","rt":"2950","correct":true,"confidence":5},{"trial_n":56,"span":6,"encoder":"823226","distractor":"826226","target":"present","response":"present","rt":"4350.1999999881","correct":true,"confidence":4},{"trial_n":57,"span":7,"encoder":"9187723","distractor":"9137723","target":"absent","response":"absent","rt":"9337.3000000119","correct":true,"confidence":2},{"trial_n":58,"span":7,"encoder":"4140687","distractor":"4140887","target":"absent","response":"present","rt":"2654.3000000119","correct":false,"confidence":3},{"trial_n":59,"span":6,"encoder":"670967","distractor":"170967","target":"present","response":"present","rt":"3686.1000000238","correct":true,"confidence":4},{"trial_n":60,"span":6,"encoder":"029389","distractor":"029989","target":"present","response":"present","rt":"3109.6999999881","correct":true,"confidence":3},{"trial_n":61,"span":7,"encoder":"4719707","distractor":"4719787","target":"absent","response":"absent","rt":"5379","correct":true,"confidence":3},{"trial_n":62,"span":7,"encoder":"0353635","distractor":"4353635","target":"absent","response":"absent","rt":"4780.7000000179","correct":true,"confidence":3},{"trial_n":63,"span":8,"encoder":"48737461","distractor":"48736461","target":"absent","response":"present","rt":"8225.5","correct":false,"confidence":2},{"trial_n":64,"span":7,"encoder":"1759578","distractor":"1759878","target":"absent","response":"present","rt":"3834.599999994","correct":false,"confidence":4},{"trial_n":65,"span":6,"encoder":"204291","distractor":"208291","target":"present","response":"present","rt":"2805.1000000238","correct":true,"confidence":5},{"trial_n":66,"span":6,"encoder":"311659","distractor":"311649","target":"absent","response":"present","rt":"4433.8999999762","correct":false,"confidence":3},{"trial_n":67,"span":5,"encoder":"34557","distractor":"34527","target":"present","response":"present","rt":"1631","correct":true,"confidence":5},{"trial_n":68,"span":5,"encoder":"03687","distractor":"03187","target":"present","response":"present","rt":"3356.6999999881","correct":true,"confidence":5},{"trial_n":69,"span":6,"encoder":"335010","distractor":"331010","target":"present","response":"present","rt":"2720.400000006","correct":true,"confidence":5},{"trial_n":70,"span":6,"encoder":"102983","distractor":"132983","target":"absent","response":"absent","rt":"3920.2999999821","correct":true,"confidence":5},{"trial_n":71,"span":8,"encoder":"49092247","distractor":"49097247","target":"present","response":"present","rt":"6387","correct":true,"confidence":-1},{"trial_n":72,"span":8,"encoder":"52665951","distractor":"52665651","target":"present","response":"present","rt":"13223.199999988","correct":true,"confidence":-1},{"trial_n":73,"span":9,"encoder":"503268397","distractor":"503228397","target":"absent","response":"absent","rt":"6152.099999994","correct":true,"confidence":-1},{"trial_n":74,"span":9,"encoder":"221032757","distractor":"221033757","target":"absent","response":"present","rt":"7269.1999999881","correct":false,"confidence":-1},{"trial_n":75,"span":8,"encoder":"86303242","distractor":"89303242","target":"present","response":"present","rt":"3417.6999999881","correct":true,"confidence":-1},{"trial_n":76,"span":8,"encoder":"77556631","distractor":"77556601","target":"present","response":"present","rt":"3945.5","correct":true,"confidence":-1},{"trial_n":77,"span":9,"encoder":"659171767","distractor":"659171707","target":"absent","response":"absent","rt":"8177.6000000238","correct":true,"confidence":-1},{"trial_n":78,"span":9,"encoder":"299679906","distractor":"199679906","target":"present","response":"present","rt":"2120.400000006","correct":true,"confidence":-1},{"trial_n":79,"span":10,"encoder":"0537143351","distractor":"0537143751","target":"present","response":"absent","rt":"5024.7000000179","correct":false,"confidence":-1},{"trial_n":80,"span":9,"encoder":"227227381","distractor":"267227381","target":"present","response":"present","rt":"2765.8000000119","correct":true,"confidence":-1},{"trial_n":81,"span":9,"encoder":"430208507","distractor":"430608507","target":"present","response":"absent","rt":"5785.599999994","correct":false,"confidence":-1},{"trial_n":82,"span":8,"encoder":"70832737","distractor":"70632737","target":"present","response":"present","rt":"7929.2999999821","correct":true,"confidence":-1},{"trial_n":83,"span":8,"encoder":"25700772","distractor":"26700772","target":"absent","response":"absent","rt":"5569.5","correct":true,"confidence":-1},{"trial_n":84,"span":9,"encoder":"917935435","distractor":"917935735","target":"present","response":"present","rt":"8749.400000006","correct":true,"confidence":-1},{"trial_n":85,"span":9,"encoder":"870854273","distractor":"470854273","target":"absent","response":"present","rt":"3833.5","correct":false,"confidence":-1},{"trial_n":86,"span":8,"encoder":"55388277","distractor":"55688277","target":"absent","response":"absent","rt":"3266.2999999821","correct":true,"confidence":-1},{"trial_n":87,"span":8,"encoder":"14458839","distractor":"14858839","target":"present","response":"absent","rt":"4963.599999994","correct":false,"confidence":-1},{"trial_n":88,"span":7,"encoder":"0133753","distractor":"0133953","target":"absent","response":"absent","rt":"2713.1999999881","correct":true,"confidence":-1},{"trial_n":89,"span":7,"encoder":"5660460","distractor":"5660060","target":"present","response":"present","rt":"4278.5","correct":true,"confidence":-1},{"trial_n":90,"span":8,"encoder":"54819830","distractor":"54819810","target":"present","response":"present","rt":"5279","correct":true,"confidence":-1},{"trial_n":91,"span":8,"encoder":"96716870","distractor":"96746870","target":"present","response":"present","rt":"7766.3000000119","correct":true,"confidence":2},{"trial_n":92,"span":9,"encoder":"389338512","distractor":"389338572","target":"absent","response":"absent","rt":"6601.400000006","correct":true,"confidence":5},{"trial_n":93,"span":9,"encoder":"338858800","distractor":"338858890","target":"absent","response":"absent","rt":"4732.099999994","correct":true,"confidence":4},{"trial_n":94,"span":10,"encoder":"4876703419","distractor":"4871703419","target":"present","response":"present","rt":"4941.7000000179","correct":true,"confidence":4},{"trial_n":95,"span":10,"encoder":"8496053844","distractor":"8496053744","target":"present","response":"absent","rt":"10123.799999982","correct":false,"confidence":2},{"trial_n":96,"span":9,"encoder":"524209365","distractor":"524909365","target":"absent","response":"absent","rt":"12815.5","correct":true,"confidence":1},{"trial_n":97,"span":9,"encoder":"044242171","distractor":"044242371","target":"absent","response":"absent","rt":"8915.5","correct":true,"confidence":2},{"trial_n":98,"span":10,"encoder":"2946814366","distractor":"2946814386","target":"absent","response":"present","rt":"7743.2999999821","correct":false,"confidence":3},{"trial_n":99,"span":9,"encoder":"332345543","distractor":"832345543","target":"absent","response":"absent","rt":"2779.400000006","correct":true,"confidence":5},{"trial_n":100,"span":9,"encoder":"472822263","distractor":"472862263","target":"present","response":"absent","rt":"6921.099999994","correct":false,"confidence":4},{"trial_n":101,"span":8,"encoder":"24615613","distractor":"24615213","target":"absent","response":"absent","rt":"7201","correct":true,"confidence":2},{"trial_n":102,"span":8,"encoder":"54310477","distractor":"52310477","target":"present","response":"present","rt":"6287.7999999821","correct":true,"confidence":2},{"trial_n":103,"span":9,"encoder":"864978330","distractor":"864478330","target":"present","response":"present","rt":"5354.6999999881","correct":true,"confidence":3},{"trial_n":104,"span":9,"encoder":"437941489","distractor":"467941489","target":"absent","response":"present","rt":"7382.5","correct":false,"confidence":2},{"trial_n":105,"span":8,"encoder":"79798247","distractor":"79798241","target":"present","response":"present","rt":"6175.900000006","correct":true,"confidence":5},{"trial_n":106,"span":8,"encoder":"39310267","distractor":"39310237","target":"present","response":"present","rt":"5151.400000006","correct":true,"confidence":3},{"trial_n":107,"span":9,"encoder":"023194584","distractor":"023194583","target":"present","response":"present","rt":"5237.099999994","correct":true,"confidence":5},{"trial_n":108,"span":9,"encoder":"033756592","distractor":"033756992","target":"absent","response":"absent","rt":"6132.1000000238","correct":true,"confidence":3},{"trial_n":109,"span":10,"encoder":"9106374604","distractor":"9106374694","target":"absent","response":"absent","rt":"7580.1999999881","correct":true,"confidence":4},{"trial_n":110,"span":10,"encoder":"3488480820","distractor":"0488480820","target":"present","response":"absent","rt":"4972.7999999821","correct":false,"confidence":2},{"trial_n":111,"span":9,"encoder":"604693230","distractor":"604613230","target":"absent","response":"absent","rt":"6708.8000000119","correct":true,"confidence":3},{"trial_n":112,"span":9,"encoder":"132521267","distractor":"132571267","target":"absent","response":"absent","rt":"10566.100000024","correct":true,"confidence":2},{"trial_n":113,"span":10,"encoder":"5576536341","distractor":"5576536345","target":"present","response":"absent","rt":"12677.399999976","correct":false,"confidence":1},{"trial_n":114,"span":9,"encoder":"274597999","distractor":"274597991","target":"absent","response":"absent","rt":"2389.7000000179","correct":true,"confidence":5},{"trial_n":115,"span":9,"encoder":"060839429","distractor":"660839429","target":"present","response":"present","rt":"2854.099999994","correct":true,"confidence":4},{"trial_n":116,"span":10,"encoder":"3034901084","distractor":"3034901081","target":"present","response":"present","rt":"5594.8000000119","correct":true,"confidence":5},{"trial_n":117,"span":10,"encoder":"7157523946","distractor":"7157513946","target":"absent","response":"present","rt":"14655","correct":false,"confidence":2},{"trial_n":118,"span":9,"encoder":"461197421","distractor":"461197621","target":"absent","response":"absent","rt":"6884.599999994","correct":true,"confidence":3},{"trial_n":119,"span":9,"encoder":"227819249","distractor":"227818249","target":"present","response":"absent","rt":"8094.7000000179","correct":false,"confidence":2},{"trial_n":120,"span":8,"encoder":"15344666","distractor":"13344666","target":"present","response":"absent","rt":"5409","correct":false,"confidence":2},{"trial_n":121,"span":7,"encoder":"0878338","distractor":"0578338","target":"absent","response":"absent","rt":"4696.7000000179","correct":true,"confidence":3},{"trial_n":122,"span":7,"encoder":"9747293","distractor":"9347293","target":"absent","response":"absent","rt":"3189.099999994","correct":true,"confidence":3},{"trial_n":123,"span":8,"encoder":"74811718","distractor":"74811768","target":"absent","response":"absent","rt":"3753.1999999881","correct":true,"confidence":4},{"trial_n":124,"span":8,"encoder":"56586619","distractor":"57586619","target":"present","response":"present","rt":"2570","correct":true,"confidence":5},{"trial_n":125,"span":9,"encoder":"269218517","distractor":"219218517","target":"present","response":"present","rt":"3738.8000000119","correct":true,"confidence":4},{"trial_n":126,"span":9,"encoder":"169016517","distractor":"199016517","target":"absent","response":"absent","rt":"3536.599999994","correct":true,"confidence":2},{"trial_n":127,"span":10,"encoder":"0253427399","distractor":"0223427399","target":"absent","response":"present","rt":"4966.8000000119","correct":false,"confidence":2},{"trial_n":128,"span":9,"encoder":"491205552","distractor":"490205552","target":"present","response":"absent","rt":"6395","correct":false,"confidence":2},{"trial_n":129,"span":8,"encoder":"23548224","distractor":"23528224","target":"present","response":"present","rt":"7297.900000006","correct":true,"confidence":2},{"trial_n":130,"span":8,"encoder":"15853310","distractor":"15353310","target":"absent","response":"absent","rt":"4684.099999994","correct":true,"confidence":4},{"trial_n":131,"span":9,"encoder":"266397809","distractor":"256397809","target":"absent","response":"absent","rt":"3730.099999994","correct":true,"confidence":3},{"trial_n":132,"span":9,"encoder":"051349667","distractor":"051369667","target":"absent","response":"absent","rt":"6118.1999999881","correct":true,"confidence":2},{"trial_n":133,"span":10,"encoder":"7091882308","distractor":"7091862308","target":"present","response":"present","rt":"4484.5","correct":true,"confidence":3},{"trial_n":134,"span":10,"encoder":"2949040146","distractor":"2949040116","target":"present","response":"present","rt":"4942.599999994","correct":true,"confidence":4},{"trial_n":135,"span":11,"encoder":"44193851279","distractor":"44193811279","target":"absent","response":"absent","rt":"7404.400000006","correct":true,"confidence":3},{"trial_n":136,"span":11,"encoder":"26287232826","distractor":"24287232826","target":"absent","response":"absent","rt":"3724.5","correct":true,"confidence":3},{"trial_n":137,"span":12,"encoder":"075156134981","distractor":"075156134921","target":"absent","response":"absent","rt":"8564.3000000119","correct":true,"confidence":5},{"trial_n":138,"span":12,"encoder":"945869475226","distractor":"945869475826","target":"absent","response":"absent","rt":"2331.400000006","correct":true,"confidence":5},{"trial_n":139,"span":13,"encoder":"4395377065719","distractor":"4395077065719","target":"present","response":"absent","rt":"6190","correct":false,"confidence":3},{"trial_n":140,"span":12,"encoder":"960564725251","distractor":"965564725251","target":"present","response":"present","rt":"4194.1000000238","correct":true,"confidence":3}]