[{"trial_n":1,"n_dots":4.25,"target":"right","response":"left","rt":3780.0999999642,"correct":false,"confidence":-1},{"trial_n":2,"n_dots":4.25,"target":"right","response":"right","rt":517.59999996424,"correct":true,"confidence":-1},{"trial_n":3,"n_dots":4.25,"target":"right","response":"right","rt":358.70000004768,"correct":true,"confidence":-1},{"trial_n":4,"n_dots":3.85,"target":"right","response":"right","rt":347.10000002384,"correct":true,"confidence":-1},{"trial_n":5,"n_dots":3.85,"target":"right","response":"right","rt":472.89999997616,"correct":true,"confidence":-1},{"trial_n":6,"n_dots":3.45,"target":"right","response":"left","rt":322.40000003576,"correct":false,"confidence":-1},{"trial_n":7,"n_dots":3.85,"target":"left","response":"left","rt":56.399999976158,"correct":true,"confidence":-1},{"trial_n":8,"n_dots":3.85,"target":"left","response":"left","rt":81.5,"correct":true,"confidence":-1},{"trial_n":9,"n_dots":3.65,"target":"left","response":"left","rt":752.19999998808,"correct":true,"confidence":-1},{"trial_n":10,"n_dots":3.65,"target":"right","response":"right","rt":135.69999998808,"correct":true,"confidence":-1},{"trial_n":11,"n_dots":3.45,"target":"right","response":"left","rt":841.39999997616,"correct":false,"confidence":-1},{"trial_n":12,"n_dots":3.65,"target":"left","response":"left","rt":563.39999997616,"correct":true,"confidence":-1},{"trial_n":13,"n_dots":3.65,"target":"left","response":"right","rt":588,"correct":false,"confidence":-1},{"trial_n":14,"n_dots":3.75,"target":"right","response":"right","rt":83.199999988079,"correct":true,"confidence":-1},{"trial_n":15,"n_dots":3.75,"target":"right","response":"right","rt":2.6000000238419,"correct":true,"confidence":-1},{"trial_n":16,"n_dots":3.65,"target":"left","response":"left","rt":354.60000002384,"correct":true,"confidence":-1},{"trial_n":17,"n_dots":3.65,"target":"right","response":"right","rt":959.69999998808,"correct":true,"confidence":-1},{"trial_n":18,"n_dots":3.55,"target":"right","response":"right","rt":521.80000001192,"correct":true,"confidence":-1},{"trial_n":19,"n_dots":3.55,"target":"left","response":"left","rt":305.60000002384,"correct":true,"confidence":-1},{"trial_n":20,"n_dots":3.45,"target":"left","response":"left","rt":372.19999998808,"correct":true,"confidence":-1},{"trial_n":21,"n_dots":3.45,"target":"left","response":"left","rt":656.70000004768,"correct":true,"confidence":3},{"trial_n":22,"n_dots":3.35,"target":"right","response":"right","rt":870.59999996424,"correct":true,"confidence":3},{"trial_n":23,"n_dots":3.35,"target":"left","response":"left","rt":732.30000001192,"correct":true,"confidence":3},{"trial_n":24,"n_dots":3.25,"target":"right","response":"right","rt":510.30000001192,"correct":true,"confidence":4},{"trial_n":25,"n_dots":3.25,"target":"right","response":"right","rt":775,"correct":true,"confidence":4},{"trial_n":26,"n_dots":3.15,"target":"left","response":"right","rt":1567.0999999642,"correct":false,"confidence":2},{"trial_n":27,"n_dots":3.25,"target":"left","response":"left","rt":767.19999998808,"correct":true,"confidence":4},{"trial_n":28,"n_dots":3.25,"target":"left","response":"right","rt":1359,"correct":false,"confidence":2},{"trial_n":29,"n_dots":3.35,"target":"left","response":"left","rt":822.80000001192,"correct":true,"confidence":4},{"trial_n":30,"n_dots":3.35,"target":"right","response":"right","rt":568,"correct":true,"confidence":4},{"trial_n":31,"n_dots":3.25,"target":"right","response":"right","rt":544.5,"correct":true,"confidence":4},{"trial_n":32,"n_dots":3.25,"target":"right","response":"right","rt":729.30000001192,"correct":true,"confidence":2},{"trial_n":33,"n_dots":3.15,"target":"right","response":"right","rt":806.29999995232,"correct":true,"confidence":3},{"trial_n":34,"n_dots":3.15,"target":"right","response":"right","rt":668.39999997616,"correct":true,"confidence":4},{"trial_n":35,"n_dots":3.05,"target":"left","response":"left","rt":669.60000002384,"correct":true,"confidence":4},{"trial_n":36,"n_dots":3.05,"target":"right","response":"right","rt":480.30000001192,"correct":true,"confidence":5},{"trial_n":37,"n_dots":2.95,"target":"left","response":"left","rt":734.10000002384,"correct":true,"confidence":4},{"trial_n":38,"n_dots":2.95,"target":"right","response":"right","rt":530.60000002384,"correct":true,"confidence":5},{"trial_n":39,"n_dots":2.85,"target":"right","response":"left","rt":1330.1000000238,"correct":false,"confidence":3},{"trial_n":40,"n_dots":2.95,"target":"right","response":"right","rt":645.80000001192,"correct":true,"confidence":4},{"trial_n":41,"n_dots":2.95,"target":"right","response":"right","rt":1158,"correct":true,"confidence":2},{"trial_n":42,"n_dots":2.85,"target":"left","response":"left","rt":581.80000001192,"correct":true,"confidence":3},{"trial_n":43,"n_dots":2.85,"target":"right","response":"left","rt":640.40000003576,"correct":false,"confidence":3},{"trial_n":44,"n_dots":2.95,"target":"right","response":"right","rt":538.59999996424,"correct":true,"confidence":4},{"trial_n":45,"n_dots":2.95,"target":"left","response":"right","rt":696.5,"correct":false,"confidence":3},{"trial_n":46,"n_dots":3.05,"target":"right","response":"left","rt":811.90000003576,"correct":false,"confidence":3},{"trial_n":47,"n_dots":3.15,"target":"left","response":"right","rt":451.10000002384,"correct":false,"confidence":3},{"trial_n":48,"n_dots":3.25,"target":"left","response":"left","rt":1259.3999999762,"correct":true,"confidence":3},{"trial_n":49,"n_dots":3.25,"target":"right","response":"right","rt":443.90000003576,"correct":true,"confidence":4},{"trial_n":50,"n_dots":3.15,"target":"left","response":"left","rt":569.19999998808,"correct":true,"confidence":4},{"trial_n":51,"n_dots":3.15,"target":"right","response":"right","rt":288.59999996424,"correct":true,"confidence":4},{"trial_n":52,"n_dots":3.05,"target":"right","response":"right","rt":421.89999997616,"correct":true,"confidence":5},{"trial_n":53,"n_dots":3.05,"target":"left","response":"left","rt":1036.5,"correct":true,"confidence":2},{"trial_n":54,"n_dots":2.95,"target":"right","response":"left","rt":1360.5,"correct":false,"confidence":4},{"trial_n":55,"n_dots":3.05,"target":"right","response":"right","rt":653.19999998808,"correct":true,"confidence":4},{"trial_n":56,"n_dots":3.05,"target":"left","response":"left","rt":1433.3999999762,"correct":true,"confidence":3},{"trial_n":57,"n_dots":2.95,"target":"left","response":"left","rt":769.19999998808,"correct":true,"confidence":4},{"trial_n":58,"n_dots":2.95,"target":"right","response":"left","rt":1899,"correct":false,"confidence":2},{"trial_n":59,"n_dots":3.05,"target":"right","response":"right","rt":289,"correct":true,"confidence":4},{"trial_n":60,"n_dots":3.05,"target":"right","response":"right","rt":424,"correct":true,"confidence":5},{"trial_n":61,"n_dots":2.95,"target":"left","response":"right","rt":1230.7999999523,"correct":false,"confidence":3},{"trial_n":62,"n_dots":3.05,"target":"left","response":"left","rt":520.69999998808,"correct":true,"confidence":5},{"trial_n":63,"n_dots":3.05,"target":"right","response":"right","rt":514.70000004768,"correct":true,"confidence":4},{"trial_n":64,"n_dots":2.95,"target":"right","response":"right","rt":737.80000001192,"correct":true,"confidence":4},{"trial_n":65,"n_dots":2.95,"target":"right","response":"right","rt":626.30000001192,"correct":true,"confidence":4},{"trial_n":66,"n_dots":2.85,"target":"left","response":"left","rt":794.60000002384,"correct":true,"confidence":4},{"trial_n":67,"n_dots":2.85,"target":"left","response":"left","rt":597,"correct":true,"confidence":4},{"trial_n":68,"n_dots":2.75,"target":"right","response":"right","rt":1093.6999999881,"correct":true,"confidence":2},{"trial_n":69,"n_dots":2.75,"target":"left","response":"left","rt":1302.8999999762,"correct":true,"confidence":2},{"trial_n":70,"n_dots":2.65,"target":"left","response":"left","rt":698.10000002384,"correct":true,"confidence":3},{"trial_n":71,"n_dots":2.65,"target":"left","response":"left","rt":602.29999995232,"correct":true,"confidence":3},{"trial_n":72,"n_dots":2.55,"target":"left","response":"left","rt":633.60000002384,"correct":true,"confidence":4},{"trial_n":73,"n_dots":2.55,"target":"right","response":"right","rt":903.60000002384,"correct":true,"confidence":3},{"trial_n":74,"n_dots":2.45,"target":"left","response":"left","rt":614.80000001192,"correct":true,"confidence":4},{"trial_n":75,"n_dots":2.45,"target":"right","response":"right","rt":625.90000003576,"correct":true,"confidence":3},{"trial_n":76,"n_dots":2.35,"target":"left","response":"left","rt":678.29999995232,"correct":true,"confidence":4},{"trial_n":77,"n_dots":2.35,"target":"right","response":"right","rt":1924.5,"correct":true,"confidence":3},{"trial_n":78,"n_dots":2.25,"target":"left","response":"right","rt":601.90000003576,"correct":false,"confidence":3},{"trial_n":79,"n_dots":2.35,"target":"left","response":"left","rt":447.89999997616,"correct":true,"confidence":4},{"trial_n":80,"n_dots":2.35,"target":"left","response":"left","rt":796.89999997616,"correct":true,"confidence":4},{"trial_n":81,"n_dots":2.25,"target":"left","response":"left","rt":602.89999997616,"correct":true,"confidence":3},{"trial_n":82,"n_dots":2.25,"target":"left","response":"right","rt":879.59999996424,"correct":false,"confidence":2},{"trial_n":83,"n_dots":2.35,"target":"left","response":"right","rt":785.5,"correct":false,"confidence":2},{"trial_n":84,"n_dots":2.45,"target":"right","response":"right","rt":644.40000003576,"correct":true,"confidence":3},{"trial_n":85,"n_dots":2.45,"target":"left","response":"right","rt":588.89999997616,"correct":false,"confidence":1},{"trial_n":86,"n_dots":2.55,"target":"right","response":"right","rt":1316,"correct":true,"confidence":3},{"trial_n":87,"n_dots":2.55,"target":"left","response":"left","rt":383.39999997616,"correct":true,"confidence":3},{"trial_n":88,"n_dots":2.45,"target":"left","response":"left","rt":444.90000003576,"correct":true,"confidence":4},{"trial_n":89,"n_dots":2.45,"target":"right","response":"right","rt":517.09999996424,"correct":true,"confidence":5},{"trial_n":90,"n_dots":2.35,"target":"left","response":"left","rt":761.89999997616,"correct":true,"confidence":4},{"trial_n":91,"n_dots":2.35,"target":"right","response":"right","rt":610.60000002384,"correct":true,"confidence":3},{"trial_n":92,"n_dots":2.25,"target":"right","response":"right","rt":1857,"correct":true,"confidence":2},{"trial_n":93,"n_dots":2.25,"target":"left","response":"right","rt":744.5,"correct":false,"confidence":3},{"trial_n":94,"n_dots":2.35,"target":"right","response":"left","rt":786.5,"correct":false,"confidence":4},{"trial_n":95,"n_dots":2.45,"target":"left","response":"left","rt":1599,"correct":true,"confidence":2},{"trial_n":96,"n_dots":2.45,"target":"left","response":"right","rt":2202.5,"correct":false,"confidence":2},{"trial_n":97,"n_dots":2.55,"target":"right","response":"right","rt":506.39999997616,"correct":true,"confidence":3},{"trial_n":98,"n_dots":2.55,"target":"right","response":"right","rt":584.30000001192,"correct":true,"confidence":4},{"trial_n":99,"n_dots":2.45,"target":"left","response":"left","rt":389.60000002384,"correct":true,"confidence":5},{"trial_n":100,"n_dots":2.45,"target":"left","response":"left","rt":373.89999997616,"correct":true,"confidence":5},{"trial_n":101,"n_dots":2.35,"target":"right","response":"right","rt":1326.3000000119,"correct":true,"confidence":3},{"trial_n":102,"n_dots":2.35,"target":"left","response":"left","rt":707.60000002384,"correct":true,"confidence":3},{"trial_n":103,"n_dots":2.25,"target":"left","response":"left","rt":962.30000001192,"correct":true,"confidence":2},{"trial_n":104,"n_dots":2.25,"target":"left","response":"left","rt":420.89999997616,"correct":true,"confidence":4},{"trial_n":105,"n_dots":2.15,"target":"left","response":"left","rt":985.89999997616,"correct":true,"confidence":2},{"trial_n":106,"n_dots":2.15,"target":"right","response":"right","rt":480.40000003576,"correct":true,"confidence":3},{"trial_n":107,"n_dots":2.05,"target":"left","response":"left","rt":684.40000003576,"correct":true,"confidence":3},{"trial_n":108,"n_dots":2.05,"target":"right","response":"right","rt":608.89999997616,"correct":true,"confidence":4},{"trial_n":109,"n_dots":1.95,"target":"left","response":"left","rt":838.09999996424,"correct":true,"confidence":4},{"trial_n":110,"n_dots":1.95,"target":"right","response":"left","rt":734.69999998808,"correct":false,"confidence":3},{"trial_n":111,"n_dots":2.05,"target":"right","response":"left","rt":845.09999996424,"correct":false,"confidence":2},{"trial_n":112,"n_dots":2.15,"target":"left","response":"right","rt":369.5,"correct":false,"confidence":3},{"trial_n":113,"n_dots":2.25,"target":"right","response":"right","rt":1047.3999999762,"correct":true,"confidence":3},{"trial_n":114,"n_dots":2.25,"target":"left","response":"right","rt":895,"correct":false,"confidence":2},{"trial_n":115,"n_dots":2.35,"target":"left","response":"left","rt":701,"correct":true,"confidence":2},{"trial_n":116,"n_dots":2.35,"target":"left","response":"left","rt":11295.199999988,"correct":true,"confidence":2},{"trial_n":117,"n_dots":2.25,"target":"right","response":"left","rt":999.29999995232,"correct":false,"confidence":2},{"trial_n":118,"n_dots":2.35,"target":"right","response":"right","rt":633.10000002384,"correct":true,"confidence":3},{"trial_n":119,"n_dots":2.35,"target":"right","response":"right","rt":565.80000001192,"correct":true,"confidence":3},{"trial_n":120,"n_dots":2.25,"target":"left","response":"left","rt":962.89999997616,"correct":true,"confidence":2}]