[{"trial_n":1,"n_dots":4.25,"target":"right","response":"right","rt":6033.1000000238,"correct":true,"confidence":-1},{"trial_n":2,"n_dots":4.25,"target":"left","response":"left","rt":677.19999998808,"correct":true,"confidence":-1},{"trial_n":3,"n_dots":3.85,"target":"left","response":"left","rt":828.39999997616,"correct":true,"confidence":-1},{"trial_n":4,"n_dots":3.85,"target":"left","response":"right","rt":638.10000002384,"correct":false,"confidence":-1},{"trial_n":5,"n_dots":4.25,"target":"left","response":"left","rt":567.10000002384,"correct":true,"confidence":-1},{"trial_n":6,"n_dots":4.25,"target":"right","response":"left","rt":12474.599999964,"correct":false,"confidence":-1},{"trial_n":7,"n_dots":4.65,"target":"right","response":"right","rt":551.19999998808,"correct":true,"confidence":-1},{"trial_n":8,"n_dots":4.65,"target":"left","response":"left","rt":695.5,"correct":true,"confidence":-1},{"trial_n":9,"n_dots":4.45,"target":"left","response":"left","rt":449.10000002384,"correct":true,"confidence":-1},{"trial_n":10,"n_dots":4.45,"target":"right","response":"right","rt":530.19999998808,"correct":true,"confidence":-1},{"trial_n":11,"n_dots":4.25,"target":"right","response":"right","rt":1132,"correct":true,"confidence":-1},{"trial_n":12,"n_dots":4.25,"target":"left","response":"left","rt":630.39999997616,"correct":true,"confidence":-1},{"trial_n":13,"n_dots":4.15,"target":"right","response":"right","rt":473.5,"correct":true,"confidence":-1},{"trial_n":14,"n_dots":4.15,"target":"left","response":"left","rt":447,"correct":true,"confidence":-1},{"trial_n":15,"n_dots":4.05,"target":"right","response":"right","rt":337.39999997616,"correct":true,"confidence":-1},{"trial_n":16,"n_dots":4.05,"target":"left","response":"left","rt":322.5,"correct":true,"confidence":-1},{"trial_n":17,"n_dots":3.95,"target":"right","response":"right","rt":377.19999998808,"correct":true,"confidence":-1},{"trial_n":18,"n_dots":3.95,"target":"right","response":"right","rt":207.5,"correct":true,"confidence":-1},{"trial_n":19,"n_dots":3.85,"target":"right","response":"right","rt":1659.5,"correct":true,"confidence":-1},{"trial_n":20,"n_dots":3.85,"target":"left","response":"left","rt":708.89999997616,"correct":true,"confidence":-1},{"trial_n":21,"n_dots":3.75,"target":"right","response":"right","rt":476.5,"correct":true,"confidence":2},{"trial_n":22,"n_dots":3.75,"target":"right","response":"left","rt":471.5,"correct":false,"confidence":4},{"trial_n":23,"n_dots":3.85,"target":"right","response":"right","rt":626.19999998808,"correct":true,"confidence":2},{"trial_n":24,"n_dots":3.85,"target":"left","response":"left","rt":421.19999998808,"correct":true,"confidence":5},{"trial_n":25,"n_dots":3.75,"target":"right","response":"left","rt":800.5,"correct":false,"confidence":2},{"trial_n":26,"n_dots":3.85,"target":"right","response":"right","rt":612.10000002384,"correct":true,"confidence":5},{"trial_n":27,"n_dots":3.85,"target":"left","response":"left","rt":453.39999997616,"correct":true,"confidence":5},{"trial_n":28,"n_dots":3.75,"target":"right","response":"right","rt":611.89999997616,"correct":true,"confidence":5},{"trial_n":29,"n_dots":3.75,"target":"left","response":"left","rt":493,"correct":true,"confidence":4},{"trial_n":30,"n_dots":3.65,"target":"right","response":"left","rt":632.80000001192,"correct":false,"confidence":2},{"trial_n":31,"n_dots":3.75,"target":"right","response":"right","rt":410.39999997616,"correct":true,"confidence":2},{"trial_n":32,"n_dots":3.75,"target":"left","response":"left","rt":560.30000001192,"correct":true,"confidence":5},{"trial_n":33,"n_dots":3.65,"target":"right","response":"left","rt":50.799999952316,"correct":false,"confidence":2},{"trial_n":34,"n_dots":3.75,"target":"left","response":"left","rt":2746.8000000119,"correct":true,"confidence":2},{"trial_n":35,"n_dots":3.75,"target":"left","response":"left","rt":427.5,"correct":true,"confidence":5},{"trial_n":36,"n_dots":3.65,"target":"left","response":"left","rt":649.5,"correct":true,"confidence":3},{"trial_n":37,"n_dots":3.65,"target":"right","response":"right","rt":644.89999997616,"correct":true,"confidence":5},{"trial_n":38,"n_dots":3.55,"target":"left","response":"left","rt":669.69999998808,"correct":true,"confidence":5},{"trial_n":39,"n_dots":3.55,"target":"right","response":"left","rt":1042.1999999881,"correct":false,"confidence":1},{"trial_n":40,"n_dots":3.65,"target":"right","response":"right","rt":583.80000001192,"correct":true,"confidence":5},{"trial_n":41,"n_dots":3.65,"target":"left","response":"right","rt":1080.7000000477,"correct":false,"confidence":1},{"trial_n":42,"n_dots":3.75,"target":"left","response":"left","rt":377,"correct":true,"confidence":3},{"trial_n":43,"n_dots":3.75,"target":"left","response":"left","rt":344,"correct":true,"confidence":5},{"trial_n":44,"n_dots":3.65,"target":"left","response":"left","rt":169.09999996424,"correct":true,"confidence":3},{"trial_n":45,"n_dots":3.65,"target":"left","response":"left","rt":458.5,"correct":true,"confidence":3},{"trial_n":46,"n_dots":3.55,"target":"right","response":"right","rt":459.70000004768,"correct":true,"confidence":3},{"trial_n":47,"n_dots":3.55,"target":"right","response":"right","rt":544.19999998808,"correct":true,"confidence":3},{"trial_n":48,"n_dots":3.45,"target":"right","response":"right","rt":533.60000002384,"correct":true,"confidence":3},{"trial_n":49,"n_dots":3.45,"target":"right","response":"left","rt":701.5,"correct":false,"confidence":2},{"trial_n":50,"n_dots":3.55,"target":"right","response":"right","rt":392,"correct":true,"confidence":4},{"trial_n":51,"n_dots":3.55,"target":"right","response":"right","rt":820.19999998808,"correct":true,"confidence":5},{"trial_n":52,"n_dots":3.45,"target":"right","response":"right","rt":611.69999998808,"correct":true,"confidence":3},{"trial_n":53,"n_dots":3.45,"target":"left","response":"left","rt":411.19999998808,"correct":true,"confidence":3},{"trial_n":54,"n_dots":3.35,"target":"left","response":"left","rt":559.09999996424,"correct":true,"confidence":3},{"trial_n":55,"n_dots":3.35,"target":"left","response":"right","rt":455.20000004768,"correct":false,"confidence":2},{"trial_n":56,"n_dots":3.45,"target":"left","response":"right","rt":520.69999998808,"correct":false,"confidence":2},{"trial_n":57,"n_dots":3.55,"target":"right","response":"right","rt":590.20000004768,"correct":true,"confidence":3},{"trial_n":58,"n_dots":3.55,"target":"left","response":"left","rt":466.19999998808,"correct":true,"confidence":5},{"trial_n":59,"n_dots":3.45,"target":"right","response":"right","rt":584.40000003576,"correct":true,"confidence":3},{"trial_n":60,"n_dots":3.45,"target":"right","response":"right","rt":3378.7999999523,"correct":true,"confidence":2},{"trial_n":61,"n_dots":3.35,"target":"left","response":"right","rt":800.19999998808,"correct":false,"confidence":2},{"trial_n":62,"n_dots":3.45,"target":"right","response":"right","rt":315.5,"correct":true,"confidence":2},{"trial_n":63,"n_dots":3.45,"target":"left","response":"left","rt":503.10000002384,"correct":true,"confidence":2},{"trial_n":64,"n_dots":3.35,"target":"right","response":"right","rt":2549.3999999762,"correct":true,"confidence":1},{"trial_n":65,"n_dots":3.35,"target":"right","response":"right","rt":609.30000001192,"correct":true,"confidence":2},{"trial_n":66,"n_dots":3.25,"target":"right","response":"right","rt":526.80000001192,"correct":true,"confidence":3},{"trial_n":67,"n_dots":3.25,"target":"right","response":"left","rt":391.5,"correct":false,"confidence":2},{"trial_n":68,"n_dots":3.35,"target":"left","response":"left","rt":934.40000003576,"correct":true,"confidence":1},{"trial_n":69,"n_dots":3.35,"target":"left","response":"left","rt":595.80000001192,"correct":true,"confidence":3},{"trial_n":70,"n_dots":3.25,"target":"right","response":"right","rt":392.60000002384,"correct":true,"confidence":3},{"trial_n":71,"n_dots":3.25,"target":"left","response":"left","rt":614.69999998808,"correct":true,"confidence":3},{"trial_n":72,"n_dots":3.15,"target":"right","response":"right","rt":334.20000004768,"correct":true,"confidence":3},{"trial_n":73,"n_dots":3.15,"target":"right","response":"right","rt":459.30000001192,"correct":true,"confidence":3},{"trial_n":74,"n_dots":3.05,"target":"right","response":"right","rt":248.09999996424,"correct":true,"confidence":3},{"trial_n":75,"n_dots":3.05,"target":"left","response":"left","rt":946.19999998808,"correct":true,"confidence":1},{"trial_n":76,"n_dots":2.95,"target":"left","response":"left","rt":893.80000001192,"correct":true,"confidence":2},{"trial_n":77,"n_dots":2.95,"target":"left","response":"left","rt":398.69999998808,"correct":true,"confidence":1},{"trial_n":78,"n_dots":2.85,"target":"left","response":"left","rt":565.40000003576,"correct":true,"confidence":2},{"trial_n":79,"n_dots":2.85,"target":"right","response":"right","rt":465.10000002384,"correct":true,"confidence":2},{"trial_n":80,"n_dots":2.75,"target":"left","response":"left","rt":697.39999997616,"correct":true,"confidence":1},{"trial_n":81,"n_dots":2.75,"target":"left","response":"left","rt":325,"correct":true,"confidence":1},{"trial_n":82,"n_dots":2.65,"target":"left","response":"left","rt":638.5,"correct":true,"confidence":4},{"trial_n":83,"n_dots":2.65,"target":"left","response":"right","rt":579.59999996424,"correct":false,"confidence":3},{"trial_n":84,"n_dots":2.75,"target":"right","response":"right","rt":285.80000001192,"correct":true,"confidence":3},{"trial_n":85,"n_dots":2.75,"target":"right","response":"right","rt":534.60000002384,"correct":true,"confidence":3},{"trial_n":86,"n_dots":2.65,"target":"right","response":"right","rt":60,"correct":true,"confidence":3},{"trial_n":87,"n_dots":2.65,"target":"right","response":"right","rt":696.5,"correct":true,"confidence":3},{"trial_n":88,"n_dots":2.55,"target":"left","response":"right","rt":300.30000001192,"correct":false,"confidence":3},{"trial_n":89,"n_dots":2.65,"target":"left","response":"left","rt":676.90000003576,"correct":true,"confidence":2},{"trial_n":90,"n_dots":2.65,"target":"left","response":"left","rt":569.10000002384,"correct":true,"confidence":3},{"trial_n":91,"n_dots":2.55,"target":"left","response":"left","rt":185.29999995232,"correct":true,"confidence":3},{"trial_n":92,"n_dots":2.55,"target":"right","response":"left","rt":134.5,"correct":false,"confidence":3},{"trial_n":93,"n_dots":2.65,"target":"left","response":"right","rt":233.19999998808,"correct":false,"confidence":3},{"trial_n":94,"n_dots":2.75,"target":"right","response":"right","rt":792.5,"correct":true,"confidence":3},{"trial_n":95,"n_dots":2.75,"target":"left","response":"left","rt":1059.6000000238,"correct":true,"confidence":2},{"trial_n":96,"n_dots":2.65,"target":"right","response":"right","rt":587.5,"correct":true,"confidence":3},{"trial_n":97,"n_dots":2.65,"target":"right","response":"right","rt":259.09999996424,"correct":true,"confidence":4},{"trial_n":98,"n_dots":2.55,"target":"right","response":"right","rt":260.10000002384,"correct":true,"confidence":3},{"trial_n":99,"n_dots":2.55,"target":"left","response":"right","rt":116.60000002384,"correct":false,"confidence":2},{"trial_n":100,"n_dots":2.65,"target":"right","response":"right","rt":327.29999995232,"correct":true,"confidence":2},{"trial_n":101,"n_dots":2.65,"target":"left","response":"left","rt":33.300000011921,"correct":true,"confidence":2},{"trial_n":102,"n_dots":2.55,"target":"left","response":"left","rt":273.19999998808,"correct":true,"confidence":3},{"trial_n":103,"n_dots":2.55,"target":"left","response":"left","rt":321.40000003576,"correct":true,"confidence":4},{"trial_n":104,"n_dots":2.45,"target":"left","response":"left","rt":1438.5,"correct":true,"confidence":2},{"trial_n":105,"n_dots":2.45,"target":"left","response":"right","rt":194.79999995232,"correct":false,"confidence":2},{"trial_n":106,"n_dots":2.55,"target":"left","response":"left","rt":407.19999998808,"correct":true,"confidence":2},{"trial_n":107,"n_dots":2.55,"target":"left","response":"left","rt":865.29999995232,"correct":true,"confidence":2},{"trial_n":108,"n_dots":2.45,"target":"right","response":"left","rt":324.5,"correct":false,"confidence":2},{"trial_n":109,"n_dots":2.55,"target":"right","response":"left","rt":3092.9000000358,"correct":false,"confidence":1},{"trial_n":110,"n_dots":2.65,"target":"right","response":"right","rt":395.09999996424,"correct":true,"confidence":2},{"trial_n":111,"n_dots":2.65,"target":"left","response":"right","rt":1203.9000000358,"correct":false,"confidence":2},{"trial_n":112,"n_dots":2.75,"target":"left","response":"left","rt":698.30000001192,"correct":true,"confidence":2},{"trial_n":113,"n_dots":2.75,"target":"right","response":"right","rt":575.5,"correct":true,"confidence":3},{"trial_n":114,"n_dots":2.65,"target":"right","response":"left","rt":772.60000002384,"correct":false,"confidence":3},{"trial_n":115,"n_dots":2.75,"target":"right","response":"right","rt":916.60000002384,"correct":true,"confidence":3},{"trial_n":116,"n_dots":2.75,"target":"right","response":"right","rt":441.30000001192,"correct":true,"confidence":3},{"trial_n":117,"n_dots":2.65,"target":"left","response":"left","rt":475,"correct":true,"confidence":1},{"trial_n":118,"n_dots":2.65,"target":"left","response":"left","rt":622.29999995232,"correct":true,"confidence":1},{"trial_n":119,"n_dots":2.55,"target":"left","response":"left","rt":445.90000003576,"correct":true,"confidence":3},{"trial_n":120,"n_dots":2.55,"target":"right","response":"left","rt":561.29999995232,"correct":false,"confidence":2}]