[{"trial_n":1,"n_dots":4.25,"target":"left","response":"left","rt":2266.3999999762,"correct":true,"confidence":-1},{"trial_n":2,"n_dots":4.25,"target":"left","response":"left","rt":781.70000004768,"correct":true,"confidence":-1},{"trial_n":3,"n_dots":3.85,"target":"left","response":"left","rt":514.39999997616,"correct":true,"confidence":-1},{"trial_n":4,"n_dots":3.85,"target":"left","response":"left","rt":337.79999995232,"correct":true,"confidence":-1},{"trial_n":5,"n_dots":3.45,"target":"right","response":"right","rt":283.10000002384,"correct":true,"confidence":-1},{"trial_n":6,"n_dots":3.45,"target":"left","response":"left","rt":453.69999992847,"correct":true,"confidence":-1},{"trial_n":7,"n_dots":3.05,"target":"right","response":"right","rt":337.19999992847,"correct":true,"confidence":-1},{"trial_n":8,"n_dots":3.05,"target":"left","response":"left","rt":97.900000095367,"correct":true,"confidence":-1},{"trial_n":9,"n_dots":2.85,"target":"right","response":"right","rt":703.39999997616,"correct":true,"confidence":-1},{"trial_n":10,"n_dots":2.85,"target":"right","response":"left","rt":379.69999992847,"correct":false,"confidence":-1},{"trial_n":11,"n_dots":3.05,"target":"left","response":"right","rt":319.89999997616,"correct":false,"confidence":-1},{"trial_n":12,"n_dots":3.25,"target":"right","response":"left","rt":403.89999997616,"correct":false,"confidence":-1},{"trial_n":13,"n_dots":3.35,"target":"left","response":"left","rt":364.30000007153,"correct":true,"confidence":-1},{"trial_n":14,"n_dots":3.35,"target":"left","response":"left","rt":319.10000002384,"correct":true,"confidence":-1},{"trial_n":15,"n_dots":3.25,"target":"right","response":"right","rt":538.70000004768,"correct":true,"confidence":-1},{"trial_n":16,"n_dots":3.25,"target":"left","response":"right","rt":206.5,"correct":false,"confidence":-1},{"trial_n":17,"n_dots":3.35,"target":"right","response":"right","rt":153.30000007153,"correct":true,"confidence":-1},{"trial_n":18,"n_dots":3.35,"target":"left","response":"left","rt":463.10000002384,"correct":true,"confidence":-1},{"trial_n":19,"n_dots":3.25,"target":"left","response":"right","rt":480.5,"correct":false,"confidence":-1},{"trial_n":20,"n_dots":3.35,"target":"right","response":"left","rt":587.39999997616,"correct":false,"confidence":-1},{"trial_n":21,"n_dots":3.45,"target":"left","response":"left","rt":2073.7999999523,"correct":true,"confidence":4},{"trial_n":22,"n_dots":3.45,"target":"right","response":"right","rt":861.10000002384,"correct":true,"confidence":4},{"trial_n":23,"n_dots":3.35,"target":"left","response":"left","rt":1379.3999999762,"correct":true,"confidence":3},{"trial_n":24,"n_dots":3.35,"target":"left","response":"left","rt":946.19999992847,"correct":true,"confidence":3},{"trial_n":25,"n_dots":3.25,"target":"left","response":"left","rt":1056.1999999285,"correct":true,"confidence":2},{"trial_n":26,"n_dots":3.25,"target":"left","response":"left","rt":555.89999997616,"correct":true,"confidence":3},{"trial_n":27,"n_dots":3.15,"target":"left","response":"left","rt":416.69999992847,"correct":true,"confidence":4},{"trial_n":28,"n_dots":3.15,"target":"left","response":"left","rt":25.899999976158,"correct":true,"confidence":5},{"trial_n":29,"n_dots":3.05,"target":"left","response":"right","rt":3858.2999999523,"correct":false,"confidence":5},{"trial_n":30,"n_dots":3.15,"target":"left","response":"left","rt":2112.8999999762,"correct":true,"confidence":5},{"trial_n":31,"n_dots":3.15,"target":"right","response":"left","rt":3793,"correct":false,"confidence":4},{"trial_n":32,"n_dots":3.25,"target":"left","response":"left","rt":264.19999992847,"correct":true,"confidence":4},{"trial_n":33,"n_dots":3.25,"target":"left","response":"right","rt":4282.3999999762,"correct":false,"confidence":5},{"trial_n":34,"n_dots":3.35,"target":"right","response":"right","rt":13308.899999976,"correct":true,"confidence":2},{"trial_n":35,"n_dots":3.35,"target":"left","response":"right","rt":4888.2000000477,"correct":false,"confidence":3},{"trial_n":36,"n_dots":3.45,"target":"left","response":"right","rt":9737.8000000715,"correct":false,"confidence":4},{"trial_n":37,"n_dots":3.55,"target":"right","response":"left","rt":9106.3999999762,"correct":false,"confidence":3},{"trial_n":38,"n_dots":3.65,"target":"left","response":"right","rt":1061.3000000715,"correct":false,"confidence":2},{"trial_n":39,"n_dots":3.75,"target":"right","response":"right","rt":720.39999997616,"correct":true,"confidence":2},{"trial_n":40,"n_dots":3.75,"target":"right","response":"right","rt":771.19999992847,"correct":true,"confidence":4},{"trial_n":41,"n_dots":3.65,"target":"right","response":"right","rt":838.79999995232,"correct":true,"confidence":4},{"trial_n":42,"n_dots":3.65,"target":"left","response":"right","rt":1559.2999999523,"correct":false,"confidence":4},{"trial_n":43,"n_dots":3.75,"target":"left","response":"right","rt":5785.8999999762,"correct":false,"confidence":3},{"trial_n":44,"n_dots":3.85,"target":"left","response":"left","rt":453.29999995232,"correct":true,"confidence":3},{"trial_n":45,"n_dots":3.85,"target":"right","response":"right","rt":586.5,"correct":true,"confidence":2},{"trial_n":46,"n_dots":3.75,"target":"right","response":"right","rt":696.40000009537,"correct":true,"confidence":5},{"trial_n":47,"n_dots":3.75,"target":"left","response":"left","rt":846.19999992847,"correct":true,"confidence":5},{"trial_n":48,"n_dots":3.65,"target":"right","response":"right","rt":2996.7000000477,"correct":true,"confidence":3},{"trial_n":49,"n_dots":3.65,"target":"right","response":"right","rt":1163.7000000477,"correct":true,"confidence":2},{"trial_n":50,"n_dots":3.55,"target":"left","response":"left","rt":1109.8999999762,"correct":true,"confidence":5},{"trial_n":51,"n_dots":3.55,"target":"left","response":"left","rt":1003.5,"correct":true,"confidence":5},{"trial_n":52,"n_dots":3.45,"target":"right","response":"left","rt":1252.5999999046,"correct":false,"confidence":2},{"trial_n":53,"n_dots":3.55,"target":"right","response":"right","rt":786.89999997616,"correct":true,"confidence":2},{"trial_n":54,"n_dots":3.55,"target":"right","response":"left","rt":698.70000004768,"correct":false,"confidence":1},{"trial_n":55,"n_dots":3.65,"target":"left","response":"left","rt":599,"correct":true,"confidence":1},{"trial_n":56,"n_dots":3.65,"target":"right","response":"left","rt":297.39999997616,"correct":false,"confidence":1},{"trial_n":57,"n_dots":3.75,"target":"right","response":"right","rt":854.70000004768,"correct":true,"confidence":4},{"trial_n":58,"n_dots":3.75,"target":"left","response":"left","rt":686.20000004768,"correct":true,"confidence":4},{"trial_n":59,"n_dots":3.65,"target":"right","response":"right","rt":732.79999995232,"correct":true,"confidence":5},{"trial_n":60,"n_dots":3.65,"target":"right","response":"right","rt":1699.3000000715,"correct":true,"confidence":5},{"trial_n":61,"n_dots":3.55,"target":"right","response":"right","rt":1403.5,"correct":true,"confidence":4},{"trial_n":62,"n_dots":3.55,"target":"left","response":"left","rt":916.30000007153,"correct":true,"confidence":4},{"trial_n":63,"n_dots":3.45,"target":"left","response":"left","rt":1375.2999999523,"correct":true,"confidence":5},{"trial_n":64,"n_dots":3.45,"target":"right","response":"right","rt":1077.1000000238,"correct":true,"confidence":2},{"trial_n":65,"n_dots":3.35,"target":"left","response":"left","rt":1416,"correct":true,"confidence":4},{"trial_n":66,"n_dots":3.35,"target":"right","response":"right","rt":852.20000004768,"correct":true,"confidence":2},{"trial_n":67,"n_dots":3.25,"target":"right","response":"right","rt":1115.8000000715,"correct":true,"confidence":3},{"trial_n":68,"n_dots":3.25,"target":"left","response":"left","rt":888.70000004768,"correct":true,"confidence":2},{"trial_n":69,"n_dots":3.15,"target":"right","response":"right","rt":1138.1000000238,"correct":true,"confidence":5},{"trial_n":70,"n_dots":3.15,"target":"left","response":"left","rt":7217.3999999762,"correct":true,"confidence":1},{"trial_n":71,"n_dots":3.05,"target":"left","response":"left","rt":1061.6999999285,"correct":true,"confidence":5},{"trial_n":72,"n_dots":3.05,"target":"left","response":"right","rt":2574.5,"correct":false,"confidence":4},{"trial_n":73,"n_dots":3.15,"target":"right","response":"right","rt":1125.1000000238,"correct":true,"confidence":5},{"trial_n":74,"n_dots":3.15,"target":"right","response":"left","rt":1627.3999999762,"correct":false,"confidence":4},{"trial_n":75,"n_dots":3.25,"target":"right","response":"left","rt":2563.8000000715,"correct":false,"confidence":4},{"trial_n":76,"n_dots":3.35,"target":"right","response":"right","rt":1970.8000000715,"correct":true,"confidence":5},{"trial_n":77,"n_dots":3.35,"target":"left","response":"right","rt":1799.7000000477,"correct":false,"confidence":5},{"trial_n":78,"n_dots":3.45,"target":"right","response":"right","rt":2382.7000000477,"correct":true,"confidence":5},{"trial_n":79,"n_dots":3.45,"target":"left","response":"right","rt":3962,"correct":false,"confidence":3},{"trial_n":80,"n_dots":3.55,"target":"right","response":"right","rt":4681.8000000715,"correct":true,"confidence":5},{"trial_n":81,"n_dots":3.55,"target":"left","response":"left","rt":1052.2000000477,"correct":true,"confidence":1},{"trial_n":82,"n_dots":3.45,"target":"left","response":"left","rt":670.29999995232,"correct":true,"confidence":1},{"trial_n":83,"n_dots":3.45,"target":"left","response":"left","rt":1473.2000000477,"correct":true,"confidence":5},{"trial_n":84,"n_dots":3.35,"target":"right","response":"left","rt":1617.3000000715,"correct":false,"confidence":3},{"trial_n":85,"n_dots":3.45,"target":"right","response":"right","rt":1165,"correct":true,"confidence":2},{"trial_n":86,"n_dots":3.45,"target":"right","response":"left","rt":1276.1999999285,"correct":false,"confidence":1},{"trial_n":87,"n_dots":3.55,"target":"left","response":"left","rt":1201.5,"correct":true,"confidence":5},{"trial_n":88,"n_dots":3.55,"target":"right","response":"left","rt":929.39999997616,"correct":false,"confidence":1},{"trial_n":89,"n_dots":3.65,"target":"right","response":"right","rt":1777.2000000477,"correct":true,"confidence":5},{"trial_n":90,"n_dots":3.65,"target":"right","response":"right","rt":6193.7000000477,"correct":true,"confidence":5},{"trial_n":91,"n_dots":3.55,"target":"left","response":"left","rt":1080.5,"correct":true,"confidence":4},{"trial_n":92,"n_dots":3.55,"target":"right","response":"right","rt":1556.3999999762,"correct":true,"confidence":4},{"trial_n":93,"n_dots":3.45,"target":"left","response":"left","rt":900.19999992847,"correct":true,"confidence":4},{"trial_n":94,"n_dots":3.45,"target":"left","response":"left","rt":718.39999997616,"correct":true,"confidence":5},{"trial_n":95,"n_dots":3.35,"target":"right","response":"right","rt":15220.100000024,"correct":true,"confidence":1},{"trial_n":96,"n_dots":3.35,"target":"right","response":"right","rt":1089.1000000238,"correct":true,"confidence":2},{"trial_n":97,"n_dots":3.25,"target":"right","response":"right","rt":3434.6999999285,"correct":true,"confidence":5},{"trial_n":98,"n_dots":3.25,"target":"right","response":"right","rt":1197.3000000715,"correct":true,"confidence":2},{"trial_n":99,"n_dots":3.15,"target":"left","response":"right","rt":1459,"correct":false,"confidence":1},{"trial_n":100,"n_dots":3.25,"target":"right","response":"left","rt":1064.1000000238,"correct":false,"confidence":1},{"trial_n":101,"n_dots":3.35,"target":"left","response":"right","rt":489.89999997616,"correct":false,"confidence":1},{"trial_n":102,"n_dots":3.45,"target":"left","response":"left","rt":160.39999997616,"correct":true,"confidence":2},{"trial_n":103,"n_dots":3.45,"target":"right","response":"right","rt":585,"correct":true,"confidence":2},{"trial_n":104,"n_dots":3.35,"target":"right","response":"right","rt":243.39999997616,"correct":true,"confidence":1},{"trial_n":105,"n_dots":3.35,"target":"right","response":"right","rt":98.5,"correct":true,"confidence":2},{"trial_n":106,"n_dots":3.25,"target":"right","response":"right","rt":465.19999992847,"correct":true,"confidence":1},{"trial_n":107,"n_dots":3.25,"target":"right","response":"right","rt":337.39999997616,"correct":true,"confidence":1},{"trial_n":108,"n_dots":3.15,"target":"right","response":"right","rt":630.29999995232,"correct":true,"confidence":3},{"trial_n":109,"n_dots":3.15,"target":"left","response":"left","rt":16,"correct":true,"confidence":2},{"trial_n":110,"n_dots":3.05,"target":"right","response":"right","rt":430.90000009537,"correct":true,"confidence":4},{"trial_n":111,"n_dots":3.05,"target":"left","response":"right","rt":360.69999992847,"correct":false,"confidence":1},{"trial_n":112,"n_dots":3.15,"target":"left","response":"right","rt":64.299999952316,"correct":false,"confidence":1},{"trial_n":113,"n_dots":3.25,"target":"right","response":"right","rt":69.799999952316,"correct":true,"confidence":2},{"trial_n":114,"n_dots":3.25,"target":"left","response":"left","rt":388.19999992847,"correct":true,"confidence":4},{"trial_n":115,"n_dots":3.15,"target":"left","response":"right","rt":257.39999997616,"correct":false,"confidence":2},{"trial_n":116,"n_dots":3.25,"target":"left","response":"left","rt":497.40000009537,"correct":true,"confidence":3},{"trial_n":117,"n_dots":3.25,"target":"right","response":"right","rt":435.10000002384,"correct":true,"confidence":4},{"trial_n":118,"n_dots":3.15,"target":"left","response":"left","rt":4145.3999999762,"correct":true,"confidence":3},{"trial_n":119,"n_dots":3.15,"target":"right","response":"right","rt":2070,"correct":true,"confidence":2},{"trial_n":120,"n_dots":3.05,"target":"right","response":"right","rt":6125,"correct":true,"confidence":2}]