[{"trial_n":1,"span":8,"encoder":"24644725","distractor":"24674725","target":"present","response":"present","rt":"1487.3000000119","correct":true,"confidence":-1},{"trial_n":2,"span":8,"encoder":"06776097","distractor":"06676097","target":"present","response":"present","rt":"3639.3000000119","correct":true,"confidence":-1},{"trial_n":3,"span":10,"encoder":"9669885505","distractor":"9669385505","target":"absent","response":"absent","rt":"2239.2000000477","correct":true,"confidence":-1},{"trial_n":4,"span":10,"encoder":"3978546745","distractor":"3978546845","target":"absent","response":"absent","rt":"2425.3000000119","correct":true,"confidence":-1},{"trial_n":5,"span":12,"encoder":"985219192186","distractor":"985219199186","target":"present","response":"present","rt":"4009.0999999642","correct":true,"confidence":-1},{"trial_n":6,"span":12,"encoder":"912245720418","distractor":"932245720418","target":"absent","response":"present","rt":"1217.3999999762","correct":false,"confidence":-1},{"trial_n":7,"span":10,"encoder":"3576112204","distractor":"3976112204","target":"absent","response":"present","rt":"2440.4000000358","correct":false,"confidence":-1},{"trial_n":8,"span":8,"encoder":"94892586","distractor":"94892556","target":"present","response":"present","rt":"727.70000004768","correct":true,"confidence":-1},{"trial_n":9,"span":8,"encoder":"26772376","distractor":"26772373","target":"present","response":"present","rt":"4614.1999999881","correct":true,"confidence":-1},{"trial_n":10,"span":10,"encoder":"1630708947","distractor":"1630705947","target":"absent","response":"absent","rt":"2985.5999999642","correct":true,"confidence":-1},{"trial_n":11,"span":10,"encoder":"7339911865","distractor":"7339911365","target":"absent","response":"absent","rt":"5459.6999999881","correct":true,"confidence":-1},{"trial_n":12,"span":11,"encoder":"70173042698","distractor":"70173042798","target":"absent","response":"absent","rt":"3656.1000000238","correct":true,"confidence":-1},{"trial_n":13,"span":11,"encoder":"33804633346","distractor":"33844633346","target":"absent","response":"present","rt":"3790.8000000119","correct":false,"confidence":-1},{"trial_n":14,"span":10,"encoder":"5580925968","distractor":"5580928968","target":"present","response":"present","rt":"1189.8999999762","correct":true,"confidence":-1},{"trial_n":15,"span":10,"encoder":"4041619587","distractor":"4041619567","target":"present","response":"absent","rt":"2873.8000000119","correct":false,"confidence":-1},{"trial_n":16,"span":9,"encoder":"154822153","distractor":"654822153","target":"absent","response":"present","rt":"3330.5","correct":false,"confidence":-1},{"trial_n":17,"span":8,"encoder":"47774341","distractor":"47774641","target":"present","response":"absent","rt":"3898.0999999642","correct":false,"confidence":-1},{"trial_n":18,"span":7,"encoder":"5298068","distractor":"5898068","target":"present","response":"present","rt":"3336.3999999762","correct":true,"confidence":-1},{"trial_n":19,"span":7,"encoder":"8178420","distractor":"8178460","target":"present","response":"present","rt":"2422.7000000477","correct":true,"confidence":-1},{"trial_n":20,"span":8,"encoder":"05963096","distractor":"05863096","target":"present","response":"present","rt":"3739.6000000238","correct":true,"confidence":-1},{"trial_n":21,"span":8,"encoder":"38806538","distractor":"38804538","target":"absent","response":"present","rt":"2978.7999999523","correct":false,"confidence":4},{"trial_n":22,"span":7,"encoder":"4078146","distractor":"4078126","target":"absent","response":"absent","rt":"3118.9000000358","correct":true,"confidence":5},{"trial_n":23,"span":7,"encoder":"0408555","distractor":"3408555","target":"present","response":"present","rt":"2695.5","correct":true,"confidence":5},{"trial_n":24,"span":8,"encoder":"59114730","distractor":"59116730","target":"absent","response":"absent","rt":"3328.6000000238","correct":true,"confidence":3},{"trial_n":25,"span":8,"encoder":"26142385","distractor":"26142305","target":"present","response":"absent","rt":"1870.1000000238","correct":false,"confidence":2},{"trial_n":26,"span":7,"encoder":"2138114","distractor":"2168114","target":"absent","response":"absent","rt":"3024.5999999642","correct":true,"confidence":3},{"trial_n":27,"span":7,"encoder":"8574318","distractor":"8574316","target":"present","response":"present","rt":"2122.8000000119","correct":true,"confidence":5},{"trial_n":28,"span":8,"encoder":"40548289","distractor":"40543289","target":"absent","response":"absent","rt":"3982.6000000238","correct":true,"confidence":3},{"trial_n":29,"span":8,"encoder":"83736476","distractor":"83733476","target":"absent","response":"present","rt":"5762.5999999642","correct":false,"confidence":2},{"trial_n":30,"span":7,"encoder":"9485574","distractor":"0485574","target":"present","response":"present","rt":"1685.3000000119","correct":true,"confidence":2},{"trial_n":31,"span":7,"encoder":"0675948","distractor":"0675940","target":"present","response":"present","rt":"1878.5999999642","correct":true,"confidence":4},{"trial_n":32,"span":8,"encoder":"48516313","distractor":"48916313","target":"present","response":"present","rt":"2588.4000000358","correct":true,"confidence":3},{"trial_n":33,"span":8,"encoder":"76512524","distractor":"96512524","target":"absent","response":"present","rt":"2647.0999999642","correct":false,"confidence":2},{"trial_n":34,"span":7,"encoder":"9534330","distractor":"9584330","target":"absent","response":"absent","rt":"3114.3999999762","correct":true,"confidence":3},{"trial_n":35,"span":7,"encoder":"1125446","distractor":"8125446","target":"absent","response":"present","rt":"2189","correct":false,"confidence":2},{"trial_n":36,"span":6,"encoder":"192634","distractor":"196634","target":"absent","response":"absent","rt":"9611","correct":true,"confidence":1},{"trial_n":37,"span":6,"encoder":"000032","distractor":"000932","target":"present","response":"present","rt":"2110.1000000238","correct":true,"confidence":4},{"trial_n":38,"span":7,"encoder":"4365221","distractor":"4385221","target":"present","response":"present","rt":"2389.9000000358","correct":true,"confidence":4},{"trial_n":39,"span":7,"encoder":"1749972","distractor":"1749902","target":"absent","response":"absent","rt":"2522.1999999881","correct":true,"confidence":3},{"trial_n":40,"span":8,"encoder":"64467803","distractor":"64167803","target":"absent","response":"present","rt":"1814.5999999642","correct":false,"confidence":3},{"trial_n":41,"span":7,"encoder":"7596472","distractor":"7597472","target":"absent","response":"present","rt":"3479.8000000119","correct":false,"confidence":3},{"trial_n":42,"span":6,"encoder":"269343","distractor":"069343","target":"absent","response":"present","rt":"2367","correct":false,"confidence":3},{"trial_n":43,"span":5,"encoder":"15540","distractor":"16540","target":"present","response":"present","rt":"1340.6000000238","correct":true,"confidence":5},{"trial_n":44,"span":5,"encoder":"23967","distractor":"23267","target":"present","response":"present","rt":"1295","correct":true,"confidence":5},{"trial_n":45,"span":6,"encoder":"392165","distractor":"092165","target":"absent","response":"absent","rt":"2459.8000000119","correct":true,"confidence":3},{"trial_n":46,"span":6,"encoder":"836345","distractor":"886345","target":"absent","response":"present","rt":"2459.4000000358","correct":false,"confidence":3},{"trial_n":47,"span":5,"encoder":"59554","distractor":"79554","target":"absent","response":"present","rt":"1106.0999999642","correct":false,"confidence":5},{"trial_n":48,"span":4,"encoder":"9254","distractor":"9250","target":"present","response":"present","rt":"1094.8000000119","correct":true,"confidence":5},{"trial_n":49,"span":4,"encoder":"1090","distractor":"1190","target":"present","response":"present","rt":"1173.8000000119","correct":true,"confidence":5},{"trial_n":50,"span":5,"encoder":"02931","distractor":"02331","target":"present","response":"present","rt":"2903.9000000358","correct":true,"confidence":5},{"trial_n":51,"span":5,"encoder":"02893","distractor":"06893","target":"present","response":"present","rt":"1664.8000000119","correct":true,"confidence":5},{"trial_n":52,"span":6,"encoder":"979282","distractor":"879282","target":"present","response":"present","rt":"2086.8999999762","correct":true,"confidence":5},{"trial_n":53,"span":6,"encoder":"235637","distractor":"235617","target":"absent","response":"absent","rt":"1662.8999999762","correct":true,"confidence":4},{"trial_n":54,"span":7,"encoder":"0961888","distractor":"0961688","target":"present","response":"present","rt":"2355.6000000238","correct":true,"confidence":4},{"trial_n":55,"span":7,"encoder":"3319667","distractor":"3316667","target":"present","response":"present","rt":"2490.5","correct":true,"confidence":5},{"trial_n":56,"span":8,"encoder":"56606728","distractor":"56606708","target":"present","response":"present","rt":"6518.3999999762","correct":true,"confidence":4},{"trial_n":57,"span":8,"encoder":"06586009","distractor":"46586009","target":"present","response":"absent","rt":"1639.6000000238","correct":false,"confidence":3},{"trial_n":58,"span":7,"encoder":"4024908","distractor":"4024108","target":"absent","response":"present","rt":"2157.6000000238","correct":false,"confidence":3},{"trial_n":59,"span":6,"encoder":"180905","distractor":"180915","target":"absent","response":"absent","rt":"3500.6000000238","correct":true,"confidence":4},{"trial_n":60,"span":6,"encoder":"562899","distractor":"532899","target":"present","response":"present","rt":"2106.6999999881","correct":true,"confidence":4},{"trial_n":61,"span":7,"encoder":"9127606","distractor":"9167606","target":"absent","response":"absent","rt":"2659.3000000119","correct":true,"confidence":3},{"trial_n":62,"span":7,"encoder":"8222208","distractor":"8222008","target":"absent","response":"present","rt":"1952.8000000119","correct":false,"confidence":4},{"trial_n":63,"span":6,"encoder":"219080","distractor":"419080","target":"present","response":"absent","rt":"1599.1000000238","correct":false,"confidence":4},{"trial_n":64,"span":5,"encoder":"71658","distractor":"71688","target":"absent","response":"present","rt":"2539.7999999523","correct":false,"confidence":2},{"trial_n":65,"span":4,"encoder":"3622","distractor":"7622","target":"present","response":"present","rt":"2219.1000000238","correct":true,"confidence":3},{"trial_n":66,"span":4,"encoder":"3834","distractor":"3833","target":"present","response":"present","rt":"1554.3999999762","correct":true,"confidence":5},{"trial_n":67,"span":5,"encoder":"79367","distractor":"79397","target":"present","response":"present","rt":"1971.5","correct":true,"confidence":5},{"trial_n":68,"span":5,"encoder":"34409","distractor":"34479","target":"absent","response":"absent","rt":"1539.5","correct":true,"confidence":5},{"trial_n":69,"span":6,"encoder":"493209","distractor":"423209","target":"present","response":"present","rt":"1901.3999999762","correct":true,"confidence":3},{"trial_n":70,"span":6,"encoder":"451265","distractor":"451765","target":"absent","response":"absent","rt":"2135.4000000358","correct":true,"confidence":4},{"trial_n":71,"span":8,"encoder":"23472580","distractor":"23472550","target":"present","response":"present","rt":"2462","correct":true,"confidence":-1},{"trial_n":72,"span":8,"encoder":"84514545","distractor":"84814545","target":"present","response":"present","rt":"1088.5999999642","correct":true,"confidence":-1},{"trial_n":73,"span":9,"encoder":"515264041","distractor":"515264141","target":"absent","response":"absent","rt":"1932.8999999762","correct":true,"confidence":-1},{"trial_n":74,"span":9,"encoder":"004695468","distractor":"004695478","target":"absent","response":"absent","rt":"1753.6000000238","correct":true,"confidence":-1},{"trial_n":75,"span":10,"encoder":"2257954933","distractor":"2257454933","target":"present","response":"present","rt":"6754.1999999881","correct":true,"confidence":-1},{"trial_n":76,"span":10,"encoder":"8755538185","distractor":"8755508185","target":"absent","response":"absent","rt":"3357.5999999642","correct":true,"confidence":-1},{"trial_n":77,"span":11,"encoder":"89676714241","distractor":"89676717241","target":"absent","response":"absent","rt":"3426.6000000238","correct":true,"confidence":-1},{"trial_n":78,"span":11,"encoder":"13062174549","distractor":"13062174545","target":"absent","response":"absent","rt":"1473.3999999762","correct":true,"confidence":-1},{"trial_n":79,"span":12,"encoder":"950287669519","distractor":"950387669519","target":"absent","response":"absent","rt":"4021.1000000238","correct":true,"confidence":-1},{"trial_n":80,"span":12,"encoder":"185986959400","distractor":"185986959470","target":"absent","response":"absent","rt":"2080.8000000119","correct":true,"confidence":-1},{"trial_n":81,"span":13,"encoder":"9709122814414","distractor":"9759122814414","target":"absent","response":"absent","rt":"2539.1999999881","correct":true,"confidence":-1},{"trial_n":82,"span":13,"encoder":"6677788312294","distractor":"6677785312294","target":"present","response":"present","rt":"4565.0999999642","correct":true,"confidence":-1},{"trial_n":83,"span":14,"encoder":"20354058587305","distractor":"20354058587805","target":"present","response":"present","rt":"2826.6999999881","correct":true,"confidence":-1},{"trial_n":84,"span":14,"encoder":"43695318091401","distractor":"43695518091401","target":"absent","response":"present","rt":"5878","correct":false,"confidence":-1},{"trial_n":85,"span":13,"encoder":"4267048469531","distractor":"4267048469591","target":"present","response":"present","rt":"1217.8000000119","correct":true,"confidence":-1},{"trial_n":86,"span":13,"encoder":"9776622084400","distractor":"9376622084400","target":"absent","response":"absent","rt":"4962.3000000119","correct":true,"confidence":-1},{"trial_n":87,"span":14,"encoder":"61605313556476","distractor":"61605013556476","target":"absent","response":"present","rt":"3396.3000000119","correct":false,"confidence":-1},{"trial_n":88,"span":13,"encoder":"2903299114823","distractor":"2903299114523","target":"present","response":"present","rt":"2680.4000000358","correct":true,"confidence":-1},{"trial_n":89,"span":13,"encoder":"0789894892968","distractor":"0489894892968","target":"absent","response":"absent","rt":"10738.5","correct":true,"confidence":-1},{"trial_n":90,"span":14,"encoder":"52547386777012","distractor":"42547386777012","target":"present","response":"present","rt":"4845.3999999762","correct":true,"confidence":-1},{"trial_n":91,"span":14,"encoder":"65064708497604","distractor":"65064708437604","target":"present","response":"present","rt":"3268.3000000119","correct":true,"confidence":4},{"trial_n":92,"span":15,"encoder":"640515153785855","distractor":"640515153705855","target":"present","response":"absent","rt":"2868","correct":false,"confidence":3},{"trial_n":93,"span":14,"encoder":"43697704823108","distractor":"43697704863108","target":"present","response":"present","rt":"3212.5999999642","correct":true,"confidence":5},{"trial_n":94,"span":14,"encoder":"29748740022589","distractor":"29748740022539","target":"present","response":"present","rt":"3698.8999999762","correct":true,"confidence":5},{"trial_n":95,"span":15,"encoder":"035924474419462","distractor":"035924474419482","target":"present","response":"present","rt":"3032.3999999762","correct":true,"confidence":5},{"trial_n":96,"span":15,"encoder":"634096511031623","distractor":"634093511031623","target":"absent","response":"absent","rt":"7737.5","correct":true,"confidence":1},{"trial_n":97,"span":16,"encoder":"1953505664936837","distractor":"1953505669936837","target":"present","response":"absent","rt":"7686.1999999881","correct":false,"confidence":2},{"trial_n":98,"span":15,"encoder":"355630478492197","distractor":"355630498492197","target":"absent","response":"present","rt":"7619.0999999642","correct":false,"confidence":4},{"trial_n":99,"span":14,"encoder":"40293213690380","distractor":"40293293690380","target":"present","response":"absent","rt":"3386.1999999881","correct":false,"confidence":1},{"trial_n":100,"span":13,"encoder":"9454875564687","distractor":"9454375564687","target":"absent","response":"absent","rt":"5769.8000000119","correct":true,"confidence":3},{"trial_n":101,"span":13,"encoder":"0743622469896","distractor":"0793622469896","target":"present","response":"present","rt":"7254.3999999762","correct":true,"confidence":2},{"trial_n":102,"span":14,"encoder":"74831533464792","distractor":"74861533464792","target":"present","response":"absent","rt":"7837.6999999881","correct":false,"confidence":1},{"trial_n":103,"span":13,"encoder":"8545932431486","distractor":"8545832431486","target":"present","response":"present","rt":"7811.8999999762","correct":true,"confidence":1},{"trial_n":104,"span":13,"encoder":"9003811239057","distractor":"9003811249057","target":"absent","response":"absent","rt":"4037.5999999642","correct":true,"confidence":3},{"trial_n":105,"span":14,"encoder":"23832048178484","distractor":"23832048178480","target":"absent","response":"absent","rt":"3359.6000000238","correct":true,"confidence":5},{"trial_n":106,"span":14,"encoder":"62316478249711","distractor":"62316478229711","target":"absent","response":"present","rt":"4264.5","correct":false,"confidence":2},{"trial_n":107,"span":13,"encoder":"7131715235026","distractor":"7131715205026","target":"absent","response":"absent","rt":"4969.1999999881","correct":true,"confidence":1},{"trial_n":108,"span":13,"encoder":"2131045142752","distractor":"4131045142752","target":"present","response":"present","rt":"6048.8999999762","correct":true,"confidence":2},{"trial_n":109,"span":14,"encoder":"35475258252412","distractor":"35475258258412","target":"absent","response":"absent","rt":"6187.5","correct":true,"confidence":3},{"trial_n":110,"span":14,"encoder":"66016104938665","distractor":"66016104938662","target":"absent","response":"present","rt":"6554.6000000238","correct":false,"confidence":2},{"trial_n":111,"span":13,"encoder":"2507021821400","distractor":"2507021821401","target":"present","response":"present","rt":"699.30000001192","correct":true,"confidence":4},{"trial_n":112,"span":13,"encoder":"1594133011758","distractor":"1594133051758","target":"absent","response":"absent","rt":"2547.5999999642","correct":true,"confidence":5},{"trial_n":113,"span":14,"encoder":"16560686892326","distractor":"10560686892326","target":"absent","response":"present","rt":"3811.5","correct":false,"confidence":2},{"trial_n":114,"span":13,"encoder":"4639657457416","distractor":"4637657457416","target":"absent","response":"present","rt":"6955.5999999642","correct":false,"confidence":2},{"trial_n":115,"span":12,"encoder":"425314249896","distractor":"422314249896","target":"present","response":"absent","rt":"2146","correct":false,"confidence":2},{"trial_n":116,"span":11,"encoder":"37870451203","distractor":"37870551203","target":"absent","response":"present","rt":"3708.6999999881","correct":false,"confidence":2},{"trial_n":117,"span":10,"encoder":"7986380543","distractor":"7886380543","target":"present","response":"present","rt":"4925.2000000477","correct":true,"confidence":2},{"trial_n":118,"span":10,"encoder":"5338818505","distractor":"5338818555","target":"present","response":"present","rt":"4463.3000000119","correct":true,"confidence":3},{"trial_n":119,"span":11,"encoder":"54650574242","distractor":"54650874242","target":"present","response":"present","rt":"6509.5999999642","correct":true,"confidence":3},{"trial_n":120,"span":11,"encoder":"15415045087","distractor":"15495045087","target":"absent","response":"absent","rt":"4044.9000000358","correct":true,"confidence":3},{"trial_n":121,"span":12,"encoder":"011806127924","distractor":"011806127994","target":"present","response":"absent","rt":"4035.8000000119","correct":false,"confidence":3},{"trial_n":122,"span":11,"encoder":"61929195080","distractor":"61924195080","target":"present","response":"absent","rt":"4357.8000000119","correct":false,"confidence":1},{"trial_n":123,"span":10,"encoder":"9832564258","distractor":"9831564258","target":"present","response":"present","rt":"4347.5999999642","correct":true,"confidence":2},{"trial_n":124,"span":10,"encoder":"0904460620","distractor":"0904465620","target":"present","response":"present","rt":"5517.5","correct":true,"confidence":1},{"trial_n":125,"span":11,"encoder":"72926986448","distractor":"72926986748","target":"present","response":"present","rt":"2713.6999999881","correct":true,"confidence":5},{"trial_n":126,"span":11,"encoder":"32930992612","distractor":"32930992712","target":"absent","response":"absent","rt":"2510.2999999523","correct":true,"confidence":5},{"trial_n":127,"span":12,"encoder":"129599743716","distractor":"129599743116","target":"present","response":"present","rt":"1855.8999999762","correct":true,"confidence":5},{"trial_n":128,"span":12,"encoder":"392721584085","distractor":"392721584089","target":"present","response":"present","rt":"1801","correct":true,"confidence":5},{"trial_n":129,"span":13,"encoder":"8521272769371","distractor":"0521272769371","target":"absent","response":"present","rt":"2569.4000000358","correct":false,"confidence":1},{"trial_n":130,"span":12,"encoder":"112127905701","distractor":"112127909701","target":"absent","response":"present","rt":"1775.3000000119","correct":false,"confidence":1},{"trial_n":131,"span":11,"encoder":"90881077835","distractor":"90881077635","target":"absent","response":"absent","rt":"7764.6999999881","correct":true,"confidence":1},{"trial_n":132,"span":11,"encoder":"52222340104","distractor":"52227340104","target":"present","response":"present","rt":"5608.9000000358","correct":true,"confidence":3},{"trial_n":133,"span":12,"encoder":"451899745817","distractor":"451899785817","target":"absent","response":"absent","rt":"6971.8000000119","correct":true,"confidence":2},{"trial_n":134,"span":12,"encoder":"921071488806","distractor":"921071488803","target":"absent","response":"absent","rt":"5635.6999999881","correct":true,"confidence":3},{"trial_n":135,"span":13,"encoder":"8124798173917","distractor":"6124798173917","target":"absent","response":"present","rt":"7144.6999999881","correct":false,"confidence":1},{"trial_n":136,"span":12,"encoder":"082985197577","distractor":"082985197574","target":"present","response":"present","rt":"2463.4000000358","correct":true,"confidence":5},{"trial_n":137,"span":12,"encoder":"865112016799","distractor":"865112016599","target":"present","response":"present","rt":"2934.5","correct":true,"confidence":5},{"trial_n":138,"span":13,"encoder":"0819931132739","distractor":"0819931032739","target":"present","response":"present","rt":"3714.3000000119","correct":true,"confidence":4},{"trial_n":139,"span":13,"encoder":"6416955457952","distractor":"6426955457952","target":"absent","response":"present","rt":"7687.5","correct":false,"confidence":1},{"trial_n":140,"span":12,"encoder":"756711716020","distractor":"756711715020","target":"present","response":"present","rt":"7263.4000000358","correct":true,"confidence":4}]