[{"trial_n":1,"span":8,"encoder":"77329276","distractor":"77329476","target":"present","response":"present","rt":"4992","correct":true,"confidence":-1},{"trial_n":2,"span":8,"encoder":"28643600","distractor":"68643600","target":"present","response":"present","rt":"3287","correct":true,"confidence":-1},{"trial_n":3,"span":10,"encoder":"2241746041","distractor":"2241746044","target":"absent","response":"present","rt":"2724.0999999996","correct":false,"confidence":-1},{"trial_n":4,"span":8,"encoder":"70761598","distractor":"74761598","target":"absent","response":"absent","rt":"2127.5","correct":true,"confidence":-1},{"trial_n":5,"span":8,"encoder":"00073675","distractor":"00873675","target":"present","response":"present","rt":"1965.3999999994","correct":true,"confidence":-1},{"trial_n":6,"span":10,"encoder":"2424671190","distractor":"2424671191","target":"absent","response":"absent","rt":"2026.8000000007","correct":true,"confidence":-1},{"trial_n":7,"span":10,"encoder":"8467738640","distractor":"8067738640","target":"absent","response":"present","rt":"2733.3000000007","correct":false,"confidence":-1},{"trial_n":8,"span":8,"encoder":"17909612","distractor":"17509612","target":"absent","response":"absent","rt":"2180.8999999994","correct":true,"confidence":-1},{"trial_n":9,"span":8,"encoder":"29363774","distractor":"29363574","target":"absent","response":"absent","rt":"1743.2000000002","correct":true,"confidence":-1},{"trial_n":10,"span":10,"encoder":"0658608717","distractor":"0658108717","target":"absent","response":"present","rt":"2047.0999999996","correct":false,"confidence":-1},{"trial_n":11,"span":8,"encoder":"59221707","distractor":"59221307","target":"present","response":"absent","rt":"3106.1999999993","correct":false,"confidence":-1},{"trial_n":12,"span":7,"encoder":"0630966","distractor":"8630966","target":"present","response":"present","rt":"2279.7999999998","correct":true,"confidence":-1},{"trial_n":13,"span":7,"encoder":"4547179","distractor":"4547172","target":"absent","response":"absent","rt":"1653.7000000002","correct":true,"confidence":-1},{"trial_n":14,"span":8,"encoder":"97966141","distractor":"97966151","target":"present","response":"present","rt":"3267.2000000002","correct":true,"confidence":-1},{"trial_n":15,"span":8,"encoder":"16309719","distractor":"11309719","target":"present","response":"present","rt":"2502.5999999996","correct":true,"confidence":-1},{"trial_n":16,"span":9,"encoder":"574432729","distractor":"574432129","target":"absent","response":"absent","rt":"1575.5999999996","correct":true,"confidence":-1},{"trial_n":17,"span":9,"encoder":"517363136","distractor":"567363136","target":"present","response":"present","rt":"191283.7","correct":true,"confidence":-1},{"trial_n":18,"span":10,"encoder":"8950889063","distractor":"8350889063","target":"absent","response":"present","rt":"1278.1000000006","correct":false,"confidence":-1},{"trial_n":19,"span":9,"encoder":"436449196","distractor":"433449196","target":"absent","response":"absent","rt":"3717.5999999996","correct":true,"confidence":-1},{"trial_n":20,"span":9,"encoder":"472987002","distractor":"478987002","target":"absent","response":"absent","rt":"2384.2000000002","correct":true,"confidence":-1},{"trial_n":21,"span":10,"encoder":"8726808853","distractor":"8726808855","target":"absent","response":"absent","rt":"2699.3999999994","correct":true,"confidence":5},{"trial_n":22,"span":10,"encoder":"9399199484","distractor":"9399196484","target":"present","response":"present","rt":"2727.6000000006","correct":true,"confidence":3},{"trial_n":23,"span":11,"encoder":"79643970112","distractor":"79643975112","target":"absent","response":"absent","rt":"2093.7000000002","correct":true,"confidence":5},{"trial_n":24,"span":11,"encoder":"84814149778","distractor":"84814449778","target":"present","response":"absent","rt":"5909.8999999994","correct":false,"confidence":2},{"trial_n":25,"span":10,"encoder":"8077230461","distractor":"8077230421","target":"absent","response":"absent","rt":"2132.2000000002","correct":true,"confidence":5},{"trial_n":26,"span":10,"encoder":"3704909557","distractor":"3784909557","target":"present","response":"present","rt":"2849.2999999998","correct":true,"confidence":4},{"trial_n":27,"span":11,"encoder":"04116722509","distractor":"04116722500","target":"present","response":"present","rt":"3265.1000000006","correct":true,"confidence":3},{"trial_n":28,"span":11,"encoder":"42233567806","distractor":"32233567806","target":"absent","response":"present","rt":"2654.5","correct":false,"confidence":4},{"trial_n":29,"span":10,"encoder":"8570205493","distractor":"8571205493","target":"absent","response":"absent","rt":"4942.5","correct":true,"confidence":3},{"trial_n":30,"span":10,"encoder":"6724915464","distractor":"6724915264","target":"present","response":"present","rt":"3965.0999999996","correct":true,"confidence":3},{"trial_n":31,"span":11,"encoder":"48848367595","distractor":"48848367995","target":"absent","response":"absent","rt":"6312.5","correct":true,"confidence":2},{"trial_n":32,"span":11,"encoder":"47895292490","distractor":"46895292490","target":"present","response":"present","rt":"4326.9000000004","correct":true,"confidence":3},{"trial_n":33,"span":12,"encoder":"118356078197","distractor":"118356070197","target":"present","response":"present","rt":"2440.0999999996","correct":true,"confidence":4},{"trial_n":34,"span":12,"encoder":"702155874371","distractor":"772155874371","target":"present","response":"present","rt":"2586.5","correct":true,"confidence":3},{"trial_n":35,"span":13,"encoder":"9679593098338","distractor":"9679593098330","target":"absent","response":"absent","rt":"1910.4000000004","correct":true,"confidence":5},{"trial_n":36,"span":13,"encoder":"3625758269278","distractor":"3625759269278","target":"absent","response":"absent","rt":"3496.2000000002","correct":true,"confidence":2},{"trial_n":37,"span":14,"encoder":"40043179460637","distractor":"40043179460837","target":"present","response":"present","rt":"2358.7000000002","correct":true,"confidence":3},{"trial_n":38,"span":14,"encoder":"45557542672684","distractor":"45557442672684","target":"present","response":"present","rt":"3137.2999999998","correct":true,"confidence":4},{"trial_n":39,"span":15,"encoder":"991699712590296","distractor":"991699712990296","target":"absent","response":"present","rt":"4462","correct":false,"confidence":3},{"trial_n":40,"span":14,"encoder":"97568089812167","distractor":"97568089812177","target":"present","response":"present","rt":"2965.5","correct":true,"confidence":3},{"trial_n":41,"span":14,"encoder":"90138535076010","distractor":"90138535071010","target":"present","response":"present","rt":"3850","correct":true,"confidence":3},{"trial_n":42,"span":15,"encoder":"063457596218232","distractor":"063459596218232","target":"absent","response":"present","rt":"3025.3000000007","correct":false,"confidence":3},{"trial_n":43,"span":14,"encoder":"28024479134443","distractor":"28624479134443","target":"present","response":"present","rt":"3950","correct":true,"confidence":3},{"trial_n":44,"span":14,"encoder":"86538224494580","distractor":"86538224494380","target":"absent","response":"present","rt":"3991.7999999998","correct":false,"confidence":3},{"trial_n":45,"span":13,"encoder":"0764078923723","distractor":"0764078523723","target":"absent","response":"absent","rt":"1313.5999999996","correct":true,"confidence":4},{"trial_n":46,"span":13,"encoder":"0343434863357","distractor":"0343454863357","target":"absent","response":"present","rt":"2592.0999999996","correct":false,"confidence":3},{"trial_n":47,"span":12,"encoder":"065698535140","distractor":"065698534140","target":"absent","response":"absent","rt":"4933.2000000002","correct":true,"confidence":2},{"trial_n":48,"span":12,"encoder":"389015521686","distractor":"389015521386","target":"present","response":"present","rt":"2035.8999999994","correct":true,"confidence":3},{"trial_n":49,"span":13,"encoder":"8754272133541","distractor":"8754272133641","target":"absent","response":"absent","rt":"2799.3999999994","correct":true,"confidence":5},{"trial_n":50,"span":13,"encoder":"5204515821846","distractor":"5204515829846","target":"absent","response":"present","rt":"2148.6000000006","correct":false,"confidence":4},{"trial_n":51,"span":12,"encoder":"568151513249","distractor":"568171513249","target":"absent","response":"present","rt":"3979.3999999994","correct":false,"confidence":3},{"trial_n":52,"span":11,"encoder":"97638540917","distractor":"37638540917","target":"absent","response":"absent","rt":"2368.6000000006","correct":true,"confidence":5},{"trial_n":53,"span":11,"encoder":"09922966274","distractor":"09922962274","target":"present","response":"present","rt":"1992","correct":true,"confidence":4},{"trial_n":54,"span":12,"encoder":"774161187769","distractor":"774161687769","target":"absent","response":"absent","rt":"2815.9000000004","correct":true,"confidence":4},{"trial_n":55,"span":12,"encoder":"143579063139","distractor":"143579063539","target":"present","response":"present","rt":"2181.7999999998","correct":true,"confidence":3},{"trial_n":56,"span":13,"encoder":"3024367844161","distractor":"3024367844131","target":"present","response":"present","rt":"2103.6000000006","correct":true,"confidence":3},{"trial_n":57,"span":13,"encoder":"1725317763308","distractor":"1725313763308","target":"present","response":"present","rt":"1801.2999999998","correct":true,"confidence":3},{"trial_n":58,"span":14,"encoder":"33165983169744","distractor":"83165983169744","target":"absent","response":"absent","rt":"3583.3000000007","correct":true,"confidence":5},{"trial_n":59,"span":14,"encoder":"28079359702104","distractor":"28279359702104","target":"absent","response":"absent","rt":"2783.5999999996","correct":true,"confidence":5},{"trial_n":60,"span":15,"encoder":"631768416503780","distractor":"631768416593780","target":"present","response":"present","rt":"1959.5999999996","correct":true,"confidence":4},{"trial_n":61,"span":15,"encoder":"505664238494192","distractor":"505664238494142","target":"present","response":"present","rt":"3105.7999999998","correct":true,"confidence":3},{"trial_n":62,"span":16,"encoder":"5495964994927283","distractor":"9495964994927283","target":"present","response":"present","rt":"4318.2999999998","correct":true,"confidence":4},{"trial_n":63,"span":16,"encoder":"4729036958301949","distractor":"4729036158301949","target":"present","response":"present","rt":"2628.3999999994","correct":true,"confidence":3},{"trial_n":64,"span":17,"encoder":"67095883706850717","distractor":"67095883706850917","target":"absent","response":"present","rt":"2288","correct":false,"confidence":4},{"trial_n":65,"span":16,"encoder":"3249562046664013","distractor":"3249562016664013","target":"present","response":"present","rt":"3444.7000000002","correct":true,"confidence":4},{"trial_n":66,"span":16,"encoder":"3626542402240641","distractor":"3626742402240641","target":"present","response":"absent","rt":"4452.7999999998","correct":false,"confidence":3},{"trial_n":67,"span":15,"encoder":"394813027570733","distractor":"394813027570737","target":"present","response":"present","rt":"2678.6999999993","correct":true,"confidence":2},{"trial_n":68,"span":15,"encoder":"204691171392297","distractor":"204691171392797","target":"present","response":"present","rt":"3228.1000000006","correct":true,"confidence":3},{"trial_n":69,"span":16,"encoder":"2248065371324198","distractor":"2348065371324198","target":"present","response":"present","rt":"5141.0999999996","correct":true,"confidence":3},{"trial_n":70,"span":16,"encoder":"6352966851448584","distractor":"6352966853448584","target":"present","response":"present","rt":"2307.3000000007","correct":true,"confidence":2},{"trial_n":71,"span":8,"encoder":"12948292","distractor":"12948212","target":"present","response":"present","rt":"14618.699999999","correct":true,"confidence":-1},{"trial_n":72,"span":8,"encoder":"14789687","distractor":"04789687","target":"present","response":"present","rt":"6823.4000000004","correct":true,"confidence":-1},{"trial_n":73,"span":9,"encoder":"105286337","distractor":"145286337","target":"absent","response":"absent","rt":"3135.5","correct":true,"confidence":-1},{"trial_n":74,"span":9,"encoder":"345715900","distractor":"315715900","target":"absent","response":"absent","rt":"8529.2000000002","correct":true,"confidence":-1},{"trial_n":75,"span":10,"encoder":"8546869695","distractor":"8546869895","target":"present","response":"absent","rt":"6992.5","correct":false,"confidence":-1},{"trial_n":76,"span":9,"encoder":"631429769","distractor":"631329769","target":"absent","response":"absent","rt":"4021.1999999993","correct":true,"confidence":-1},{"trial_n":77,"span":9,"encoder":"625287452","distractor":"625287952","target":"absent","response":"absent","rt":"3443.7000000002","correct":true,"confidence":-1},{"trial_n":78,"span":10,"encoder":"9646305620","distractor":"9646305630","target":"present","response":"present","rt":"2659.2000000002","correct":true,"confidence":-1},{"trial_n":79,"span":10,"encoder":"2635292857","distractor":"2637292857","target":"present","response":"present","rt":"5565","correct":true,"confidence":-1},{"trial_n":80,"span":11,"encoder":"03880511720","distractor":"03880511729","target":"absent","response":"absent","rt":"3561.5","correct":true,"confidence":-1},{"trial_n":81,"span":11,"encoder":"16445269402","distractor":"86445269402","target":"absent","response":"absent","rt":"2358.1000000006","correct":true,"confidence":-1},{"trial_n":82,"span":12,"encoder":"294484170875","distractor":"294784170875","target":"absent","response":"absent","rt":"4069.8999999994","correct":true,"confidence":-1},{"trial_n":83,"span":12,"encoder":"757658375235","distractor":"757658375735","target":"present","response":"absent","rt":"7544.5999999996","correct":false,"confidence":-1},{"trial_n":84,"span":11,"encoder":"34073877112","distractor":"34073877912","target":"present","response":"absent","rt":"3682.7000000002","correct":false,"confidence":-1},{"trial_n":85,"span":10,"encoder":"9334839225","distractor":"9339839225","target":"present","response":"present","rt":"3430.8999999994","correct":true,"confidence":-1},{"trial_n":86,"span":10,"encoder":"4076356877","distractor":"1076356877","target":"present","response":"present","rt":"3919.2999999998","correct":true,"confidence":-1},{"trial_n":87,"span":11,"encoder":"49469809737","distractor":"49469801737","target":"present","response":"present","rt":"1964.6000000006","correct":true,"confidence":-1},{"trial_n":88,"span":11,"encoder":"18835623724","distractor":"58835623724","target":"present","response":"present","rt":"2097.9000000004","correct":true,"confidence":-1},{"trial_n":89,"span":12,"encoder":"767649308109","distractor":"667649308109","target":"present","response":"present","rt":"2737.2999999998","correct":true,"confidence":-1},{"trial_n":90,"span":12,"encoder":"193267614352","distractor":"193267714352","target":"present","response":"present","rt":"4824.0999999996","correct":true,"confidence":-1},{"trial_n":91,"span":13,"encoder":"3876729959979","distractor":"3876729959909","target":"absent","response":"absent","rt":"1469.7000000002","correct":true,"confidence":5},{"trial_n":92,"span":13,"encoder":"8283166179122","distractor":"7283166179122","target":"absent","response":"absent","rt":"3791.0999999996","correct":true,"confidence":5},{"trial_n":93,"span":14,"encoder":"81774273674368","distractor":"81774273672368","target":"present","response":"present","rt":"1963.9000000004","correct":true,"confidence":5},{"trial_n":94,"span":14,"encoder":"49483569891610","distractor":"49483569891611","target":"absent","response":"absent","rt":"1923.8999999994","correct":true,"confidence":5},{"trial_n":95,"span":15,"encoder":"768953616442687","distractor":"768953616442787","target":"absent","response":"absent","rt":"2072.1000000006","correct":true,"confidence":5},{"trial_n":96,"span":15,"encoder":"096895693537668","distractor":"096895693537663","target":"absent","response":"absent","rt":"1458.5999999996","correct":true,"confidence":5},{"trial_n":97,"span":16,"encoder":"0117855996626119","distractor":"2117855996626119","target":"present","response":"present","rt":"1693.6000000006","correct":true,"confidence":5},{"trial_n":98,"span":16,"encoder":"4217441004988410","distractor":"4217441064988410","target":"absent","response":"present","rt":"7808.4000000004","correct":false,"confidence":2},{"trial_n":99,"span":15,"encoder":"159775894137884","distractor":"152775894137884","target":"absent","response":"absent","rt":"1716.7000000002","correct":true,"confidence":5},{"trial_n":100,"span":15,"encoder":"172116485000207","distractor":"112116485000207","target":"present","response":"present","rt":"2454.1000000006","correct":true,"confidence":4},{"trial_n":101,"span":16,"encoder":"3080889444376590","distractor":"3080889444373590","target":"present","response":"present","rt":"6363.7000000002","correct":true,"confidence":2},{"trial_n":102,"span":16,"encoder":"2743059190710650","distractor":"2743959190710650","target":"absent","response":"present","rt":"5229.4000000004","correct":false,"confidence":1},{"trial_n":103,"span":15,"encoder":"269782684902461","distractor":"219782684902461","target":"absent","response":"absent","rt":"7112.5","correct":true,"confidence":2},{"trial_n":104,"span":15,"encoder":"501801825074347","distractor":"501801925074347","target":"absent","response":"present","rt":"4388.7000000002","correct":false,"confidence":1},{"trial_n":105,"span":14,"encoder":"40272345998215","distractor":"40272345998213","target":"absent","response":"absent","rt":"3561.8999999994","correct":true,"confidence":2},{"trial_n":106,"span":14,"encoder":"81179933459692","distractor":"81179933489692","target":"present","response":"absent","rt":"7244","correct":false,"confidence":1},{"trial_n":107,"span":13,"encoder":"7578920611437","distractor":"7578920611436","target":"present","response":"present","rt":"5564.8999999994","correct":true,"confidence":2},{"trial_n":108,"span":13,"encoder":"5010635079447","distractor":"5010605079447","target":"absent","response":"absent","rt":"7365.5999999996","correct":true,"confidence":2},{"trial_n":109,"span":14,"encoder":"79794565854525","distractor":"79794565154525","target":"present","response":"present","rt":"4018.2000000002","correct":true,"confidence":4},{"trial_n":110,"span":14,"encoder":"36138766764590","distractor":"36138766764580","target":"present","response":"absent","rt":"6111.1999999993","correct":false,"confidence":2},{"trial_n":111,"span":13,"encoder":"0066459792214","distractor":"0066489792214","target":"absent","response":"present","rt":"6216.7999999998","correct":false,"confidence":2},{"trial_n":112,"span":12,"encoder":"512847863928","distractor":"512847843928","target":"absent","response":"present","rt":"2963.8999999994","correct":false,"confidence":1},{"trial_n":113,"span":11,"encoder":"76498676954","distractor":"76498576954","target":"absent","response":"absent","rt":"4749.6999999993","correct":true,"confidence":1},{"trial_n":114,"span":11,"encoder":"55109466571","distractor":"55109464571","target":"present","response":"present","rt":"3237.5","correct":true,"confidence":4},{"trial_n":115,"span":12,"encoder":"358749804120","distractor":"358749004120","target":"absent","response":"present","rt":"8052.4000000004","correct":false,"confidence":2},{"trial_n":116,"span":11,"encoder":"02337540192","distractor":"02337549192","target":"present","response":"present","rt":"3940.1000000006","correct":true,"confidence":4},{"trial_n":117,"span":11,"encoder":"66367991371","distractor":"66367991372","target":"absent","response":"present","rt":"7510.9000000004","correct":false,"confidence":2},{"trial_n":118,"span":10,"encoder":"4081181954","distractor":"4081187954","target":"present","response":"present","rt":"5135.2000000002","correct":true,"confidence":2},{"trial_n":119,"span":10,"encoder":"6759673695","distractor":"6759673625","target":"present","response":"present","rt":"6330.1000000006","correct":true,"confidence":1},{"trial_n":120,"span":11,"encoder":"69814661970","distractor":"69818661970","target":"present","response":"present","rt":"6055","correct":true,"confidence":1},{"trial_n":121,"span":11,"encoder":"86446431082","distractor":"86246431082","target":"absent","response":"absent","rt":"2973.7000000002","correct":true,"confidence":5},{"trial_n":122,"span":12,"encoder":"229870421794","distractor":"229870429794","target":"absent","response":"absent","rt":"3337.5","correct":true,"confidence":1},{"trial_n":123,"span":12,"encoder":"530548102902","distractor":"530548102942","target":"absent","response":"absent","rt":"1640","correct":true,"confidence":5},{"trial_n":124,"span":13,"encoder":"8341210267379","distractor":"8341210267349","target":"present","response":"present","rt":"1921.2999999998","correct":true,"confidence":5},{"trial_n":125,"span":13,"encoder":"0741862329042","distractor":"0741862329046","target":"present","response":"absent","rt":"5869.8000000007","correct":false,"confidence":2},{"trial_n":126,"span":12,"encoder":"578568178793","distractor":"518568178793","target":"present","response":"present","rt":"7854.5","correct":true,"confidence":4},{"trial_n":127,"span":12,"encoder":"128683631253","distractor":"728683631253","target":"present","response":"present","rt":"2478.4000000004","correct":true,"confidence":5},{"trial_n":128,"span":13,"encoder":"0613007111312","distractor":"0613007111112","target":"present","response":"present","rt":"2201.4000000004","correct":true,"confidence":5},{"trial_n":129,"span":13,"encoder":"1465392994249","distractor":"1415392994249","target":"present","response":"present","rt":"6362.2000000002","correct":true,"confidence":3},{"trial_n":130,"span":14,"encoder":"21366367907295","distractor":"21336367907295","target":"present","response":"present","rt":"4428.1000000006","correct":true,"confidence":3},{"trial_n":131,"span":14,"encoder":"38879764845632","distractor":"38849764845632","target":"absent","response":"absent","rt":"1689.8999999994","correct":true,"confidence":5},{"trial_n":132,"span":15,"encoder":"329044478617177","distractor":"329044474617177","target":"absent","response":"absent","rt":"4661.8999999994","correct":true,"confidence":3},{"trial_n":133,"span":15,"encoder":"641998590681719","distractor":"641992590681719","target":"absent","response":"absent","rt":"3750.7999999998","correct":true,"confidence":3},{"trial_n":134,"span":16,"encoder":"5186578690293521","distractor":"5186578690493521","target":"present","response":"present","rt":"6282.5999999996","correct":true,"confidence":1},{"trial_n":135,"span":16,"encoder":"6182527185233189","distractor":"6182527185253189","target":"present","response":"present","rt":"1863.5999999996","correct":true,"confidence":5},{"trial_n":136,"span":17,"encoder":"85809522904469596","distractor":"85809522804469596","target":"absent","response":"absent","rt":"7170.3000000007","correct":true,"confidence":2},{"trial_n":137,"span":17,"encoder":"40453131924093489","distractor":"40463131924093489","target":"absent","response":"absent","rt":"4585","correct":true,"confidence":4},{"trial_n":138,"span":18,"encoder":"611220219008272818","distractor":"611220219008372818","target":"absent","response":"present","rt":"8920","correct":false,"confidence":2},{"trial_n":139,"span":17,"encoder":"47812403075541307","distractor":"47812403075641307","target":"absent","response":"absent","rt":"4949.3000000007","correct":true,"confidence":4},{"trial_n":140,"span":17,"encoder":"03929686390522138","distractor":"03929686390525138","target":"present","response":"present","rt":"2119.5999999996","correct":true,"confidence":5}]