[{"trial_n":1,"n_dots":4.25,"target":"right","response":"right","rt":3340,"correct":true,"confidence":-1},{"trial_n":2,"n_dots":4.25,"target":"right","response":"right","rt":755,"correct":true,"confidence":-1},{"trial_n":3,"n_dots":3.85,"target":"right","response":"right","rt":733,"correct":true,"confidence":-1},{"trial_n":4,"n_dots":3.85,"target":"right","response":"right","rt":4073,"correct":true,"confidence":-1},{"trial_n":5,"n_dots":3.45,"target":"right","response":"right","rt":896,"correct":true,"confidence":-1},{"trial_n":6,"n_dots":3.45,"target":"right","response":"right","rt":620.00000000001,"correct":true,"confidence":-1},{"trial_n":7,"n_dots":3.05,"target":"right","response":"left","rt":1099,"correct":false,"confidence":-1},{"trial_n":8,"n_dots":3.25,"target":"right","response":"right","rt":497,"correct":true,"confidence":-1},{"trial_n":9,"n_dots":3.25,"target":"left","response":"right","rt":662.99999999999,"correct":false,"confidence":-1},{"trial_n":10,"n_dots":3.45,"target":"left","response":"right","rt":676,"correct":false,"confidence":-1},{"trial_n":11,"n_dots":3.65,"target":"right","response":"right","rt":578.00000000001,"correct":true,"confidence":-1},{"trial_n":12,"n_dots":3.65,"target":"left","response":"left","rt":985,"correct":true,"confidence":-1},{"trial_n":13,"n_dots":3.55,"target":"left","response":"left","rt":727,"correct":true,"confidence":-1},{"trial_n":14,"n_dots":3.55,"target":"right","response":"right","rt":530,"correct":true,"confidence":-1},{"trial_n":15,"n_dots":3.45,"target":"right","response":"right","rt":628,"correct":true,"confidence":-1},{"trial_n":16,"n_dots":3.45,"target":"right","response":"right","rt":594,"correct":true,"confidence":-1},{"trial_n":17,"n_dots":3.35,"target":"right","response":"left","rt":646,"correct":false,"confidence":-1},{"trial_n":18,"n_dots":3.45,"target":"right","response":"right","rt":626.00000000001,"correct":true,"confidence":-1},{"trial_n":19,"n_dots":3.45,"target":"left","response":"left","rt":622.99999999999,"correct":true,"confidence":-1},{"trial_n":20,"n_dots":3.35,"target":"right","response":"right","rt":553,"correct":true,"confidence":-1},{"trial_n":21,"n_dots":3.35,"target":"left","response":"left","rt":661,"correct":true,"confidence":4},{"trial_n":22,"n_dots":3.25,"target":"right","response":"right","rt":879,"correct":true,"confidence":5},{"trial_n":23,"n_dots":3.25,"target":"left","response":"left","rt":588,"correct":true,"confidence":5},{"trial_n":24,"n_dots":3.15,"target":"right","response":"right","rt":741,"correct":true,"confidence":2},{"trial_n":25,"n_dots":3.15,"target":"left","response":"left","rt":653,"correct":true,"confidence":4},{"trial_n":26,"n_dots":3.05,"target":"left","response":"left","rt":603,"correct":true,"confidence":4},{"trial_n":27,"n_dots":3.05,"target":"left","response":"right","rt":453.99999999997,"correct":false,"confidence":2},{"trial_n":28,"n_dots":3.15,"target":"right","response":"right","rt":585,"correct":true,"confidence":3},{"trial_n":29,"n_dots":3.15,"target":"left","response":"left","rt":1807,"correct":true,"confidence":1},{"trial_n":30,"n_dots":3.05,"target":"left","response":"left","rt":747,"correct":true,"confidence":2},{"trial_n":31,"n_dots":3.05,"target":"right","response":"right","rt":355,"correct":true,"confidence":5},{"trial_n":32,"n_dots":2.95,"target":"right","response":"left","rt":747.99999999997,"correct":false,"confidence":2},{"trial_n":33,"n_dots":3.05,"target":"left","response":"right","rt":458,"correct":false,"confidence":3},{"trial_n":34,"n_dots":3.15,"target":"right","response":"right","rt":412,"correct":true,"confidence":3},{"trial_n":35,"n_dots":3.15,"target":"right","response":"left","rt":1596,"correct":false,"confidence":1},{"trial_n":36,"n_dots":3.25,"target":"left","response":"left","rt":812,"correct":true,"confidence":3},{"trial_n":37,"n_dots":3.25,"target":"right","response":"right","rt":312,"correct":true,"confidence":5},{"trial_n":38,"n_dots":3.15,"target":"right","response":"right","rt":333.00000000003,"correct":true,"confidence":5},{"trial_n":39,"n_dots":3.15,"target":"right","response":"right","rt":830,"correct":true,"confidence":3},{"trial_n":40,"n_dots":3.05,"target":"left","response":"right","rt":1534,"correct":false,"confidence":3},{"trial_n":41,"n_dots":3.15,"target":"right","response":"right","rt":422.00000000003,"correct":true,"confidence":5},{"trial_n":42,"n_dots":3.15,"target":"right","response":"right","rt":703,"correct":true,"confidence":4},{"trial_n":43,"n_dots":3.05,"target":"left","response":"left","rt":584,"correct":true,"confidence":4},{"trial_n":44,"n_dots":3.05,"target":"left","response":"left","rt":618,"correct":true,"confidence":2},{"trial_n":45,"n_dots":2.95,"target":"left","response":"right","rt":1167,"correct":false,"confidence":4},{"trial_n":46,"n_dots":3.05,"target":"left","response":"left","rt":1224,"correct":true,"confidence":1},{"trial_n":47,"n_dots":3.05,"target":"left","response":"left","rt":1606,"correct":true,"confidence":2},{"trial_n":48,"n_dots":2.95,"target":"left","response":"left","rt":687,"correct":true,"confidence":5},{"trial_n":49,"n_dots":2.95,"target":"left","response":"left","rt":559,"correct":true,"confidence":4},{"trial_n":50,"n_dots":2.85,"target":"left","response":"left","rt":767,"correct":true,"confidence":3},{"trial_n":51,"n_dots":2.85,"target":"right","response":"right","rt":992,"correct":true,"confidence":4},{"trial_n":52,"n_dots":2.75,"target":"left","response":"left","rt":520,"correct":true,"confidence":2},{"trial_n":53,"n_dots":2.75,"target":"right","response":"right","rt":1532,"correct":true,"confidence":2},{"trial_n":54,"n_dots":2.65,"target":"right","response":"left","rt":638,"correct":false,"confidence":1},{"trial_n":55,"n_dots":2.75,"target":"right","response":"right","rt":1032,"correct":true,"confidence":1},{"trial_n":56,"n_dots":2.75,"target":"right","response":"right","rt":729,"correct":true,"confidence":1},{"trial_n":57,"n_dots":2.65,"target":"left","response":"left","rt":705,"correct":true,"confidence":2},{"trial_n":58,"n_dots":2.65,"target":"right","response":"right","rt":321.00000000006,"correct":true,"confidence":2},{"trial_n":59,"n_dots":2.55,"target":"left","response":"left","rt":522,"correct":true,"confidence":2},{"trial_n":60,"n_dots":2.55,"target":"left","response":"left","rt":2436,"correct":true,"confidence":1},{"trial_n":61,"n_dots":2.45,"target":"right","response":"right","rt":561,"correct":true,"confidence":2},{"trial_n":62,"n_dots":2.45,"target":"right","response":"right","rt":493,"correct":true,"confidence":4},{"trial_n":63,"n_dots":2.35,"target":"right","response":"right","rt":157,"correct":true,"confidence":4},{"trial_n":64,"n_dots":2.35,"target":"left","response":"right","rt":913.99999999994,"correct":false,"confidence":5},{"trial_n":65,"n_dots":2.45,"target":"left","response":"left","rt":512,"correct":true,"confidence":2},{"trial_n":66,"n_dots":2.45,"target":"right","response":"left","rt":1452,"correct":false,"confidence":1},{"trial_n":67,"n_dots":2.55,"target":"right","response":"left","rt":1089,"correct":false,"confidence":3},{"trial_n":68,"n_dots":2.65,"target":"left","response":"right","rt":639,"correct":false,"confidence":4},{"trial_n":69,"n_dots":2.75,"target":"right","response":"right","rt":561.00000000006,"correct":true,"confidence":3},{"trial_n":70,"n_dots":2.75,"target":"left","response":"right","rt":740.00000000006,"correct":false,"confidence":3},{"trial_n":71,"n_dots":2.85,"target":"left","response":"left","rt":404,"correct":true,"confidence":1},{"trial_n":72,"n_dots":2.85,"target":"left","response":"left","rt":790,"correct":true,"confidence":5},{"trial_n":73,"n_dots":2.75,"target":"left","response":"left","rt":858,"correct":true,"confidence":5},{"trial_n":74,"n_dots":2.75,"target":"left","response":"left","rt":918,"correct":true,"confidence":5},{"trial_n":75,"n_dots":2.65,"target":"left","response":"left","rt":999,"correct":true,"confidence":4},{"trial_n":76,"n_dots":2.65,"target":"left","response":"right","rt":1655.9999999999,"correct":false,"confidence":1},{"trial_n":77,"n_dots":2.75,"target":"right","response":"left","rt":933,"correct":false,"confidence":3},{"trial_n":78,"n_dots":2.85,"target":"left","response":"left","rt":688,"correct":true,"confidence":5},{"trial_n":79,"n_dots":2.85,"target":"left","response":"right","rt":1507,"correct":false,"confidence":1},{"trial_n":80,"n_dots":2.95,"target":"left","response":"left","rt":778,"correct":true,"confidence":4},{"trial_n":81,"n_dots":2.95,"target":"right","response":"right","rt":592.00000000006,"correct":true,"confidence":3},{"trial_n":82,"n_dots":2.85,"target":"left","response":"left","rt":662,"correct":true,"confidence":3},{"trial_n":83,"n_dots":2.85,"target":"right","response":"right","rt":423.99999999994,"correct":true,"confidence":5},{"trial_n":84,"n_dots":2.75,"target":"left","response":"left","rt":847.99999999994,"correct":true,"confidence":1},{"trial_n":85,"n_dots":2.75,"target":"right","response":"right","rt":852.99999999994,"correct":true,"confidence":1},{"trial_n":86,"n_dots":2.65,"target":"left","response":"right","rt":835,"correct":false,"confidence":1},{"trial_n":87,"n_dots":2.75,"target":"left","response":"left","rt":911,"correct":true,"confidence":1},{"trial_n":88,"n_dots":2.75,"target":"right","response":"right","rt":578.99999999994,"correct":true,"confidence":1},{"trial_n":89,"n_dots":2.65,"target":"left","response":"left","rt":707,"correct":true,"confidence":1},{"trial_n":90,"n_dots":2.65,"target":"left","response":"left","rt":772,"correct":true,"confidence":1},{"trial_n":91,"n_dots":2.55,"target":"right","response":"left","rt":856.99999999994,"correct":false,"confidence":1},{"trial_n":92,"n_dots":2.65,"target":"right","response":"right","rt":431,"correct":true,"confidence":1},{"trial_n":93,"n_dots":2.65,"target":"right","response":"right","rt":3061,"correct":true,"confidence":1},{"trial_n":94,"n_dots":2.55,"target":"right","response":"right","rt":955,"correct":true,"confidence":4},{"trial_n":95,"n_dots":2.55,"target":"right","response":"left","rt":1197,"correct":false,"confidence":1},{"trial_n":96,"n_dots":2.65,"target":"left","response":"right","rt":1355.0000000001,"correct":false,"confidence":1},{"trial_n":97,"n_dots":2.75,"target":"left","response":"right","rt":1042.0000000001,"correct":false,"confidence":1},{"trial_n":98,"n_dots":2.85,"target":"right","response":"left","rt":818,"correct":false,"confidence":1},{"trial_n":99,"n_dots":2.95,"target":"right","response":"right","rt":2066,"correct":true,"confidence":3},{"trial_n":100,"n_dots":2.95,"target":"left","response":"right","rt":849,"correct":false,"confidence":1},{"trial_n":101,"n_dots":3.05,"target":"right","response":"right","rt":990,"correct":true,"confidence":4},{"trial_n":102,"n_dots":3.05,"target":"right","response":"right","rt":828.00000000006,"correct":true,"confidence":2},{"trial_n":103,"n_dots":2.95,"target":"left","response":"right","rt":822.99999999994,"correct":false,"confidence":2},{"trial_n":104,"n_dots":3.05,"target":"right","response":"right","rt":867.00000000006,"correct":true,"confidence":3},{"trial_n":105,"n_dots":3.05,"target":"right","response":"right","rt":945,"correct":true,"confidence":4},{"trial_n":106,"n_dots":2.95,"target":"left","response":"left","rt":882.99999999994,"correct":true,"confidence":1},{"trial_n":107,"n_dots":2.95,"target":"left","response":"left","rt":951.00000000006,"correct":true,"confidence":1},{"trial_n":108,"n_dots":2.85,"target":"left","response":"left","rt":905,"correct":true,"confidence":1},{"trial_n":109,"n_dots":2.85,"target":"right","response":"left","rt":791.99999999994,"correct":false,"confidence":4},{"trial_n":110,"n_dots":2.95,"target":"left","response":"right","rt":941,"correct":false,"confidence":1},{"trial_n":111,"n_dots":3.05,"target":"left","response":"right","rt":850.00000000012,"correct":false,"confidence":1},{"trial_n":112,"n_dots":3.15,"target":"left","response":"left","rt":732,"correct":true,"confidence":1},{"trial_n":113,"n_dots":3.15,"target":"left","response":"right","rt":408,"correct":false,"confidence":1},{"trial_n":114,"n_dots":3.25,"target":"left","response":"right","rt":570,"correct":false,"confidence":1},{"trial_n":115,"n_dots":3.35,"target":"left","response":"left","rt":1629.0000000001,"correct":true,"confidence":2},{"trial_n":116,"n_dots":3.35,"target":"right","response":"left","rt":685,"correct":false,"confidence":1},{"trial_n":117,"n_dots":3.45,"target":"right","response":"left","rt":673,"correct":false,"confidence":1},{"trial_n":118,"n_dots":3.55,"target":"left","response":"right","rt":542,"correct":false,"confidence":1},{"trial_n":119,"n_dots":3.65,"target":"right","response":"right","rt":566,"correct":true,"confidence":3},{"trial_n":120,"n_dots":3.65,"target":"right","response":"right","rt":1129,"correct":true,"confidence":4}]