[{"trial_n":1,"min":25,"max":230,"target":"present","response":"present","rt":11022.599999905,"correct":true,"confidence":-1},{"trial_n":2,"min":25,"max":230,"target":"present","response":"present","rt":940.20000004768,"correct":true,"confidence":-1},{"trial_n":3,"min":41,"max":214,"target":"absent","response":"absent","rt":1511.6999999285,"correct":true,"confidence":-1},{"trial_n":4,"min":41,"max":214,"target":"absent","response":"absent","rt":1374,"correct":true,"confidence":-1},{"trial_n":5,"min":57,"max":198,"target":"present","response":"present","rt":1062.1000000238,"correct":true,"confidence":-1},{"trial_n":6,"min":57,"max":198,"target":"present","response":"present","rt":1080,"correct":true,"confidence":-1},{"trial_n":7,"min":73,"max":182,"target":"absent","response":"absent","rt":937.20000004768,"correct":true,"confidence":-1},{"trial_n":8,"min":73,"max":182,"target":"absent","response":"absent","rt":977.5,"correct":true,"confidence":-1},{"trial_n":9,"min":89,"max":166,"target":"present","response":"absent","rt":1189.3000000715,"correct":false,"confidence":-1},{"trial_n":10,"min":73,"max":182,"target":"present","response":"absent","rt":1402.0999999046,"correct":false,"confidence":-1},{"trial_n":11,"min":65,"max":190,"target":"absent","response":"absent","rt":1105,"correct":true,"confidence":-1},{"trial_n":12,"min":65,"max":190,"target":"present","response":"present","rt":1016.1000000238,"correct":true,"confidence":-1},{"trial_n":13,"min":73,"max":182,"target":"absent","response":"present","rt":1138.5,"correct":false,"confidence":-1},{"trial_n":14,"min":65,"max":190,"target":"absent","response":"absent","rt":1723.8000000715,"correct":true,"confidence":-1},{"trial_n":15,"min":65,"max":190,"target":"present","response":"present","rt":1003.3999999762,"correct":true,"confidence":-1},{"trial_n":16,"min":73,"max":182,"target":"absent","response":"absent","rt":1792.7000000477,"correct":true,"confidence":-1},{"trial_n":17,"min":73,"max":182,"target":"absent","response":"present","rt":2153.4000000954,"correct":false,"confidence":-1},{"trial_n":18,"min":65,"max":190,"target":"present","response":"present","rt":1177.1999999285,"correct":true,"confidence":-1},{"trial_n":19,"min":65,"max":190,"target":"present","response":"present","rt":913,"correct":true,"confidence":-1},{"trial_n":20,"min":73,"max":182,"target":"absent","response":"absent","rt":2215.5999999046,"correct":true,"confidence":-1},{"trial_n":21,"min":73,"max":182,"target":"absent","response":"absent","rt":2169.5999999046,"correct":true,"confidence":2},{"trial_n":22,"min":77,"max":178,"target":"present","response":"present","rt":893.79999995232,"correct":true,"confidence":5},{"trial_n":23,"min":77,"max":178,"target":"absent","response":"present","rt":1387.5,"correct":false,"confidence":3},{"trial_n":24,"min":73,"max":182,"target":"present","response":"present","rt":948.40000009537,"correct":true,"confidence":5},{"trial_n":25,"min":73,"max":182,"target":"present","response":"present","rt":692.69999992847,"correct":true,"confidence":5},{"trial_n":26,"min":77,"max":178,"target":"present","response":"present","rt":766.30000007153,"correct":true,"confidence":3},{"trial_n":27,"min":77,"max":178,"target":"absent","response":"absent","rt":909.89999997616,"correct":true,"confidence":2},{"trial_n":28,"min":81,"max":174,"target":"present","response":"present","rt":830.70000004768,"correct":true,"confidence":5},{"trial_n":29,"min":81,"max":174,"target":"present","response":"present","rt":936.69999992847,"correct":true,"confidence":5},{"trial_n":30,"min":85,"max":170,"target":"absent","response":"absent","rt":902.29999995232,"correct":true,"confidence":4},{"trial_n":31,"min":85,"max":170,"target":"absent","response":"absent","rt":1378.2999999523,"correct":true,"confidence":3},{"trial_n":32,"min":87,"max":168,"target":"absent","response":"present","rt":793.40000009537,"correct":false,"confidence":3},{"trial_n":33,"min":85,"max":170,"target":"present","response":"present","rt":860,"correct":true,"confidence":5},{"trial_n":34,"min":85,"max":170,"target":"absent","response":"absent","rt":1293.2999999523,"correct":true,"confidence":4},{"trial_n":35,"min":87,"max":168,"target":"present","response":"absent","rt":1009.1000000238,"correct":false,"confidence":2},{"trial_n":36,"min":85,"max":170,"target":"present","response":"present","rt":650.70000004768,"correct":true,"confidence":4},{"trial_n":37,"min":85,"max":170,"target":"absent","response":"absent","rt":929.70000004768,"correct":true,"confidence":5},{"trial_n":38,"min":87,"max":168,"target":"present","response":"present","rt":801.90000009537,"correct":true,"confidence":4},{"trial_n":39,"min":87,"max":168,"target":"absent","response":"absent","rt":1055.2000000477,"correct":true,"confidence":3},{"trial_n":40,"min":89,"max":166,"target":"present","response":"absent","rt":811.59999990463,"correct":false,"confidence":5},{"trial_n":41,"min":88,"max":167,"target":"present","response":"present","rt":1055.6999999285,"correct":true,"confidence":3},{"trial_n":42,"min":88,"max":167,"target":"present","response":"present","rt":807.29999995232,"correct":true,"confidence":3},{"trial_n":43,"min":89,"max":166,"target":"present","response":"present","rt":1180.5999999046,"correct":true,"confidence":3},{"trial_n":44,"min":89,"max":166,"target":"absent","response":"absent","rt":616,"correct":true,"confidence":5},{"trial_n":45,"min":90,"max":165,"target":"absent","response":"absent","rt":808.89999997616,"correct":true,"confidence":5},{"trial_n":46,"min":90,"max":165,"target":"present","response":"present","rt":869,"correct":true,"confidence":2},{"trial_n":47,"min":91,"max":164,"target":"present","response":"present","rt":833.20000004768,"correct":true,"confidence":3},{"trial_n":48,"min":91,"max":164,"target":"absent","response":"present","rt":988.19999992847,"correct":false,"confidence":3},{"trial_n":49,"min":90,"max":165,"target":"present","response":"absent","rt":802.19999992847,"correct":false,"confidence":4},{"trial_n":50,"min":89,"max":166,"target":"absent","response":"absent","rt":738.60000002384,"correct":true,"confidence":5},{"trial_n":51,"min":89,"max":166,"target":"absent","response":"absent","rt":895.70000004768,"correct":true,"confidence":3},{"trial_n":52,"min":90,"max":165,"target":"absent","response":"absent","rt":668.10000002384,"correct":true,"confidence":4},{"trial_n":53,"min":90,"max":165,"target":"absent","response":"absent","rt":594.79999995232,"correct":true,"confidence":5},{"trial_n":54,"min":91,"max":164,"target":"absent","response":"absent","rt":2865.5,"correct":true,"confidence":1},{"trial_n":55,"min":91,"max":164,"target":"present","response":"present","rt":1258.7000000477,"correct":true,"confidence":2},{"trial_n":56,"min":92,"max":163,"target":"present","response":"absent","rt":756.5,"correct":false,"confidence":3},{"trial_n":57,"min":91,"max":164,"target":"present","response":"absent","rt":1151.1000000238,"correct":false,"confidence":3},{"trial_n":58,"min":90,"max":165,"target":"absent","response":"absent","rt":722.5,"correct":true,"confidence":3},{"trial_n":59,"min":90,"max":165,"target":"present","response":"present","rt":921.80000007153,"correct":true,"confidence":3},{"trial_n":60,"min":91,"max":164,"target":"present","response":"absent","rt":792.79999995232,"correct":false,"confidence":5},{"trial_n":61,"min":90,"max":165,"target":"absent","response":"absent","rt":902.79999995232,"correct":true,"confidence":4},{"trial_n":62,"min":90,"max":165,"target":"absent","response":"absent","rt":784.20000004768,"correct":true,"confidence":4},{"trial_n":63,"min":91,"max":164,"target":"present","response":"present","rt":772.70000004768,"correct":true,"confidence":4},{"trial_n":64,"min":91,"max":164,"target":"present","response":"present","rt":1393.9000000954,"correct":true,"confidence":3},{"trial_n":65,"min":92,"max":163,"target":"present","response":"absent","rt":775.5,"correct":false,"confidence":3},{"trial_n":66,"min":91,"max":164,"target":"absent","response":"present","rt":752.5,"correct":false,"confidence":5},{"trial_n":67,"min":90,"max":165,"target":"absent","response":"present","rt":770.70000004768,"correct":false,"confidence":5},{"trial_n":68,"min":89,"max":166,"target":"absent","response":"present","rt":734.79999995232,"correct":false,"confidence":5},{"trial_n":69,"min":88,"max":167,"target":"present","response":"present","rt":765.30000007153,"correct":true,"confidence":5},{"trial_n":70,"min":88,"max":167,"target":"absent","response":"present","rt":784.70000004768,"correct":false,"confidence":5},{"trial_n":71,"min":41,"max":214,"target":"present","response":"present","rt":8379.6999999285,"correct":true,"confidence":-1},{"trial_n":72,"min":41,"max":214,"target":"present","response":"present","rt":1049.3000000715,"correct":true,"confidence":-1},{"trial_n":73,"min":57,"max":198,"target":"absent","response":"absent","rt":1266.6000000238,"correct":true,"confidence":-1},{"trial_n":74,"min":57,"max":198,"target":"absent","response":"absent","rt":835,"correct":true,"confidence":-1},{"trial_n":75,"min":73,"max":182,"target":"present","response":"present","rt":1143.2000000477,"correct":true,"confidence":-1},{"trial_n":76,"min":73,"max":182,"target":"present","response":"present","rt":644.80000007153,"correct":true,"confidence":-1},{"trial_n":77,"min":89,"max":166,"target":"present","response":"present","rt":1464.3000000715,"correct":true,"confidence":-1},{"trial_n":78,"min":89,"max":166,"target":"absent","response":"present","rt":1326.7000000477,"correct":false,"confidence":-1},{"trial_n":79,"min":73,"max":182,"target":"present","response":"present","rt":648.19999992847,"correct":true,"confidence":-1},{"trial_n":80,"min":73,"max":182,"target":"present","response":"present","rt":570.29999995232,"correct":true,"confidence":-1},{"trial_n":81,"min":81,"max":174,"target":"absent","response":"absent","rt":1835.3000000715,"correct":true,"confidence":-1},{"trial_n":82,"min":81,"max":174,"target":"present","response":"present","rt":1116,"correct":true,"confidence":-1},{"trial_n":83,"min":89,"max":166,"target":"present","response":"present","rt":1348.7999999523,"correct":true,"confidence":-1},{"trial_n":84,"min":89,"max":166,"target":"absent","response":"absent","rt":1620,"correct":true,"confidence":-1},{"trial_n":85,"min":97,"max":158,"target":"present","response":"absent","rt":1988.8999999762,"correct":false,"confidence":-1},{"trial_n":86,"min":89,"max":166,"target":"present","response":"present","rt":1171.3000000715,"correct":true,"confidence":-1},{"trial_n":87,"min":89,"max":166,"target":"present","response":"present","rt":649,"correct":true,"confidence":-1},{"trial_n":88,"min":97,"max":158,"target":"absent","response":"present","rt":888,"correct":false,"confidence":-1},{"trial_n":89,"min":89,"max":166,"target":"absent","response":"present","rt":983.5,"correct":false,"confidence":-1},{"trial_n":90,"min":81,"max":174,"target":"present","response":"present","rt":745.79999995232,"correct":true,"confidence":-1},{"trial_n":91,"min":81,"max":174,"target":"absent","response":"present","rt":1108.1000000238,"correct":false,"confidence":3},{"trial_n":92,"min":77,"max":178,"target":"present","response":"present","rt":662.20000004768,"correct":true,"confidence":5},{"trial_n":93,"min":77,"max":178,"target":"absent","response":"absent","rt":1865.2000000477,"correct":true,"confidence":3},{"trial_n":94,"min":81,"max":174,"target":"present","response":"present","rt":1221.5999999046,"correct":true,"confidence":5},{"trial_n":95,"min":81,"max":174,"target":"absent","response":"present","rt":766.80000007153,"correct":false,"confidence":4},{"trial_n":96,"min":77,"max":178,"target":"present","response":"present","rt":620.60000002384,"correct":true,"confidence":5},{"trial_n":97,"min":77,"max":178,"target":"absent","response":"absent","rt":1574.8999999762,"correct":true,"confidence":4},{"trial_n":98,"min":81,"max":174,"target":"present","response":"present","rt":1051.3999999762,"correct":true,"confidence":5},{"trial_n":99,"min":81,"max":174,"target":"present","response":"present","rt":863.29999995232,"correct":true,"confidence":5},{"trial_n":100,"min":85,"max":170,"target":"absent","response":"present","rt":1537.6000000238,"correct":false,"confidence":5},{"trial_n":101,"min":83,"max":172,"target":"absent","response":"present","rt":1110.5,"correct":false,"confidence":3},{"trial_n":102,"min":81,"max":174,"target":"present","response":"present","rt":695.89999997616,"correct":true,"confidence":5},{"trial_n":103,"min":81,"max":174,"target":"present","response":"present","rt":820.10000002384,"correct":true,"confidence":5},{"trial_n":104,"min":83,"max":172,"target":"present","response":"present","rt":2684.1000000238,"correct":true,"confidence":1},{"trial_n":105,"min":83,"max":172,"target":"present","response":"present","rt":572.29999995232,"correct":true,"confidence":5},{"trial_n":106,"min":85,"max":170,"target":"present","response":"present","rt":691.10000002384,"correct":true,"confidence":5},{"trial_n":107,"min":85,"max":170,"target":"absent","response":"absent","rt":1207.7999999523,"correct":true,"confidence":3},{"trial_n":108,"min":87,"max":168,"target":"present","response":"present","rt":1330.2000000477,"correct":true,"confidence":5},{"trial_n":109,"min":87,"max":168,"target":"absent","response":"present","rt":697.69999992847,"correct":false,"confidence":5},{"trial_n":110,"min":85,"max":170,"target":"present","response":"present","rt":736.10000002384,"correct":true,"confidence":5},{"trial_n":111,"min":85,"max":170,"target":"present","response":"present","rt":618.89999997616,"correct":true,"confidence":5},{"trial_n":112,"min":86,"max":169,"target":"absent","response":"absent","rt":1479.2000000477,"correct":true,"confidence":4},{"trial_n":113,"min":86,"max":169,"target":"absent","response":"absent","rt":1048.4000000954,"correct":true,"confidence":3},{"trial_n":114,"min":87,"max":168,"target":"present","response":"present","rt":1250,"correct":true,"confidence":5},{"trial_n":115,"min":87,"max":168,"target":"absent","response":"present","rt":853.59999990463,"correct":false,"confidence":4},{"trial_n":116,"min":86,"max":169,"target":"absent","response":"present","rt":581.79999995232,"correct":false,"confidence":5},{"trial_n":117,"min":85,"max":170,"target":"absent","response":"absent","rt":1625.0999999046,"correct":true,"confidence":2},{"trial_n":118,"min":85,"max":170,"target":"absent","response":"present","rt":1296.8999999762,"correct":false,"confidence":3},{"trial_n":119,"min":84,"max":171,"target":"absent","response":"present","rt":1475.6999999285,"correct":false,"confidence":1},{"trial_n":120,"min":83,"max":172,"target":"absent","response":"present","rt":3376,"correct":false,"confidence":1},{"trial_n":121,"min":82,"max":173,"target":"absent","response":"absent","rt":1485.7000000477,"correct":true,"confidence":4},{"trial_n":122,"min":82,"max":173,"target":"present","response":"present","rt":1345.8999999762,"correct":true,"confidence":5},{"trial_n":123,"min":83,"max":172,"target":"absent","response":"present","rt":1448.3000000715,"correct":false,"confidence":1},{"trial_n":124,"min":82,"max":173,"target":"absent","response":"absent","rt":1585.3000000715,"correct":true,"confidence":4},{"trial_n":125,"min":82,"max":173,"target":"absent","response":"absent","rt":1096.2999999523,"correct":true,"confidence":4},{"trial_n":126,"min":83,"max":172,"target":"absent","response":"absent","rt":1975.1000000238,"correct":true,"confidence":1},{"trial_n":127,"min":83,"max":172,"target":"present","response":"present","rt":1078.6999999285,"correct":true,"confidence":4},{"trial_n":128,"min":84,"max":171,"target":"present","response":"present","rt":617.79999995232,"correct":true,"confidence":5},{"trial_n":129,"min":84,"max":171,"target":"absent","response":"present","rt":991,"correct":false,"confidence":4},{"trial_n":130,"min":83,"max":172,"target":"present","response":"present","rt":603.10000002384,"correct":true,"confidence":5},{"trial_n":131,"min":83,"max":172,"target":"present","response":"present","rt":616.5,"correct":true,"confidence":5},{"trial_n":132,"min":84,"max":171,"target":"absent","response":"absent","rt":1415.6000000238,"correct":true,"confidence":2},{"trial_n":133,"min":84,"max":171,"target":"present","response":"present","rt":1620.2000000477,"correct":true,"confidence":4},{"trial_n":134,"min":85,"max":170,"target":"absent","response":"present","rt":1847.1000000238,"correct":false,"confidence":1},{"trial_n":135,"min":84,"max":171,"target":"absent","response":"absent","rt":1618.5,"correct":true,"confidence":4},{"trial_n":136,"min":84,"max":171,"target":"absent","response":"present","rt":3087,"correct":false,"confidence":3},{"trial_n":137,"min":83,"max":172,"target":"absent","response":"present","rt":1265,"correct":false,"confidence":1},{"trial_n":138,"min":82,"max":173,"target":"present","response":"present","rt":647.60000002384,"correct":true,"confidence":4},{"trial_n":139,"min":82,"max":173,"target":"present","response":"present","rt":2129.6999999285,"correct":true,"confidence":5},{"trial_n":140,"min":83,"max":172,"target":"present","response":"present","rt":603.70000004768,"correct":true,"confidence":5}]