[{"trial_n":1,"n_dots":4.25,"target":"left","response":"right","rt":4252.5,"correct":false,"confidence":-1},{"trial_n":2,"n_dots":4.25,"target":"left","response":"right","rt":1272.3000000119,"correct":false,"confidence":-1},{"trial_n":3,"n_dots":4.65,"target":"right","response":"right","rt":905.69999998808,"correct":true,"confidence":-1},{"trial_n":4,"n_dots":4.65,"target":"left","response":"left","rt":1569.8000000119,"correct":true,"confidence":-1},{"trial_n":5,"n_dots":4.25,"target":"left","response":"right","rt":1021.6999999881,"correct":false,"confidence":-1},{"trial_n":6,"n_dots":4.65,"target":"right","response":"left","rt":1901.7999999821,"correct":false,"confidence":-1},{"trial_n":7,"n_dots":5.05,"target":"left","response":"left","rt":1643.5,"correct":true,"confidence":-1},{"trial_n":8,"n_dots":5.05,"target":"right","response":"right","rt":1779.3999999762,"correct":true,"confidence":-1},{"trial_n":9,"n_dots":4.85,"target":"left","response":"left","rt":1129,"correct":true,"confidence":-1},{"trial_n":10,"n_dots":4.85,"target":"left","response":"left","rt":1262.400000006,"correct":true,"confidence":-1},{"trial_n":11,"n_dots":4.65,"target":"right","response":"right","rt":664.69999998808,"correct":true,"confidence":-1},{"trial_n":12,"n_dots":4.65,"target":"right","response":"right","rt":711.40000000596,"correct":true,"confidence":-1},{"trial_n":13,"n_dots":4.55,"target":"right","response":"right","rt":614.40000000596,"correct":true,"confidence":-1},{"trial_n":14,"n_dots":4.55,"target":"left","response":"left","rt":535.89999997616,"correct":true,"confidence":-1},{"trial_n":15,"n_dots":4.45,"target":"right","response":"right","rt":597.69999998808,"correct":true,"confidence":-1},{"trial_n":16,"n_dots":4.45,"target":"right","response":"right","rt":696.5,"correct":true,"confidence":-1},{"trial_n":17,"n_dots":4.35,"target":"left","response":"left","rt":2059.7000000179,"correct":true,"confidence":-1},{"trial_n":18,"n_dots":4.35,"target":"left","response":"left","rt":617.90000000596,"correct":true,"confidence":-1},{"trial_n":19,"n_dots":4.25,"target":"left","response":"left","rt":745.40000000596,"correct":true,"confidence":-1},{"trial_n":20,"n_dots":4.25,"target":"right","response":"right","rt":701.60000002384,"correct":true,"confidence":-1},{"trial_n":21,"n_dots":4.15,"target":"right","response":"right","rt":548.69999998808,"correct":true,"confidence":3},{"trial_n":22,"n_dots":4.15,"target":"right","response":"right","rt":3735.599999994,"correct":true,"confidence":4},{"trial_n":23,"n_dots":4.05,"target":"right","response":"right","rt":806.60000002384,"correct":true,"confidence":4},{"trial_n":24,"n_dots":4.05,"target":"left","response":"left","rt":686.10000002384,"correct":true,"confidence":5},{"trial_n":25,"n_dots":3.95,"target":"right","response":"right","rt":646.30000001192,"correct":true,"confidence":5},{"trial_n":26,"n_dots":3.95,"target":"left","response":"left","rt":703.19999998808,"correct":true,"confidence":5},{"trial_n":27,"n_dots":3.85,"target":"left","response":"left","rt":427.59999999404,"correct":true,"confidence":4},{"trial_n":28,"n_dots":3.85,"target":"left","response":"left","rt":626.30000001192,"correct":true,"confidence":4},{"trial_n":29,"n_dots":3.75,"target":"left","response":"left","rt":568.69999998808,"correct":true,"confidence":4},{"trial_n":30,"n_dots":3.75,"target":"right","response":"right","rt":1292.5,"correct":true,"confidence":3},{"trial_n":31,"n_dots":3.65,"target":"left","response":"left","rt":3520.599999994,"correct":true,"confidence":2},{"trial_n":32,"n_dots":3.65,"target":"left","response":"left","rt":2190.5,"correct":true,"confidence":2},{"trial_n":33,"n_dots":3.55,"target":"right","response":"right","rt":5243.099999994,"correct":true,"confidence":2},{"trial_n":34,"n_dots":3.55,"target":"left","response":"left","rt":1407,"correct":true,"confidence":2},{"trial_n":35,"n_dots":3.45,"target":"right","response":"right","rt":1065.8000000119,"correct":true,"confidence":2},{"trial_n":36,"n_dots":3.45,"target":"left","response":"left","rt":644.09999999404,"correct":true,"confidence":3},{"trial_n":37,"n_dots":3.35,"target":"right","response":"right","rt":1204.5,"correct":true,"confidence":4},{"trial_n":38,"n_dots":3.35,"target":"left","response":"right","rt":1695.599999994,"correct":false,"confidence":1},{"trial_n":39,"n_dots":3.45,"target":"right","response":"right","rt":751.5,"correct":true,"confidence":3},{"trial_n":40,"n_dots":3.45,"target":"left","response":"left","rt":598.59999999404,"correct":true,"confidence":2},{"trial_n":41,"n_dots":3.35,"target":"right","response":"right","rt":800.09999999404,"correct":true,"confidence":2},{"trial_n":42,"n_dots":3.35,"target":"left","response":"left","rt":747.29999998212,"correct":true,"confidence":4},{"trial_n":43,"n_dots":3.25,"target":"right","response":"right","rt":1790.1000000238,"correct":true,"confidence":1},{"trial_n":44,"n_dots":3.25,"target":"left","response":"left","rt":580.69999998808,"correct":true,"confidence":2},{"trial_n":45,"n_dots":3.15,"target":"right","response":"right","rt":381.70000001788,"correct":true,"confidence":3},{"trial_n":46,"n_dots":3.15,"target":"left","response":"left","rt":406.59999999404,"correct":true,"confidence":3},{"trial_n":47,"n_dots":3.05,"target":"right","response":"right","rt":353.70000001788,"correct":true,"confidence":3},{"trial_n":48,"n_dots":3.05,"target":"right","response":"left","rt":2207.3000000119,"correct":false,"confidence":1},{"trial_n":49,"n_dots":3.15,"target":"left","response":"left","rt":795.20000001788,"correct":true,"confidence":3},{"trial_n":50,"n_dots":3.15,"target":"left","response":"right","rt":839.69999998808,"correct":false,"confidence":2},{"trial_n":51,"n_dots":3.25,"target":"right","response":"right","rt":29.90000000596,"correct":true,"confidence":5},{"trial_n":52,"n_dots":3.25,"target":"right","response":"right","rt":420.19999998808,"correct":true,"confidence":4},{"trial_n":53,"n_dots":3.15,"target":"right","response":"right","rt":302.70000001788,"correct":true,"confidence":3},{"trial_n":54,"n_dots":3.15,"target":"right","response":"right","rt":289.40000000596,"correct":true,"confidence":4},{"trial_n":55,"n_dots":3.05,"target":"right","response":"right","rt":1060.2999999821,"correct":true,"confidence":3},{"trial_n":56,"n_dots":3.05,"target":"right","response":"right","rt":971.19999998808,"correct":true,"confidence":3},{"trial_n":57,"n_dots":2.95,"target":"left","response":"left","rt":1058.099999994,"correct":true,"confidence":3},{"trial_n":58,"n_dots":2.95,"target":"right","response":"left","rt":936,"correct":false,"confidence":2},{"trial_n":59,"n_dots":3.05,"target":"left","response":"left","rt":1230.8999999762,"correct":true,"confidence":2},{"trial_n":60,"n_dots":3.05,"target":"left","response":"left","rt":1946.5,"correct":true,"confidence":2},{"trial_n":61,"n_dots":2.95,"target":"left","response":"right","rt":2042.5,"correct":false,"confidence":1},{"trial_n":62,"n_dots":3.05,"target":"left","response":"right","rt":1953.2999999821,"correct":false,"confidence":1},{"trial_n":63,"n_dots":3.15,"target":"left","response":"left","rt":866,"correct":true,"confidence":1},{"trial_n":64,"n_dots":3.15,"target":"right","response":"right","rt":1627.8000000119,"correct":true,"confidence":1},{"trial_n":65,"n_dots":3.05,"target":"right","response":"left","rt":1777,"correct":false,"confidence":1},{"trial_n":66,"n_dots":3.15,"target":"right","response":"left","rt":874.20000001788,"correct":false,"confidence":2},{"trial_n":67,"n_dots":3.25,"target":"left","response":"right","rt":1474,"correct":false,"confidence":1},{"trial_n":68,"n_dots":3.35,"target":"left","response":"left","rt":633.59999999404,"correct":true,"confidence":2},{"trial_n":69,"n_dots":3.35,"target":"right","response":"right","rt":493.40000000596,"correct":true,"confidence":2},{"trial_n":70,"n_dots":3.25,"target":"left","response":"right","rt":1600.900000006,"correct":false,"confidence":1},{"trial_n":71,"n_dots":3.35,"target":"left","response":"right","rt":607.90000000596,"correct":false,"confidence":1},{"trial_n":72,"n_dots":3.45,"target":"left","response":"left","rt":567.79999998212,"correct":true,"confidence":1},{"trial_n":73,"n_dots":3.45,"target":"left","response":"right","rt":1130,"correct":false,"confidence":2},{"trial_n":74,"n_dots":3.55,"target":"left","response":"right","rt":348,"correct":false,"confidence":3},{"trial_n":75,"n_dots":3.65,"target":"right","response":"right","rt":131,"correct":true,"confidence":4},{"trial_n":76,"n_dots":3.65,"target":"left","response":"left","rt":1439,"correct":true,"confidence":2},{"trial_n":77,"n_dots":3.55,"target":"left","response":"left","rt":1092.599999994,"correct":true,"confidence":1},{"trial_n":78,"n_dots":3.55,"target":"right","response":"right","rt":367.90000000596,"correct":true,"confidence":3},{"trial_n":79,"n_dots":3.45,"target":"right","response":"right","rt":83.699999988079,"correct":true,"confidence":3},{"trial_n":80,"n_dots":3.45,"target":"right","response":"right","rt":2166.400000006,"correct":true,"confidence":4},{"trial_n":81,"n_dots":3.35,"target":"right","response":"right","rt":499.69999998808,"correct":true,"confidence":4},{"trial_n":82,"n_dots":3.35,"target":"right","response":"right","rt":420.20000001788,"correct":true,"confidence":3},{"trial_n":83,"n_dots":3.25,"target":"left","response":"left","rt":1141,"correct":true,"confidence":2},{"trial_n":84,"n_dots":3.25,"target":"right","response":"right","rt":316.19999998808,"correct":true,"confidence":2},{"trial_n":85,"n_dots":3.15,"target":"left","response":"left","rt":1337.400000006,"correct":true,"confidence":1},{"trial_n":86,"n_dots":3.15,"target":"right","response":"right","rt":314.89999997616,"correct":true,"confidence":2},{"trial_n":87,"n_dots":3.05,"target":"right","response":"right","rt":450.09999999404,"correct":true,"confidence":2},{"trial_n":88,"n_dots":3.05,"target":"left","response":"right","rt":692.09999999404,"correct":false,"confidence":2},{"trial_n":89,"n_dots":3.15,"target":"left","response":"right","rt":823,"correct":false,"confidence":2},{"trial_n":90,"n_dots":3.25,"target":"left","response":"left","rt":799,"correct":true,"confidence":2},{"trial_n":91,"n_dots":3.25,"target":"right","response":"left","rt":2098.900000006,"correct":false,"confidence":2},{"trial_n":92,"n_dots":3.35,"target":"right","response":"right","rt":591.40000000596,"correct":true,"confidence":2},{"trial_n":93,"n_dots":3.35,"target":"right","response":"right","rt":713,"correct":true,"confidence":2},{"trial_n":94,"n_dots":3.25,"target":"left","response":"left","rt":675.90000000596,"correct":true,"confidence":3},{"trial_n":95,"n_dots":3.25,"target":"left","response":"left","rt":430.5,"correct":true,"confidence":3},{"trial_n":96,"n_dots":3.15,"target":"right","response":"left","rt":2568.400000006,"correct":false,"confidence":2},{"trial_n":97,"n_dots":3.25,"target":"left","response":"left","rt":860,"correct":true,"confidence":4},{"trial_n":98,"n_dots":3.25,"target":"right","response":"right","rt":633.69999998808,"correct":true,"confidence":3},{"trial_n":99,"n_dots":3.15,"target":"left","response":"left","rt":367.80000001192,"correct":true,"confidence":5},{"trial_n":100,"n_dots":3.15,"target":"right","response":"left","rt":1577.2000000179,"correct":false,"confidence":3},{"trial_n":101,"n_dots":3.25,"target":"left","response":"left","rt":713.39999997616,"correct":true,"confidence":4},{"trial_n":102,"n_dots":3.25,"target":"right","response":"right","rt":278.5,"correct":true,"confidence":3},{"trial_n":103,"n_dots":3.15,"target":"right","response":"right","rt":1306,"correct":true,"confidence":3},{"trial_n":104,"n_dots":3.15,"target":"right","response":"left","rt":586.90000000596,"correct":false,"confidence":4},{"trial_n":105,"n_dots":3.25,"target":"left","response":"left","rt":434.40000000596,"correct":true,"confidence":4},{"trial_n":106,"n_dots":3.25,"target":"left","response":"left","rt":366.30000001192,"correct":true,"confidence":4},{"trial_n":107,"n_dots":3.15,"target":"right","response":"left","rt":863.29999998212,"correct":false,"confidence":4},{"trial_n":108,"n_dots":3.25,"target":"right","response":"left","rt":437.39999997616,"correct":false,"confidence":4},{"trial_n":109,"n_dots":3.35,"target":"left","response":"left","rt":744.69999998808,"correct":true,"confidence":4},{"trial_n":110,"n_dots":3.35,"target":"right","response":"left","rt":1581.3999999762,"correct":false,"confidence":2},{"trial_n":111,"n_dots":3.45,"target":"left","response":"left","rt":1837.8000000119,"correct":true,"confidence":2},{"trial_n":112,"n_dots":3.45,"target":"right","response":"right","rt":486.40000000596,"correct":true,"confidence":2},{"trial_n":113,"n_dots":3.35,"target":"left","response":"left","rt":1392.5,"correct":true,"confidence":2},{"trial_n":114,"n_dots":3.35,"target":"left","response":"right","rt":625.30000001192,"correct":false,"confidence":2},{"trial_n":115,"n_dots":3.45,"target":"right","response":"left","rt":680.09999999404,"correct":false,"confidence":3},{"trial_n":116,"n_dots":3.55,"target":"left","response":"left","rt":398.90000000596,"correct":true,"confidence":3},{"trial_n":117,"n_dots":3.55,"target":"left","response":"left","rt":285.80000001192,"correct":true,"confidence":4},{"trial_n":118,"n_dots":3.45,"target":"right","response":"left","rt":958.70000001788,"correct":false,"confidence":3},{"trial_n":119,"n_dots":3.55,"target":"right","response":"right","rt":150.29999998212,"correct":true,"confidence":2},{"trial_n":120,"n_dots":3.55,"target":"right","response":"right","rt":560.29999998212,"correct":true,"confidence":2}]