[{"trial_n":1,"min":25,"max":230,"target":"present","response":"present","rt":3841.1999999881,"correct":true,"confidence":-1},{"trial_n":2,"min":25,"max":230,"target":"present","response":"present","rt":782.89999997616,"correct":true,"confidence":-1},{"trial_n":3,"min":41,"max":214,"target":"absent","response":"absent","rt":1129.4000000358,"correct":true,"confidence":-1},{"trial_n":4,"min":41,"max":214,"target":"absent","response":"absent","rt":509.80000001192,"correct":true,"confidence":-1},{"trial_n":5,"min":57,"max":198,"target":"present","response":"present","rt":566.30000001192,"correct":true,"confidence":-1},{"trial_n":6,"min":57,"max":198,"target":"absent","response":"absent","rt":1028.1999999881,"correct":true,"confidence":-1},{"trial_n":7,"min":73,"max":182,"target":"present","response":"absent","rt":934.10000002384,"correct":false,"confidence":-1},{"trial_n":8,"min":57,"max":198,"target":"absent","response":"absent","rt":1968.8999999762,"correct":true,"confidence":-1},{"trial_n":9,"min":57,"max":198,"target":"absent","response":"absent","rt":619.5,"correct":true,"confidence":-1},{"trial_n":10,"min":73,"max":182,"target":"present","response":"present","rt":654.30000001192,"correct":true,"confidence":-1},{"trial_n":11,"min":73,"max":182,"target":"present","response":"present","rt":697,"correct":true,"confidence":-1},{"trial_n":12,"min":81,"max":174,"target":"absent","response":"absent","rt":605.30000001192,"correct":true,"confidence":-1},{"trial_n":13,"min":81,"max":174,"target":"present","response":"absent","rt":649.39999997616,"correct":false,"confidence":-1},{"trial_n":14,"min":73,"max":182,"target":"present","response":"present","rt":866.30000001192,"correct":true,"confidence":-1},{"trial_n":15,"min":73,"max":182,"target":"present","response":"present","rt":644.30000001192,"correct":true,"confidence":-1},{"trial_n":16,"min":81,"max":174,"target":"present","response":"present","rt":578.40000003576,"correct":true,"confidence":-1},{"trial_n":17,"min":81,"max":174,"target":"absent","response":"absent","rt":566,"correct":true,"confidence":-1},{"trial_n":18,"min":89,"max":166,"target":"absent","response":"present","rt":769.39999997616,"correct":false,"confidence":-1},{"trial_n":19,"min":81,"max":174,"target":"present","response":"present","rt":740.89999997616,"correct":true,"confidence":-1},{"trial_n":20,"min":81,"max":174,"target":"present","response":"present","rt":710.5,"correct":true,"confidence":-1},{"trial_n":21,"min":85,"max":170,"target":"present","response":"present","rt":1027.0999999642,"correct":true,"confidence":1},{"trial_n":22,"min":85,"max":170,"target":"present","response":"present","rt":672.40000003576,"correct":true,"confidence":3},{"trial_n":23,"min":89,"max":166,"target":"present","response":"present","rt":419,"correct":true,"confidence":2},{"trial_n":24,"min":89,"max":166,"target":"present","response":"present","rt":749.79999995232,"correct":true,"confidence":1},{"trial_n":25,"min":93,"max":162,"target":"absent","response":"absent","rt":1218.1999999881,"correct":true,"confidence":1},{"trial_n":26,"min":93,"max":162,"target":"present","response":"absent","rt":1107.8000000119,"correct":false,"confidence":1},{"trial_n":27,"min":89,"max":166,"target":"present","response":"present","rt":635.30000001192,"correct":true,"confidence":3},{"trial_n":28,"min":89,"max":166,"target":"present","response":"present","rt":1415.1000000238,"correct":true,"confidence":3},{"trial_n":29,"min":93,"max":162,"target":"absent","response":"absent","rt":1216.3000000119,"correct":true,"confidence":1},{"trial_n":30,"min":93,"max":162,"target":"absent","response":"absent","rt":1399.4000000358,"correct":true,"confidence":4},{"trial_n":31,"min":95,"max":160,"target":"present","response":"present","rt":1216.0999999642,"correct":true,"confidence":3},{"trial_n":32,"min":95,"max":160,"target":"absent","response":"absent","rt":956.89999997616,"correct":true,"confidence":3},{"trial_n":33,"min":97,"max":158,"target":"absent","response":"absent","rt":565.19999998808,"correct":true,"confidence":4},{"trial_n":34,"min":97,"max":158,"target":"present","response":"absent","rt":939.80000001192,"correct":false,"confidence":5},{"trial_n":35,"min":95,"max":160,"target":"absent","response":"absent","rt":666.69999998808,"correct":true,"confidence":4},{"trial_n":36,"min":95,"max":160,"target":"present","response":"absent","rt":955.5,"correct":false,"confidence":4},{"trial_n":37,"min":93,"max":162,"target":"absent","response":"absent","rt":1166.5,"correct":true,"confidence":4},{"trial_n":38,"min":93,"max":162,"target":"absent","response":"absent","rt":1005.7999999523,"correct":true,"confidence":5},{"trial_n":39,"min":95,"max":160,"target":"present","response":"absent","rt":719.5,"correct":false,"confidence":4},{"trial_n":40,"min":93,"max":162,"target":"absent","response":"absent","rt":949.69999998808,"correct":true,"confidence":4},{"trial_n":41,"min":93,"max":162,"target":"present","response":"absent","rt":1749,"correct":false,"confidence":4},{"trial_n":42,"min":92,"max":163,"target":"present","response":"absent","rt":643,"correct":false,"confidence":4},{"trial_n":43,"min":91,"max":164,"target":"present","response":"absent","rt":868.59999996424,"correct":false,"confidence":4},{"trial_n":44,"min":90,"max":165,"target":"present","response":"absent","rt":947.30000001192,"correct":false,"confidence":4},{"trial_n":45,"min":89,"max":166,"target":"present","response":"absent","rt":863,"correct":false,"confidence":4},{"trial_n":46,"min":88,"max":167,"target":"present","response":"absent","rt":838.60000002384,"correct":false,"confidence":4},{"trial_n":47,"min":87,"max":168,"target":"absent","response":"absent","rt":1162.6999999881,"correct":true,"confidence":4},{"trial_n":48,"min":87,"max":168,"target":"present","response":"present","rt":1269.5,"correct":true,"confidence":1},{"trial_n":49,"min":88,"max":167,"target":"absent","response":"absent","rt":1139.7999999523,"correct":true,"confidence":4},{"trial_n":50,"min":88,"max":167,"target":"absent","response":"absent","rt":782.79999995232,"correct":true,"confidence":4},{"trial_n":51,"min":89,"max":166,"target":"absent","response":"absent","rt":916.20000004768,"correct":true,"confidence":3},{"trial_n":52,"min":89,"max":166,"target":"present","response":"absent","rt":745.10000002384,"correct":false,"confidence":3},{"trial_n":53,"min":88,"max":167,"target":"absent","response":"absent","rt":793.5,"correct":true,"confidence":3},{"trial_n":54,"min":88,"max":167,"target":"present","response":"absent","rt":808.80000001192,"correct":false,"confidence":3},{"trial_n":55,"min":87,"max":168,"target":"present","response":"absent","rt":1018.5999999642,"correct":false,"confidence":3},{"trial_n":56,"min":86,"max":169,"target":"present","response":"present","rt":2110.0999999642,"correct":true,"confidence":2},{"trial_n":57,"min":86,"max":169,"target":"absent","response":"present","rt":865.59999996424,"correct":false,"confidence":3},{"trial_n":58,"min":85,"max":170,"target":"absent","response":"absent","rt":598,"correct":true,"confidence":4},{"trial_n":59,"min":85,"max":170,"target":"absent","response":"absent","rt":520.40000003576,"correct":true,"confidence":4},{"trial_n":60,"min":86,"max":169,"target":"absent","response":"absent","rt":690.20000004768,"correct":true,"confidence":4},{"trial_n":61,"min":86,"max":169,"target":"absent","response":"absent","rt":628.5,"correct":true,"confidence":4},{"trial_n":62,"min":87,"max":168,"target":"absent","response":"absent","rt":560.80000001192,"correct":true,"confidence":4},{"trial_n":63,"min":87,"max":168,"target":"present","response":"absent","rt":556.89999997616,"correct":false,"confidence":4},{"trial_n":64,"min":86,"max":169,"target":"absent","response":"absent","rt":679.5,"correct":true,"confidence":4},{"trial_n":65,"min":86,"max":169,"target":"absent","response":"absent","rt":535.60000002384,"correct":true,"confidence":4},{"trial_n":66,"min":87,"max":168,"target":"absent","response":"absent","rt":811.70000004768,"correct":true,"confidence":4},{"trial_n":67,"min":87,"max":168,"target":"absent","response":"absent","rt":621.90000003576,"correct":true,"confidence":4},{"trial_n":68,"min":88,"max":167,"target":"present","response":"absent","rt":405.89999997616,"correct":false,"confidence":4},{"trial_n":69,"min":87,"max":168,"target":"absent","response":"absent","rt":361.60000002384,"correct":true,"confidence":4},{"trial_n":70,"min":87,"max":168,"target":"absent","response":"absent","rt":353.5,"correct":true,"confidence":4},{"trial_n":71,"min":41,"max":214,"target":"present","response":"present","rt":712.39999997616,"correct":true,"confidence":-1},{"trial_n":72,"min":41,"max":214,"target":"present","response":"present","rt":1545.6000000238,"correct":true,"confidence":-1},{"trial_n":73,"min":57,"max":198,"target":"absent","response":"absent","rt":595.5,"correct":true,"confidence":-1},{"trial_n":74,"min":57,"max":198,"target":"absent","response":"absent","rt":860.79999995232,"correct":true,"confidence":-1},{"trial_n":75,"min":73,"max":182,"target":"present","response":"present","rt":486.19999998808,"correct":true,"confidence":-1},{"trial_n":76,"min":73,"max":182,"target":"present","response":"present","rt":830.40000003576,"correct":true,"confidence":-1},{"trial_n":77,"min":89,"max":166,"target":"absent","response":"absent","rt":794.90000003576,"correct":true,"confidence":-1},{"trial_n":78,"min":89,"max":166,"target":"present","response":"present","rt":917.19999998808,"correct":true,"confidence":-1},{"trial_n":79,"min":105,"max":150,"target":"present","response":"present","rt":916.09999996424,"correct":true,"confidence":-1},{"trial_n":80,"min":105,"max":150,"target":"present","response":"present","rt":753.60000002384,"correct":true,"confidence":-1},{"trial_n":81,"min":113,"max":142,"target":"absent","response":"present","rt":822.80000001192,"correct":false,"confidence":-1},{"trial_n":82,"min":105,"max":150,"target":"absent","response":"absent","rt":1148.4000000358,"correct":true,"confidence":-1},{"trial_n":83,"min":105,"max":150,"target":"absent","response":"absent","rt":566.90000003576,"correct":true,"confidence":-1},{"trial_n":84,"min":113,"max":142,"target":"absent","response":"absent","rt":512.5,"correct":true,"confidence":-1},{"trial_n":85,"min":113,"max":142,"target":"present","response":"absent","rt":762,"correct":false,"confidence":-1},{"trial_n":86,"min":105,"max":150,"target":"present","response":"absent","rt":563.19999998808,"correct":false,"confidence":-1},{"trial_n":87,"min":97,"max":158,"target":"present","response":"present","rt":698.39999997616,"correct":true,"confidence":-1},{"trial_n":88,"min":97,"max":158,"target":"absent","response":"present","rt":794.39999997616,"correct":false,"confidence":-1},{"trial_n":89,"min":89,"max":166,"target":"present","response":"absent","rt":540,"correct":false,"confidence":-1},{"trial_n":90,"min":81,"max":174,"target":"present","response":"present","rt":579.89999997616,"correct":true,"confidence":-1},{"trial_n":91,"min":81,"max":174,"target":"absent","response":"present","rt":714.59999996424,"correct":false,"confidence":3},{"trial_n":92,"min":77,"max":178,"target":"present","response":"present","rt":600.89999997616,"correct":true,"confidence":3},{"trial_n":93,"min":77,"max":178,"target":"absent","response":"absent","rt":1081.3000000119,"correct":true,"confidence":3},{"trial_n":94,"min":81,"max":174,"target":"present","response":"present","rt":658.59999996424,"correct":true,"confidence":5},{"trial_n":95,"min":81,"max":174,"target":"present","response":"present","rt":682.39999997616,"correct":true,"confidence":5},{"trial_n":96,"min":85,"max":170,"target":"absent","response":"absent","rt":965.5,"correct":true,"confidence":2},{"trial_n":97,"min":85,"max":170,"target":"present","response":"absent","rt":1038.1999999881,"correct":false,"confidence":1},{"trial_n":98,"min":81,"max":174,"target":"present","response":"present","rt":625.10000002384,"correct":true,"confidence":5},{"trial_n":99,"min":81,"max":174,"target":"present","response":"present","rt":795.5,"correct":true,"confidence":4},{"trial_n":100,"min":85,"max":170,"target":"present","response":"present","rt":680.19999998808,"correct":true,"confidence":5},{"trial_n":101,"min":85,"max":170,"target":"present","response":"present","rt":682.60000002384,"correct":true,"confidence":5},{"trial_n":102,"min":87,"max":168,"target":"absent","response":"absent","rt":766.5,"correct":true,"confidence":2},{"trial_n":103,"min":87,"max":168,"target":"present","response":"present","rt":755.19999998808,"correct":true,"confidence":5},{"trial_n":104,"min":89,"max":166,"target":"absent","response":"absent","rt":1415.8999999762,"correct":true,"confidence":1},{"trial_n":105,"min":89,"max":166,"target":"present","response":"present","rt":662.5,"correct":true,"confidence":5},{"trial_n":106,"min":91,"max":164,"target":"present","response":"present","rt":1063,"correct":true,"confidence":3},{"trial_n":107,"min":91,"max":164,"target":"present","response":"present","rt":1285.8000000119,"correct":true,"confidence":3},{"trial_n":108,"min":93,"max":162,"target":"absent","response":"present","rt":1592.3999999762,"correct":false,"confidence":3},{"trial_n":109,"min":91,"max":164,"target":"present","response":"present","rt":656.59999996424,"correct":true,"confidence":5},{"trial_n":110,"min":91,"max":164,"target":"present","response":"absent","rt":643.80000001192,"correct":false,"confidence":2},{"trial_n":111,"min":90,"max":165,"target":"present","response":"present","rt":613.5,"correct":true,"confidence":4},{"trial_n":112,"min":90,"max":165,"target":"absent","response":"present","rt":947.60000002384,"correct":false,"confidence":1},{"trial_n":113,"min":89,"max":166,"target":"absent","response":"present","rt":874.69999998808,"correct":false,"confidence":3},{"trial_n":114,"min":88,"max":167,"target":"present","response":"present","rt":842.10000002384,"correct":true,"confidence":4},{"trial_n":115,"min":88,"max":167,"target":"absent","response":"absent","rt":868.39999997616,"correct":true,"confidence":5},{"trial_n":116,"min":89,"max":166,"target":"absent","response":"present","rt":899.30000001192,"correct":false,"confidence":5},{"trial_n":117,"min":88,"max":167,"target":"absent","response":"absent","rt":572.60000002384,"correct":true,"confidence":1},{"trial_n":118,"min":88,"max":167,"target":"absent","response":"present","rt":727,"correct":false,"confidence":1},{"trial_n":119,"min":87,"max":168,"target":"absent","response":"present","rt":915.70000004768,"correct":false,"confidence":1},{"trial_n":120,"min":86,"max":169,"target":"present","response":"absent","rt":892.30000001192,"correct":false,"confidence":1},{"trial_n":121,"min":85,"max":170,"target":"absent","response":"present","rt":597.10000002384,"correct":false,"confidence":4},{"trial_n":122,"min":84,"max":171,"target":"absent","response":"present","rt":675.69999998808,"correct":false,"confidence":4},{"trial_n":123,"min":83,"max":172,"target":"absent","response":"present","rt":1245.5,"correct":false,"confidence":4},{"trial_n":124,"min":82,"max":173,"target":"absent","response":"present","rt":984.90000003576,"correct":false,"confidence":4},{"trial_n":125,"min":81,"max":174,"target":"present","response":"present","rt":1269.2000000477,"correct":true,"confidence":5},{"trial_n":126,"min":81,"max":174,"target":"absent","response":"present","rt":920.10000002384,"correct":false,"confidence":1},{"trial_n":127,"min":80,"max":175,"target":"present","response":"present","rt":1433.6000000238,"correct":true,"confidence":5},{"trial_n":128,"min":80,"max":175,"target":"absent","response":"absent","rt":1102.3000000119,"correct":true,"confidence":3},{"trial_n":129,"min":81,"max":174,"target":"absent","response":"present","rt":1058.1000000238,"correct":false,"confidence":4},{"trial_n":130,"min":80,"max":175,"target":"absent","response":"present","rt":902.89999997616,"correct":false,"confidence":4},{"trial_n":131,"min":79,"max":176,"target":"present","response":"present","rt":651.09999996424,"correct":true,"confidence":5},{"trial_n":132,"min":79,"max":176,"target":"absent","response":"absent","rt":755.39999997616,"correct":true,"confidence":1},{"trial_n":133,"min":80,"max":175,"target":"absent","response":"present","rt":1337.8999999762,"correct":false,"confidence":1},{"trial_n":134,"min":79,"max":176,"target":"present","response":"present","rt":772.19999998808,"correct":true,"confidence":5},{"trial_n":135,"min":79,"max":176,"target":"present","response":"present","rt":698.5,"correct":true,"confidence":5},{"trial_n":136,"min":80,"max":175,"target":"absent","response":"present","rt":758.39999997616,"correct":false,"confidence":5},{"trial_n":137,"min":79,"max":176,"target":"present","response":"present","rt":877.09999996424,"correct":true,"confidence":5},{"trial_n":138,"min":79,"max":176,"target":"present","response":"present","rt":1621.3000000119,"correct":true,"confidence":5},{"trial_n":139,"min":80,"max":175,"target":"absent","response":"absent","rt":869.60000002384,"correct":true,"confidence":3},{"trial_n":140,"min":80,"max":175,"target":"absent","response":"absent","rt":1651.3999999762,"correct":true,"confidence":3}]