[{"trial_n":1,"min":25,"max":230,"target":"present","response":"present","rt":2293.9000000358,"correct":true,"confidence":-1},{"trial_n":2,"min":25,"max":230,"target":"present","response":"present","rt":646.30000001192,"correct":true,"confidence":-1},{"trial_n":3,"min":41,"max":214,"target":"absent","response":"absent","rt":1096.6000000238,"correct":true,"confidence":-1},{"trial_n":4,"min":41,"max":214,"target":"absent","response":"absent","rt":630.80000001192,"correct":true,"confidence":-1},{"trial_n":5,"min":57,"max":198,"target":"present","response":"present","rt":1096.6999999881,"correct":true,"confidence":-1},{"trial_n":6,"min":57,"max":198,"target":"present","response":"present","rt":1049,"correct":true,"confidence":-1},{"trial_n":7,"min":73,"max":182,"target":"present","response":"present","rt":7447.0999999642,"correct":true,"confidence":-1},{"trial_n":8,"min":73,"max":182,"target":"present","response":"present","rt":267.80000001192,"correct":true,"confidence":-1},{"trial_n":9,"min":89,"max":166,"target":"absent","response":"absent","rt":254.60000002384,"correct":true,"confidence":-1},{"trial_n":10,"min":89,"max":166,"target":"absent","response":"absent","rt":14.400000035763,"correct":true,"confidence":-1},{"trial_n":11,"min":97,"max":158,"target":"absent","response":"absent","rt":46.799999952316,"correct":true,"confidence":-1},{"trial_n":12,"min":97,"max":158,"target":"present","response":"absent","rt":86.599999964237,"correct":false,"confidence":-1},{"trial_n":13,"min":89,"max":166,"target":"present","response":"absent","rt":188.89999997616,"correct":false,"confidence":-1},{"trial_n":14,"min":81,"max":174,"target":"present","response":"absent","rt":183.20000004768,"correct":false,"confidence":-1},{"trial_n":15,"min":73,"max":182,"target":"absent","response":"absent","rt":44.399999976158,"correct":true,"confidence":-1},{"trial_n":16,"min":73,"max":182,"target":"present","response":"absent","rt":131.30000001192,"correct":false,"confidence":-1},{"trial_n":17,"min":65,"max":190,"target":"absent","response":"absent","rt":62.400000035763,"correct":true,"confidence":-1},{"trial_n":18,"min":65,"max":190,"target":"present","response":"absent","rt":100.19999998808,"correct":false,"confidence":-1},{"trial_n":19,"min":57,"max":198,"target":"absent","response":"absent","rt":101,"correct":true,"confidence":-1},{"trial_n":20,"min":57,"max":198,"target":"present","response":"absent","rt":132.89999997616,"correct":false,"confidence":-1},{"trial_n":21,"min":53,"max":202,"target":"present","response":"present","rt":508.29999995232,"correct":true,"confidence":5},{"trial_n":22,"min":53,"max":202,"target":"absent","response":"absent","rt":1805.2999999523,"correct":true,"confidence":1},{"trial_n":23,"min":57,"max":198,"target":"absent","response":"absent","rt":1464.0999999642,"correct":true,"confidence":1},{"trial_n":24,"min":57,"max":198,"target":"absent","response":"absent","rt":611.79999995232,"correct":true,"confidence":5},{"trial_n":25,"min":61,"max":194,"target":"present","response":"present","rt":1824.6999999881,"correct":true,"confidence":5},{"trial_n":26,"min":61,"max":194,"target":"absent","response":"absent","rt":280.59999996424,"correct":true,"confidence":5},{"trial_n":27,"min":65,"max":190,"target":"present","response":"present","rt":915.89999997616,"correct":true,"confidence":5},{"trial_n":28,"min":65,"max":190,"target":"present","response":"absent","rt":277.59999996424,"correct":false,"confidence":5},{"trial_n":29,"min":61,"max":194,"target":"present","response":"present","rt":1414.5,"correct":true,"confidence":4},{"trial_n":30,"min":61,"max":194,"target":"absent","response":"absent","rt":509.5,"correct":true,"confidence":3},{"trial_n":31,"min":63,"max":192,"target":"present","response":"absent","rt":433.39999997616,"correct":false,"confidence":4},{"trial_n":32,"min":61,"max":194,"target":"present","response":"present","rt":427.59999996424,"correct":true,"confidence":5},{"trial_n":33,"min":61,"max":194,"target":"absent","response":"absent","rt":256.60000002384,"correct":true,"confidence":5},{"trial_n":34,"min":63,"max":192,"target":"present","response":"present","rt":176.69999998808,"correct":true,"confidence":5},{"trial_n":35,"min":63,"max":192,"target":"present","response":"absent","rt":315.69999998808,"correct":false,"confidence":1},{"trial_n":36,"min":61,"max":194,"target":"absent","response":"absent","rt":924.19999998808,"correct":true,"confidence":1},{"trial_n":37,"min":61,"max":194,"target":"present","response":"absent","rt":981,"correct":false,"confidence":4},{"trial_n":38,"min":59,"max":196,"target":"present","response":"present","rt":981.80000001192,"correct":true,"confidence":5},{"trial_n":39,"min":59,"max":196,"target":"present","response":"present","rt":566.40000003576,"correct":true,"confidence":5},{"trial_n":40,"min":61,"max":194,"target":"absent","response":"absent","rt":261.30000001192,"correct":true,"confidence":3},{"trial_n":41,"min":61,"max":194,"target":"absent","response":"absent","rt":492.19999998808,"correct":true,"confidence":3},{"trial_n":42,"min":62,"max":193,"target":"present","response":"present","rt":131.69999998808,"correct":true,"confidence":5},{"trial_n":43,"min":62,"max":193,"target":"absent","response":"absent","rt":252.69999998808,"correct":true,"confidence":4},{"trial_n":44,"min":63,"max":192,"target":"present","response":"present","rt":207,"correct":true,"confidence":4},{"trial_n":45,"min":63,"max":192,"target":"absent","response":"absent","rt":317.90000003576,"correct":true,"confidence":5},{"trial_n":46,"min":64,"max":191,"target":"absent","response":"absent","rt":371.59999996424,"correct":true,"confidence":5},{"trial_n":47,"min":64,"max":191,"target":"absent","response":"absent","rt":456.39999997616,"correct":true,"confidence":3},{"trial_n":48,"min":65,"max":190,"target":"absent","response":"absent","rt":537.29999995232,"correct":true,"confidence":2},{"trial_n":49,"min":65,"max":190,"target":"absent","response":"absent","rt":869.69999998808,"correct":true,"confidence":1},{"trial_n":50,"min":66,"max":189,"target":"absent","response":"absent","rt":583.19999998808,"correct":true,"confidence":1},{"trial_n":51,"min":66,"max":189,"target":"present","response":"present","rt":581.90000003576,"correct":true,"confidence":3},{"trial_n":52,"min":67,"max":188,"target":"present","response":"present","rt":804.09999996424,"correct":true,"confidence":2},{"trial_n":53,"min":67,"max":188,"target":"present","response":"present","rt":942.59999996424,"correct":true,"confidence":4},{"trial_n":54,"min":68,"max":187,"target":"present","response":"absent","rt":437.40000003576,"correct":false,"confidence":3},{"trial_n":55,"min":67,"max":188,"target":"absent","response":"absent","rt":488.69999998808,"correct":true,"confidence":4},{"trial_n":56,"min":67,"max":188,"target":"present","response":"present","rt":863.40000003576,"correct":true,"confidence":5},{"trial_n":57,"min":68,"max":187,"target":"absent","response":"absent","rt":350,"correct":true,"confidence":5},{"trial_n":58,"min":68,"max":187,"target":"absent","response":"absent","rt":420.79999995232,"correct":true,"confidence":5},{"trial_n":59,"min":69,"max":186,"target":"present","response":"absent","rt":363,"correct":false,"confidence":3},{"trial_n":60,"min":68,"max":187,"target":"present","response":"present","rt":515.30000001192,"correct":true,"confidence":5},{"trial_n":61,"min":68,"max":187,"target":"absent","response":"absent","rt":358.39999997616,"correct":true,"confidence":5},{"trial_n":62,"min":69,"max":186,"target":"absent","response":"absent","rt":208.60000002384,"correct":true,"confidence":5},{"trial_n":63,"min":69,"max":186,"target":"present","response":"present","rt":1024.6999999881,"correct":true,"confidence":5},{"trial_n":64,"min":70,"max":185,"target":"absent","response":"absent","rt":394.19999998808,"correct":true,"confidence":5},{"trial_n":65,"min":70,"max":185,"target":"present","response":"present","rt":300.30000001192,"correct":true,"confidence":5},{"trial_n":66,"min":71,"max":184,"target":"absent","response":"absent","rt":262.19999998808,"correct":true,"confidence":5},{"trial_n":67,"min":71,"max":184,"target":"absent","response":"absent","rt":458.29999995232,"correct":true,"confidence":4},{"trial_n":68,"min":72,"max":183,"target":"present","response":"absent","rt":507.29999995232,"correct":false,"confidence":4},{"trial_n":69,"min":71,"max":184,"target":"absent","response":"present","rt":1186,"correct":false,"confidence":1},{"trial_n":70,"min":70,"max":185,"target":"absent","response":"absent","rt":758,"correct":true,"confidence":5},{"trial_n":71,"min":41,"max":214,"target":"present","response":"absent","rt":4182.8000000119,"correct":false,"confidence":-1},{"trial_n":72,"min":41,"max":214,"target":"present","response":"present","rt":911.39999997616,"correct":true,"confidence":-1},{"trial_n":73,"min":41,"max":214,"target":"absent","response":"absent","rt":476.80000001192,"correct":true,"confidence":-1},{"trial_n":74,"min":57,"max":198,"target":"absent","response":"present","rt":179.5,"correct":false,"confidence":-1},{"trial_n":75,"min":41,"max":214,"target":"present","response":"present","rt":291,"correct":true,"confidence":-1},{"trial_n":76,"min":41,"max":214,"target":"absent","response":"present","rt":35.800000011921,"correct":false,"confidence":-1},{"trial_n":77,"min":25,"max":230,"target":"absent","response":"present","rt":194.89999997616,"correct":false,"confidence":-1},{"trial_n":78,"min":9,"max":246,"target":"present","response":"present","rt":90.899999976158,"correct":true,"confidence":-1},{"trial_n":79,"min":9,"max":246,"target":"present","response":"present","rt":288.19999998808,"correct":true,"confidence":-1},{"trial_n":80,"min":25,"max":230,"target":"present","response":"present","rt":164.69999998808,"correct":true,"confidence":-1},{"trial_n":81,"min":25,"max":230,"target":"present","response":"present","rt":80.5,"correct":true,"confidence":-1},{"trial_n":82,"min":33,"max":222,"target":"absent","response":"present","rt":345.59999996424,"correct":false,"confidence":-1},{"trial_n":83,"min":25,"max":230,"target":"absent","response":"present","rt":33.699999988079,"correct":false,"confidence":-1},{"trial_n":84,"min":17,"max":238,"target":"absent","response":"present","rt":184.30000001192,"correct":false,"confidence":-1},{"trial_n":85,"min":9,"max":246,"target":"absent","response":"present","rt":190.79999995232,"correct":false,"confidence":-1},{"trial_n":86,"min":1,"max":254,"target":"present","response":"present","rt":101.19999998808,"correct":true,"confidence":-1},{"trial_n":87,"min":1,"max":254,"target":"present","response":"present","rt":77,"correct":true,"confidence":-1},{"trial_n":88,"min":9,"max":246,"target":"absent","response":"present","rt":95.800000011921,"correct":false,"confidence":-1},{"trial_n":89,"min":1,"max":254,"target":"present","response":"present","rt":104.30000001192,"correct":true,"confidence":-1},{"trial_n":90,"min":1,"max":254,"target":"present","response":"present","rt":134.09999996424,"correct":true,"confidence":-1},{"trial_n":91,"min":5,"max":250,"target":"present","response":"present","rt":881.89999997616,"correct":true,"confidence":5},{"trial_n":92,"min":5,"max":250,"target":"absent","response":"absent","rt":715.29999995232,"correct":true,"confidence":5},{"trial_n":93,"min":9,"max":246,"target":"absent","response":"absent","rt":254,"correct":true,"confidence":5},{"trial_n":94,"min":9,"max":246,"target":"present","response":"present","rt":252.30000001192,"correct":true,"confidence":5},{"trial_n":95,"min":13,"max":242,"target":"present","response":"present","rt":178.30000001192,"correct":true,"confidence":5},{"trial_n":96,"min":13,"max":242,"target":"absent","response":"absent","rt":248.29999995232,"correct":true,"confidence":5},{"trial_n":97,"min":17,"max":238,"target":"present","response":"present","rt":312.69999998808,"correct":true,"confidence":5},{"trial_n":98,"min":17,"max":238,"target":"present","response":"present","rt":232.80000001192,"correct":true,"confidence":5},{"trial_n":99,"min":21,"max":234,"target":"present","response":"present","rt":468.69999998808,"correct":true,"confidence":5},{"trial_n":100,"min":21,"max":234,"target":"absent","response":"absent","rt":181.30000001192,"correct":true,"confidence":5},{"trial_n":101,"min":23,"max":232,"target":"present","response":"present","rt":380.19999998808,"correct":true,"confidence":5},{"trial_n":102,"min":23,"max":232,"target":"absent","response":"present","rt":446,"correct":false,"confidence":1},{"trial_n":103,"min":21,"max":234,"target":"absent","response":"absent","rt":374.5,"correct":true,"confidence":5},{"trial_n":104,"min":21,"max":234,"target":"present","response":"present","rt":1071.9000000358,"correct":true,"confidence":1},{"trial_n":105,"min":23,"max":232,"target":"absent","response":"absent","rt":728.79999995232,"correct":true,"confidence":5},{"trial_n":106,"min":23,"max":232,"target":"absent","response":"absent","rt":470.69999998808,"correct":true,"confidence":5},{"trial_n":107,"min":25,"max":230,"target":"absent","response":"absent","rt":218.80000001192,"correct":true,"confidence":5},{"trial_n":108,"min":25,"max":230,"target":"absent","response":"absent","rt":218.69999998808,"correct":true,"confidence":5},{"trial_n":109,"min":27,"max":228,"target":"absent","response":"absent","rt":225.5,"correct":true,"confidence":5},{"trial_n":110,"min":27,"max":228,"target":"present","response":"present","rt":338.30000001192,"correct":true,"confidence":5},{"trial_n":111,"min":28,"max":227,"target":"present","response":"present","rt":377.80000001192,"correct":true,"confidence":5},{"trial_n":112,"min":28,"max":227,"target":"absent","response":"absent","rt":278.30000001192,"correct":true,"confidence":5},{"trial_n":113,"min":29,"max":226,"target":"absent","response":"present","rt":220.5,"correct":false,"confidence":1},{"trial_n":114,"min":28,"max":227,"target":"absent","response":"absent","rt":269.09999996424,"correct":true,"confidence":5},{"trial_n":115,"min":28,"max":227,"target":"absent","response":"absent","rt":445.5,"correct":true,"confidence":5},{"trial_n":116,"min":29,"max":226,"target":"present","response":"present","rt":322.29999995232,"correct":true,"confidence":5},{"trial_n":117,"min":29,"max":226,"target":"present","response":"present","rt":237,"correct":true,"confidence":5},{"trial_n":118,"min":30,"max":225,"target":"present","response":"present","rt":341.89999997616,"correct":true,"confidence":5},{"trial_n":119,"min":30,"max":225,"target":"present","response":"present","rt":314.69999998808,"correct":true,"confidence":5},{"trial_n":120,"min":31,"max":224,"target":"present","response":"present","rt":358.19999998808,"correct":true,"confidence":5},{"trial_n":121,"min":31,"max":224,"target":"present","response":"present","rt":215.19999998808,"correct":true,"confidence":5},{"trial_n":122,"min":32,"max":223,"target":"present","response":"present","rt":394.80000001192,"correct":true,"confidence":5},{"trial_n":123,"min":32,"max":223,"target":"present","response":"present","rt":233.59999996424,"correct":true,"confidence":5},{"trial_n":124,"min":33,"max":222,"target":"absent","response":"absent","rt":283.89999997616,"correct":true,"confidence":5},{"trial_n":125,"min":33,"max":222,"target":"absent","response":"absent","rt":176.09999996424,"correct":true,"confidence":5},{"trial_n":126,"min":34,"max":221,"target":"absent","response":"absent","rt":266.10000002384,"correct":true,"confidence":5},{"trial_n":127,"min":34,"max":221,"target":"absent","response":"absent","rt":311.59999996424,"correct":true,"confidence":5},{"trial_n":128,"min":35,"max":220,"target":"present","response":"present","rt":243.5,"correct":true,"confidence":5},{"trial_n":129,"min":35,"max":220,"target":"present","response":"present","rt":206.60000002384,"correct":true,"confidence":5},{"trial_n":130,"min":36,"max":219,"target":"present","response":"present","rt":257.30000001192,"correct":true,"confidence":5},{"trial_n":131,"min":36,"max":219,"target":"present","response":"present","rt":197.5,"correct":true,"confidence":5},{"trial_n":132,"min":37,"max":218,"target":"present","response":"present","rt":206.79999995232,"correct":true,"confidence":5},{"trial_n":133,"min":37,"max":218,"target":"present","response":"present","rt":701.19999998808,"correct":true,"confidence":5},{"trial_n":134,"min":38,"max":217,"target":"absent","response":"absent","rt":237.30000001192,"correct":true,"confidence":4},{"trial_n":135,"min":38,"max":217,"target":"absent","response":"absent","rt":608.90000003576,"correct":true,"confidence":1},{"trial_n":136,"min":39,"max":216,"target":"absent","response":"absent","rt":418.19999998808,"correct":true,"confidence":5},{"trial_n":137,"min":39,"max":216,"target":"absent","response":"absent","rt":342.69999998808,"correct":true,"confidence":5},{"trial_n":138,"min":40,"max":215,"target":"absent","response":"absent","rt":181.79999995232,"correct":true,"confidence":5},{"trial_n":139,"min":40,"max":215,"target":"absent","response":"absent","rt":241.89999997616,"correct":true,"confidence":5},{"trial_n":140,"min":41,"max":214,"target":"present","response":"present","rt":218.69999998808,"correct":true,"confidence":5}]