[{"trial_n":1,"span":8,"encoder":"75081174","distractor":"45081174","target":"present","response":"present","rt":"4081.7000000477","correct":true,"confidence":-1},{"trial_n":2,"span":8,"encoder":"29583314","distractor":"29583114","target":"present","response":"present","rt":"1516.2000000477","correct":true,"confidence":-1},{"trial_n":3,"span":10,"encoder":"6715786638","distractor":"6715686638","target":"absent","response":"absent","rt":"2884.7000000477","correct":true,"confidence":-1},{"trial_n":4,"span":10,"encoder":"7796129478","distractor":"7796129408","target":"absent","response":"absent","rt":"1091.7999999523","correct":true,"confidence":-1},{"trial_n":5,"span":12,"encoder":"042262244400","distractor":"042262244450","target":"present","response":"absent","rt":"1320.7000000477","correct":false,"confidence":-1},{"trial_n":6,"span":10,"encoder":"0629887093","distractor":"0229887093","target":"present","response":"present","rt":"448.40000009537","correct":true,"confidence":-1},{"trial_n":7,"span":10,"encoder":"6529643853","distractor":"6529643813","target":"absent","response":"absent","rt":"742.5","correct":true,"confidence":-1},{"trial_n":8,"span":12,"encoder":"893875931852","distractor":"893875971852","target":"absent","response":"present","rt":"356.19999980927","correct":false,"confidence":-1},{"trial_n":9,"span":10,"encoder":"7920628170","distractor":"7920629170","target":"absent","response":"present","rt":"310.30000019073","correct":false,"confidence":-1},{"trial_n":10,"span":8,"encoder":"46052000","distractor":"46052020","target":"present","response":"absent","rt":"1439.7999999523","correct":false,"confidence":-1},{"trial_n":11,"span":6,"encoder":"751273","distractor":"751270","target":"absent","response":"absent","rt":"823.60000014305","correct":true,"confidence":-1},{"trial_n":12,"span":6,"encoder":"089522","distractor":"079522","target":"present","response":"present","rt":"810.5","correct":true,"confidence":-1},{"trial_n":13,"span":7,"encoder":"2714990","distractor":"2814990","target":"present","response":"present","rt":"699","correct":true,"confidence":-1},{"trial_n":14,"span":7,"encoder":"0200568","distractor":"0200368","target":"present","response":"present","rt":"652.20000004768","correct":true,"confidence":-1},{"trial_n":15,"span":8,"encoder":"14868367","distractor":"14568367","target":"present","response":"present","rt":"558.5","correct":true,"confidence":-1},{"trial_n":16,"span":8,"encoder":"90899749","distractor":"90899549","target":"present","response":"present","rt":"473.79999995232","correct":true,"confidence":-1},{"trial_n":17,"span":9,"encoder":"422654728","distractor":"422659728","target":"absent","response":"absent","rt":"721.29999995232","correct":true,"confidence":-1},{"trial_n":18,"span":9,"encoder":"083350063","distractor":"080350063","target":"present","response":"absent","rt":"561.79999995232","correct":false,"confidence":-1},{"trial_n":19,"span":8,"encoder":"91915614","distractor":"91515614","target":"absent","response":"present","rt":"1911.5","correct":false,"confidence":-1},{"trial_n":20,"span":7,"encoder":"9265234","distractor":"9265274","target":"present","response":"present","rt":"717.20000004768","correct":true,"confidence":-1},{"trial_n":21,"span":7,"encoder":"3910816","distractor":"3918816","target":"absent","response":"absent","rt":"2066.5","correct":true,"confidence":3},{"trial_n":22,"span":8,"encoder":"44612325","distractor":"44612322","target":"present","response":"present","rt":"1555","correct":true,"confidence":4},{"trial_n":23,"span":8,"encoder":"47054732","distractor":"47053732","target":"absent","response":"absent","rt":"877.79999995232","correct":true,"confidence":1},{"trial_n":24,"span":9,"encoder":"603622863","distractor":"603622853","target":"absent","response":"absent","rt":"2089.7000000477","correct":true,"confidence":5},{"trial_n":25,"span":9,"encoder":"051233315","distractor":"051233319","target":"absent","response":"absent","rt":"1479.5","correct":true,"confidence":5},{"trial_n":26,"span":10,"encoder":"6423064889","distractor":"6423064859","target":"absent","response":"absent","rt":"1628.1000001431","correct":true,"confidence":4},{"trial_n":27,"span":10,"encoder":"9346256986","distractor":"9046256986","target":"present","response":"present","rt":"1139.5999999046","correct":true,"confidence":1},{"trial_n":28,"span":11,"encoder":"30840488793","distractor":"30840418793","target":"absent","response":"absent","rt":"3852.2000000477","correct":true,"confidence":4},{"trial_n":29,"span":11,"encoder":"01702777776","distractor":"31702777776","target":"absent","response":"present","rt":"1837.5","correct":false,"confidence":3},{"trial_n":30,"span":10,"encoder":"5005112105","distractor":"5005812105","target":"present","response":"present","rt":"2318.2000000477","correct":true,"confidence":4},{"trial_n":31,"span":10,"encoder":"9562694775","distractor":"9562694770","target":"present","response":"present","rt":"1692.4000000954","correct":true,"confidence":3},{"trial_n":32,"span":11,"encoder":"33112817206","distractor":"35112817206","target":"present","response":"present","rt":"2627.1000001431","correct":true,"confidence":2},{"trial_n":33,"span":11,"encoder":"58475729046","distractor":"58425729046","target":"absent","response":"present","rt":"1377.5999999046","correct":false,"confidence":2},{"trial_n":34,"span":10,"encoder":"0784221180","distractor":"0784221189","target":"present","response":"present","rt":"1690.6000001431","correct":true,"confidence":2},{"trial_n":35,"span":10,"encoder":"3692824488","distractor":"3692884488","target":"present","response":"present","rt":"1350.7999999523","correct":true,"confidence":4},{"trial_n":36,"span":11,"encoder":"34060286190","distractor":"34060286192","target":"absent","response":"absent","rt":"2682.3999998569","correct":true,"confidence":2},{"trial_n":37,"span":11,"encoder":"83359256015","distractor":"83359256815","target":"absent","response":"absent","rt":"1782.5","correct":true,"confidence":5},{"trial_n":38,"span":12,"encoder":"210308655241","distractor":"210309655241","target":"present","response":"present","rt":"3470.5","correct":true,"confidence":3},{"trial_n":39,"span":12,"encoder":"945063099666","distractor":"949063099666","target":"present","response":"absent","rt":"2367.7999999523","correct":false,"confidence":2},{"trial_n":40,"span":11,"encoder":"06938128894","distractor":"06938108894","target":"present","response":"absent","rt":"3240.8999998569","correct":false,"confidence":3},{"trial_n":41,"span":10,"encoder":"9664240787","distractor":"9664540787","target":"present","response":"present","rt":"2350.3999998569","correct":true,"confidence":4},{"trial_n":42,"span":10,"encoder":"1588480272","distractor":"1588480292","target":"absent","response":"present","rt":"1481.2999999523","correct":false,"confidence":4},{"trial_n":43,"span":9,"encoder":"208108743","distractor":"208198743","target":"absent","response":"present","rt":"1668.7999999523","correct":false,"confidence":3},{"trial_n":44,"span":8,"encoder":"97318307","distractor":"97318303","target":"absent","response":"present","rt":"3023.5","correct":false,"confidence":2},{"trial_n":45,"span":7,"encoder":"3891454","distractor":"3891404","target":"present","response":"present","rt":"2086.2000000477","correct":true,"confidence":5},{"trial_n":46,"span":7,"encoder":"8861645","distractor":"8861045","target":"present","response":"absent","rt":"2126.6000001431","correct":false,"confidence":1},{"trial_n":47,"span":6,"encoder":"404876","distractor":"405876","target":"absent","response":"present","rt":"1267.7000000477","correct":false,"confidence":4},{"trial_n":48,"span":5,"encoder":"16896","distractor":"16892","target":"absent","response":"absent","rt":"1583.0999999046","correct":true,"confidence":5},{"trial_n":49,"span":5,"encoder":"31613","distractor":"31513","target":"absent","response":"absent","rt":"1727.2000000477","correct":true,"confidence":5},{"trial_n":50,"span":6,"encoder":"329111","distractor":"329113","target":"present","response":"present","rt":"1305.9000000954","correct":true,"confidence":5},{"trial_n":51,"span":6,"encoder":"421066","distractor":"421766","target":"absent","response":"absent","rt":"1464.7999999523","correct":true,"confidence":5},{"trial_n":52,"span":7,"encoder":"4313987","distractor":"4313287","target":"absent","response":"absent","rt":"1329.0999999046","correct":true,"confidence":5},{"trial_n":53,"span":7,"encoder":"5439164","distractor":"5439166","target":"absent","response":"absent","rt":"1543","correct":true,"confidence":5},{"trial_n":54,"span":8,"encoder":"36209976","distractor":"36009976","target":"absent","response":"present","rt":"2256.5","correct":false,"confidence":3},{"trial_n":55,"span":7,"encoder":"0777744","distractor":"0747744","target":"present","response":"present","rt":"1248.7999999523","correct":true,"confidence":3},{"trial_n":56,"span":7,"encoder":"4714317","distractor":"5714317","target":"absent","response":"absent","rt":"1851.7999999523","correct":true,"confidence":2},{"trial_n":57,"span":8,"encoder":"82789847","distractor":"82787847","target":"present","response":"present","rt":"5611.5","correct":true,"confidence":2},{"trial_n":58,"span":8,"encoder":"67797836","distractor":"07797836","target":"present","response":"present","rt":"1490.8000001907","correct":true,"confidence":4},{"trial_n":59,"span":9,"encoder":"905228017","distractor":"905128017","target":"present","response":"present","rt":"1404.3000001907","correct":true,"confidence":5},{"trial_n":60,"span":9,"encoder":"447567564","distractor":"447567964","target":"present","response":"present","rt":"1331.3999998569","correct":true,"confidence":5},{"trial_n":61,"span":10,"encoder":"1730970167","distractor":"1730900167","target":"absent","response":"present","rt":"1772.4000000954","correct":false,"confidence":4},{"trial_n":62,"span":9,"encoder":"956690349","distractor":"951690349","target":"present","response":"present","rt":"1427.5","correct":true,"confidence":3},{"trial_n":63,"span":9,"encoder":"263150456","distractor":"263250456","target":"absent","response":"absent","rt":"1848","correct":true,"confidence":4},{"trial_n":64,"span":10,"encoder":"2555382017","distractor":"2555382917","target":"absent","response":"absent","rt":"2918.5","correct":true,"confidence":4},{"trial_n":65,"span":10,"encoder":"2189710728","distractor":"2180710728","target":"present","response":"absent","rt":"2654.0999999046","correct":false,"confidence":4},{"trial_n":66,"span":9,"encoder":"132233979","distractor":"172233979","target":"present","response":"present","rt":"1958.5999999046","correct":true,"confidence":4},{"trial_n":67,"span":9,"encoder":"764644583","distractor":"764644383","target":"present","response":"present","rt":"1589.7999999523","correct":true,"confidence":5},{"trial_n":68,"span":10,"encoder":"8676545171","distractor":"8676505171","target":"present","response":"present","rt":"1238.3000001907","correct":true,"confidence":3},{"trial_n":69,"span":10,"encoder":"5255316881","distractor":"5255616881","target":"absent","response":"present","rt":"2157","correct":false,"confidence":4},{"trial_n":70,"span":9,"encoder":"373399789","distractor":"373399799","target":"absent","response":"present","rt":"1591.1000001431","correct":false,"confidence":3},{"trial_n":71,"span":8,"encoder":"56889641","distractor":"56881641","target":"present","response":"present","rt":"3780.0999999046","correct":true,"confidence":-1},{"trial_n":72,"span":8,"encoder":"89712393","distractor":"89712333","target":"present","response":"present","rt":"1474.0999999046","correct":true,"confidence":-1},{"trial_n":73,"span":9,"encoder":"582427787","distractor":"582427789","target":"absent","response":"absent","rt":"1239.3000001907","correct":true,"confidence":-1},{"trial_n":74,"span":9,"encoder":"713082728","distractor":"713082722","target":"absent","response":"absent","rt":"1852.7000000477","correct":true,"confidence":-1},{"trial_n":75,"span":10,"encoder":"1289996218","distractor":"1289996210","target":"present","response":"absent","rt":"2303.2999999523","correct":false,"confidence":-1},{"trial_n":76,"span":9,"encoder":"199199085","distractor":"199199082","target":"present","response":"present","rt":"1122.4000000954","correct":true,"confidence":-1},{"trial_n":77,"span":9,"encoder":"694395952","distractor":"694396952","target":"absent","response":"present","rt":"2012.2999999523","correct":false,"confidence":-1},{"trial_n":78,"span":8,"encoder":"70746596","distractor":"78746596","target":"absent","response":"absent","rt":"2216.2000000477","correct":true,"confidence":-1},{"trial_n":79,"span":8,"encoder":"94669182","distractor":"98669182","target":"present","response":"present","rt":"1742.1999998093","correct":true,"confidence":-1},{"trial_n":80,"span":9,"encoder":"806437604","distractor":"806437601","target":"absent","response":"absent","rt":"1043.1000001431","correct":true,"confidence":-1},{"trial_n":81,"span":9,"encoder":"558374331","distractor":"558379331","target":"absent","response":"present","rt":"2797.2000000477","correct":false,"confidence":-1},{"trial_n":82,"span":8,"encoder":"92378399","distractor":"92379399","target":"absent","response":"absent","rt":"1673.2999999523","correct":true,"confidence":-1},{"trial_n":83,"span":8,"encoder":"32699499","distractor":"32199499","target":"absent","response":"absent","rt":"2327.2999999523","correct":true,"confidence":-1},{"trial_n":84,"span":9,"encoder":"031787525","distractor":"081787525","target":"present","response":"absent","rt":"1789.2999999523","correct":false,"confidence":-1},{"trial_n":85,"span":8,"encoder":"80340055","distractor":"80390055","target":"absent","response":"absent","rt":"1301","correct":true,"confidence":-1},{"trial_n":86,"span":8,"encoder":"90009964","distractor":"90029964","target":"present","response":"present","rt":"1525.2000000477","correct":true,"confidence":-1},{"trial_n":87,"span":9,"encoder":"465389222","distractor":"465388222","target":"absent","response":"absent","rt":"3076.1000001431","correct":true,"confidence":-1},{"trial_n":88,"span":9,"encoder":"987257696","distractor":"987237696","target":"present","response":"absent","rt":"736.5","correct":false,"confidence":-1},{"trial_n":89,"span":8,"encoder":"76402011","distractor":"76402001","target":"present","response":"absent","rt":"655.10000014305","correct":false,"confidence":-1},{"trial_n":90,"span":7,"encoder":"3176133","distractor":"6176133","target":"present","response":"absent","rt":"1207.7999999523","correct":false,"confidence":-1},{"trial_n":91,"span":6,"encoder":"464877","distractor":"465877","target":"absent","response":"absent","rt":"1501.0999999046","correct":true,"confidence":5},{"trial_n":92,"span":6,"encoder":"972294","distractor":"972094","target":"present","response":"present","rt":"1981.2000000477","correct":true,"confidence":2},{"trial_n":93,"span":7,"encoder":"1663592","distractor":"4663592","target":"absent","response":"absent","rt":"1405","correct":true,"confidence":5},{"trial_n":94,"span":7,"encoder":"2280266","distractor":"2250266","target":"present","response":"present","rt":"3113.2000000477","correct":true,"confidence":5},{"trial_n":95,"span":8,"encoder":"44181380","distractor":"44171380","target":"absent","response":"absent","rt":"4017.8999998569","correct":true,"confidence":4},{"trial_n":96,"span":8,"encoder":"35453440","distractor":"35450440","target":"present","response":"present","rt":"5203.9000000954","correct":true,"confidence":2},{"trial_n":97,"span":9,"encoder":"088916598","distractor":"088926598","target":"absent","response":"absent","rt":"1612.0999999046","correct":true,"confidence":1},{"trial_n":98,"span":9,"encoder":"865566438","distractor":"855566438","target":"absent","response":"absent","rt":"4440.3000001907","correct":true,"confidence":4},{"trial_n":99,"span":10,"encoder":"6457937716","distractor":"6457957716","target":"absent","response":"present","rt":"875.5","correct":false,"confidence":3},{"trial_n":100,"span":9,"encoder":"420655920","distractor":"410655920","target":"present","response":"present","rt":"825.40000009537","correct":true,"confidence":3},{"trial_n":101,"span":9,"encoder":"632397011","distractor":"632097011","target":"present","response":"absent","rt":"3833.5999999046","correct":false,"confidence":3},{"trial_n":102,"span":8,"encoder":"75340337","distractor":"85340337","target":"absent","response":"absent","rt":"3078.1999998093","correct":true,"confidence":3},{"trial_n":103,"span":8,"encoder":"79244783","distractor":"77244783","target":"absent","response":"absent","rt":"2493.9000000954","correct":true,"confidence":5},{"trial_n":104,"span":9,"encoder":"985840797","distractor":"985840791","target":"present","response":"present","rt":"4340.2000000477","correct":true,"confidence":5},{"trial_n":105,"span":9,"encoder":"047197011","distractor":"047197511","target":"present","response":"absent","rt":"2418","correct":false,"confidence":1},{"trial_n":106,"span":8,"encoder":"01673646","distractor":"01373646","target":"absent","response":"absent","rt":"5624.7999999523","correct":true,"confidence":4},{"trial_n":107,"span":8,"encoder":"41030432","distractor":"45030432","target":"present","response":"present","rt":"5045.0999999046","correct":true,"confidence":5},{"trial_n":108,"span":9,"encoder":"483092479","distractor":"483092979","target":"absent","response":"present","rt":"5564.6999998093","correct":false,"confidence":4},{"trial_n":109,"span":8,"encoder":"45758582","distractor":"45757582","target":"present","response":"absent","rt":"3313","correct":false,"confidence":1},{"trial_n":110,"span":7,"encoder":"7986768","distractor":"7956768","target":"absent","response":"absent","rt":"3744.0999999046","correct":true,"confidence":3},{"trial_n":111,"span":7,"encoder":"4489171","distractor":"4489671","target":"absent","response":"absent","rt":"2160.0999999046","correct":true,"confidence":4},{"trial_n":112,"span":8,"encoder":"21748322","distractor":"21748222","target":"present","response":"present","rt":"3469.7999999523","correct":true,"confidence":5},{"trial_n":113,"span":8,"encoder":"94752325","distractor":"94752345","target":"absent","response":"absent","rt":"2495.0999999046","correct":true,"confidence":5},{"trial_n":114,"span":9,"encoder":"970398233","distractor":"930398233","target":"present","response":"present","rt":"3862.3999998569","correct":true,"confidence":4},{"trial_n":115,"span":9,"encoder":"544147780","distractor":"444147780","target":"present","response":"present","rt":"2906","correct":true,"confidence":5},{"trial_n":116,"span":10,"encoder":"3751310958","distractor":"3757310958","target":"present","response":"present","rt":"7751.5","correct":true,"confidence":2},{"trial_n":117,"span":10,"encoder":"2632288422","distractor":"2232288422","target":"present","response":"present","rt":"3475.3000001907","correct":true,"confidence":4},{"trial_n":118,"span":11,"encoder":"88313166105","distractor":"88313666105","target":"absent","response":"absent","rt":"5339.4000000954","correct":true,"confidence":4},{"trial_n":119,"span":11,"encoder":"24443954630","distractor":"24443955630","target":"absent","response":"present","rt":"1339.5","correct":false,"confidence":2},{"trial_n":120,"span":10,"encoder":"0757231707","distractor":"0747231707","target":"absent","response":"absent","rt":"1938.3999998569","correct":true,"confidence":4},{"trial_n":121,"span":10,"encoder":"4265866279","distractor":"4265866249","target":"absent","response":"absent","rt":"7774.4000000954","correct":true,"confidence":2},{"trial_n":122,"span":11,"encoder":"05854325178","distractor":"05850325178","target":"absent","response":"absent","rt":"4124.8999998569","correct":true,"confidence":3},{"trial_n":123,"span":11,"encoder":"75783012089","distractor":"75783012059","target":"absent","response":"absent","rt":"1857.9000000954","correct":true,"confidence":1},{"trial_n":124,"span":12,"encoder":"763772924461","distractor":"763742924461","target":"present","response":"present","rt":"4612.0999999046","correct":true,"confidence":1},{"trial_n":125,"span":12,"encoder":"598713962687","distractor":"598513962687","target":"present","response":"present","rt":"3900","correct":true,"confidence":1},{"trial_n":126,"span":13,"encoder":"3731834410704","distractor":"3731804410704","target":"absent","response":"absent","rt":"2858.5","correct":true,"confidence":3},{"trial_n":127,"span":13,"encoder":"1197383363798","distractor":"1197383563798","target":"present","response":"absent","rt":"10891.599999905","correct":false,"confidence":3},{"trial_n":128,"span":12,"encoder":"732614282061","distractor":"732614232061","target":"present","response":"present","rt":"1672.2999999523","correct":true,"confidence":2},{"trial_n":129,"span":12,"encoder":"810374862028","distractor":"810394862028","target":"present","response":"absent","rt":"2455.9000000954","correct":false,"confidence":4},{"trial_n":130,"span":11,"encoder":"05535073406","distractor":"05535083406","target":"present","response":"present","rt":"2312.5","correct":true,"confidence":2},{"trial_n":131,"span":11,"encoder":"24505409445","distractor":"24505409415","target":"present","response":"absent","rt":"660.29999995232","correct":false,"confidence":4},{"trial_n":132,"span":10,"encoder":"1504147692","distractor":"1504147292","target":"absent","response":"present","rt":"2199.8999998569","correct":false,"confidence":3},{"trial_n":133,"span":9,"encoder":"939425405","distractor":"989425405","target":"absent","response":"absent","rt":"4426.3999998569","correct":true,"confidence":1},{"trial_n":134,"span":9,"encoder":"012170636","distractor":"019170636","target":"present","response":"present","rt":"3337.1999998093","correct":true,"confidence":3},{"trial_n":135,"span":10,"encoder":"9700385083","distractor":"9701385083","target":"absent","response":"present","rt":"6449.7000000477","correct":false,"confidence":1},{"trial_n":136,"span":9,"encoder":"419816592","distractor":"419816591","target":"present","response":"present","rt":"3507","correct":true,"confidence":1},{"trial_n":137,"span":9,"encoder":"006190831","distractor":"606190831","target":"present","response":"absent","rt":"4464.3999998569","correct":false,"confidence":3},{"trial_n":138,"span":8,"encoder":"90518750","distractor":"90518850","target":"present","response":"absent","rt":"2963.5","correct":false,"confidence":4},{"trial_n":139,"span":7,"encoder":"9670766","distractor":"9170766","target":"present","response":"absent","rt":"6456.6000001431","correct":false,"confidence":2},{"trial_n":140,"span":6,"encoder":"172213","distractor":"172263","target":"absent","response":"absent","rt":"2798.5999999046","correct":true,"confidence":3}]