[{"trial_n":1,"n_dots":4.25,"target":"right","response":"left","rt":4640.8999998569,"correct":false,"confidence":-1},{"trial_n":2,"n_dots":4.25,"target":"right","response":"right","rt":752.79999995232,"correct":true,"confidence":-1},{"trial_n":3,"n_dots":4.25,"target":"left","response":"left","rt":303.40000009537,"correct":true,"confidence":-1},{"trial_n":4,"n_dots":3.85,"target":"left","response":"left","rt":1028.7000000477,"correct":true,"confidence":-1},{"trial_n":5,"n_dots":3.85,"target":"left","response":"left","rt":612.79999995232,"correct":true,"confidence":-1},{"trial_n":6,"n_dots":3.45,"target":"right","response":"right","rt":443.10000014305,"correct":true,"confidence":-1},{"trial_n":7,"n_dots":3.45,"target":"right","response":"left","rt":599.19999980927,"correct":false,"confidence":-1},{"trial_n":8,"n_dots":3.65,"target":"left","response":"left","rt":461.79999995232,"correct":true,"confidence":-1},{"trial_n":9,"n_dots":3.65,"target":"left","response":"right","rt":214.20000004768,"correct":false,"confidence":-1},{"trial_n":10,"n_dots":3.85,"target":"left","response":"left","rt":546.90000009537,"correct":true,"confidence":-1},{"trial_n":11,"n_dots":3.85,"target":"left","response":"right","rt":921.70000004768,"correct":false,"confidence":-1},{"trial_n":12,"n_dots":4.05,"target":"right","response":"right","rt":313.60000014305,"correct":true,"confidence":-1},{"trial_n":13,"n_dots":4.05,"target":"left","response":"left","rt":36.800000190735,"correct":true,"confidence":-1},{"trial_n":14,"n_dots":3.95,"target":"left","response":"left","rt":1478.9000000954,"correct":true,"confidence":-1},{"trial_n":15,"n_dots":3.95,"target":"left","response":"left","rt":545.80000019073,"correct":true,"confidence":-1},{"trial_n":16,"n_dots":3.85,"target":"right","response":"right","rt":11,"correct":true,"confidence":-1},{"trial_n":17,"n_dots":3.85,"target":"right","response":"right","rt":18,"correct":true,"confidence":-1},{"trial_n":18,"n_dots":3.75,"target":"right","response":"right","rt":5572.5,"correct":true,"confidence":-1},{"trial_n":19,"n_dots":3.75,"target":"left","response":"left","rt":301.60000014305,"correct":true,"confidence":-1},{"trial_n":20,"n_dots":3.65,"target":"left","response":"left","rt":529.10000014305,"correct":true,"confidence":-1},{"trial_n":21,"n_dots":3.65,"target":"left","response":"left","rt":327.20000004768,"correct":true,"confidence":3},{"trial_n":22,"n_dots":3.55,"target":"right","response":"right","rt":425.70000004768,"correct":true,"confidence":3},{"trial_n":23,"n_dots":3.55,"target":"right","response":"right","rt":718.70000004768,"correct":true,"confidence":3},{"trial_n":24,"n_dots":3.45,"target":"right","response":"right","rt":1196.1000001431,"correct":true,"confidence":2},{"trial_n":25,"n_dots":3.45,"target":"right","response":"right","rt":773.90000009537,"correct":true,"confidence":3},{"trial_n":26,"n_dots":3.35,"target":"right","response":"right","rt":638.70000004768,"correct":true,"confidence":3},{"trial_n":27,"n_dots":3.35,"target":"left","response":"left","rt":662.20000004768,"correct":true,"confidence":4},{"trial_n":28,"n_dots":3.25,"target":"left","response":"left","rt":1369,"correct":true,"confidence":3},{"trial_n":29,"n_dots":3.25,"target":"left","response":"left","rt":2719,"correct":true,"confidence":3},{"trial_n":30,"n_dots":3.15,"target":"right","response":"right","rt":593.30000019073,"correct":true,"confidence":4},{"trial_n":31,"n_dots":3.15,"target":"left","response":"left","rt":4057.9000000954,"correct":true,"confidence":1},{"trial_n":32,"n_dots":3.05,"target":"right","response":"right","rt":1032.2999999523,"correct":true,"confidence":1},{"trial_n":33,"n_dots":3.05,"target":"right","response":"right","rt":1425,"correct":true,"confidence":1},{"trial_n":34,"n_dots":2.95,"target":"right","response":"left","rt":2451.7999999523,"correct":false,"confidence":2},{"trial_n":35,"n_dots":3.05,"target":"left","response":"right","rt":845.20000004768,"correct":false,"confidence":1},{"trial_n":36,"n_dots":3.15,"target":"left","response":"right","rt":1543.7999999523,"correct":false,"confidence":1},{"trial_n":37,"n_dots":3.25,"target":"left","response":"left","rt":8401.2000000477,"correct":true,"confidence":3},{"trial_n":38,"n_dots":3.25,"target":"right","response":"left","rt":1216.5,"correct":false,"confidence":3},{"trial_n":39,"n_dots":3.35,"target":"left","response":"left","rt":2433.5,"correct":true,"confidence":3},{"trial_n":40,"n_dots":3.35,"target":"left","response":"right","rt":5301.2999999523,"correct":false,"confidence":2},{"trial_n":41,"n_dots":3.45,"target":"right","response":"left","rt":14087.300000191,"correct":false,"confidence":2},{"trial_n":42,"n_dots":3.55,"target":"right","response":"right","rt":4297.7999999523,"correct":true,"confidence":4},{"trial_n":43,"n_dots":3.55,"target":"right","response":"left","rt":1417,"correct":false,"confidence":3},{"trial_n":44,"n_dots":3.65,"target":"left","response":"left","rt":3834,"correct":true,"confidence":2},{"trial_n":45,"n_dots":3.65,"target":"right","response":"right","rt":1962.7000000477,"correct":true,"confidence":3},{"trial_n":46,"n_dots":3.55,"target":"left","response":"left","rt":1051.9000000954,"correct":true,"confidence":3},{"trial_n":47,"n_dots":3.55,"target":"left","response":"right","rt":1152.4000000954,"correct":false,"confidence":3},{"trial_n":48,"n_dots":3.65,"target":"right","response":"right","rt":1825.2000000477,"correct":true,"confidence":5},{"trial_n":49,"n_dots":3.65,"target":"right","response":"right","rt":1227.4000000954,"correct":true,"confidence":5},{"trial_n":50,"n_dots":3.55,"target":"right","response":"right","rt":1159.2000000477,"correct":true,"confidence":5},{"trial_n":51,"n_dots":3.55,"target":"left","response":"left","rt":914.20000004768,"correct":true,"confidence":4},{"trial_n":52,"n_dots":3.45,"target":"left","response":"left","rt":720.09999990463,"correct":true,"confidence":4},{"trial_n":53,"n_dots":3.45,"target":"right","response":"right","rt":1272.6000001431,"correct":true,"confidence":4},{"trial_n":54,"n_dots":3.35,"target":"right","response":"right","rt":1276.3999998569,"correct":true,"confidence":3},{"trial_n":55,"n_dots":3.35,"target":"right","response":"left","rt":2665.7999999523,"correct":false,"confidence":1},{"trial_n":56,"n_dots":3.45,"target":"right","response":"right","rt":660.09999990463,"correct":true,"confidence":5},{"trial_n":57,"n_dots":3.45,"target":"right","response":"right","rt":688.40000009537,"correct":true,"confidence":5},{"trial_n":58,"n_dots":3.35,"target":"left","response":"left","rt":639.20000004768,"correct":true,"confidence":4},{"trial_n":59,"n_dots":3.35,"target":"right","response":"left","rt":1017,"correct":false,"confidence":4},{"trial_n":60,"n_dots":3.45,"target":"left","response":"left","rt":809.09999990463,"correct":true,"confidence":5},{"trial_n":61,"n_dots":3.45,"target":"right","response":"right","rt":2228,"correct":true,"confidence":5},{"trial_n":62,"n_dots":3.35,"target":"right","response":"right","rt":703.10000014305,"correct":true,"confidence":4},{"trial_n":63,"n_dots":3.35,"target":"left","response":"left","rt":940.70000004768,"correct":true,"confidence":3},{"trial_n":64,"n_dots":3.25,"target":"left","response":"left","rt":878.79999995232,"correct":true,"confidence":3},{"trial_n":65,"n_dots":3.25,"target":"left","response":"right","rt":2019,"correct":false,"confidence":4},{"trial_n":66,"n_dots":3.35,"target":"right","response":"right","rt":1508.8999998569,"correct":true,"confidence":3},{"trial_n":67,"n_dots":3.35,"target":"right","response":"left","rt":883.80000019073,"correct":false,"confidence":3},{"trial_n":68,"n_dots":3.45,"target":"left","response":"left","rt":578.80000019073,"correct":true,"confidence":5},{"trial_n":69,"n_dots":3.45,"target":"left","response":"left","rt":1067.7000000477,"correct":true,"confidence":3},{"trial_n":70,"n_dots":3.35,"target":"left","response":"left","rt":1123.2000000477,"correct":true,"confidence":4},{"trial_n":71,"n_dots":3.35,"target":"left","response":"left","rt":426.29999995232,"correct":true,"confidence":4},{"trial_n":72,"n_dots":3.25,"target":"right","response":"right","rt":1177.6999998093,"correct":true,"confidence":4},{"trial_n":73,"n_dots":3.25,"target":"right","response":"left","rt":464.5,"correct":false,"confidence":4},{"trial_n":74,"n_dots":3.35,"target":"right","response":"right","rt":1636,"correct":true,"confidence":2},{"trial_n":75,"n_dots":3.35,"target":"left","response":"left","rt":383.80000019073,"correct":true,"confidence":3},{"trial_n":76,"n_dots":3.25,"target":"right","response":"left","rt":628.09999990463,"correct":false,"confidence":3},{"trial_n":77,"n_dots":3.35,"target":"left","response":"left","rt":737.70000004768,"correct":true,"confidence":4},{"trial_n":78,"n_dots":3.35,"target":"right","response":"right","rt":1627.8999998569,"correct":true,"confidence":4},{"trial_n":79,"n_dots":3.25,"target":"left","response":"left","rt":457.60000014305,"correct":true,"confidence":4},{"trial_n":80,"n_dots":3.25,"target":"right","response":"right","rt":1679,"correct":true,"confidence":4},{"trial_n":81,"n_dots":3.15,"target":"left","response":"left","rt":416.5,"correct":true,"confidence":4},{"trial_n":82,"n_dots":3.15,"target":"left","response":"left","rt":517.59999990463,"correct":true,"confidence":4},{"trial_n":83,"n_dots":3.05,"target":"left","response":"left","rt":515.39999985695,"correct":true,"confidence":4},{"trial_n":84,"n_dots":3.05,"target":"right","response":"right","rt":796.09999990463,"correct":true,"confidence":3},{"trial_n":85,"n_dots":2.95,"target":"right","response":"right","rt":1104,"correct":true,"confidence":4},{"trial_n":86,"n_dots":2.95,"target":"right","response":"left","rt":385,"correct":false,"confidence":3},{"trial_n":87,"n_dots":3.05,"target":"left","response":"left","rt":466.10000014305,"correct":true,"confidence":3},{"trial_n":88,"n_dots":3.05,"target":"left","response":"right","rt":1128.1999998093,"correct":false,"confidence":4},{"trial_n":89,"n_dots":3.15,"target":"right","response":"left","rt":1350.2999999523,"correct":false,"confidence":2},{"trial_n":90,"n_dots":3.25,"target":"right","response":"left","rt":570.30000019073,"correct":false,"confidence":4},{"trial_n":91,"n_dots":3.35,"target":"left","response":"left","rt":388.59999990463,"correct":true,"confidence":4},{"trial_n":92,"n_dots":3.35,"target":"right","response":"left","rt":947.69999980927,"correct":false,"confidence":4},{"trial_n":93,"n_dots":3.45,"target":"right","response":"right","rt":583.60000014305,"correct":true,"confidence":4},{"trial_n":94,"n_dots":3.45,"target":"left","response":"left","rt":738.89999985695,"correct":true,"confidence":4},{"trial_n":95,"n_dots":3.35,"target":"left","response":"left","rt":522,"correct":true,"confidence":3},{"trial_n":96,"n_dots":3.35,"target":"left","response":"left","rt":317.40000009537,"correct":true,"confidence":3},{"trial_n":97,"n_dots":3.25,"target":"right","response":"right","rt":532,"correct":true,"confidence":2},{"trial_n":98,"n_dots":3.25,"target":"left","response":"left","rt":633.09999990463,"correct":true,"confidence":3},{"trial_n":99,"n_dots":3.15,"target":"left","response":"left","rt":348.40000009537,"correct":true,"confidence":4},{"trial_n":100,"n_dots":3.15,"target":"right","response":"right","rt":751.20000004768,"correct":true,"confidence":4},{"trial_n":101,"n_dots":3.05,"target":"left","response":"left","rt":626.90000009537,"correct":true,"confidence":3},{"trial_n":102,"n_dots":3.05,"target":"right","response":"right","rt":761.40000009537,"correct":true,"confidence":4},{"trial_n":103,"n_dots":2.95,"target":"right","response":"left","rt":495.40000009537,"correct":false,"confidence":4},{"trial_n":104,"n_dots":3.05,"target":"right","response":"right","rt":737,"correct":true,"confidence":1},{"trial_n":105,"n_dots":3.05,"target":"right","response":"right","rt":821.09999990463,"correct":true,"confidence":4},{"trial_n":106,"n_dots":2.95,"target":"left","response":"left","rt":578.79999995232,"correct":true,"confidence":3},{"trial_n":107,"n_dots":2.95,"target":"left","response":"left","rt":504.40000009537,"correct":true,"confidence":3},{"trial_n":108,"n_dots":2.85,"target":"left","response":"left","rt":727.79999995232,"correct":true,"confidence":4},{"trial_n":109,"n_dots":2.85,"target":"right","response":"right","rt":504.30000019073,"correct":true,"confidence":5},{"trial_n":110,"n_dots":2.75,"target":"right","response":"left","rt":675.5,"correct":false,"confidence":5},{"trial_n":111,"n_dots":2.85,"target":"left","response":"left","rt":969.20000004768,"correct":true,"confidence":2},{"trial_n":112,"n_dots":2.85,"target":"left","response":"left","rt":693.09999990463,"correct":true,"confidence":4},{"trial_n":113,"n_dots":2.75,"target":"left","response":"left","rt":872.30000019073,"correct":true,"confidence":3},{"trial_n":114,"n_dots":2.75,"target":"right","response":"right","rt":634.80000019073,"correct":true,"confidence":2},{"trial_n":115,"n_dots":2.65,"target":"left","response":"left","rt":1011.2999999523,"correct":true,"confidence":2},{"trial_n":116,"n_dots":2.65,"target":"right","response":"right","rt":509,"correct":true,"confidence":3},{"trial_n":117,"n_dots":2.55,"target":"right","response":"right","rt":1005,"correct":true,"confidence":4},{"trial_n":118,"n_dots":2.55,"target":"left","response":"left","rt":395,"correct":true,"confidence":3},{"trial_n":119,"n_dots":2.45,"target":"left","response":"left","rt":639,"correct":true,"confidence":5},{"trial_n":120,"n_dots":2.45,"target":"right","response":"left","rt":892,"correct":false,"confidence":5}]