[{"trial_n":1,"n_dots":4.25,"target":"left","response":"left","rt":765.70000001788,"correct":true,"confidence":-1},{"trial_n":2,"n_dots":4.25,"target":"left","response":"left","rt":416.80000001192,"correct":true,"confidence":-1},{"trial_n":3,"n_dots":3.85,"target":"right","response":"left","rt":216,"correct":false,"confidence":-1},{"trial_n":4,"n_dots":4.25,"target":"right","response":"right","rt":576.09999999404,"correct":true,"confidence":-1},{"trial_n":5,"n_dots":4.25,"target":"right","response":"right","rt":251.79999998212,"correct":true,"confidence":-1},{"trial_n":6,"n_dots":3.85,"target":"right","response":"left","rt":348,"correct":false,"confidence":-1},{"trial_n":7,"n_dots":4.25,"target":"right","response":"right","rt":23.90000000596,"correct":true,"confidence":-1},{"trial_n":8,"n_dots":4.25,"target":"right","response":"left","rt":469.70000001788,"correct":false,"confidence":-1},{"trial_n":9,"n_dots":4.45,"target":"right","response":"right","rt":15.09999999404,"correct":true,"confidence":-1},{"trial_n":10,"n_dots":4.45,"target":"right","response":"right","rt":107.69999998808,"correct":true,"confidence":-1},{"trial_n":11,"n_dots":4.25,"target":"left","response":"left","rt":362.40000000596,"correct":true,"confidence":-1},{"trial_n":12,"n_dots":4.25,"target":"right","response":"right","rt":131.69999998808,"correct":true,"confidence":-1},{"trial_n":13,"n_dots":4.15,"target":"right","response":"right","rt":2.2000000178814,"correct":true,"confidence":-1},{"trial_n":14,"n_dots":4.15,"target":"right","response":"right","rt":429.30000001192,"correct":true,"confidence":-1},{"trial_n":15,"n_dots":4.05,"target":"right","response":"right","rt":31.5,"correct":true,"confidence":-1},{"trial_n":16,"n_dots":4.05,"target":"left","response":"left","rt":274.09999999404,"correct":true,"confidence":-1},{"trial_n":17,"n_dots":3.95,"target":"left","response":"left","rt":126.39999997616,"correct":true,"confidence":-1},{"trial_n":18,"n_dots":3.95,"target":"left","response":"left","rt":-2.5,"correct":true,"confidence":-1},{"trial_n":19,"n_dots":3.85,"target":"left","response":"right","rt":1150.099999994,"correct":false,"confidence":-1},{"trial_n":20,"n_dots":3.95,"target":"right","response":"right","rt":80.800000011921,"correct":true,"confidence":-1},{"trial_n":21,"n_dots":3.95,"target":"right","response":"right","rt":162.79999998212,"correct":true,"confidence":2},{"trial_n":22,"n_dots":3.85,"target":"right","response":"right","rt":217.5,"correct":true,"confidence":4},{"trial_n":23,"n_dots":3.85,"target":"left","response":"left","rt":194.40000000596,"correct":true,"confidence":5},{"trial_n":24,"n_dots":3.75,"target":"left","response":"left","rt":216.80000001192,"correct":true,"confidence":3},{"trial_n":25,"n_dots":3.75,"target":"right","response":"right","rt":9.7999999821186,"correct":true,"confidence":3},{"trial_n":26,"n_dots":3.65,"target":"left","response":"right","rt":149,"correct":false,"confidence":1},{"trial_n":27,"n_dots":3.75,"target":"left","response":"left","rt":128,"correct":true,"confidence":5},{"trial_n":28,"n_dots":3.75,"target":"right","response":"right","rt":96.200000017881,"correct":true,"confidence":4},{"trial_n":29,"n_dots":3.65,"target":"right","response":"left","rt":183.29999998212,"correct":false,"confidence":3},{"trial_n":30,"n_dots":3.75,"target":"left","response":"left","rt":80.5,"correct":true,"confidence":4},{"trial_n":31,"n_dots":3.75,"target":"left","response":"left","rt":46.90000000596,"correct":true,"confidence":2},{"trial_n":32,"n_dots":3.65,"target":"left","response":"left","rt":150.09999999404,"correct":true,"confidence":5},{"trial_n":33,"n_dots":3.65,"target":"right","response":"left","rt":194.29999998212,"correct":false,"confidence":2},{"trial_n":34,"n_dots":3.75,"target":"right","response":"right","rt":326.5,"correct":true,"confidence":1},{"trial_n":35,"n_dots":3.75,"target":"left","response":"left","rt":190.5,"correct":true,"confidence":3},{"trial_n":36,"n_dots":3.65,"target":"left","response":"left","rt":23.399999976158,"correct":true,"confidence":4},{"trial_n":37,"n_dots":3.65,"target":"right","response":"left","rt":63.40000000596,"correct":false,"confidence":1},{"trial_n":38,"n_dots":3.75,"target":"right","response":"right","rt":808,"correct":true,"confidence":3},{"trial_n":39,"n_dots":3.75,"target":"left","response":"left","rt":277.90000000596,"correct":true,"confidence":2},{"trial_n":40,"n_dots":3.65,"target":"left","response":"right","rt":203.70000001788,"correct":false,"confidence":3},{"trial_n":41,"n_dots":3.75,"target":"right","response":"left","rt":168.89999997616,"correct":false,"confidence":2},{"trial_n":42,"n_dots":3.85,"target":"left","response":"right","rt":1357.3000000119,"correct":false,"confidence":4},{"trial_n":43,"n_dots":3.95,"target":"right","response":"left","rt":214.60000002384,"correct":false,"confidence":3},{"trial_n":44,"n_dots":4.05,"target":"right","response":"right","rt":93.600000023842,"correct":true,"confidence":3},{"trial_n":45,"n_dots":4.05,"target":"right","response":"right","rt":184.79999998212,"correct":true,"confidence":5},{"trial_n":46,"n_dots":3.95,"target":"right","response":"left","rt":203.20000001788,"correct":false,"confidence":4},{"trial_n":47,"n_dots":4.05,"target":"left","response":"right","rt":33.899999976158,"correct":false,"confidence":2},{"trial_n":48,"n_dots":4.15,"target":"left","response":"left","rt":6707.8000000119,"correct":true,"confidence":4},{"trial_n":49,"n_dots":4.15,"target":"left","response":"right","rt":497.5,"correct":false,"confidence":1},{"trial_n":50,"n_dots":4.25,"target":"right","response":"left","rt":420.69999998808,"correct":false,"confidence":3},{"trial_n":51,"n_dots":4.35,"target":"left","response":"left","rt":89.09999999404,"correct":true,"confidence":5},{"trial_n":52,"n_dots":4.35,"target":"right","response":"right","rt":45.799999982119,"correct":true,"confidence":4},{"trial_n":53,"n_dots":4.25,"target":"right","response":"left","rt":231.5,"correct":false,"confidence":4},{"trial_n":54,"n_dots":4.35,"target":"right","response":"right","rt":909.29999998212,"correct":true,"confidence":5},{"trial_n":55,"n_dots":4.35,"target":"right","response":"right","rt":173.09999999404,"correct":true,"confidence":4},{"trial_n":56,"n_dots":4.25,"target":"right","response":"left","rt":317.10000002384,"correct":false,"confidence":3},{"trial_n":57,"n_dots":4.35,"target":"left","response":"left","rt":51.699999988079,"correct":true,"confidence":5},{"trial_n":58,"n_dots":4.35,"target":"right","response":"right","rt":0.80000001192093,"correct":true,"confidence":5},{"trial_n":59,"n_dots":4.25,"target":"right","response":"right","rt":22.300000011921,"correct":true,"confidence":5},{"trial_n":60,"n_dots":4.25,"target":"right","response":"right","rt":352.30000001192,"correct":true,"confidence":4},{"trial_n":61,"n_dots":4.15,"target":"left","response":"left","rt":157.59999999404,"correct":true,"confidence":5},{"trial_n":62,"n_dots":4.15,"target":"right","response":"left","rt":97.199999988079,"correct":false,"confidence":4},{"trial_n":63,"n_dots":4.25,"target":"left","response":"left","rt":59,"correct":true,"confidence":5},{"trial_n":64,"n_dots":4.25,"target":"left","response":"left","rt":206.20000001788,"correct":true,"confidence":3},{"trial_n":65,"n_dots":4.15,"target":"left","response":"left","rt":594.59999999404,"correct":true,"confidence":5},{"trial_n":66,"n_dots":4.15,"target":"right","response":"right","rt":652.5,"correct":true,"confidence":3},{"trial_n":67,"n_dots":4.05,"target":"left","response":"left","rt":375.80000001192,"correct":true,"confidence":5},{"trial_n":68,"n_dots":4.05,"target":"left","response":"left","rt":158.29999998212,"correct":true,"confidence":5},{"trial_n":69,"n_dots":3.95,"target":"right","response":"right","rt":7.9000000059605,"correct":true,"confidence":1},{"trial_n":70,"n_dots":3.95,"target":"right","response":"left","rt":61.5,"correct":false,"confidence":2},{"trial_n":71,"n_dots":4.05,"target":"left","response":"left","rt":350.40000000596,"correct":true,"confidence":3},{"trial_n":72,"n_dots":4.05,"target":"right","response":"right","rt":378.09999999404,"correct":true,"confidence":3},{"trial_n":73,"n_dots":3.95,"target":"left","response":"left","rt":404.90000000596,"correct":true,"confidence":5},{"trial_n":74,"n_dots":3.95,"target":"left","response":"left","rt":32.300000011921,"correct":true,"confidence":4},{"trial_n":75,"n_dots":3.85,"target":"left","response":"left","rt":471.5,"correct":true,"confidence":4},{"trial_n":76,"n_dots":3.85,"target":"left","response":"left","rt":265,"correct":true,"confidence":3},{"trial_n":77,"n_dots":3.75,"target":"right","response":"right","rt":471.5,"correct":true,"confidence":1},{"trial_n":78,"n_dots":3.75,"target":"left","response":"left","rt":178.40000000596,"correct":true,"confidence":2},{"trial_n":79,"n_dots":3.65,"target":"right","response":"left","rt":39.200000017881,"correct":false,"confidence":3},{"trial_n":80,"n_dots":3.75,"target":"right","response":"right","rt":122.90000000596,"correct":true,"confidence":2},{"trial_n":81,"n_dots":3.75,"target":"right","response":"left","rt":416.90000000596,"correct":false,"confidence":1},{"trial_n":82,"n_dots":3.85,"target":"left","response":"left","rt":151.59999999404,"correct":true,"confidence":5},{"trial_n":83,"n_dots":3.85,"target":"left","response":"left","rt":173.19999998808,"correct":true,"confidence":5},{"trial_n":84,"n_dots":3.75,"target":"left","response":"left","rt":179.60000002384,"correct":true,"confidence":4},{"trial_n":85,"n_dots":3.75,"target":"left","response":"right","rt":85.199999988079,"correct":false,"confidence":2},{"trial_n":86,"n_dots":3.85,"target":"right","response":"left","rt":496.90000000596,"correct":false,"confidence":1},{"trial_n":87,"n_dots":3.95,"target":"right","response":"right","rt":341.90000000596,"correct":true,"confidence":2},{"trial_n":88,"n_dots":3.95,"target":"right","response":"right","rt":107.39999997616,"correct":true,"confidence":3},{"trial_n":89,"n_dots":3.85,"target":"right","response":"left","rt":219.90000000596,"correct":false,"confidence":3},{"trial_n":90,"n_dots":3.95,"target":"left","response":"left","rt":39.300000011921,"correct":true,"confidence":2},{"trial_n":91,"n_dots":3.95,"target":"left","response":"left","rt":85.90000000596,"correct":true,"confidence":5},{"trial_n":92,"n_dots":3.85,"target":"right","response":"right","rt":235.80000001192,"correct":true,"confidence":2},{"trial_n":93,"n_dots":3.85,"target":"right","response":"left","rt":426.79999998212,"correct":false,"confidence":4},{"trial_n":94,"n_dots":3.95,"target":"right","response":"right","rt":15,"correct":true,"confidence":2},{"trial_n":95,"n_dots":3.95,"target":"left","response":"left","rt":276.90000000596,"correct":true,"confidence":3},{"trial_n":96,"n_dots":3.85,"target":"left","response":"left","rt":97.299999982119,"correct":true,"confidence":2},{"trial_n":97,"n_dots":3.85,"target":"left","response":"right","rt":550.5,"correct":false,"confidence":1},{"trial_n":98,"n_dots":3.95,"target":"left","response":"left","rt":154.89999997616,"correct":true,"confidence":4},{"trial_n":99,"n_dots":3.95,"target":"left","response":"left","rt":325.19999998808,"correct":true,"confidence":3},{"trial_n":100,"n_dots":3.85,"target":"right","response":"right","rt":270.09999999404,"correct":true,"confidence":2},{"trial_n":101,"n_dots":3.85,"target":"left","response":"left","rt":225,"correct":true,"confidence":4},{"trial_n":102,"n_dots":3.75,"target":"left","response":"left","rt":107.39999997616,"correct":true,"confidence":2},{"trial_n":103,"n_dots":3.75,"target":"right","response":"right","rt":170.5,"correct":true,"confidence":2},{"trial_n":104,"n_dots":3.65,"target":"left","response":"left","rt":506.70000001788,"correct":true,"confidence":4},{"trial_n":105,"n_dots":3.65,"target":"right","response":"right","rt":47.5,"correct":true,"confidence":3},{"trial_n":106,"n_dots":3.55,"target":"left","response":"left","rt":138.40000000596,"correct":true,"confidence":2},{"trial_n":107,"n_dots":3.55,"target":"right","response":"left","rt":348.30000001192,"correct":false,"confidence":2},{"trial_n":108,"n_dots":3.65,"target":"right","response":"left","rt":120.90000000596,"correct":false,"confidence":2},{"trial_n":109,"n_dots":3.75,"target":"left","response":"left","rt":181,"correct":true,"confidence":1},{"trial_n":110,"n_dots":3.75,"target":"right","response":"left","rt":99.90000000596,"correct":false,"confidence":1},{"trial_n":111,"n_dots":3.85,"target":"right","response":"left","rt":73.90000000596,"correct":false,"confidence":2},{"trial_n":112,"n_dots":3.95,"target":"left","response":"left","rt":320.70000001788,"correct":true,"confidence":4},{"trial_n":113,"n_dots":3.95,"target":"right","response":"left","rt":378.5,"correct":false,"confidence":1},{"trial_n":114,"n_dots":4.05,"target":"left","response":"left","rt":236.59999999404,"correct":true,"confidence":5},{"trial_n":115,"n_dots":4.05,"target":"left","response":"left","rt":264.80000001192,"correct":true,"confidence":5},{"trial_n":116,"n_dots":3.95,"target":"left","response":"left","rt":145.59999999404,"correct":true,"confidence":4},{"trial_n":117,"n_dots":3.95,"target":"left","response":"left","rt":73,"correct":true,"confidence":3},{"trial_n":118,"n_dots":3.85,"target":"left","response":"left","rt":120.29999998212,"correct":true,"confidence":2},{"trial_n":119,"n_dots":3.85,"target":"left","response":"left","rt":1990.5,"correct":true,"confidence":2},{"trial_n":120,"n_dots":3.75,"target":"left","response":"left","rt":140.80000001192,"correct":true,"confidence":3}]