[{"trial_n":1,"span":8,"encoder":"05642015","distractor":"05642515","target":"present","response":"absent","rt":"3840","correct":false,"confidence":-1},{"trial_n":2,"span":6,"encoder":"306837","distractor":"306836","target":"present","response":"present","rt":"5479.8000000119","correct":true,"confidence":-1},{"trial_n":3,"span":6,"encoder":"120632","distractor":"130632","target":"absent","response":"absent","rt":"4316.5","correct":true,"confidence":-1},{"trial_n":4,"span":8,"encoder":"71108936","distractor":"71108956","target":"absent","response":"absent","rt":"2426.3000000119","correct":true,"confidence":-1},{"trial_n":5,"span":8,"encoder":"89323701","distractor":"89323301","target":"present","response":"present","rt":"3211.6000000238","correct":true,"confidence":-1},{"trial_n":6,"span":10,"encoder":"1413960102","distractor":"1413960192","target":"present","response":"present","rt":"4766.3999999762","correct":true,"confidence":-1},{"trial_n":7,"span":10,"encoder":"0040810251","distractor":"0040810351","target":"absent","response":"present","rt":"1718","correct":false,"confidence":-1},{"trial_n":8,"span":8,"encoder":"50075051","distractor":"51075051","target":"absent","response":"present","rt":"2919.1999999881","correct":false,"confidence":-1},{"trial_n":9,"span":6,"encoder":"361561","distractor":"861561","target":"absent","response":"absent","rt":"1959.6000000238","correct":true,"confidence":-1},{"trial_n":10,"span":6,"encoder":"274296","distractor":"271296","target":"present","response":"present","rt":"2001.4000000358","correct":true,"confidence":-1},{"trial_n":11,"span":8,"encoder":"81988413","distractor":"81988416","target":"present","response":"present","rt":"2144.4000000358","correct":true,"confidence":-1},{"trial_n":12,"span":8,"encoder":"40138860","distractor":"60138860","target":"present","response":"present","rt":"845","correct":true,"confidence":-1},{"trial_n":13,"span":9,"encoder":"735401636","distractor":"735407636","target":"absent","response":"absent","rt":"732","correct":true,"confidence":-1},{"trial_n":14,"span":9,"encoder":"569849391","distractor":"569849311","target":"present","response":"present","rt":"1151.8000000119","correct":true,"confidence":-1},{"trial_n":15,"span":10,"encoder":"4249086822","distractor":"4649086822","target":"present","response":"present","rt":"2184.8000000119","correct":true,"confidence":-1},{"trial_n":16,"span":10,"encoder":"1570211552","distractor":"1570111552","target":"present","response":"present","rt":"1677","correct":true,"confidence":-1},{"trial_n":17,"span":11,"encoder":"79309719052","distractor":"79309819052","target":"absent","response":"present","rt":"1601","correct":false,"confidence":-1},{"trial_n":18,"span":10,"encoder":"8828542357","distractor":"8808542357","target":"absent","response":"present","rt":"2521","correct":false,"confidence":-1},{"trial_n":19,"span":9,"encoder":"673779232","distractor":"673779732","target":"absent","response":"present","rt":"1876.5","correct":false,"confidence":-1},{"trial_n":20,"span":8,"encoder":"38408306","distractor":"38408376","target":"absent","response":"absent","rt":"1433.3999999762","correct":true,"confidence":-1},{"trial_n":21,"span":8,"encoder":"05498980","distractor":"05498950","target":"present","response":"present","rt":"2639.6999999881","correct":true,"confidence":4},{"trial_n":22,"span":9,"encoder":"843953319","distractor":"843953316","target":"absent","response":"absent","rt":"6933.5999999642","correct":true,"confidence":4},{"trial_n":23,"span":9,"encoder":"723426328","distractor":"723426528","target":"present","response":"present","rt":"5769.6000000238","correct":true,"confidence":5},{"trial_n":24,"span":10,"encoder":"1289474346","distractor":"1289494346","target":"present","response":"present","rt":"3675.9000000358","correct":true,"confidence":3},{"trial_n":25,"span":10,"encoder":"6882358855","distractor":"6872358855","target":"absent","response":"absent","rt":"4053.8000000119","correct":true,"confidence":2},{"trial_n":26,"span":11,"encoder":"47636085401","distractor":"47836085401","target":"absent","response":"present","rt":"4089.3999999762","correct":false,"confidence":4},{"trial_n":27,"span":10,"encoder":"6603403261","distractor":"6603203261","target":"present","response":"present","rt":"1749.3000000119","correct":true,"confidence":3},{"trial_n":28,"span":10,"encoder":"2012092287","distractor":"2018092287","target":"present","response":"present","rt":"1989.6999999881","correct":true,"confidence":3},{"trial_n":29,"span":11,"encoder":"74784206115","distractor":"74784206215","target":"absent","response":"absent","rt":"4583.2000000477","correct":true,"confidence":4},{"trial_n":30,"span":11,"encoder":"53627987813","distractor":"53621987813","target":"present","response":"absent","rt":"2648.3000000119","correct":false,"confidence":5},{"trial_n":31,"span":10,"encoder":"8661072169","distractor":"8661073169","target":"present","response":"present","rt":"2463.1999999881","correct":true,"confidence":3},{"trial_n":32,"span":10,"encoder":"3435264810","distractor":"2435264810","target":"absent","response":"absent","rt":"4609.7999999523","correct":true,"confidence":3},{"trial_n":33,"span":11,"encoder":"44661833647","distractor":"48661833647","target":"present","response":"absent","rt":"64376.800000012","correct":false,"confidence":1},{"trial_n":34,"span":10,"encoder":"8958304025","distractor":"8958314025","target":"absent","response":"present","rt":"2567.9000000358","correct":false,"confidence":3},{"trial_n":35,"span":9,"encoder":"888557384","distractor":"848557384","target":"present","response":"present","rt":"1697.5","correct":true,"confidence":4},{"trial_n":36,"span":9,"encoder":"531273932","distractor":"531273937","target":"present","response":"present","rt":"2806","correct":true,"confidence":5},{"trial_n":37,"span":10,"encoder":"8451338589","distractor":"8451338585","target":"present","response":"present","rt":"3748.9000000358","correct":true,"confidence":4},{"trial_n":38,"span":10,"encoder":"2179622630","distractor":"2179222630","target":"absent","response":"absent","rt":"1704.6999999881","correct":true,"confidence":1},{"trial_n":39,"span":11,"encoder":"19106483580","distractor":"19106483550","target":"absent","response":"absent","rt":"3771.3000000119","correct":true,"confidence":3},{"trial_n":40,"span":11,"encoder":"81421042461","distractor":"81421042471","target":"absent","response":"absent","rt":"1964.6999999881","correct":true,"confidence":2},{"trial_n":41,"span":12,"encoder":"458900709568","distractor":"453900709568","target":"present","response":"absent","rt":"6268","correct":false,"confidence":2},{"trial_n":42,"span":11,"encoder":"51358732470","distractor":"56358732470","target":"absent","response":"absent","rt":"2516.2000000477","correct":true,"confidence":4},{"trial_n":43,"span":11,"encoder":"42899725039","distractor":"42899525039","target":"absent","response":"present","rt":"2596.5999999642","correct":false,"confidence":2},{"trial_n":44,"span":10,"encoder":"7829801246","distractor":"7829101246","target":"absent","response":"absent","rt":"3311.6999999881","correct":true,"confidence":4},{"trial_n":45,"span":10,"encoder":"0013405828","distractor":"0013405820","target":"absent","response":"present","rt":"2847.3000000119","correct":false,"confidence":4},{"trial_n":46,"span":9,"encoder":"595537198","distractor":"595737198","target":"absent","response":"absent","rt":"2344.1999999881","correct":true,"confidence":5},{"trial_n":47,"span":9,"encoder":"326194887","distractor":"326194882","target":"present","response":"present","rt":"2589.9000000358","correct":true,"confidence":5},{"trial_n":48,"span":10,"encoder":"3973507146","distractor":"3973507156","target":"present","response":"present","rt":"3073.9000000358","correct":true,"confidence":3},{"trial_n":49,"span":10,"encoder":"2913073353","distractor":"2913073953","target":"absent","response":"present","rt":"3019","correct":false,"confidence":2},{"trial_n":50,"span":9,"encoder":"652089443","distractor":"052089443","target":"absent","response":"absent","rt":"1547.8999999762","correct":true,"confidence":5},{"trial_n":51,"span":9,"encoder":"290415355","distractor":"290455355","target":"absent","response":"absent","rt":"31808.300000012","correct":true,"confidence":4},{"trial_n":52,"span":10,"encoder":"5415149344","distractor":"5415141344","target":"present","response":"absent","rt":"19719.100000024","correct":false,"confidence":1},{"trial_n":53,"span":9,"encoder":"648215804","distractor":"648515804","target":"absent","response":"absent","rt":"2365.3000000119","correct":true,"confidence":4},{"trial_n":54,"span":9,"encoder":"080544625","distractor":"280544625","target":"absent","response":"absent","rt":"3758.7000000477","correct":true,"confidence":5},{"trial_n":55,"span":10,"encoder":"4809891355","distractor":"4809891455","target":"present","response":"present","rt":"3568.3999999762","correct":true,"confidence":4},{"trial_n":56,"span":10,"encoder":"5878260224","distractor":"5578260224","target":"present","response":"present","rt":"3069.1000000238","correct":true,"confidence":4},{"trial_n":57,"span":11,"encoder":"34989826446","distractor":"44989826446","target":"present","response":"present","rt":"4969.7000000477","correct":true,"confidence":2},{"trial_n":58,"span":11,"encoder":"53660175587","distractor":"53660175387","target":"absent","response":"absent","rt":"52129.800000012","correct":true,"confidence":1},{"trial_n":59,"span":12,"encoder":"261522026710","distractor":"261502026710","target":"absent","response":"present","rt":"1388.7000000477","correct":false,"confidence":1},{"trial_n":60,"span":11,"encoder":"69441687242","distractor":"69441087242","target":"present","response":"absent","rt":"1187.3000000119","correct":false,"confidence":2},{"trial_n":61,"span":10,"encoder":"7105656718","distractor":"7105646718","target":"present","response":"present","rt":"1768","correct":true,"confidence":3},{"trial_n":62,"span":10,"encoder":"9812393652","distractor":"9882393652","target":"present","response":"present","rt":"1878.5","correct":true,"confidence":3},{"trial_n":63,"span":11,"encoder":"88622892660","distractor":"88622892460","target":"present","response":"present","rt":"1536.1999999881","correct":true,"confidence":4},{"trial_n":64,"span":11,"encoder":"41543314749","distractor":"41943314749","target":"present","response":"present","rt":"2944.5","correct":true,"confidence":5},{"trial_n":65,"span":12,"encoder":"343456648024","distractor":"343456948024","target":"present","response":"present","rt":"103904.60000002","correct":true,"confidence":3},{"trial_n":66,"span":12,"encoder":"454859136445","distractor":"494859136445","target":"absent","response":"absent","rt":"2924.4000000358","correct":true,"confidence":5},{"trial_n":67,"span":13,"encoder":"1057258808278","distractor":"1057258808208","target":"present","response":"present","rt":"1580","correct":true,"confidence":3},{"trial_n":68,"span":13,"encoder":"6061850212450","distractor":"0061850212450","target":"absent","response":"absent","rt":"2488.6999999881","correct":true,"confidence":3},{"trial_n":69,"span":14,"encoder":"56786044490444","distractor":"56796044490444","target":"present","response":"absent","rt":"12948.5","correct":false,"confidence":1},{"trial_n":70,"span":13,"encoder":"6876962814832","distractor":"6878962814832","target":"absent","response":"present","rt":"1152.9000000358","correct":false,"confidence":3},{"trial_n":71,"span":8,"encoder":"74919591","distractor":"74959591","target":"present","response":"present","rt":"1635.4000000358","correct":true,"confidence":-1},{"trial_n":72,"span":8,"encoder":"56170551","distractor":"56170554","target":"present","response":"present","rt":"1242.6000000238","correct":true,"confidence":-1},{"trial_n":73,"span":9,"encoder":"397349397","distractor":"397349396","target":"absent","response":"present","rt":"2144.9000000358","correct":false,"confidence":-1},{"trial_n":74,"span":8,"encoder":"41675218","distractor":"41675418","target":"absent","response":"absent","rt":"2469.8999999762","correct":true,"confidence":-1},{"trial_n":75,"span":8,"encoder":"71911169","distractor":"71911162","target":"present","response":"absent","rt":"484.30000001192","correct":false,"confidence":-1},{"trial_n":76,"span":7,"encoder":"8358960","distractor":"8358360","target":"absent","response":"absent","rt":"416","correct":true,"confidence":-1},{"trial_n":77,"span":7,"encoder":"2219242","distractor":"2218242","target":"present","response":"absent","rt":"660.10000002384","correct":false,"confidence":-1},{"trial_n":78,"span":6,"encoder":"543946","distractor":"523946","target":"present","response":"present","rt":"396.89999997616","correct":true,"confidence":-1},{"trial_n":79,"span":6,"encoder":"950994","distractor":"950914","target":"present","response":"present","rt":"741.89999997616","correct":true,"confidence":-1},{"trial_n":80,"span":7,"encoder":"6166422","distractor":"6166482","target":"present","response":"present","rt":"428.89999997616","correct":true,"confidence":-1},{"trial_n":81,"span":7,"encoder":"8157513","distractor":"8157518","target":"absent","response":"present","rt":"638.59999996424","correct":false,"confidence":-1},{"trial_n":82,"span":6,"encoder":"264049","distractor":"264349","target":"present","response":"present","rt":"117.09999996424","correct":true,"confidence":-1},{"trial_n":83,"span":6,"encoder":"472303","distractor":"476303","target":"absent","response":"present","rt":"13","correct":false,"confidence":-1},{"trial_n":84,"span":5,"encoder":"48067","distractor":"48027","target":"present","response":"present","rt":"4.8000000119209","correct":true,"confidence":-1},{"trial_n":85,"span":5,"encoder":"84833","distractor":"84633","target":"present","response":"present","rt":"152.30000001192","correct":true,"confidence":-1},{"trial_n":86,"span":6,"encoder":"731512","distractor":"731012","target":"present","response":"present","rt":"366.5","correct":true,"confidence":-1},{"trial_n":87,"span":6,"encoder":"725168","distractor":"705168","target":"present","response":"present","rt":"54.699999988079","correct":true,"confidence":-1},{"trial_n":88,"span":7,"encoder":"6484517","distractor":"6484717","target":"present","response":"present","rt":"117.5","correct":true,"confidence":-1},{"trial_n":89,"span":7,"encoder":"5801242","distractor":"6801242","target":"absent","response":"present","rt":"334.10000002384","correct":false,"confidence":-1},{"trial_n":90,"span":6,"encoder":"908962","distractor":"908972","target":"present","response":"present","rt":"55","correct":true,"confidence":-1},{"trial_n":91,"span":6,"encoder":"133253","distractor":"153253","target":"absent","response":"absent","rt":"738.20000004768","correct":true,"confidence":1},{"trial_n":92,"span":7,"encoder":"1262943","distractor":"1062943","target":"present","response":"present","rt":"2040.5","correct":true,"confidence":5},{"trial_n":93,"span":7,"encoder":"6899327","distractor":"6879327","target":"absent","response":"absent","rt":"1961.5","correct":true,"confidence":5},{"trial_n":94,"span":8,"encoder":"30567764","distractor":"30567765","target":"absent","response":"present","rt":"2403.1999999881","correct":false,"confidence":3},{"trial_n":95,"span":7,"encoder":"7459399","distractor":"7479399","target":"present","response":"present","rt":"1162.6000000238","correct":true,"confidence":3},{"trial_n":96,"span":7,"encoder":"9121626","distractor":"0121626","target":"absent","response":"present","rt":"1075.5","correct":false,"confidence":1},{"trial_n":97,"span":6,"encoder":"690339","distractor":"690336","target":"absent","response":"absent","rt":"2270.4000000358","correct":true,"confidence":5},{"trial_n":98,"span":6,"encoder":"532306","distractor":"532386","target":"present","response":"absent","rt":"2830.8000000119","correct":false,"confidence":3},{"trial_n":99,"span":5,"encoder":"41631","distractor":"48631","target":"absent","response":"absent","rt":"1949.8000000119","correct":true,"confidence":4},{"trial_n":100,"span":5,"encoder":"67674","distractor":"63674","target":"absent","response":"absent","rt":"1652.8000000119","correct":true,"confidence":5},{"trial_n":101,"span":6,"encoder":"777633","distractor":"776633","target":"absent","response":"absent","rt":"1516.2000000477","correct":true,"confidence":5},{"trial_n":102,"span":6,"encoder":"698120","distractor":"398120","target":"absent","response":"absent","rt":"1790","correct":true,"confidence":5},{"trial_n":103,"span":7,"encoder":"5260305","distractor":"5250305","target":"present","response":"present","rt":"2381.8000000119","correct":true,"confidence":5},{"trial_n":104,"span":7,"encoder":"7910798","distractor":"7910794","target":"present","response":"present","rt":"2901.0999999642","correct":true,"confidence":5},{"trial_n":105,"span":8,"encoder":"44579924","distractor":"44579824","target":"absent","response":"absent","rt":"2633.7000000477","correct":true,"confidence":5},{"trial_n":106,"span":8,"encoder":"65203350","distractor":"60203350","target":"absent","response":"absent","rt":"1471.9000000358","correct":true,"confidence":5},{"trial_n":107,"span":9,"encoder":"344196542","distractor":"344196541","target":"absent","response":"present","rt":"6687.5","correct":false,"confidence":2},{"trial_n":108,"span":8,"encoder":"94980293","distractor":"94970293","target":"absent","response":"present","rt":"5166.5999999642","correct":false,"confidence":3},{"trial_n":109,"span":7,"encoder":"0211567","distractor":"1211567","target":"absent","response":"absent","rt":"684411.09999996","correct":true,"confidence":2},{"trial_n":110,"span":7,"encoder":"9209762","distractor":"9219762","target":"present","response":"present","rt":"1240.7999999523","correct":true,"confidence":1},{"trial_n":111,"span":8,"encoder":"73585980","distractor":"75585980","target":"absent","response":"absent","rt":"957.5","correct":true,"confidence":4},{"trial_n":112,"span":8,"encoder":"96480510","distractor":"96480520","target":"present","response":"present","rt":"671","correct":true,"confidence":2},{"trial_n":113,"span":9,"encoder":"803402846","distractor":"813402846","target":"absent","response":"absent","rt":"1145.1000000238","correct":true,"confidence":5},{"trial_n":114,"span":9,"encoder":"683133837","distractor":"683133437","target":"present","response":"present","rt":"2873.3000000119","correct":true,"confidence":3},{"trial_n":115,"span":10,"encoder":"4346341858","distractor":"4346341058","target":"absent","response":"present","rt":"2327","correct":false,"confidence":4},{"trial_n":116,"span":9,"encoder":"346195054","distractor":"348195054","target":"present","response":"present","rt":"1584","correct":true,"confidence":5},{"trial_n":117,"span":9,"encoder":"857676031","distractor":"857686031","target":"present","response":"present","rt":"3173.8000000119","correct":true,"confidence":1},{"trial_n":118,"span":10,"encoder":"6986521386","distractor":"6386521386","target":"present","response":"present","rt":"2085.9000000358","correct":true,"confidence":5},{"trial_n":119,"span":10,"encoder":"0389340349","distractor":"0387340349","target":"absent","response":"absent","rt":"1949.3999999762","correct":true,"confidence":5},{"trial_n":120,"span":11,"encoder":"21998330739","distractor":"21998330709","target":"absent","response":"present","rt":"2413.5999999642","correct":false,"confidence":4},{"trial_n":121,"span":10,"encoder":"6957667319","distractor":"6987667319","target":"present","response":"present","rt":"2564.5","correct":true,"confidence":5},{"trial_n":122,"span":10,"encoder":"7871164402","distractor":"7671164402","target":"present","response":"present","rt":"2691.8999999762","correct":true,"confidence":5},{"trial_n":123,"span":11,"encoder":"56194640072","distractor":"56194640073","target":"absent","response":"present","rt":"2781.8000000119","correct":false,"confidence":1},{"trial_n":124,"span":10,"encoder":"3870014119","distractor":"3870014159","target":"absent","response":"present","rt":"3653.3000000119","correct":false,"confidence":1},{"trial_n":125,"span":9,"encoder":"355633512","distractor":"305633512","target":"present","response":"present","rt":"2986.3000000119","correct":true,"confidence":5},{"trial_n":126,"span":9,"encoder":"256032707","distractor":"256032747","target":"absent","response":"absent","rt":"1570.8999999762","correct":true,"confidence":4},{"trial_n":127,"span":10,"encoder":"4240597420","distractor":"2240597420","target":"present","response":"present","rt":"566.40000003576","correct":true,"confidence":2},{"trial_n":128,"span":10,"encoder":"1576762859","distractor":"1586762859","target":"present","response":"present","rt":"1072.9000000358","correct":true,"confidence":3},{"trial_n":129,"span":11,"encoder":"85189468633","distractor":"85189448633","target":"present","response":"absent","rt":"676.10000002384","correct":false,"confidence":3},{"trial_n":130,"span":10,"encoder":"1147758716","distractor":"1147758746","target":"absent","response":"present","rt":"1010.9000000358","correct":false,"confidence":3},{"trial_n":131,"span":9,"encoder":"750946060","distractor":"750946050","target":"present","response":"present","rt":"1762","correct":true,"confidence":5},{"trial_n":132,"span":9,"encoder":"186987302","distractor":"186987306","target":"absent","response":"present","rt":"3134.5","correct":false,"confidence":1},{"trial_n":133,"span":8,"encoder":"79401253","distractor":"79401753","target":"present","response":"present","rt":"3283.1999999881","correct":true,"confidence":4},{"trial_n":134,"span":8,"encoder":"58420782","distractor":"58420792","target":"present","response":"present","rt":"2867.8000000119","correct":true,"confidence":3},{"trial_n":135,"span":9,"encoder":"113470636","distractor":"103470636","target":"absent","response":"absent","rt":"1162.8000000119","correct":true,"confidence":5},{"trial_n":136,"span":9,"encoder":"244828130","distractor":"244828170","target":"absent","response":"present","rt":"2513.3000000119","correct":false,"confidence":3},{"trial_n":137,"span":8,"encoder":"74170669","distractor":"74174669","target":"present","response":"present","rt":"48470.199999988","correct":true,"confidence":1},{"trial_n":138,"span":8,"encoder":"82409104","distractor":"82409109","target":"absent","response":"absent","rt":"2455.1000000238","correct":true,"confidence":3},{"trial_n":139,"span":9,"encoder":"505444537","distractor":"595444537","target":"present","response":"present","rt":"3320.7000000477","correct":true,"confidence":2},{"trial_n":140,"span":9,"encoder":"048550165","distractor":"048550163","target":"absent","response":"present","rt":"14514.899999976","correct":false,"confidence":1}]