[{"trial_n":1,"min":25,"max":230,"target":"present","response":"present","rt":3734.5,"correct":true,"confidence":-1},{"trial_n":2,"min":25,"max":230,"target":"present","response":"present","rt":614.70000004768,"correct":true,"confidence":-1},{"trial_n":3,"min":41,"max":214,"target":"absent","response":"absent","rt":529.10000014305,"correct":true,"confidence":-1},{"trial_n":4,"min":41,"max":214,"target":"absent","response":"absent","rt":346.20000004768,"correct":true,"confidence":-1},{"trial_n":5,"min":57,"max":198,"target":"present","response":"present","rt":467.40000009537,"correct":true,"confidence":-1},{"trial_n":6,"min":57,"max":198,"target":"absent","response":"absent","rt":339.29999995232,"correct":true,"confidence":-1},{"trial_n":7,"min":73,"max":182,"target":"absent","response":"absent","rt":341.60000014305,"correct":true,"confidence":-1},{"trial_n":8,"min":73,"max":182,"target":"present","response":"present","rt":636.80000019073,"correct":true,"confidence":-1},{"trial_n":9,"min":89,"max":166,"target":"absent","response":"absent","rt":361.70000004768,"correct":true,"confidence":-1},{"trial_n":10,"min":89,"max":166,"target":"absent","response":"absent","rt":372.19999980927,"correct":true,"confidence":-1},{"trial_n":11,"min":97,"max":158,"target":"present","response":"absent","rt":278.90000009537,"correct":false,"confidence":-1},{"trial_n":12,"min":89,"max":166,"target":"present","response":"present","rt":485.10000014305,"correct":true,"confidence":-1},{"trial_n":13,"min":89,"max":166,"target":"absent","response":"absent","rt":537.69999980927,"correct":true,"confidence":-1},{"trial_n":14,"min":97,"max":158,"target":"absent","response":"absent","rt":427.5,"correct":true,"confidence":-1},{"trial_n":15,"min":97,"max":158,"target":"absent","response":"present","rt":636.59999990463,"correct":false,"confidence":-1},{"trial_n":16,"min":89,"max":166,"target":"absent","response":"absent","rt":483,"correct":true,"confidence":-1},{"trial_n":17,"min":89,"max":166,"target":"absent","response":"absent","rt":370.79999995232,"correct":true,"confidence":-1},{"trial_n":18,"min":97,"max":158,"target":"present","response":"absent","rt":327,"correct":false,"confidence":-1},{"trial_n":19,"min":89,"max":166,"target":"present","response":"present","rt":592.59999990463,"correct":true,"confidence":-1},{"trial_n":20,"min":89,"max":166,"target":"absent","response":"absent","rt":473.29999995232,"correct":true,"confidence":-1},{"trial_n":21,"min":93,"max":162,"target":"absent","response":"present","rt":477.09999990463,"correct":false,"confidence":1},{"trial_n":22,"min":89,"max":166,"target":"present","response":"present","rt":1665.8999998569,"correct":true,"confidence":1},{"trial_n":23,"min":89,"max":166,"target":"present","response":"present","rt":741.09999990463,"correct":true,"confidence":3},{"trial_n":24,"min":93,"max":162,"target":"absent","response":"absent","rt":554.5,"correct":true,"confidence":2},{"trial_n":25,"min":93,"max":162,"target":"absent","response":"absent","rt":4179.2000000477,"correct":true,"confidence":1},{"trial_n":26,"min":97,"max":158,"target":"absent","response":"present","rt":611.89999985695,"correct":false,"confidence":1},{"trial_n":27,"min":93,"max":162,"target":"present","response":"present","rt":708.29999995232,"correct":true,"confidence":1},{"trial_n":28,"min":93,"max":162,"target":"absent","response":"absent","rt":818.89999985695,"correct":true,"confidence":4},{"trial_n":29,"min":97,"max":158,"target":"present","response":"present","rt":606.59999990463,"correct":true,"confidence":4},{"trial_n":30,"min":97,"max":158,"target":"present","response":"absent","rt":427.79999995232,"correct":false,"confidence":1},{"trial_n":31,"min":95,"max":160,"target":"present","response":"present","rt":905.19999980927,"correct":true,"confidence":3},{"trial_n":32,"min":95,"max":160,"target":"present","response":"absent","rt":645.09999990463,"correct":false,"confidence":3},{"trial_n":33,"min":93,"max":162,"target":"present","response":"absent","rt":513.20000004768,"correct":false,"confidence":3},{"trial_n":34,"min":91,"max":164,"target":"present","response":"present","rt":741,"correct":true,"confidence":4},{"trial_n":35,"min":91,"max":164,"target":"absent","response":"absent","rt":1016.7999999523,"correct":true,"confidence":2},{"trial_n":36,"min":93,"max":162,"target":"present","response":"absent","rt":604.40000009537,"correct":false,"confidence":5},{"trial_n":37,"min":91,"max":164,"target":"absent","response":"absent","rt":1102.2000000477,"correct":true,"confidence":5},{"trial_n":38,"min":91,"max":164,"target":"absent","response":"present","rt":778.60000014305,"correct":false,"confidence":4},{"trial_n":39,"min":89,"max":166,"target":"absent","response":"absent","rt":600.5,"correct":true,"confidence":5},{"trial_n":40,"min":89,"max":166,"target":"present","response":"absent","rt":1659.8999998569,"correct":false,"confidence":1},{"trial_n":41,"min":88,"max":167,"target":"present","response":"absent","rt":1912.3999998569,"correct":false,"confidence":2},{"trial_n":42,"min":87,"max":168,"target":"present","response":"present","rt":878.70000004768,"correct":true,"confidence":1},{"trial_n":43,"min":87,"max":168,"target":"absent","response":"absent","rt":445.20000004768,"correct":true,"confidence":5},{"trial_n":44,"min":88,"max":167,"target":"absent","response":"absent","rt":463.39999985695,"correct":true,"confidence":4},{"trial_n":45,"min":88,"max":167,"target":"absent","response":"absent","rt":514.80000019073,"correct":true,"confidence":4},{"trial_n":46,"min":89,"max":166,"target":"present","response":"present","rt":608,"correct":true,"confidence":4},{"trial_n":47,"min":89,"max":166,"target":"present","response":"absent","rt":450.69999980927,"correct":false,"confidence":3},{"trial_n":48,"min":88,"max":167,"target":"absent","response":"absent","rt":660.90000009537,"correct":true,"confidence":1},{"trial_n":49,"min":88,"max":167,"target":"absent","response":"present","rt":876.09999990463,"correct":false,"confidence":4},{"trial_n":50,"min":87,"max":168,"target":"present","response":"absent","rt":385.89999985695,"correct":false,"confidence":4},{"trial_n":51,"min":86,"max":169,"target":"present","response":"present","rt":1071.0999999046,"correct":true,"confidence":4},{"trial_n":52,"min":86,"max":169,"target":"present","response":"absent","rt":590,"correct":false,"confidence":4},{"trial_n":53,"min":85,"max":170,"target":"present","response":"absent","rt":399.79999995232,"correct":false,"confidence":3},{"trial_n":54,"min":84,"max":171,"target":"absent","response":"absent","rt":587.09999990463,"correct":true,"confidence":4},{"trial_n":55,"min":84,"max":171,"target":"present","response":"present","rt":649,"correct":true,"confidence":5},{"trial_n":56,"min":85,"max":170,"target":"absent","response":"absent","rt":769.30000019073,"correct":true,"confidence":5},{"trial_n":57,"min":85,"max":170,"target":"absent","response":"absent","rt":1001.5,"correct":true,"confidence":4},{"trial_n":58,"min":86,"max":169,"target":"absent","response":"absent","rt":463.40000009537,"correct":true,"confidence":4},{"trial_n":59,"min":86,"max":169,"target":"present","response":"present","rt":607.29999995232,"correct":true,"confidence":3},{"trial_n":60,"min":87,"max":168,"target":"absent","response":"present","rt":979.90000009537,"correct":false,"confidence":3},{"trial_n":61,"min":86,"max":169,"target":"absent","response":"present","rt":1293,"correct":false,"confidence":1},{"trial_n":62,"min":85,"max":170,"target":"present","response":"present","rt":539.90000009537,"correct":true,"confidence":1},{"trial_n":63,"min":85,"max":170,"target":"present","response":"absent","rt":537.39999985695,"correct":false,"confidence":3},{"trial_n":64,"min":84,"max":171,"target":"present","response":"absent","rt":4335.5999999046,"correct":false,"confidence":1},{"trial_n":65,"min":83,"max":172,"target":"present","response":"present","rt":408.19999980927,"correct":true,"confidence":5},{"trial_n":66,"min":83,"max":172,"target":"absent","response":"present","rt":736.39999985695,"correct":false,"confidence":4},{"trial_n":67,"min":82,"max":173,"target":"present","response":"absent","rt":632.29999995232,"correct":false,"confidence":3},{"trial_n":68,"min":81,"max":174,"target":"present","response":"present","rt":673.5,"correct":true,"confidence":4},{"trial_n":69,"min":81,"max":174,"target":"present","response":"present","rt":414.59999990463,"correct":true,"confidence":5},{"trial_n":70,"min":82,"max":173,"target":"absent","response":"absent","rt":517.29999995232,"correct":true,"confidence":4},{"trial_n":71,"min":41,"max":214,"target":"present","response":"present","rt":3539,"correct":true,"confidence":-1},{"trial_n":72,"min":41,"max":214,"target":"present","response":"present","rt":844.29999995232,"correct":true,"confidence":-1},{"trial_n":73,"min":57,"max":198,"target":"absent","response":"absent","rt":422.29999995232,"correct":true,"confidence":-1},{"trial_n":74,"min":57,"max":198,"target":"absent","response":"absent","rt":494.10000014305,"correct":true,"confidence":-1},{"trial_n":75,"min":73,"max":182,"target":"present","response":"present","rt":455.59999990463,"correct":true,"confidence":-1},{"trial_n":76,"min":73,"max":182,"target":"absent","response":"absent","rt":2220.0999999046,"correct":true,"confidence":-1},{"trial_n":77,"min":89,"max":166,"target":"present","response":"present","rt":340,"correct":true,"confidence":-1},{"trial_n":78,"min":89,"max":166,"target":"absent","response":"absent","rt":383.40000009537,"correct":true,"confidence":-1},{"trial_n":79,"min":105,"max":150,"target":"absent","response":"absent","rt":574.69999980927,"correct":true,"confidence":-1},{"trial_n":80,"min":105,"max":150,"target":"present","response":"present","rt":367.60000014305,"correct":true,"confidence":-1},{"trial_n":81,"min":113,"max":142,"target":"absent","response":"absent","rt":463.40000009537,"correct":true,"confidence":-1},{"trial_n":82,"min":113,"max":142,"target":"absent","response":"present","rt":574.19999980927,"correct":false,"confidence":-1},{"trial_n":83,"min":105,"max":150,"target":"present","response":"present","rt":685,"correct":true,"confidence":-1},{"trial_n":84,"min":105,"max":150,"target":"absent","response":"absent","rt":508.90000009537,"correct":true,"confidence":-1},{"trial_n":85,"min":113,"max":142,"target":"absent","response":"absent","rt":543.20000004768,"correct":true,"confidence":-1},{"trial_n":86,"min":113,"max":142,"target":"present","response":"absent","rt":723.59999990463,"correct":false,"confidence":-1},{"trial_n":87,"min":105,"max":150,"target":"present","response":"present","rt":793.5,"correct":true,"confidence":-1},{"trial_n":88,"min":105,"max":150,"target":"absent","response":"present","rt":531.89999985695,"correct":false,"confidence":-1},{"trial_n":89,"min":97,"max":158,"target":"present","response":"present","rt":408.79999995232,"correct":true,"confidence":-1},{"trial_n":90,"min":97,"max":158,"target":"present","response":"absent","rt":698.20000004768,"correct":false,"confidence":-1},{"trial_n":91,"min":93,"max":162,"target":"absent","response":"present","rt":353.09999990463,"correct":false,"confidence":3},{"trial_n":92,"min":89,"max":166,"target":"absent","response":"present","rt":585.39999985695,"correct":false,"confidence":1},{"trial_n":93,"min":85,"max":170,"target":"absent","response":"absent","rt":524.89999985695,"correct":true,"confidence":2},{"trial_n":94,"min":85,"max":170,"target":"absent","response":"absent","rt":564,"correct":true,"confidence":4},{"trial_n":95,"min":89,"max":166,"target":"absent","response":"present","rt":1017.5,"correct":false,"confidence":1},{"trial_n":96,"min":85,"max":170,"target":"present","response":"present","rt":1317,"correct":true,"confidence":3},{"trial_n":97,"min":85,"max":170,"target":"present","response":"present","rt":435.29999995232,"correct":true,"confidence":4},{"trial_n":98,"min":89,"max":166,"target":"present","response":"present","rt":589.09999990463,"correct":true,"confidence":4},{"trial_n":99,"min":89,"max":166,"target":"present","response":"present","rt":2070.2000000477,"correct":true,"confidence":4},{"trial_n":100,"min":93,"max":162,"target":"present","response":"present","rt":307.20000004768,"correct":true,"confidence":5},{"trial_n":101,"min":93,"max":162,"target":"present","response":"present","rt":507.89999985695,"correct":true,"confidence":5},{"trial_n":102,"min":95,"max":160,"target":"absent","response":"absent","rt":1361.4000000954,"correct":true,"confidence":2},{"trial_n":103,"min":95,"max":160,"target":"absent","response":"present","rt":742.40000009537,"correct":false,"confidence":2},{"trial_n":104,"min":93,"max":162,"target":"absent","response":"absent","rt":869.5,"correct":true,"confidence":3},{"trial_n":105,"min":93,"max":162,"target":"absent","response":"absent","rt":755.79999995232,"correct":true,"confidence":4},{"trial_n":106,"min":95,"max":160,"target":"present","response":"absent","rt":563.40000009537,"correct":false,"confidence":3},{"trial_n":107,"min":93,"max":162,"target":"absent","response":"absent","rt":861.89999985695,"correct":true,"confidence":3},{"trial_n":108,"min":93,"max":162,"target":"absent","response":"absent","rt":785,"correct":true,"confidence":3},{"trial_n":109,"min":95,"max":160,"target":"present","response":"present","rt":417.70000004768,"correct":true,"confidence":3},{"trial_n":110,"min":95,"max":160,"target":"absent","response":"present","rt":941,"correct":false,"confidence":3},{"trial_n":111,"min":94,"max":161,"target":"present","response":"absent","rt":599,"correct":false,"confidence":4},{"trial_n":112,"min":93,"max":162,"target":"present","response":"present","rt":665,"correct":true,"confidence":3},{"trial_n":113,"min":93,"max":162,"target":"present","response":"present","rt":907.29999995232,"correct":true,"confidence":3},{"trial_n":114,"min":94,"max":161,"target":"present","response":"present","rt":1341,"correct":true,"confidence":1},{"trial_n":115,"min":94,"max":161,"target":"absent","response":"present","rt":487.39999985695,"correct":false,"confidence":2},{"trial_n":116,"min":93,"max":162,"target":"present","response":"present","rt":795.40000009537,"correct":true,"confidence":2},{"trial_n":117,"min":93,"max":162,"target":"present","response":"present","rt":537.39999985695,"correct":true,"confidence":2},{"trial_n":118,"min":94,"max":161,"target":"absent","response":"present","rt":843.20000004768,"correct":false,"confidence":2},{"trial_n":119,"min":93,"max":162,"target":"absent","response":"absent","rt":732.20000004768,"correct":true,"confidence":3},{"trial_n":120,"min":93,"max":162,"target":"present","response":"present","rt":605,"correct":true,"confidence":3},{"trial_n":121,"min":94,"max":161,"target":"absent","response":"present","rt":644.70000004768,"correct":false,"confidence":4},{"trial_n":122,"min":93,"max":162,"target":"present","response":"present","rt":475.09999990463,"correct":true,"confidence":4},{"trial_n":123,"min":93,"max":162,"target":"present","response":"present","rt":548.20000004768,"correct":true,"confidence":4},{"trial_n":124,"min":94,"max":161,"target":"present","response":"present","rt":754.29999995232,"correct":true,"confidence":3},{"trial_n":125,"min":94,"max":161,"target":"present","response":"present","rt":1624.5999999046,"correct":true,"confidence":5},{"trial_n":126,"min":95,"max":160,"target":"absent","response":"present","rt":590.20000004768,"correct":false,"confidence":3},{"trial_n":127,"min":94,"max":161,"target":"absent","response":"absent","rt":1108.1000001431,"correct":true,"confidence":2},{"trial_n":128,"min":94,"max":161,"target":"absent","response":"present","rt":490.5,"correct":false,"confidence":3},{"trial_n":129,"min":93,"max":162,"target":"absent","response":"present","rt":295.59999990463,"correct":false,"confidence":4},{"trial_n":130,"min":92,"max":163,"target":"present","response":"present","rt":353.5,"correct":true,"confidence":5},{"trial_n":131,"min":92,"max":163,"target":"present","response":"present","rt":440.39999985695,"correct":true,"confidence":5},{"trial_n":132,"min":93,"max":162,"target":"present","response":"present","rt":961.59999990463,"correct":true,"confidence":4},{"trial_n":133,"min":93,"max":162,"target":"absent","response":"present","rt":615.90000009537,"correct":false,"confidence":3},{"trial_n":134,"min":92,"max":163,"target":"absent","response":"absent","rt":1727.7000000477,"correct":true,"confidence":1},{"trial_n":135,"min":92,"max":163,"target":"absent","response":"present","rt":637.80000019073,"correct":false,"confidence":3},{"trial_n":136,"min":91,"max":164,"target":"present","response":"present","rt":638.09999990463,"correct":true,"confidence":2},{"trial_n":137,"min":91,"max":164,"target":"present","response":"present","rt":903.20000004768,"correct":true,"confidence":1},{"trial_n":138,"min":92,"max":163,"target":"absent","response":"present","rt":544.60000014305,"correct":false,"confidence":1},{"trial_n":139,"min":91,"max":164,"target":"present","response":"present","rt":1050.6000001431,"correct":true,"confidence":2},{"trial_n":140,"min":91,"max":164,"target":"present","response":"present","rt":978.10000014305,"correct":true,"confidence":1}]