[{"trial_n":1,"n_dots":4.25,"target":"right","response":"right","rt":4375.1999998093,"correct":true,"confidence":-1},{"trial_n":2,"n_dots":4.25,"target":"left","response":"left","rt":2633.0999999046,"correct":true,"confidence":-1},{"trial_n":3,"n_dots":3.85,"target":"right","response":"right","rt":965.10000014305,"correct":true,"confidence":-1},{"trial_n":4,"n_dots":3.85,"target":"right","response":"right","rt":531.09999990463,"correct":true,"confidence":-1},{"trial_n":5,"n_dots":3.45,"target":"right","response":"right","rt":1454.7999999523,"correct":true,"confidence":-1},{"trial_n":6,"n_dots":3.45,"target":"right","response":"right","rt":474.60000014305,"correct":true,"confidence":-1},{"trial_n":7,"n_dots":3.05,"target":"left","response":"left","rt":777.40000009537,"correct":true,"confidence":-1},{"trial_n":8,"n_dots":3.05,"target":"right","response":"left","rt":1545.5999999046,"correct":false,"confidence":-1},{"trial_n":9,"n_dots":3.25,"target":"right","response":"right","rt":1262.6000001431,"correct":true,"confidence":-1},{"trial_n":10,"n_dots":3.25,"target":"left","response":"left","rt":647.60000014305,"correct":true,"confidence":-1},{"trial_n":11,"n_dots":3.05,"target":"right","response":"right","rt":570.90000009537,"correct":true,"confidence":-1},{"trial_n":12,"n_dots":3.05,"target":"left","response":"left","rt":534.70000004768,"correct":true,"confidence":-1},{"trial_n":13,"n_dots":2.95,"target":"right","response":"left","rt":344.20000004768,"correct":false,"confidence":-1},{"trial_n":14,"n_dots":3.05,"target":"right","response":"right","rt":770.09999990463,"correct":true,"confidence":-1},{"trial_n":15,"n_dots":3.05,"target":"right","response":"right","rt":667,"correct":true,"confidence":-1},{"trial_n":16,"n_dots":2.95,"target":"left","response":"left","rt":388.70000004768,"correct":true,"confidence":-1},{"trial_n":17,"n_dots":2.95,"target":"left","response":"left","rt":511.29999995232,"correct":true,"confidence":-1},{"trial_n":18,"n_dots":2.85,"target":"left","response":"left","rt":446.5,"correct":true,"confidence":-1},{"trial_n":19,"n_dots":2.85,"target":"right","response":"left","rt":396.09999990463,"correct":false,"confidence":-1},{"trial_n":20,"n_dots":2.95,"target":"right","response":"left","rt":414.29999995232,"correct":false,"confidence":-1},{"trial_n":21,"n_dots":3.05,"target":"left","response":"left","rt":299.60000014305,"correct":true,"confidence":2},{"trial_n":22,"n_dots":3.05,"target":"left","response":"left","rt":1329.5999999046,"correct":true,"confidence":2},{"trial_n":23,"n_dots":2.95,"target":"left","response":"left","rt":364.60000014305,"correct":true,"confidence":3},{"trial_n":24,"n_dots":2.95,"target":"left","response":"left","rt":780.09999990463,"correct":true,"confidence":1},{"trial_n":25,"n_dots":2.85,"target":"left","response":"left","rt":379.89999985695,"correct":true,"confidence":4},{"trial_n":26,"n_dots":2.85,"target":"right","response":"left","rt":444,"correct":false,"confidence":2},{"trial_n":27,"n_dots":2.95,"target":"left","response":"left","rt":762.79999995232,"correct":true,"confidence":3},{"trial_n":28,"n_dots":2.95,"target":"right","response":"right","rt":604.10000014305,"correct":true,"confidence":3},{"trial_n":29,"n_dots":2.85,"target":"left","response":"right","rt":563.89999985695,"correct":false,"confidence":4},{"trial_n":30,"n_dots":2.95,"target":"left","response":"left","rt":447.10000014305,"correct":true,"confidence":4},{"trial_n":31,"n_dots":2.95,"target":"right","response":"left","rt":1492.1000001431,"correct":false,"confidence":2},{"trial_n":32,"n_dots":3.05,"target":"right","response":"right","rt":657.10000014305,"correct":true,"confidence":3},{"trial_n":33,"n_dots":3.05,"target":"right","response":"left","rt":340.60000014305,"correct":false,"confidence":2},{"trial_n":34,"n_dots":3.15,"target":"left","response":"left","rt":399.5,"correct":true,"confidence":2},{"trial_n":35,"n_dots":3.15,"target":"left","response":"right","rt":730.89999985695,"correct":false,"confidence":3},{"trial_n":36,"n_dots":3.25,"target":"left","response":"left","rt":296.60000014305,"correct":true,"confidence":2},{"trial_n":37,"n_dots":3.25,"target":"left","response":"left","rt":657.20000004768,"correct":true,"confidence":2},{"trial_n":38,"n_dots":3.15,"target":"left","response":"right","rt":873.40000009537,"correct":false,"confidence":3},{"trial_n":39,"n_dots":3.25,"target":"right","response":"right","rt":408.90000009537,"correct":true,"confidence":5},{"trial_n":40,"n_dots":3.25,"target":"left","response":"left","rt":451,"correct":true,"confidence":5},{"trial_n":41,"n_dots":3.15,"target":"left","response":"left","rt":658.70000004768,"correct":true,"confidence":5},{"trial_n":42,"n_dots":3.15,"target":"right","response":"right","rt":729.5,"correct":true,"confidence":5},{"trial_n":43,"n_dots":3.05,"target":"right","response":"right","rt":793.20000004768,"correct":true,"confidence":4},{"trial_n":44,"n_dots":3.05,"target":"left","response":"right","rt":925.5,"correct":false,"confidence":4},{"trial_n":45,"n_dots":3.15,"target":"right","response":"right","rt":1551.2999999523,"correct":true,"confidence":3},{"trial_n":46,"n_dots":3.15,"target":"right","response":"right","rt":4393.3000001907,"correct":true,"confidence":3},{"trial_n":47,"n_dots":3.05,"target":"right","response":"right","rt":378.69999980927,"correct":true,"confidence":3},{"trial_n":48,"n_dots":3.05,"target":"right","response":"right","rt":927.29999995232,"correct":true,"confidence":2},{"trial_n":49,"n_dots":2.95,"target":"left","response":"right","rt":783.20000004768,"correct":false,"confidence":2},{"trial_n":50,"n_dots":3.05,"target":"right","response":"right","rt":698,"correct":true,"confidence":4},{"trial_n":51,"n_dots":3.05,"target":"right","response":"right","rt":755.5,"correct":true,"confidence":5},{"trial_n":52,"n_dots":2.95,"target":"left","response":"left","rt":704.09999990463,"correct":true,"confidence":1},{"trial_n":53,"n_dots":2.95,"target":"left","response":"right","rt":774.09999990463,"correct":false,"confidence":2},{"trial_n":54,"n_dots":3.05,"target":"right","response":"left","rt":705.70000004768,"correct":false,"confidence":2},{"trial_n":55,"n_dots":3.15,"target":"left","response":"left","rt":713.90000009537,"correct":true,"confidence":1},{"trial_n":56,"n_dots":3.15,"target":"right","response":"right","rt":699.80000019073,"correct":true,"confidence":4},{"trial_n":57,"n_dots":3.05,"target":"right","response":"left","rt":1174.8000001907,"correct":false,"confidence":1},{"trial_n":58,"n_dots":3.15,"target":"right","response":"right","rt":1403.3999998569,"correct":true,"confidence":3},{"trial_n":59,"n_dots":3.15,"target":"left","response":"right","rt":1106.1999998093,"correct":false,"confidence":3},{"trial_n":60,"n_dots":3.25,"target":"left","response":"left","rt":829.90000009537,"correct":true,"confidence":2},{"trial_n":61,"n_dots":3.25,"target":"left","response":"left","rt":545.39999985695,"correct":true,"confidence":2},{"trial_n":62,"n_dots":3.15,"target":"left","response":"left","rt":587.5,"correct":true,"confidence":2},{"trial_n":63,"n_dots":3.15,"target":"right","response":"right","rt":462.79999995232,"correct":true,"confidence":4},{"trial_n":64,"n_dots":3.05,"target":"right","response":"right","rt":395.40000009537,"correct":true,"confidence":4},{"trial_n":65,"n_dots":3.05,"target":"left","response":"left","rt":657,"correct":true,"confidence":5},{"trial_n":66,"n_dots":2.95,"target":"right","response":"left","rt":493.90000009537,"correct":false,"confidence":5},{"trial_n":67,"n_dots":3.05,"target":"right","response":"right","rt":713.70000004768,"correct":true,"confidence":1},{"trial_n":68,"n_dots":3.05,"target":"right","response":"left","rt":679.5,"correct":false,"confidence":3},{"trial_n":69,"n_dots":3.15,"target":"left","response":"left","rt":391.20000004768,"correct":true,"confidence":4},{"trial_n":70,"n_dots":3.15,"target":"left","response":"left","rt":377.5,"correct":true,"confidence":3},{"trial_n":71,"n_dots":3.05,"target":"left","response":"left","rt":677.10000014305,"correct":true,"confidence":1},{"trial_n":72,"n_dots":3.05,"target":"left","response":"left","rt":382.40000009537,"correct":true,"confidence":5},{"trial_n":73,"n_dots":2.95,"target":"left","response":"left","rt":657.79999995232,"correct":true,"confidence":3},{"trial_n":74,"n_dots":2.95,"target":"right","response":"right","rt":672.79999995232,"correct":true,"confidence":4},{"trial_n":75,"n_dots":2.85,"target":"left","response":"left","rt":303.90000009537,"correct":true,"confidence":2},{"trial_n":76,"n_dots":2.85,"target":"right","response":"left","rt":1062.5,"correct":false,"confidence":1},{"trial_n":77,"n_dots":2.95,"target":"left","response":"left","rt":549.20000004768,"correct":true,"confidence":1},{"trial_n":78,"n_dots":2.95,"target":"right","response":"right","rt":711.10000014305,"correct":true,"confidence":2},{"trial_n":79,"n_dots":2.85,"target":"right","response":"left","rt":507.40000009537,"correct":false,"confidence":1},{"trial_n":80,"n_dots":2.95,"target":"right","response":"right","rt":302.79999995232,"correct":true,"confidence":3},{"trial_n":81,"n_dots":2.95,"target":"left","response":"left","rt":334.5,"correct":true,"confidence":3},{"trial_n":82,"n_dots":2.85,"target":"left","response":"left","rt":642.20000004768,"correct":true,"confidence":1},{"trial_n":83,"n_dots":2.85,"target":"left","response":"left","rt":442.5,"correct":true,"confidence":3},{"trial_n":84,"n_dots":2.75,"target":"right","response":"right","rt":583.20000004768,"correct":true,"confidence":2},{"trial_n":85,"n_dots":2.75,"target":"left","response":"left","rt":369.09999990463,"correct":true,"confidence":4},{"trial_n":86,"n_dots":2.65,"target":"right","response":"left","rt":541.89999985695,"correct":false,"confidence":4},{"trial_n":87,"n_dots":2.75,"target":"left","response":"left","rt":267,"correct":true,"confidence":5},{"trial_n":88,"n_dots":2.75,"target":"right","response":"left","rt":596.5,"correct":false,"confidence":1},{"trial_n":89,"n_dots":2.85,"target":"left","response":"left","rt":329.5,"correct":true,"confidence":5},{"trial_n":90,"n_dots":2.85,"target":"left","response":"left","rt":327.39999985695,"correct":true,"confidence":5},{"trial_n":91,"n_dots":2.75,"target":"right","response":"left","rt":881.5,"correct":false,"confidence":4},{"trial_n":92,"n_dots":2.85,"target":"left","response":"right","rt":1861.7999999523,"correct":false,"confidence":2},{"trial_n":93,"n_dots":2.95,"target":"left","response":"left","rt":889.09999990463,"correct":true,"confidence":1},{"trial_n":94,"n_dots":2.95,"target":"left","response":"left","rt":684.09999990463,"correct":true,"confidence":1},{"trial_n":95,"n_dots":2.85,"target":"left","response":"left","rt":476.10000014305,"correct":true,"confidence":4},{"trial_n":96,"n_dots":2.85,"target":"left","response":"left","rt":397.29999995232,"correct":true,"confidence":4},{"trial_n":97,"n_dots":2.75,"target":"left","response":"left","rt":265.19999980927,"correct":true,"confidence":4},{"trial_n":98,"n_dots":2.75,"target":"right","response":"right","rt":386.60000014305,"correct":true,"confidence":3},{"trial_n":99,"n_dots":2.65,"target":"left","response":"left","rt":300.5,"correct":true,"confidence":5},{"trial_n":100,"n_dots":2.65,"target":"right","response":"left","rt":272,"correct":false,"confidence":5},{"trial_n":101,"n_dots":2.75,"target":"right","response":"right","rt":818.90000009537,"correct":true,"confidence":1},{"trial_n":102,"n_dots":2.75,"target":"right","response":"left","rt":450,"correct":false,"confidence":4},{"trial_n":103,"n_dots":2.85,"target":"left","response":"right","rt":289.70000004768,"correct":false,"confidence":1},{"trial_n":104,"n_dots":2.95,"target":"right","response":"right","rt":150.39999985695,"correct":true,"confidence":2},{"trial_n":105,"n_dots":2.95,"target":"left","response":"left","rt":248.79999995232,"correct":true,"confidence":2},{"trial_n":106,"n_dots":2.85,"target":"left","response":"right","rt":200.5,"correct":false,"confidence":3},{"trial_n":107,"n_dots":2.95,"target":"right","response":"left","rt":580.70000004768,"correct":false,"confidence":1},{"trial_n":108,"n_dots":3.05,"target":"left","response":"right","rt":1107.2999999523,"correct":false,"confidence":4},{"trial_n":109,"n_dots":3.15,"target":"right","response":"right","rt":561.29999995232,"correct":true,"confidence":4},{"trial_n":110,"n_dots":3.15,"target":"left","response":"left","rt":335.69999980927,"correct":true,"confidence":5},{"trial_n":111,"n_dots":3.05,"target":"right","response":"right","rt":1253.1999998093,"correct":true,"confidence":5},{"trial_n":112,"n_dots":3.05,"target":"right","response":"right","rt":630.5,"correct":true,"confidence":4},{"trial_n":113,"n_dots":2.95,"target":"left","response":"left","rt":898.20000004768,"correct":true,"confidence":3},{"trial_n":114,"n_dots":2.95,"target":"right","response":"left","rt":482,"correct":false,"confidence":4},{"trial_n":115,"n_dots":3.05,"target":"left","response":"left","rt":322.20000004768,"correct":true,"confidence":4},{"trial_n":116,"n_dots":3.05,"target":"right","response":"right","rt":1021.2000000477,"correct":true,"confidence":3},{"trial_n":117,"n_dots":2.95,"target":"right","response":"right","rt":361.29999995232,"correct":true,"confidence":5},{"trial_n":118,"n_dots":2.95,"target":"right","response":"right","rt":332.90000009537,"correct":true,"confidence":5},{"trial_n":119,"n_dots":2.85,"target":"right","response":"right","rt":507.19999980927,"correct":true,"confidence":5},{"trial_n":120,"n_dots":2.85,"target":"right","response":"right","rt":311,"correct":true,"confidence":5}]