[{"trial_n":1,"min":25,"max":230,"target":"present","response":"present","rt":7962.2999999523,"correct":true,"confidence":-1},{"trial_n":2,"min":25,"max":230,"target":"present","response":"present","rt":670.60000014305,"correct":true,"confidence":-1},{"trial_n":3,"min":41,"max":214,"target":"absent","response":"absent","rt":831.90000009537,"correct":true,"confidence":-1},{"trial_n":4,"min":41,"max":214,"target":"absent","response":"absent","rt":1691.5999999046,"correct":true,"confidence":-1},{"trial_n":5,"min":57,"max":198,"target":"present","response":"present","rt":604,"correct":true,"confidence":-1},{"trial_n":6,"min":57,"max":198,"target":"present","response":"present","rt":857.10000014305,"correct":true,"confidence":-1},{"trial_n":7,"min":73,"max":182,"target":"absent","response":"absent","rt":365.29999995232,"correct":true,"confidence":-1},{"trial_n":8,"min":73,"max":182,"target":"absent","response":"absent","rt":384.10000014305,"correct":true,"confidence":-1},{"trial_n":9,"min":89,"max":166,"target":"absent","response":"absent","rt":321.5,"correct":true,"confidence":-1},{"trial_n":10,"min":89,"max":166,"target":"absent","response":"absent","rt":317.59999990463,"correct":true,"confidence":-1},{"trial_n":11,"min":97,"max":158,"target":"absent","response":"absent","rt":344.29999995232,"correct":true,"confidence":-1},{"trial_n":12,"min":97,"max":158,"target":"present","response":"present","rt":604.40000009537,"correct":true,"confidence":-1},{"trial_n":13,"min":105,"max":150,"target":"present","response":"present","rt":794.89999985695,"correct":true,"confidence":-1},{"trial_n":14,"min":105,"max":150,"target":"absent","response":"present","rt":1329.7999999523,"correct":false,"confidence":-1},{"trial_n":15,"min":97,"max":158,"target":"present","response":"absent","rt":380.29999995232,"correct":false,"confidence":-1},{"trial_n":16,"min":89,"max":166,"target":"present","response":"absent","rt":595.40000009537,"correct":false,"confidence":-1},{"trial_n":17,"min":81,"max":174,"target":"present","response":"absent","rt":565.20000004768,"correct":false,"confidence":-1},{"trial_n":18,"min":73,"max":182,"target":"absent","response":"absent","rt":477.40000009537,"correct":true,"confidence":-1},{"trial_n":19,"min":73,"max":182,"target":"present","response":"present","rt":507.29999995232,"correct":true,"confidence":-1},{"trial_n":20,"min":81,"max":174,"target":"present","response":"present","rt":816.09999990463,"correct":true,"confidence":-1},{"trial_n":21,"min":81,"max":174,"target":"present","response":"present","rt":734.10000014305,"correct":true,"confidence":5},{"trial_n":22,"min":85,"max":170,"target":"absent","response":"absent","rt":2038.6999998093,"correct":true,"confidence":2},{"trial_n":23,"min":85,"max":170,"target":"absent","response":"absent","rt":904.80000019073,"correct":true,"confidence":2},{"trial_n":24,"min":89,"max":166,"target":"absent","response":"absent","rt":1506.2000000477,"correct":true,"confidence":4},{"trial_n":25,"min":89,"max":166,"target":"absent","response":"absent","rt":762.29999995232,"correct":true,"confidence":3},{"trial_n":26,"min":93,"max":162,"target":"present","response":"absent","rt":7650.2000000477,"correct":false,"confidence":3},{"trial_n":27,"min":89,"max":166,"target":"present","response":"present","rt":1478.4000000954,"correct":true,"confidence":5},{"trial_n":28,"min":89,"max":166,"target":"absent","response":"absent","rt":1293,"correct":true,"confidence":2},{"trial_n":29,"min":93,"max":162,"target":"absent","response":"present","rt":1470.3999998569,"correct":false,"confidence":3},{"trial_n":30,"min":89,"max":166,"target":"present","response":"present","rt":6495.3000001907,"correct":true,"confidence":3},{"trial_n":31,"min":89,"max":166,"target":"absent","response":"absent","rt":1109.3999998569,"correct":true,"confidence":2},{"trial_n":32,"min":91,"max":164,"target":"absent","response":"absent","rt":1052.2999999523,"correct":true,"confidence":2},{"trial_n":33,"min":91,"max":164,"target":"absent","response":"present","rt":1007.9000000954,"correct":false,"confidence":4},{"trial_n":34,"min":89,"max":166,"target":"absent","response":"present","rt":1354.7999999523,"correct":false,"confidence":2},{"trial_n":35,"min":87,"max":168,"target":"present","response":"present","rt":1479.5,"correct":true,"confidence":4},{"trial_n":36,"min":87,"max":168,"target":"absent","response":"absent","rt":2098.9000000954,"correct":true,"confidence":1},{"trial_n":37,"min":89,"max":166,"target":"absent","response":"present","rt":1747.2999999523,"correct":false,"confidence":2},{"trial_n":38,"min":87,"max":168,"target":"present","response":"present","rt":5038.2000000477,"correct":true,"confidence":2},{"trial_n":39,"min":87,"max":168,"target":"present","response":"present","rt":1319.8999998569,"correct":true,"confidence":5},{"trial_n":40,"min":89,"max":166,"target":"present","response":"absent","rt":3233,"correct":false,"confidence":2},{"trial_n":41,"min":88,"max":167,"target":"absent","response":"present","rt":1711.3000001907,"correct":false,"confidence":2},{"trial_n":42,"min":87,"max":168,"target":"present","response":"absent","rt":647.70000004768,"correct":false,"confidence":2},{"trial_n":43,"min":86,"max":169,"target":"present","response":"present","rt":191.70000004768,"correct":true,"confidence":2},{"trial_n":44,"min":86,"max":169,"target":"absent","response":"absent","rt":79.599999904633,"correct":true,"confidence":2},{"trial_n":45,"min":87,"max":168,"target":"present","response":"absent","rt":105.10000014305,"correct":false,"confidence":2},{"trial_n":46,"min":86,"max":169,"target":"present","response":"present","rt":860.60000014305,"correct":true,"confidence":4},{"trial_n":47,"min":86,"max":169,"target":"absent","response":"present","rt":7057.0999999046,"correct":false,"confidence":2},{"trial_n":48,"min":85,"max":170,"target":"absent","response":"absent","rt":13372.700000048,"correct":true,"confidence":2},{"trial_n":49,"min":85,"max":170,"target":"present","response":"present","rt":1372.5999999046,"correct":true,"confidence":4},{"trial_n":50,"min":86,"max":169,"target":"absent","response":"absent","rt":859.59999990463,"correct":true,"confidence":3},{"trial_n":51,"min":86,"max":169,"target":"absent","response":"present","rt":2276.2999999523,"correct":false,"confidence":2},{"trial_n":52,"min":85,"max":170,"target":"present","response":"absent","rt":8018.4000000954,"correct":false,"confidence":3},{"trial_n":53,"min":84,"max":171,"target":"present","response":"present","rt":870.59999990463,"correct":true,"confidence":4},{"trial_n":54,"min":84,"max":171,"target":"present","response":"present","rt":1531.5,"correct":true,"confidence":5},{"trial_n":55,"min":85,"max":170,"target":"absent","response":"present","rt":6135.0999999046,"correct":false,"confidence":3},{"trial_n":56,"min":84,"max":171,"target":"present","response":"present","rt":3917.7999999523,"correct":true,"confidence":4},{"trial_n":57,"min":84,"max":171,"target":"present","response":"present","rt":1997.8999998569,"correct":true,"confidence":4},{"trial_n":58,"min":85,"max":170,"target":"present","response":"present","rt":1310.2000000477,"correct":true,"confidence":4},{"trial_n":59,"min":85,"max":170,"target":"absent","response":"absent","rt":1420.2000000477,"correct":true,"confidence":3},{"trial_n":60,"min":86,"max":169,"target":"absent","response":"absent","rt":3108.5,"correct":true,"confidence":2},{"trial_n":61,"min":86,"max":169,"target":"present","response":"present","rt":2847.6000001431,"correct":true,"confidence":1},{"trial_n":62,"min":87,"max":168,"target":"present","response":"present","rt":13867.099999905,"correct":true,"confidence":3},{"trial_n":63,"min":87,"max":168,"target":"absent","response":"absent","rt":3215.9000000954,"correct":true,"confidence":3},{"trial_n":64,"min":88,"max":167,"target":"present","response":"absent","rt":3340.7999999523,"correct":false,"confidence":2},{"trial_n":65,"min":87,"max":168,"target":"absent","response":"present","rt":70810.100000143,"correct":false,"confidence":3},{"trial_n":66,"min":86,"max":169,"target":"absent","response":"absent","rt":1113.8999998569,"correct":true,"confidence":3},{"trial_n":67,"min":86,"max":169,"target":"present","response":"absent","rt":1084.7999999523,"correct":false,"confidence":4},{"trial_n":68,"min":85,"max":170,"target":"present","response":"present","rt":2737.5,"correct":true,"confidence":4},{"trial_n":69,"min":85,"max":170,"target":"absent","response":"absent","rt":15485,"correct":true,"confidence":2},{"trial_n":70,"min":86,"max":169,"target":"present","response":"present","rt":904.5,"correct":true,"confidence":4},{"trial_n":71,"min":41,"max":214,"target":"present","response":"present","rt":1457.7999999523,"correct":true,"confidence":-1},{"trial_n":72,"min":41,"max":214,"target":"present","response":"present","rt":698,"correct":true,"confidence":-1},{"trial_n":73,"min":57,"max":198,"target":"absent","response":"absent","rt":911.90000009537,"correct":true,"confidence":-1},{"trial_n":74,"min":57,"max":198,"target":"absent","response":"absent","rt":780.59999990463,"correct":true,"confidence":-1},{"trial_n":75,"min":73,"max":182,"target":"present","response":"present","rt":749.40000009537,"correct":true,"confidence":-1},{"trial_n":76,"min":73,"max":182,"target":"present","response":"present","rt":574.09999990463,"correct":true,"confidence":-1},{"trial_n":77,"min":89,"max":166,"target":"absent","response":"present","rt":1216.7000000477,"correct":false,"confidence":-1},{"trial_n":78,"min":73,"max":182,"target":"present","response":"present","rt":1395.0999999046,"correct":true,"confidence":-1},{"trial_n":79,"min":73,"max":182,"target":"present","response":"present","rt":3127.5999999046,"correct":true,"confidence":-1},{"trial_n":80,"min":89,"max":166,"target":"present","response":"present","rt":893.20000004768,"correct":true,"confidence":-1},{"trial_n":81,"min":89,"max":166,"target":"absent","response":"present","rt":8586.2999999523,"correct":false,"confidence":-1},{"trial_n":82,"min":81,"max":174,"target":"present","response":"absent","rt":838.5,"correct":false,"confidence":-1},{"trial_n":83,"min":73,"max":182,"target":"present","response":"absent","rt":1027.2999999523,"correct":false,"confidence":-1},{"trial_n":84,"min":65,"max":190,"target":"present","response":"present","rt":630.29999995232,"correct":true,"confidence":-1},{"trial_n":85,"min":65,"max":190,"target":"absent","response":"absent","rt":626.5,"correct":true,"confidence":-1},{"trial_n":86,"min":73,"max":182,"target":"present","response":"present","rt":343.89999985695,"correct":true,"confidence":-1},{"trial_n":87,"min":73,"max":182,"target":"present","response":"present","rt":443.10000014305,"correct":true,"confidence":-1},{"trial_n":88,"min":81,"max":174,"target":"absent","response":"absent","rt":504.20000004768,"correct":true,"confidence":-1},{"trial_n":89,"min":81,"max":174,"target":"absent","response":"present","rt":578.89999985695,"correct":false,"confidence":-1},{"trial_n":90,"min":73,"max":182,"target":"present","response":"absent","rt":832,"correct":false,"confidence":-1},{"trial_n":91,"min":69,"max":186,"target":"absent","response":"absent","rt":943.80000019073,"correct":true,"confidence":2},{"trial_n":92,"min":69,"max":186,"target":"present","response":"present","rt":403.59999990463,"correct":true,"confidence":1},{"trial_n":93,"min":73,"max":182,"target":"absent","response":"present","rt":871.89999985695,"correct":false,"confidence":2},{"trial_n":94,"min":69,"max":186,"target":"absent","response":"absent","rt":716.30000019073,"correct":true,"confidence":1},{"trial_n":95,"min":69,"max":186,"target":"present","response":"absent","rt":434.20000004768,"correct":false,"confidence":1},{"trial_n":96,"min":65,"max":190,"target":"absent","response":"absent","rt":4472,"correct":true,"confidence":3},{"trial_n":97,"min":65,"max":190,"target":"absent","response":"absent","rt":738.10000014305,"correct":true,"confidence":3},{"trial_n":98,"min":69,"max":186,"target":"present","response":"absent","rt":6541.5,"correct":false,"confidence":1},{"trial_n":99,"min":65,"max":190,"target":"present","response":"present","rt":728.20000004768,"correct":true,"confidence":3},{"trial_n":100,"min":65,"max":190,"target":"present","response":"present","rt":827.5,"correct":true,"confidence":1},{"trial_n":101,"min":67,"max":188,"target":"present","response":"present","rt":622.40000009537,"correct":true,"confidence":3},{"trial_n":102,"min":67,"max":188,"target":"present","response":"present","rt":719.29999995232,"correct":true,"confidence":4},{"trial_n":103,"min":69,"max":186,"target":"absent","response":"absent","rt":782.5,"correct":true,"confidence":5},{"trial_n":104,"min":69,"max":186,"target":"present","response":"present","rt":19493.700000048,"correct":true,"confidence":1},{"trial_n":105,"min":71,"max":184,"target":"absent","response":"absent","rt":713.29999995232,"correct":true,"confidence":1},{"trial_n":106,"min":71,"max":184,"target":"present","response":"present","rt":618.90000009537,"correct":true,"confidence":5},{"trial_n":107,"min":73,"max":182,"target":"present","response":"present","rt":1161.8999998569,"correct":true,"confidence":1},{"trial_n":108,"min":73,"max":182,"target":"absent","response":"absent","rt":674.5,"correct":true,"confidence":4},{"trial_n":109,"min":75,"max":180,"target":"absent","response":"absent","rt":946.39999985695,"correct":true,"confidence":1},{"trial_n":110,"min":75,"max":180,"target":"present","response":"present","rt":713.29999995232,"correct":true,"confidence":1},{"trial_n":111,"min":76,"max":179,"target":"present","response":"present","rt":641.09999990463,"correct":true,"confidence":1},{"trial_n":112,"min":76,"max":179,"target":"absent","response":"absent","rt":3035.0999999046,"correct":true,"confidence":2},{"trial_n":113,"min":77,"max":178,"target":"absent","response":"absent","rt":2234.4000000954,"correct":true,"confidence":1},{"trial_n":114,"min":77,"max":178,"target":"absent","response":"present","rt":915.09999990463,"correct":false,"confidence":3},{"trial_n":115,"min":76,"max":179,"target":"present","response":"present","rt":709.20000004768,"correct":true,"confidence":4},{"trial_n":116,"min":76,"max":179,"target":"present","response":"present","rt":1524.1000001431,"correct":true,"confidence":2},{"trial_n":117,"min":77,"max":178,"target":"absent","response":"present","rt":909.20000004768,"correct":false,"confidence":3},{"trial_n":118,"min":76,"max":179,"target":"absent","response":"absent","rt":853.59999990463,"correct":true,"confidence":3},{"trial_n":119,"min":76,"max":179,"target":"absent","response":"absent","rt":2167.9000000954,"correct":true,"confidence":3},{"trial_n":120,"min":77,"max":178,"target":"absent","response":"present","rt":496.60000014305,"correct":false,"confidence":2},{"trial_n":121,"min":76,"max":179,"target":"absent","response":"absent","rt":213.19999980927,"correct":true,"confidence":3},{"trial_n":122,"min":76,"max":179,"target":"absent","response":"present","rt":517.20000004768,"correct":false,"confidence":2},{"trial_n":123,"min":75,"max":180,"target":"absent","response":"absent","rt":3682.1000001431,"correct":true,"confidence":1},{"trial_n":124,"min":75,"max":180,"target":"present","response":"present","rt":760.70000004768,"correct":true,"confidence":5},{"trial_n":125,"min":76,"max":179,"target":"absent","response":"absent","rt":2768.0999999046,"correct":true,"confidence":3},{"trial_n":126,"min":76,"max":179,"target":"present","response":"present","rt":8489.4000000954,"correct":true,"confidence":1},{"trial_n":127,"min":77,"max":178,"target":"absent","response":"absent","rt":893.5,"correct":true,"confidence":3},{"trial_n":128,"min":77,"max":178,"target":"present","response":"absent","rt":1377.7999999523,"correct":false,"confidence":1},{"trial_n":129,"min":76,"max":179,"target":"absent","response":"absent","rt":3025.2000000477,"correct":true,"confidence":2},{"trial_n":130,"min":76,"max":179,"target":"present","response":"present","rt":4573.7999999523,"correct":true,"confidence":2},{"trial_n":131,"min":77,"max":178,"target":"present","response":"present","rt":399.69999980927,"correct":true,"confidence":5},{"trial_n":132,"min":77,"max":178,"target":"absent","response":"present","rt":970.5,"correct":false,"confidence":3},{"trial_n":133,"min":76,"max":179,"target":"present","response":"absent","rt":1710.2999999523,"correct":false,"confidence":3},{"trial_n":134,"min":75,"max":180,"target":"present","response":"absent","rt":17200.799999952,"correct":false,"confidence":2},{"trial_n":135,"min":74,"max":181,"target":"present","response":"absent","rt":4522,"correct":false,"confidence":3},{"trial_n":136,"min":73,"max":182,"target":"present","response":"present","rt":592.10000014305,"correct":true,"confidence":5},{"trial_n":137,"min":73,"max":182,"target":"absent","response":"present","rt":1081.1000001431,"correct":false,"confidence":3},{"trial_n":138,"min":72,"max":183,"target":"absent","response":"absent","rt":2833.4000000954,"correct":true,"confidence":4},{"trial_n":139,"min":72,"max":183,"target":"absent","response":"absent","rt":3172.8000001907,"correct":true,"confidence":3},{"trial_n":140,"min":73,"max":182,"target":"absent","response":"absent","rt":6972.8999998569,"correct":true,"confidence":3}]