[{"trial_n":1,"span":8,"encoder":"37365534","distractor":"37365934","target":"present","response":"present","rt":"7194.8000001907","correct":true,"confidence":-1},{"trial_n":2,"span":8,"encoder":"12841478","distractor":"12811478","target":"present","response":"present","rt":"2975.1999998093","correct":true,"confidence":-1},{"trial_n":3,"span":10,"encoder":"7793399785","distractor":"7793399787","target":"absent","response":"absent","rt":"2935.2000000477","correct":true,"confidence":-1},{"trial_n":4,"span":10,"encoder":"8568327324","distractor":"8568327321","target":"absent","response":"absent","rt":"2437.4000000954","correct":true,"confidence":-1},{"trial_n":5,"span":12,"encoder":"111476732381","distractor":"111476732481","target":"present","response":"present","rt":"2224.7000000477","correct":true,"confidence":-1},{"trial_n":6,"span":12,"encoder":"389617820810","distractor":"382617820810","target":"absent","response":"present","rt":"2947.0999999046","correct":false,"confidence":-1},{"trial_n":7,"span":10,"encoder":"6455491135","distractor":"6455291135","target":"absent","response":"present","rt":"2234.6999998093","correct":false,"confidence":-1},{"trial_n":8,"span":8,"encoder":"75419886","distractor":"74419886","target":"present","response":"present","rt":"1633.1999998093","correct":true,"confidence":-1},{"trial_n":9,"span":8,"encoder":"64867263","distractor":"64865263","target":"present","response":"present","rt":"1628.3999998569","correct":true,"confidence":-1},{"trial_n":10,"span":10,"encoder":"5539423935","distractor":"5539423936","target":"absent","response":"absent","rt":"2406.7000000477","correct":true,"confidence":-1},{"trial_n":11,"span":10,"encoder":"3368656378","distractor":"3368657378","target":"absent","response":"present","rt":"1757.8999998569","correct":false,"confidence":-1},{"trial_n":12,"span":9,"encoder":"677880399","distractor":"671880399","target":"present","response":"absent","rt":"1070.7999999523","correct":false,"confidence":-1},{"trial_n":13,"span":8,"encoder":"49147356","distractor":"49141356","target":"present","response":"present","rt":"1409.5999999046","correct":true,"confidence":-1},{"trial_n":14,"span":8,"encoder":"49554543","distractor":"49558543","target":"present","response":"absent","rt":"467.20000004768","correct":false,"confidence":-1},{"trial_n":15,"span":7,"encoder":"5685186","distractor":"5685183","target":"absent","response":"absent","rt":"518","correct":true,"confidence":-1},{"trial_n":16,"span":7,"encoder":"8585590","distractor":"9585590","target":"present","response":"absent","rt":"1195.8999998569","correct":false,"confidence":-1},{"trial_n":17,"span":6,"encoder":"430178","distractor":"430378","target":"absent","response":"absent","rt":"1156.2999999523","correct":true,"confidence":-1},{"trial_n":18,"span":6,"encoder":"160133","distractor":"660133","target":"present","response":"present","rt":"891.09999990463","correct":true,"confidence":-1},{"trial_n":19,"span":7,"encoder":"6679889","distractor":"6679883","target":"present","response":"present","rt":"874.70000004768","correct":true,"confidence":-1},{"trial_n":20,"span":7,"encoder":"5474858","distractor":"7474858","target":"absent","response":"present","rt":"1450.5999999046","correct":false,"confidence":-1},{"trial_n":21,"span":6,"encoder":"152719","distractor":"182719","target":"present","response":"present","rt":"1328.1000001431","correct":true,"confidence":5},{"trial_n":22,"span":6,"encoder":"591259","distractor":"591959","target":"present","response":"present","rt":"4079.2999999523","correct":true,"confidence":3},{"trial_n":23,"span":7,"encoder":"9417034","distractor":"9417033","target":"present","response":"absent","rt":"4503.5999999046","correct":false,"confidence":3},{"trial_n":24,"span":6,"encoder":"627651","distractor":"627655","target":"present","response":"present","rt":"2024.6999998093","correct":true,"confidence":3},{"trial_n":25,"span":6,"encoder":"714320","distractor":"719320","target":"absent","response":"absent","rt":"2096.2999999523","correct":true,"confidence":2},{"trial_n":26,"span":7,"encoder":"7484242","distractor":"7484240","target":"absent","response":"absent","rt":"2987.8999998569","correct":true,"confidence":5},{"trial_n":27,"span":7,"encoder":"9894554","distractor":"9894454","target":"present","response":"present","rt":"2594.5","correct":true,"confidence":3},{"trial_n":28,"span":8,"encoder":"03286729","distractor":"03286726","target":"absent","response":"absent","rt":"2292.5999999046","correct":true,"confidence":1},{"trial_n":29,"span":8,"encoder":"32291484","distractor":"32291485","target":"absent","response":"present","rt":"6096.7999999523","correct":false,"confidence":2},{"trial_n":30,"span":7,"encoder":"1807636","distractor":"1877636","target":"present","response":"absent","rt":"3359.7000000477","correct":false,"confidence":2},{"trial_n":31,"span":6,"encoder":"562762","distractor":"562462","target":"absent","response":"present","rt":"1492.2999999523","correct":false,"confidence":3},{"trial_n":32,"span":5,"encoder":"63336","distractor":"33336","target":"absent","response":"absent","rt":"2383.1000001431","correct":true,"confidence":5},{"trial_n":33,"span":5,"encoder":"43671","distractor":"33671","target":"present","response":"present","rt":"1963.7999999523","correct":true,"confidence":4},{"trial_n":34,"span":6,"encoder":"930174","distractor":"910174","target":"present","response":"present","rt":"2162.5","correct":true,"confidence":2},{"trial_n":35,"span":6,"encoder":"201853","distractor":"201855","target":"present","response":"present","rt":"2198.7000000477","correct":true,"confidence":3},{"trial_n":36,"span":7,"encoder":"9882097","distractor":"9882297","target":"absent","response":"absent","rt":"1676.3999998569","correct":true,"confidence":4},{"trial_n":37,"span":7,"encoder":"9865296","distractor":"9860296","target":"present","response":"present","rt":"4465.0999999046","correct":true,"confidence":4},{"trial_n":38,"span":8,"encoder":"12892831","distractor":"62892831","target":"absent","response":"absent","rt":"2695.6999998093","correct":true,"confidence":3},{"trial_n":39,"span":8,"encoder":"09014693","distractor":"09014697","target":"present","response":"present","rt":"3173.5","correct":true,"confidence":2},{"trial_n":40,"span":9,"encoder":"971640887","distractor":"971640827","target":"absent","response":"absent","rt":"1895","correct":true,"confidence":5},{"trial_n":41,"span":9,"encoder":"109229753","distractor":"199229753","target":"absent","response":"absent","rt":"2240","correct":true,"confidence":4},{"trial_n":42,"span":10,"encoder":"6174253540","distractor":"6974253540","target":"present","response":"absent","rt":"6514","correct":false,"confidence":5},{"trial_n":43,"span":9,"encoder":"473755475","distractor":"473751475","target":"present","response":"present","rt":"2132.1999998093","correct":true,"confidence":4},{"trial_n":44,"span":9,"encoder":"077186005","distractor":"077186002","target":"absent","response":"absent","rt":"1940.7999999523","correct":true,"confidence":5},{"trial_n":45,"span":10,"encoder":"9845372237","distractor":"9745372237","target":"absent","response":"absent","rt":"1630","correct":true,"confidence":3},{"trial_n":46,"span":10,"encoder":"5307069769","distractor":"5407069769","target":"absent","response":"absent","rt":"3758.7000000477","correct":true,"confidence":2},{"trial_n":47,"span":11,"encoder":"21576212752","distractor":"21576212552","target":"present","response":"absent","rt":"2334.1000001431","correct":false,"confidence":1},{"trial_n":48,"span":10,"encoder":"3221956719","distractor":"3211956719","target":"present","response":"absent","rt":"3030.2999999523","correct":false,"confidence":1},{"trial_n":49,"span":9,"encoder":"654402096","distractor":"614402096","target":"present","response":"present","rt":"3309.5","correct":true,"confidence":3},{"trial_n":50,"span":9,"encoder":"777873430","distractor":"777873830","target":"present","response":"present","rt":"2621.5","correct":true,"confidence":2},{"trial_n":51,"span":10,"encoder":"3987556180","distractor":"3907556180","target":"absent","response":"present","rt":"5249.2000000477","correct":false,"confidence":3},{"trial_n":52,"span":9,"encoder":"879419611","distractor":"849419611","target":"absent","response":"absent","rt":"2999.9000000954","correct":true,"confidence":3},{"trial_n":53,"span":9,"encoder":"709250526","distractor":"709250026","target":"present","response":"present","rt":"2303.6000001431","correct":true,"confidence":2},{"trial_n":54,"span":10,"encoder":"2844151896","distractor":"2844151816","target":"absent","response":"present","rt":"2034.2000000477","correct":false,"confidence":3},{"trial_n":55,"span":9,"encoder":"734540425","distractor":"734540465","target":"present","response":"present","rt":"2672.5","correct":true,"confidence":2},{"trial_n":56,"span":9,"encoder":"864055788","distractor":"864055786","target":"present","response":"absent","rt":"6729.2000000477","correct":false,"confidence":1},{"trial_n":57,"span":8,"encoder":"21093662","distractor":"20093662","target":"present","response":"present","rt":"2564.2999999523","correct":true,"confidence":4},{"trial_n":58,"span":8,"encoder":"18955919","distractor":"18655919","target":"absent","response":"present","rt":"2364.7999999523","correct":false,"confidence":5},{"trial_n":59,"span":7,"encoder":"2850644","distractor":"2850044","target":"absent","response":"present","rt":"5325.7999999523","correct":false,"confidence":3},{"trial_n":60,"span":6,"encoder":"366257","distractor":"366250","target":"absent","response":"absent","rt":"2030","correct":true,"confidence":5},{"trial_n":61,"span":6,"encoder":"450700","distractor":"457700","target":"absent","response":"present","rt":"3461","correct":false,"confidence":4},{"trial_n":62,"span":5,"encoder":"59298","distractor":"57298","target":"present","response":"absent","rt":"3572.7999999523","correct":false,"confidence":1},{"trial_n":63,"span":4,"encoder":"9119","distractor":"9169","target":"present","response":"present","rt":"1811.7000000477","correct":true,"confidence":5},{"trial_n":64,"span":4,"encoder":"5193","distractor":"3193","target":"present","response":"absent","rt":"7575.7000000477","correct":false,"confidence":1},{"trial_n":65,"span":3,"encoder":"616","distractor":"416","target":"absent","response":"absent","rt":"1937.0999999046","correct":true,"confidence":5},{"trial_n":66,"span":3,"encoder":"802","distractor":"812","target":"absent","response":"absent","rt":"1938.2999999523","correct":true,"confidence":5},{"trial_n":67,"span":4,"encoder":"8996","distractor":"8993","target":"absent","response":"absent","rt":"1542.0999999046","correct":true,"confidence":5},{"trial_n":68,"span":4,"encoder":"1150","distractor":"1050","target":"absent","response":"absent","rt":"2436.7999999523","correct":true,"confidence":5},{"trial_n":69,"span":5,"encoder":"93922","distractor":"98922","target":"absent","response":"absent","rt":"3491.9000000954","correct":true,"confidence":4},{"trial_n":70,"span":5,"encoder":"49725","distractor":"43725","target":"present","response":"present","rt":"2743.2000000477","correct":true,"confidence":3},{"trial_n":71,"span":8,"encoder":"55885392","distractor":"55885342","target":"present","response":"present","rt":"14527.400000095","correct":true,"confidence":-1},{"trial_n":72,"span":8,"encoder":"21359264","distractor":"21959264","target":"present","response":"absent","rt":"811.90000009537","correct":false,"confidence":-1},{"trial_n":73,"span":7,"encoder":"6043841","distractor":"9043841","target":"absent","response":"present","rt":"376.29999995232","correct":false,"confidence":-1},{"trial_n":74,"span":6,"encoder":"367622","distractor":"366622","target":"absent","response":"present","rt":"360.20000004768","correct":false,"confidence":-1},{"trial_n":75,"span":5,"encoder":"74436","distractor":"04436","target":"present","response":"absent","rt":"700.10000014305","correct":false,"confidence":-1},{"trial_n":76,"span":4,"encoder":"5212","distractor":"1212","target":"absent","response":"present","rt":"488.40000009537","correct":false,"confidence":-1},{"trial_n":77,"span":3,"encoder":"111","distractor":"511","target":"absent","response":"absent","rt":"524.39999985695","correct":true,"confidence":-1},{"trial_n":78,"span":3,"encoder":"849","distractor":"879","target":"present","response":"present","rt":"671.60000014305","correct":true,"confidence":-1},{"trial_n":79,"span":4,"encoder":"7225","distractor":"7255","target":"present","response":"present","rt":"455.70000004768","correct":true,"confidence":-1},{"trial_n":80,"span":4,"encoder":"4302","distractor":"4322","target":"present","response":"present","rt":"527.20000004768","correct":true,"confidence":-1},{"trial_n":81,"span":5,"encoder":"12628","distractor":"12622","target":"absent","response":"absent","rt":"855.09999990463","correct":true,"confidence":-1},{"trial_n":82,"span":5,"encoder":"52622","distractor":"52122","target":"absent","response":"present","rt":"516","correct":false,"confidence":-1},{"trial_n":83,"span":4,"encoder":"0624","distractor":"0604","target":"absent","response":"absent","rt":"534.29999995232","correct":true,"confidence":-1},{"trial_n":84,"span":4,"encoder":"1615","distractor":"1415","target":"present","response":"absent","rt":"465.79999995232","correct":false,"confidence":-1},{"trial_n":85,"span":3,"encoder":"277","distractor":"177","target":"absent","response":"present","rt":"368","correct":false,"confidence":-1},{"trial_n":86,"span":2,"encoder":"96","distractor":"46","target":"present","response":"absent","rt":"530.09999990463","correct":false,"confidence":-1},{"trial_n":87,"span":2,"encoder":"81","distractor":"91","target":"present","response":"absent","rt":"626.39999985695","correct":false,"confidence":-1},{"trial_n":88,"span":2,"encoder":"50","distractor":"52","target":"absent","response":"absent","rt":"438.90000009537","correct":true,"confidence":-1},{"trial_n":89,"span":2,"encoder":"12","distractor":"15","target":"absent","response":"absent","rt":"494.29999995232","correct":true,"confidence":-1},{"trial_n":90,"span":3,"encoder":"375","distractor":"325","target":"absent","response":"present","rt":"327.70000004768","correct":false,"confidence":-1},{"trial_n":91,"span":2,"encoder":"69","distractor":"63","target":"absent","response":"present","rt":"2148.4000000954","correct":false,"confidence":1},{"trial_n":92,"span":2,"encoder":"40","distractor":"70","target":"absent","response":"present","rt":"5363.2000000477","correct":false,"confidence":3},{"trial_n":93,"span":2,"encoder":"43","distractor":"46","target":"present","response":"present","rt":"2968.4000000954","correct":true,"confidence":5},{"trial_n":94,"span":2,"encoder":"66","distractor":"67","target":"present","response":"present","rt":"2573.5","correct":true,"confidence":4},{"trial_n":95,"span":3,"encoder":"360","distractor":"660","target":"absent","response":"present","rt":"5452.8000001907","correct":false,"confidence":1},{"trial_n":96,"span":2,"encoder":"81","distractor":"83","target":"present","response":"present","rt":"2953.5","correct":true,"confidence":3},{"trial_n":97,"span":2,"encoder":"36","distractor":"46","target":"present","response":"present","rt":"1563.3000001907","correct":true,"confidence":3},{"trial_n":98,"span":3,"encoder":"361","distractor":"311","target":"present","response":"present","rt":"1381","correct":true,"confidence":2},{"trial_n":99,"span":3,"encoder":"004","distractor":"404","target":"absent","response":"present","rt":"3739","correct":false,"confidence":1},{"trial_n":100,"span":2,"encoder":"13","distractor":"93","target":"present","response":"present","rt":"2958","correct":true,"confidence":3},{"trial_n":101,"span":2,"encoder":"35","distractor":"30","target":"present","response":"present","rt":"1349.5999999046","correct":true,"confidence":5},{"trial_n":102,"span":3,"encoder":"864","distractor":"664","target":"absent","response":"absent","rt":"1985","correct":true,"confidence":5},{"trial_n":103,"span":3,"encoder":"949","distractor":"945","target":"absent","response":"present","rt":"9274.2000000477","correct":false,"confidence":1},{"trial_n":104,"span":2,"encoder":"70","distractor":"79","target":"present","response":"present","rt":"3127.7000000477","correct":true,"confidence":3},{"trial_n":105,"span":2,"encoder":"87","distractor":"37","target":"present","response":"present","rt":"11789.5","correct":true,"confidence":1},{"trial_n":106,"span":3,"encoder":"860","distractor":"890","target":"present","response":"present","rt":"9774.3999998569","correct":true,"confidence":3},{"trial_n":107,"span":3,"encoder":"365","distractor":"355","target":"absent","response":"absent","rt":"4140.6000001431","correct":true,"confidence":3},{"trial_n":108,"span":4,"encoder":"4186","distractor":"6186","target":"absent","response":"absent","rt":"5731","correct":true,"confidence":1},{"trial_n":109,"span":4,"encoder":"0954","distractor":"4954","target":"present","response":"present","rt":"3713","correct":true,"confidence":4},{"trial_n":110,"span":5,"encoder":"43973","distractor":"43273","target":"absent","response":"absent","rt":"4781.7999999523","correct":true,"confidence":3},{"trial_n":111,"span":5,"encoder":"03293","distractor":"73293","target":"absent","response":"absent","rt":"3442.6000001431","correct":true,"confidence":4},{"trial_n":112,"span":6,"encoder":"620371","distractor":"620341","target":"present","response":"absent","rt":"29107.800000191","correct":false,"confidence":1},{"trial_n":113,"span":5,"encoder":"05549","distractor":"05149","target":"absent","response":"absent","rt":"7041.1999998093","correct":true,"confidence":5},{"trial_n":114,"span":5,"encoder":"47644","distractor":"47244","target":"present","response":"present","rt":"36409.700000048","correct":true,"confidence":4},{"trial_n":115,"span":6,"encoder":"653281","distractor":"753281","target":"absent","response":"absent","rt":"3511.2000000477","correct":true,"confidence":3},{"trial_n":116,"span":6,"encoder":"851601","distractor":"851651","target":"present","response":"present","rt":"4001","correct":true,"confidence":4},{"trial_n":117,"span":7,"encoder":"8040638","distractor":"8040938","target":"present","response":"present","rt":"4373.7000000477","correct":true,"confidence":3},{"trial_n":118,"span":7,"encoder":"2669509","distractor":"2662509","target":"absent","response":"absent","rt":"6782.8999998569","correct":true,"confidence":3},{"trial_n":119,"span":8,"encoder":"02609752","distractor":"02609756","target":"absent","response":"absent","rt":"11534.400000095","correct":true,"confidence":2},{"trial_n":120,"span":8,"encoder":"93820249","distractor":"93920249","target":"present","response":"absent","rt":"6077.6000001431","correct":false,"confidence":3},{"trial_n":121,"span":7,"encoder":"2244035","distractor":"2234035","target":"present","response":"present","rt":"6537","correct":true,"confidence":3},{"trial_n":122,"span":7,"encoder":"9608010","distractor":"9608810","target":"absent","response":"present","rt":"2402.2000000477","correct":false,"confidence":3},{"trial_n":123,"span":6,"encoder":"700485","distractor":"500485","target":"absent","response":"absent","rt":"2637.0999999046","correct":true,"confidence":4},{"trial_n":124,"span":6,"encoder":"005447","distractor":"005441","target":"present","response":"present","rt":"2341.6000001431","correct":true,"confidence":5},{"trial_n":125,"span":7,"encoder":"5524041","distractor":"5524081","target":"absent","response":"present","rt":"4346","correct":false,"confidence":1},{"trial_n":126,"span":6,"encoder":"268745","distractor":"268741","target":"present","response":"present","rt":"7482.7000000477","correct":true,"confidence":1},{"trial_n":127,"span":6,"encoder":"817977","distractor":"887977","target":"present","response":"present","rt":"3465.4000000954","correct":true,"confidence":3},{"trial_n":128,"span":7,"encoder":"9403878","distractor":"4403878","target":"present","response":"present","rt":"15008","correct":true,"confidence":1},{"trial_n":129,"span":7,"encoder":"2560335","distractor":"2560535","target":"absent","response":"absent","rt":"6387","correct":true,"confidence":1},{"trial_n":130,"span":8,"encoder":"66248400","distractor":"62248400","target":"absent","response":"present","rt":"10992","correct":false,"confidence":2},{"trial_n":131,"span":7,"encoder":"0675997","distractor":"0675907","target":"present","response":"present","rt":"736.90000009537","correct":true,"confidence":2},{"trial_n":132,"span":7,"encoder":"4239249","distractor":"4239242","target":"absent","response":"present","rt":"2262.5999999046","correct":false,"confidence":2},{"trial_n":133,"span":6,"encoder":"465837","distractor":"465937","target":"present","response":"absent","rt":"1351.2999999523","correct":false,"confidence":2},{"trial_n":134,"span":5,"encoder":"05651","distractor":"05051","target":"absent","response":"present","rt":"4194.2999999523","correct":false,"confidence":2},{"trial_n":135,"span":4,"encoder":"5721","distractor":"1721","target":"present","response":"present","rt":"2606.2999999523","correct":true,"confidence":3},{"trial_n":136,"span":4,"encoder":"6404","distractor":"6409","target":"present","response":"present","rt":"2144","correct":true,"confidence":5},{"trial_n":137,"span":5,"encoder":"34166","distractor":"34168","target":"absent","response":"absent","rt":"8204.4000000954","correct":true,"confidence":4},{"trial_n":138,"span":5,"encoder":"57658","distractor":"57650","target":"absent","response":"absent","rt":"5118.7000000477","correct":true,"confidence":5},{"trial_n":139,"span":6,"encoder":"110944","distractor":"110904","target":"present","response":"absent","rt":"4927.5","correct":false,"confidence":4},{"trial_n":140,"span":5,"encoder":"07569","distractor":"03569","target":"present","response":"present","rt":"2665.0999999046","correct":true,"confidence":4}]