[{"trial_n":1,"span":8,"encoder":"71648814","distractor":"72648814","target":"present","response":"present","rt":"2972.5999999046","correct":true,"confidence":-1},{"trial_n":2,"span":8,"encoder":"33089205","distractor":"33029205","target":"present","response":"present","rt":"1759.7000002861","correct":true,"confidence":-1},{"trial_n":3,"span":10,"encoder":"1273526381","distractor":"1273726381","target":"absent","response":"present","rt":"1371.3000001907","correct":false,"confidence":-1},{"trial_n":4,"span":8,"encoder":"66387351","distractor":"66387357","target":"absent","response":"absent","rt":"2715.0999999046","correct":true,"confidence":-1},{"trial_n":5,"span":8,"encoder":"47587652","distractor":"07587652","target":"present","response":"present","rt":"1915.0999999046","correct":true,"confidence":-1},{"trial_n":6,"span":10,"encoder":"3619307998","distractor":"3619347998","target":"present","response":"present","rt":"2932.4000000954","correct":true,"confidence":-1},{"trial_n":7,"span":10,"encoder":"1594314115","distractor":"1594314715","target":"absent","response":"absent","rt":"1569.8999996185","correct":true,"confidence":-1},{"trial_n":8,"span":12,"encoder":"559559198013","distractor":"559559198093","target":"absent","response":"absent","rt":"1479.3000001907","correct":true,"confidence":-1},{"trial_n":9,"span":12,"encoder":"191739249208","distractor":"191739289208","target":"absent","response":"present","rt":"1219","correct":false,"confidence":-1},{"trial_n":10,"span":10,"encoder":"1488034524","distractor":"1488034584","target":"absent","response":"absent","rt":"2610","correct":true,"confidence":-1},{"trial_n":11,"span":10,"encoder":"6343123430","distractor":"4343123430","target":"absent","response":"present","rt":"2116.3000001907","correct":false,"confidence":-1},{"trial_n":12,"span":9,"encoder":"269045483","distractor":"269045473","target":"absent","response":"absent","rt":"1972.6999998093","correct":true,"confidence":-1},{"trial_n":13,"span":9,"encoder":"177664207","distractor":"377664207","target":"absent","response":"present","rt":"1501.5999999046","correct":false,"confidence":-1},{"trial_n":14,"span":8,"encoder":"93514009","distractor":"93510009","target":"present","response":"present","rt":"1175.7999997139","correct":true,"confidence":-1},{"trial_n":15,"span":8,"encoder":"78194106","distractor":"78124106","target":"present","response":"present","rt":"1243.1999998093","correct":true,"confidence":-1},{"trial_n":16,"span":9,"encoder":"774755123","distractor":"774705123","target":"absent","response":"absent","rt":"1699","correct":true,"confidence":-1},{"trial_n":17,"span":9,"encoder":"419709160","distractor":"419739160","target":"present","response":"present","rt":"1526.4000000954","correct":true,"confidence":-1},{"trial_n":18,"span":10,"encoder":"5612863820","distractor":"5612853820","target":"present","response":"present","rt":"2919.6999998093","correct":true,"confidence":-1},{"trial_n":19,"span":10,"encoder":"8866059604","distractor":"8866039604","target":"present","response":"present","rt":"1684.9000000954","correct":true,"confidence":-1},{"trial_n":20,"span":11,"encoder":"24825403698","distractor":"24825413698","target":"absent","response":"absent","rt":"2133.6999998093","correct":true,"confidence":-1},{"trial_n":21,"span":11,"encoder":"66059076158","distractor":"66059066158","target":"present","response":"present","rt":"1566","correct":true,"confidence":4},{"trial_n":22,"span":12,"encoder":"613811126939","distractor":"613811122939","target":"absent","response":"absent","rt":"3089.8999996185","correct":true,"confidence":3},{"trial_n":23,"span":12,"encoder":"382154858219","distractor":"332154858219","target":"absent","response":"present","rt":"2502","correct":false,"confidence":5},{"trial_n":24,"span":11,"encoder":"72614297813","distractor":"72614297213","target":"present","response":"present","rt":"1686","correct":true,"confidence":4},{"trial_n":25,"span":11,"encoder":"03595727983","distractor":"03595727987","target":"absent","response":"absent","rt":"2720.7999997139","correct":true,"confidence":4},{"trial_n":26,"span":12,"encoder":"296615606468","distractor":"266615606468","target":"present","response":"present","rt":"2324.0999999046","correct":true,"confidence":3},{"trial_n":27,"span":12,"encoder":"279252990451","distractor":"279552990451","target":"present","response":"present","rt":"1283.2999997139","correct":true,"confidence":2},{"trial_n":28,"span":13,"encoder":"9208611769701","distractor":"9208611769731","target":"present","response":"present","rt":"1707.0999999046","correct":true,"confidence":4},{"trial_n":29,"span":13,"encoder":"6429010456272","distractor":"6499010456272","target":"present","response":"present","rt":"1434.7999997139","correct":true,"confidence":2},{"trial_n":30,"span":14,"encoder":"42492471997349","distractor":"42492471997749","target":"absent","response":"absent","rt":"2230.4000000954","correct":true,"confidence":4},{"trial_n":31,"span":14,"encoder":"83745199301631","distractor":"83735199301631","target":"present","response":"present","rt":"1977.3000001907","correct":true,"confidence":5},{"trial_n":32,"span":15,"encoder":"583077214193002","distractor":"583077214193102","target":"absent","response":"present","rt":"2292.6999998093","correct":false,"confidence":3},{"trial_n":33,"span":14,"encoder":"61283185159043","distractor":"61283185159048","target":"present","response":"present","rt":"2027.9000000954","correct":true,"confidence":3},{"trial_n":34,"span":14,"encoder":"73375994594650","distractor":"73325994594650","target":"present","response":"present","rt":"2064.2999997139","correct":true,"confidence":4},{"trial_n":35,"span":15,"encoder":"399860768646110","distractor":"399860368646110","target":"absent","response":"present","rt":"2605.8000001907","correct":false,"confidence":5},{"trial_n":36,"span":14,"encoder":"63089147000762","distractor":"63089117000762","target":"absent","response":"present","rt":"2131.5","correct":false,"confidence":3},{"trial_n":37,"span":13,"encoder":"5976198250421","distractor":"5976598250421","target":"present","response":"present","rt":"3957.5","correct":true,"confidence":5},{"trial_n":38,"span":13,"encoder":"5052098242964","distractor":"5052098202964","target":"present","response":"present","rt":"3556.5","correct":true,"confidence":5},{"trial_n":39,"span":14,"encoder":"64592182120926","distractor":"67592182120926","target":"present","response":"present","rt":"1304.6999998093","correct":true,"confidence":2},{"trial_n":40,"span":14,"encoder":"45172167824454","distractor":"45172167824754","target":"present","response":"present","rt":"2933.3000001907","correct":true,"confidence":4},{"trial_n":41,"span":15,"encoder":"066998118619099","distractor":"966998118619099","target":"absent","response":"absent","rt":"1850","correct":true,"confidence":5},{"trial_n":42,"span":15,"encoder":"958957564943805","distractor":"958957564043805","target":"present","response":"present","rt":"2507.1000003815","correct":true,"confidence":4},{"trial_n":43,"span":16,"encoder":"9245433968784828","distractor":"9645433968784828","target":"present","response":"present","rt":"2505.7999997139","correct":true,"confidence":3},{"trial_n":44,"span":16,"encoder":"2468307561673604","distractor":"2468307361673604","target":"absent","response":"present","rt":"2519.3000001907","correct":false,"confidence":4},{"trial_n":45,"span":15,"encoder":"393843995905778","distractor":"393843995905178","target":"present","response":"present","rt":"2440.5","correct":true,"confidence":4},{"trial_n":46,"span":15,"encoder":"812084008647514","distractor":"812084002647514","target":"absent","response":"present","rt":"2340.1999998093","correct":false,"confidence":4},{"trial_n":47,"span":14,"encoder":"05676752895465","distractor":"05676752855465","target":"absent","response":"present","rt":"2078.1999998093","correct":false,"confidence":4},{"trial_n":48,"span":13,"encoder":"7524123971067","distractor":"7524123971060","target":"present","response":"present","rt":"2641.0999999046","correct":true,"confidence":4},{"trial_n":49,"span":13,"encoder":"8622027984106","distractor":"8622027980106","target":"absent","response":"present","rt":"2424.7000002861","correct":false,"confidence":5},{"trial_n":50,"span":12,"encoder":"627315911612","distractor":"627312911612","target":"present","response":"present","rt":"2465.8000001907","correct":true,"confidence":4},{"trial_n":51,"span":12,"encoder":"652296933356","distractor":"652296933355","target":"present","response":"present","rt":"1407.6999998093","correct":true,"confidence":5},{"trial_n":52,"span":13,"encoder":"6486888114237","distractor":"6486888514237","target":"present","response":"present","rt":"2268.7999997139","correct":true,"confidence":5},{"trial_n":53,"span":13,"encoder":"4881322596267","distractor":"4881322796267","target":"absent","response":"present","rt":"2756.8000001907","correct":false,"confidence":4},{"trial_n":54,"span":12,"encoder":"461464720669","distractor":"481464720669","target":"absent","response":"present","rt":"1621.6999998093","correct":false,"confidence":3},{"trial_n":55,"span":11,"encoder":"86620448121","distractor":"86620448221","target":"present","response":"present","rt":"3274.0999999046","correct":true,"confidence":4},{"trial_n":56,"span":11,"encoder":"11467884570","distractor":"11467884575","target":"present","response":"present","rt":"1694.2000002861","correct":true,"confidence":4},{"trial_n":57,"span":12,"encoder":"137530485604","distractor":"137530455604","target":"absent","response":"present","rt":"3712.1999998093","correct":false,"confidence":4},{"trial_n":58,"span":11,"encoder":"31822453677","distractor":"31422453677","target":"present","response":"absent","rt":"3009.0999999046","correct":false,"confidence":4},{"trial_n":59,"span":10,"encoder":"7585659435","distractor":"7285659435","target":"present","response":"present","rt":"2206.8000001907","correct":true,"confidence":4},{"trial_n":60,"span":10,"encoder":"6042994110","distractor":"6042994810","target":"present","response":"present","rt":"2140.2999997139","correct":true,"confidence":5},{"trial_n":61,"span":11,"encoder":"33196233131","distractor":"33194233131","target":"absent","response":"present","rt":"1939.5","correct":false,"confidence":4},{"trial_n":62,"span":10,"encoder":"4049239398","distractor":"4049239598","target":"absent","response":"present","rt":"1967.7000002861","correct":false,"confidence":3},{"trial_n":63,"span":9,"encoder":"350442848","distractor":"650442848","target":"absent","response":"present","rt":"1271.5999999046","correct":false,"confidence":3},{"trial_n":64,"span":8,"encoder":"25681829","distractor":"25681729","target":"present","response":"present","rt":"1429.8000001907","correct":true,"confidence":3},{"trial_n":65,"span":8,"encoder":"14096194","distractor":"14896194","target":"absent","response":"present","rt":"1494.7000002861","correct":false,"confidence":5},{"trial_n":66,"span":7,"encoder":"9757211","distractor":"9757217","target":"absent","response":"absent","rt":"1647.7999997139","correct":true,"confidence":5},{"trial_n":67,"span":7,"encoder":"8795046","distractor":"8798046","target":"absent","response":"absent","rt":"2130.5999999046","correct":true,"confidence":2},{"trial_n":68,"span":8,"encoder":"65304171","distractor":"65364171","target":"absent","response":"present","rt":"1262.0999999046","correct":false,"confidence":4},{"trial_n":69,"span":7,"encoder":"5917557","distractor":"5917657","target":"present","response":"present","rt":"1440","correct":true,"confidence":5},{"trial_n":70,"span":7,"encoder":"9184148","distractor":"9384148","target":"absent","response":"absent","rt":"3657.1999998093","correct":true,"confidence":4},{"trial_n":71,"span":8,"encoder":"39513865","distractor":"39513855","target":"present","response":"present","rt":"1875","correct":true,"confidence":-1},{"trial_n":72,"span":8,"encoder":"30152474","distractor":"30152414","target":"present","response":"absent","rt":"589.30000019073","correct":false,"confidence":-1},{"trial_n":73,"span":7,"encoder":"1687353","distractor":"1677353","target":"absent","response":"absent","rt":"1720","correct":true,"confidence":-1},{"trial_n":74,"span":7,"encoder":"1864511","distractor":"5864511","target":"absent","response":"absent","rt":"932.2999997139","correct":true,"confidence":-1},{"trial_n":75,"span":8,"encoder":"23772970","distractor":"23772974","target":"present","response":"absent","rt":"2318.5999999046","correct":false,"confidence":-1},{"trial_n":76,"span":7,"encoder":"1228552","distractor":"9228552","target":"absent","response":"absent","rt":"1638.9000000954","correct":true,"confidence":-1},{"trial_n":77,"span":7,"encoder":"0554284","distractor":"0554234","target":"present","response":"present","rt":"3015","correct":true,"confidence":-1},{"trial_n":78,"span":8,"encoder":"78155671","distractor":"78155971","target":"absent","response":"absent","rt":"649.40000009537","correct":true,"confidence":-1},{"trial_n":79,"span":8,"encoder":"97387888","distractor":"97384888","target":"absent","response":"present","rt":"1188.5","correct":false,"confidence":-1},{"trial_n":80,"span":7,"encoder":"4880410","distractor":"4880440","target":"present","response":"present","rt":"1623.7999997139","correct":true,"confidence":-1},{"trial_n":81,"span":7,"encoder":"3621457","distractor":"3629457","target":"absent","response":"absent","rt":"1390.4000000954","correct":true,"confidence":-1},{"trial_n":82,"span":8,"encoder":"59131882","distractor":"59131482","target":"present","response":"absent","rt":"1422.7999997139","correct":false,"confidence":-1},{"trial_n":83,"span":7,"encoder":"8223998","distractor":"8323998","target":"present","response":"present","rt":"3391.1999998093","correct":true,"confidence":-1},{"trial_n":84,"span":7,"encoder":"7662317","distractor":"7622317","target":"absent","response":"present","rt":"2199.2000002861","correct":false,"confidence":-1},{"trial_n":85,"span":6,"encoder":"548909","distractor":"541909","target":"absent","response":"present","rt":"903.69999980927","correct":false,"confidence":-1},{"trial_n":86,"span":5,"encoder":"03478","distractor":"33478","target":"absent","response":"absent","rt":"1796.6999998093","correct":true,"confidence":-1},{"trial_n":87,"span":5,"encoder":"40779","distractor":"40775","target":"present","response":"present","rt":"1427.3000001907","correct":true,"confidence":-1},{"trial_n":88,"span":6,"encoder":"495025","distractor":"490025","target":"absent","response":"absent","rt":"2032.2999997139","correct":true,"confidence":-1},{"trial_n":89,"span":6,"encoder":"805988","distractor":"805985","target":"present","response":"present","rt":"1687.2999997139","correct":true,"confidence":-1},{"trial_n":90,"span":7,"encoder":"4436586","distractor":"4436526","target":"present","response":"present","rt":"1705.2999997139","correct":true,"confidence":-1},{"trial_n":91,"span":7,"encoder":"2704400","distractor":"2704403","target":"present","response":"present","rt":"1084.5999999046","correct":true,"confidence":4},{"trial_n":92,"span":8,"encoder":"53325632","distractor":"53315632","target":"absent","response":"present","rt":"1040.5","correct":false,"confidence":3},{"trial_n":93,"span":7,"encoder":"1121565","distractor":"1125565","target":"present","response":"present","rt":"3587.1999998093","correct":true,"confidence":4},{"trial_n":94,"span":7,"encoder":"0784368","distractor":"0781368","target":"absent","response":"present","rt":"1133.8000001907","correct":false,"confidence":2},{"trial_n":95,"span":6,"encoder":"086106","distractor":"086116","target":"present","response":"present","rt":"2190.0999999046","correct":true,"confidence":1},{"trial_n":96,"span":6,"encoder":"052497","distractor":"052397","target":"present","response":"present","rt":"1307.2000002861","correct":true,"confidence":1},{"trial_n":97,"span":7,"encoder":"4121215","distractor":"4121815","target":"absent","response":"absent","rt":"1871.7999997139","correct":true,"confidence":4},{"trial_n":98,"span":7,"encoder":"3813440","distractor":"3813441","target":"present","response":"present","rt":"924.5","correct":true,"confidence":3},{"trial_n":99,"span":8,"encoder":"55523585","distractor":"55593585","target":"absent","response":"absent","rt":"2890.9000000954","correct":true,"confidence":1},{"trial_n":100,"span":8,"encoder":"70504530","distractor":"70504830","target":"absent","response":"present","rt":"3075.9000000954","correct":false,"confidence":1},{"trial_n":101,"span":7,"encoder":"7518560","distractor":"7513560","target":"present","response":"present","rt":"2261.5","correct":true,"confidence":5},{"trial_n":102,"span":7,"encoder":"6545225","distractor":"6544225","target":"absent","response":"present","rt":"4022.7999997139","correct":false,"confidence":1},{"trial_n":103,"span":6,"encoder":"908868","distractor":"908268","target":"absent","response":"absent","rt":"1780.0999999046","correct":true,"confidence":5},{"trial_n":104,"span":6,"encoder":"866219","distractor":"846219","target":"present","response":"present","rt":"1757.7999997139","correct":true,"confidence":5},{"trial_n":105,"span":7,"encoder":"6374981","distractor":"2374981","target":"absent","response":"absent","rt":"2125.2999997139","correct":true,"confidence":1},{"trial_n":106,"span":7,"encoder":"5909372","distractor":"5909370","target":"present","response":"present","rt":"1738.7999997139","correct":true,"confidence":5},{"trial_n":107,"span":8,"encoder":"85764867","distractor":"85760867","target":"absent","response":"present","rt":"4813.5","correct":false,"confidence":1},{"trial_n":108,"span":7,"encoder":"8806338","distractor":"8896338","target":"absent","response":"absent","rt":"2337.6000003815","correct":true,"confidence":4},{"trial_n":109,"span":7,"encoder":"4486261","distractor":"4496261","target":"absent","response":"absent","rt":"1334.9000000954","correct":true,"confidence":5},{"trial_n":110,"span":8,"encoder":"61274354","distractor":"61274351","target":"absent","response":"absent","rt":"4556.1999998093","correct":true,"confidence":1},{"trial_n":111,"span":8,"encoder":"64005719","distractor":"64000719","target":"absent","response":"absent","rt":"2839.5999999046","correct":true,"confidence":3},{"trial_n":112,"span":9,"encoder":"252834173","distractor":"252834773","target":"absent","response":"absent","rt":"1349.7000002861","correct":true,"confidence":5},{"trial_n":113,"span":9,"encoder":"878603557","distractor":"878203557","target":"absent","response":"absent","rt":"1503.8000001907","correct":true,"confidence":2},{"trial_n":114,"span":10,"encoder":"1996116769","distractor":"1996117769","target":"present","response":"present","rt":"4403.2999997139","correct":true,"confidence":3},{"trial_n":115,"span":10,"encoder":"4971603553","distractor":"4971608553","target":"present","response":"present","rt":"5432.4000000954","correct":true,"confidence":3},{"trial_n":116,"span":11,"encoder":"69270195266","distractor":"60270195266","target":"absent","response":"present","rt":"1485.5","correct":false,"confidence":1},{"trial_n":117,"span":10,"encoder":"6847946380","distractor":"6847046380","target":"present","response":"absent","rt":"5604.2999997139","correct":false,"confidence":3},{"trial_n":118,"span":9,"encoder":"054958216","distractor":"054958215","target":"present","response":"present","rt":"3572","correct":true,"confidence":4},{"trial_n":119,"span":9,"encoder":"594087074","distractor":"596087074","target":"present","response":"present","rt":"3371.4000000954","correct":true,"confidence":4},{"trial_n":120,"span":10,"encoder":"7212702053","distractor":"7212302053","target":"present","response":"present","rt":"3271.5","correct":true,"confidence":4},{"trial_n":121,"span":10,"encoder":"9917455658","distractor":"9917455958","target":"present","response":"present","rt":"1856.0999999046","correct":true,"confidence":4},{"trial_n":122,"span":11,"encoder":"30520778337","distractor":"30520768337","target":"absent","response":"absent","rt":"2690.5999999046","correct":true,"confidence":4},{"trial_n":123,"span":11,"encoder":"34792326287","distractor":"34892326287","target":"present","response":"absent","rt":"2878.4000000954","correct":false,"confidence":1},{"trial_n":124,"span":10,"encoder":"9140628070","distractor":"9140628470","target":"absent","response":"absent","rt":"3222.2999997139","correct":true,"confidence":3},{"trial_n":125,"span":10,"encoder":"1842847073","distractor":"1842847071","target":"absent","response":"absent","rt":"1304.4000000954","correct":true,"confidence":5},{"trial_n":126,"span":11,"encoder":"50783487839","distractor":"50703487839","target":"absent","response":"absent","rt":"2406","correct":true,"confidence":3},{"trial_n":127,"span":11,"encoder":"59856833130","distractor":"59856832130","target":"absent","response":"present","rt":"2745.5999999046","correct":false,"confidence":2},{"trial_n":128,"span":10,"encoder":"2729497492","distractor":"2739497492","target":"present","response":"present","rt":"2825.9000000954","correct":true,"confidence":2},{"trial_n":129,"span":10,"encoder":"9587784474","distractor":"2587784474","target":"present","response":"present","rt":"4188.3000001907","correct":true,"confidence":5},{"trial_n":130,"span":11,"encoder":"20545142481","distractor":"20549142481","target":"present","response":"present","rt":"3181.0999999046","correct":true,"confidence":3},{"trial_n":131,"span":11,"encoder":"03863335233","distractor":"03863335235","target":"present","response":"present","rt":"4709.7000002861","correct":true,"confidence":2},{"trial_n":132,"span":12,"encoder":"753159272922","distractor":"753159272962","target":"absent","response":"absent","rt":"1658.4000000954","correct":true,"confidence":5},{"trial_n":133,"span":12,"encoder":"182426533315","distractor":"142426533315","target":"present","response":"present","rt":"1753.2000002861","correct":true,"confidence":2},{"trial_n":134,"span":13,"encoder":"7585632858545","distractor":"7588632858545","target":"absent","response":"present","rt":"2608.6999998093","correct":false,"confidence":1},{"trial_n":135,"span":12,"encoder":"474673004752","distractor":"474673004852","target":"present","response":"present","rt":"4494.6999998093","correct":true,"confidence":2},{"trial_n":136,"span":12,"encoder":"702371086998","distractor":"702071086998","target":"present","response":"present","rt":"3071.3000001907","correct":true,"confidence":4},{"trial_n":137,"span":13,"encoder":"9345596636047","distractor":"9347596636047","target":"present","response":"present","rt":"6196.5","correct":true,"confidence":4},{"trial_n":138,"span":13,"encoder":"4707634388127","distractor":"4707634387127","target":"absent","response":"present","rt":"6353","correct":false,"confidence":1},{"trial_n":139,"span":12,"encoder":"191692993352","distractor":"191696993352","target":"present","response":"present","rt":"2983","correct":true,"confidence":2},{"trial_n":140,"span":12,"encoder":"638335829660","distractor":"638335829669","target":"present","response":"present","rt":"1304.2999997139","correct":true,"confidence":1}]