[{"trial_n":1,"min":25,"max":230,"target":"present","response":"present","rt":8899.6999999881,"correct":true,"confidence":-1},{"trial_n":2,"min":25,"max":230,"target":"present","response":"present","rt":1321.599999994,"correct":true,"confidence":-1},{"trial_n":3,"min":41,"max":214,"target":"absent","response":"absent","rt":1002.400000006,"correct":true,"confidence":-1},{"trial_n":4,"min":41,"max":214,"target":"absent","response":"present","rt":569.30000001192,"correct":false,"confidence":-1},{"trial_n":5,"min":25,"max":230,"target":"present","response":"present","rt":669.40000000596,"correct":true,"confidence":-1},{"trial_n":6,"min":25,"max":230,"target":"absent","response":"absent","rt":436.40000000596,"correct":true,"confidence":-1},{"trial_n":7,"min":41,"max":214,"target":"absent","response":"absent","rt":597,"correct":true,"confidence":-1},{"trial_n":8,"min":41,"max":214,"target":"absent","response":"absent","rt":382.30000001192,"correct":true,"confidence":-1},{"trial_n":9,"min":57,"max":198,"target":"present","response":"present","rt":295.29999998212,"correct":true,"confidence":-1},{"trial_n":10,"min":57,"max":198,"target":"present","response":"absent","rt":274.40000000596,"correct":false,"confidence":-1},{"trial_n":11,"min":49,"max":206,"target":"absent","response":"absent","rt":742.30000001192,"correct":true,"confidence":-1},{"trial_n":12,"min":49,"max":206,"target":"present","response":"present","rt":470.09999999404,"correct":true,"confidence":-1},{"trial_n":13,"min":57,"max":198,"target":"absent","response":"absent","rt":797.5,"correct":true,"confidence":-1},{"trial_n":14,"min":57,"max":198,"target":"present","response":"present","rt":371.39999997616,"correct":true,"confidence":-1},{"trial_n":15,"min":65,"max":190,"target":"absent","response":"absent","rt":387.80000001192,"correct":true,"confidence":-1},{"trial_n":16,"min":65,"max":190,"target":"absent","response":"absent","rt":403.40000000596,"correct":true,"confidence":-1},{"trial_n":17,"min":73,"max":182,"target":"present","response":"absent","rt":484,"correct":false,"confidence":-1},{"trial_n":18,"min":65,"max":190,"target":"absent","response":"absent","rt":350.30000001192,"correct":true,"confidence":-1},{"trial_n":19,"min":65,"max":190,"target":"present","response":"present","rt":435.20000001788,"correct":true,"confidence":-1},{"trial_n":20,"min":73,"max":182,"target":"absent","response":"absent","rt":501.70000001788,"correct":true,"confidence":-1},{"trial_n":21,"min":73,"max":182,"target":"present","response":"present","rt":971.19999998808,"correct":true,"confidence":3},{"trial_n":22,"min":77,"max":178,"target":"present","response":"absent","rt":2766.5,"correct":false,"confidence":2},{"trial_n":23,"min":73,"max":182,"target":"present","response":"absent","rt":796.30000001192,"correct":false,"confidence":4},{"trial_n":24,"min":69,"max":186,"target":"present","response":"present","rt":1137.6999999881,"correct":true,"confidence":5},{"trial_n":25,"min":69,"max":186,"target":"absent","response":"absent","rt":1382.099999994,"correct":true,"confidence":4},{"trial_n":26,"min":73,"max":182,"target":"present","response":"present","rt":825.90000000596,"correct":true,"confidence":4},{"trial_n":27,"min":73,"max":182,"target":"absent","response":"absent","rt":706.5,"correct":true,"confidence":4},{"trial_n":28,"min":77,"max":178,"target":"present","response":"present","rt":967.5,"correct":true,"confidence":3},{"trial_n":29,"min":77,"max":178,"target":"absent","response":"absent","rt":804.70000001788,"correct":true,"confidence":4},{"trial_n":30,"min":81,"max":174,"target":"absent","response":"absent","rt":744.5,"correct":true,"confidence":5},{"trial_n":31,"min":81,"max":174,"target":"present","response":"present","rt":1465.6999999881,"correct":true,"confidence":4},{"trial_n":32,"min":83,"max":172,"target":"present","response":"absent","rt":737,"correct":false,"confidence":4},{"trial_n":33,"min":81,"max":174,"target":"absent","response":"absent","rt":702.09999999404,"correct":true,"confidence":5},{"trial_n":34,"min":81,"max":174,"target":"absent","response":"absent","rt":1302.400000006,"correct":true,"confidence":5},{"trial_n":35,"min":83,"max":172,"target":"present","response":"absent","rt":960.40000000596,"correct":false,"confidence":5},{"trial_n":36,"min":81,"max":174,"target":"absent","response":"absent","rt":775.39999997616,"correct":true,"confidence":5},{"trial_n":37,"min":81,"max":174,"target":"present","response":"present","rt":619,"correct":true,"confidence":3},{"trial_n":38,"min":83,"max":172,"target":"present","response":"present","rt":592,"correct":true,"confidence":3},{"trial_n":39,"min":83,"max":172,"target":"absent","response":"absent","rt":629,"correct":true,"confidence":4},{"trial_n":40,"min":85,"max":170,"target":"present","response":"present","rt":610,"correct":true,"confidence":5},{"trial_n":41,"min":85,"max":170,"target":"absent","response":"absent","rt":723.40000000596,"correct":true,"confidence":5},{"trial_n":42,"min":86,"max":169,"target":"present","response":"absent","rt":740.5,"correct":false,"confidence":4},{"trial_n":43,"min":85,"max":170,"target":"absent","response":"absent","rt":545.5,"correct":true,"confidence":5},{"trial_n":44,"min":85,"max":170,"target":"present","response":"present","rt":1143.400000006,"correct":true,"confidence":4},{"trial_n":45,"min":86,"max":169,"target":"present","response":"present","rt":571.19999998808,"correct":true,"confidence":5},{"trial_n":46,"min":86,"max":169,"target":"absent","response":"absent","rt":628.39999997616,"correct":true,"confidence":3},{"trial_n":47,"min":87,"max":168,"target":"present","response":"present","rt":594.20000001788,"correct":true,"confidence":4},{"trial_n":48,"min":87,"max":168,"target":"present","response":"present","rt":424,"correct":true,"confidence":4},{"trial_n":49,"min":88,"max":167,"target":"present","response":"present","rt":432.19999998808,"correct":true,"confidence":5},{"trial_n":50,"min":88,"max":167,"target":"present","response":"present","rt":411.5,"correct":true,"confidence":5},{"trial_n":51,"min":89,"max":166,"target":"absent","response":"absent","rt":574,"correct":true,"confidence":5},{"trial_n":52,"min":89,"max":166,"target":"present","response":"present","rt":708.5,"correct":true,"confidence":3},{"trial_n":53,"min":90,"max":165,"target":"present","response":"absent","rt":651.40000000596,"correct":false,"confidence":4},{"trial_n":54,"min":89,"max":166,"target":"absent","response":"absent","rt":785.59999999404,"correct":true,"confidence":3},{"trial_n":55,"min":89,"max":166,"target":"present","response":"absent","rt":655.79999998212,"correct":false,"confidence":4},{"trial_n":56,"min":88,"max":167,"target":"absent","response":"absent","rt":555.29999998212,"correct":true,"confidence":4},{"trial_n":57,"min":88,"max":167,"target":"absent","response":"absent","rt":540,"correct":true,"confidence":4},{"trial_n":58,"min":89,"max":166,"target":"absent","response":"absent","rt":593.19999998808,"correct":true,"confidence":4},{"trial_n":59,"min":89,"max":166,"target":"absent","response":"absent","rt":784.29999998212,"correct":true,"confidence":4},{"trial_n":60,"min":90,"max":165,"target":"present","response":"present","rt":679.90000000596,"correct":true,"confidence":3},{"trial_n":61,"min":90,"max":165,"target":"present","response":"present","rt":1003.7000000179,"correct":true,"confidence":4},{"trial_n":62,"min":91,"max":164,"target":"absent","response":"absent","rt":580.29999998212,"correct":true,"confidence":4},{"trial_n":63,"min":91,"max":164,"target":"absent","response":"absent","rt":959.30000001192,"correct":true,"confidence":4},{"trial_n":64,"min":92,"max":163,"target":"absent","response":"absent","rt":722.5,"correct":true,"confidence":4},{"trial_n":65,"min":92,"max":163,"target":"absent","response":"absent","rt":1429.8000000119,"correct":true,"confidence":4},{"trial_n":66,"min":93,"max":162,"target":"absent","response":"absent","rt":656.5,"correct":true,"confidence":4},{"trial_n":67,"min":93,"max":162,"target":"present","response":"absent","rt":681.20000001788,"correct":false,"confidence":4},{"trial_n":68,"min":92,"max":163,"target":"absent","response":"absent","rt":1241.1999999881,"correct":true,"confidence":5},{"trial_n":69,"min":92,"max":163,"target":"present","response":"absent","rt":1114.1999999881,"correct":false,"confidence":5},{"trial_n":70,"min":91,"max":164,"target":"present","response":"absent","rt":1295.2000000179,"correct":false,"confidence":5},{"trial_n":71,"min":41,"max":214,"target":"present","response":"absent","rt":8499.099999994,"correct":false,"confidence":-1},{"trial_n":72,"min":41,"max":214,"target":"present","response":"present","rt":525.40000000596,"correct":true,"confidence":-1},{"trial_n":73,"min":41,"max":214,"target":"absent","response":"present","rt":1951.7000000179,"correct":false,"confidence":-1},{"trial_n":74,"min":25,"max":230,"target":"absent","response":"absent","rt":1125.400000006,"correct":true,"confidence":-1},{"trial_n":75,"min":25,"max":230,"target":"present","response":"absent","rt":372.59999999404,"correct":false,"confidence":-1},{"trial_n":76,"min":9,"max":246,"target":"absent","response":"absent","rt":1663.3999999762,"correct":true,"confidence":-1},{"trial_n":77,"min":9,"max":246,"target":"present","response":"present","rt":373.09999999404,"correct":true,"confidence":-1},{"trial_n":78,"min":25,"max":230,"target":"absent","response":"absent","rt":453.5,"correct":true,"confidence":-1},{"trial_n":79,"min":25,"max":230,"target":"present","response":"absent","rt":281.30000001192,"correct":false,"confidence":-1},{"trial_n":80,"min":9,"max":246,"target":"present","response":"present","rt":628.30000001192,"correct":true,"confidence":-1},{"trial_n":81,"min":9,"max":246,"target":"absent","response":"absent","rt":568.69999998808,"correct":true,"confidence":-1},{"trial_n":82,"min":17,"max":238,"target":"absent","response":"absent","rt":649.59999999404,"correct":true,"confidence":-1},{"trial_n":83,"min":17,"max":238,"target":"absent","response":"absent","rt":391.59999999404,"correct":true,"confidence":-1},{"trial_n":84,"min":25,"max":230,"target":"present","response":"present","rt":519.20000001788,"correct":true,"confidence":-1},{"trial_n":85,"min":25,"max":230,"target":"present","response":"present","rt":461.5,"correct":true,"confidence":-1},{"trial_n":86,"min":33,"max":222,"target":"present","response":"present","rt":402.59999999404,"correct":true,"confidence":-1},{"trial_n":87,"min":33,"max":222,"target":"present","response":"present","rt":492,"correct":true,"confidence":-1},{"trial_n":88,"min":41,"max":214,"target":"absent","response":"absent","rt":500.40000000596,"correct":true,"confidence":-1},{"trial_n":89,"min":41,"max":214,"target":"absent","response":"absent","rt":548.40000000596,"correct":true,"confidence":-1},{"trial_n":90,"min":49,"max":206,"target":"present","response":"present","rt":454.80000001192,"correct":true,"confidence":-1},{"trial_n":91,"min":49,"max":206,"target":"present","response":"present","rt":424.40000000596,"correct":true,"confidence":5},{"trial_n":92,"min":53,"max":202,"target":"absent","response":"absent","rt":430.69999998808,"correct":true,"confidence":5},{"trial_n":93,"min":53,"max":202,"target":"present","response":"present","rt":519.69999998808,"correct":true,"confidence":5},{"trial_n":94,"min":57,"max":198,"target":"absent","response":"absent","rt":474.09999999404,"correct":true,"confidence":5},{"trial_n":95,"min":57,"max":198,"target":"present","response":"present","rt":546.10000002384,"correct":true,"confidence":5},{"trial_n":96,"min":61,"max":194,"target":"absent","response":"absent","rt":340.5,"correct":true,"confidence":5},{"trial_n":97,"min":61,"max":194,"target":"present","response":"present","rt":350.09999999404,"correct":true,"confidence":5},{"trial_n":98,"min":65,"max":190,"target":"absent","response":"absent","rt":432.5,"correct":true,"confidence":5},{"trial_n":99,"min":65,"max":190,"target":"present","response":"present","rt":813.90000000596,"correct":true,"confidence":3},{"trial_n":100,"min":69,"max":186,"target":"absent","response":"absent","rt":381.5,"correct":true,"confidence":5},{"trial_n":101,"min":69,"max":186,"target":"present","response":"present","rt":395.20000001788,"correct":true,"confidence":5},{"trial_n":102,"min":71,"max":184,"target":"present","response":"present","rt":531.40000000596,"correct":true,"confidence":5},{"trial_n":103,"min":71,"max":184,"target":"present","response":"present","rt":498.59999999404,"correct":true,"confidence":5},{"trial_n":104,"min":73,"max":182,"target":"present","response":"present","rt":461.90000000596,"correct":true,"confidence":5},{"trial_n":105,"min":73,"max":182,"target":"present","response":"present","rt":873.30000001192,"correct":true,"confidence":5},{"trial_n":106,"min":75,"max":180,"target":"absent","response":"absent","rt":510.09999999404,"correct":true,"confidence":5},{"trial_n":107,"min":75,"max":180,"target":"present","response":"present","rt":607.5,"correct":true,"confidence":5},{"trial_n":108,"min":77,"max":178,"target":"absent","response":"absent","rt":788.70000001788,"correct":true,"confidence":4},{"trial_n":109,"min":77,"max":178,"target":"absent","response":"absent","rt":538.70000001788,"correct":true,"confidence":5},{"trial_n":110,"min":79,"max":176,"target":"present","response":"present","rt":451.89999997616,"correct":true,"confidence":5},{"trial_n":111,"min":79,"max":176,"target":"absent","response":"absent","rt":530.70000001788,"correct":true,"confidence":5},{"trial_n":112,"min":80,"max":175,"target":"absent","response":"absent","rt":566,"correct":true,"confidence":5},{"trial_n":113,"min":80,"max":175,"target":"present","response":"present","rt":447.80000001192,"correct":true,"confidence":5},{"trial_n":114,"min":81,"max":174,"target":"absent","response":"absent","rt":500.59999999404,"correct":true,"confidence":5},{"trial_n":115,"min":81,"max":174,"target":"absent","response":"absent","rt":988.09999999404,"correct":true,"confidence":5},{"trial_n":116,"min":82,"max":173,"target":"present","response":"present","rt":863.5,"correct":true,"confidence":5},{"trial_n":117,"min":82,"max":173,"target":"absent","response":"absent","rt":630.90000000596,"correct":true,"confidence":5},{"trial_n":118,"min":83,"max":172,"target":"present","response":"present","rt":715.40000000596,"correct":true,"confidence":5},{"trial_n":119,"min":83,"max":172,"target":"absent","response":"absent","rt":1390.5,"correct":true,"confidence":3},{"trial_n":120,"min":84,"max":171,"target":"present","response":"present","rt":546.29999998212,"correct":true,"confidence":3},{"trial_n":121,"min":84,"max":171,"target":"present","response":"absent","rt":1773.7000000179,"correct":false,"confidence":3},{"trial_n":122,"min":83,"max":172,"target":"present","response":"present","rt":524.59999999404,"correct":true,"confidence":5},{"trial_n":123,"min":83,"max":172,"target":"absent","response":"present","rt":604.60000002384,"correct":false,"confidence":1},{"trial_n":124,"min":82,"max":173,"target":"absent","response":"absent","rt":735.19999998808,"correct":true,"confidence":3},{"trial_n":125,"min":82,"max":173,"target":"absent","response":"absent","rt":822.90000000596,"correct":true,"confidence":5},{"trial_n":126,"min":83,"max":172,"target":"absent","response":"absent","rt":932.69999998808,"correct":true,"confidence":1},{"trial_n":127,"min":83,"max":172,"target":"present","response":"absent","rt":1761.900000006,"correct":false,"confidence":1},{"trial_n":128,"min":82,"max":173,"target":"absent","response":"absent","rt":793.60000002384,"correct":true,"confidence":5},{"trial_n":129,"min":82,"max":173,"target":"absent","response":"absent","rt":878.69999998808,"correct":true,"confidence":3},{"trial_n":130,"min":83,"max":172,"target":"present","response":"present","rt":525,"correct":true,"confidence":5},{"trial_n":131,"min":83,"max":172,"target":"present","response":"present","rt":1023.599999994,"correct":true,"confidence":5},{"trial_n":132,"min":84,"max":171,"target":"absent","response":"absent","rt":1298,"correct":true,"confidence":3},{"trial_n":133,"min":84,"max":171,"target":"absent","response":"absent","rt":807.19999998808,"correct":true,"confidence":4},{"trial_n":134,"min":85,"max":170,"target":"present","response":"present","rt":710.29999998212,"correct":true,"confidence":4},{"trial_n":135,"min":85,"max":170,"target":"present","response":"present","rt":401,"correct":true,"confidence":4},{"trial_n":136,"min":86,"max":169,"target":"present","response":"present","rt":337.30000001192,"correct":true,"confidence":4},{"trial_n":137,"min":86,"max":169,"target":"absent","response":"absent","rt":589.60000002384,"correct":true,"confidence":4},{"trial_n":138,"min":87,"max":168,"target":"absent","response":"absent","rt":555.5,"correct":true,"confidence":4},{"trial_n":139,"min":87,"max":168,"target":"absent","response":"absent","rt":411,"correct":true,"confidence":4},{"trial_n":140,"min":88,"max":167,"target":"present","response":"present","rt":769.10000002384,"correct":true,"confidence":5}]