[{"trial_n":1,"span":8,"encoder":"36936416","distractor":"36932416","target":"present","response":"absent","rt":"80750.799999952","correct":false,"confidence":-1},{"trial_n":2,"span":6,"encoder":"986247","distractor":"987247","target":"present","response":"present","rt":"3108","correct":true,"confidence":-1},{"trial_n":3,"span":6,"encoder":"690934","distractor":"090934","target":"absent","response":"absent","rt":"1963.2999999523","correct":true,"confidence":-1},{"trial_n":4,"span":8,"encoder":"16320907","distractor":"16820907","target":"absent","response":"absent","rt":"3715.7000000477","correct":true,"confidence":-1},{"trial_n":5,"span":8,"encoder":"15226945","distractor":"17226945","target":"present","response":"present","rt":"3702.1000001431","correct":true,"confidence":-1},{"trial_n":6,"span":10,"encoder":"8816209202","distractor":"8616209202","target":"present","response":"present","rt":"2479.2999999523","correct":true,"confidence":-1},{"trial_n":7,"span":10,"encoder":"4574572394","distractor":"8574572394","target":"absent","response":"absent","rt":"1974.1000001431","correct":true,"confidence":-1},{"trial_n":8,"span":12,"encoder":"736376036601","distractor":"936376036601","target":"present","response":"absent","rt":"8078.7999999523","correct":false,"confidence":-1},{"trial_n":9,"span":10,"encoder":"0207050948","distractor":"0207050978","target":"absent","response":"absent","rt":"4902.8999998569","correct":true,"confidence":-1},{"trial_n":10,"span":10,"encoder":"6563614154","distractor":"6543614154","target":"present","response":"present","rt":"1588.2000000477","correct":true,"confidence":-1},{"trial_n":11,"span":12,"encoder":"968748454222","distractor":"968848454222","target":"absent","response":"present","rt":"3412.0999999046","correct":false,"confidence":-1},{"trial_n":12,"span":11,"encoder":"74133543269","distractor":"44133543269","target":"absent","response":"present","rt":"3339.1000001431","correct":false,"confidence":-1},{"trial_n":13,"span":10,"encoder":"0825074569","distractor":"0825014569","target":"present","response":"present","rt":"2491.4000000954","correct":true,"confidence":-1},{"trial_n":14,"span":10,"encoder":"8251479662","distractor":"8251469662","target":"absent","response":"present","rt":"1538.8000001907","correct":false,"confidence":-1},{"trial_n":15,"span":9,"encoder":"807746392","distractor":"807746892","target":"absent","response":"present","rt":"2482.2000000477","correct":false,"confidence":-1},{"trial_n":16,"span":8,"encoder":"94023349","distractor":"94027349","target":"present","response":"present","rt":"2450.2000000477","correct":true,"confidence":-1},{"trial_n":17,"span":8,"encoder":"00320665","distractor":"00320615","target":"present","response":"present","rt":"3553","correct":true,"confidence":-1},{"trial_n":18,"span":9,"encoder":"327020818","distractor":"327090818","target":"absent","response":"absent","rt":"4772.5","correct":true,"confidence":-1},{"trial_n":19,"span":9,"encoder":"268342609","distractor":"268342669","target":"present","response":"present","rt":"2923.4000000954","correct":true,"confidence":-1},{"trial_n":20,"span":10,"encoder":"5701324339","distractor":"5701124339","target":"absent","response":"absent","rt":"3384.2000000477","correct":true,"confidence":-1},{"trial_n":21,"span":10,"encoder":"6013384031","distractor":"6113384031","target":"absent","response":"absent","rt":"2435.0999999046","correct":true,"confidence":4},{"trial_n":22,"span":11,"encoder":"32050431608","distractor":"02050431608","target":"present","response":"absent","rt":"4106.7000000477","correct":false,"confidence":2},{"trial_n":23,"span":10,"encoder":"3303725885","distractor":"3303725889","target":"absent","response":"absent","rt":"3830.7999999523","correct":true,"confidence":5},{"trial_n":24,"span":10,"encoder":"5770280837","distractor":"5770286837","target":"present","response":"present","rt":"2760.7999999523","correct":true,"confidence":3},{"trial_n":25,"span":11,"encoder":"85340650121","distractor":"85340652121","target":"present","response":"present","rt":"4167.8999998569","correct":true,"confidence":3},{"trial_n":26,"span":11,"encoder":"32752731002","distractor":"32652731002","target":"absent","response":"absent","rt":"5199.2000000477","correct":true,"confidence":2},{"trial_n":27,"span":12,"encoder":"088490005869","distractor":"788490005869","target":"present","response":"present","rt":"4340","correct":true,"confidence":3},{"trial_n":28,"span":12,"encoder":"266552686916","distractor":"266552686936","target":"present","response":"present","rt":"2428.2999999523","correct":true,"confidence":3},{"trial_n":29,"span":13,"encoder":"4857728529222","distractor":"4057728529222","target":"present","response":"present","rt":"2509.7000000477","correct":true,"confidence":3},{"trial_n":30,"span":13,"encoder":"9213231648134","distractor":"9273231648134","target":"present","response":"present","rt":"3183.9000000954","correct":true,"confidence":2},{"trial_n":31,"span":14,"encoder":"00153035933708","distractor":"00153035933768","target":"absent","response":"present","rt":"5058.5999999046","correct":false,"confidence":3},{"trial_n":32,"span":13,"encoder":"8871358925476","distractor":"0871358925476","target":"present","response":"present","rt":"6675.8999998569","correct":true,"confidence":4},{"trial_n":33,"span":13,"encoder":"8512317042228","distractor":"8512317842228","target":"present","response":"present","rt":"4889.9000000954","correct":true,"confidence":5},{"trial_n":34,"span":14,"encoder":"12770855031404","distractor":"12570855031404","target":"present","response":"present","rt":"4208.0999999046","correct":true,"confidence":3},{"trial_n":35,"span":14,"encoder":"19849040979984","distractor":"19849070979984","target":"present","response":"present","rt":"8494.2999999523","correct":true,"confidence":3},{"trial_n":36,"span":15,"encoder":"121415900875310","distractor":"121415400875310","target":"present","response":"present","rt":"8906.8999998569","correct":true,"confidence":3},{"trial_n":37,"span":15,"encoder":"335025047220282","distractor":"335125047220282","target":"absent","response":"absent","rt":"5420","correct":true,"confidence":2},{"trial_n":38,"span":16,"encoder":"5359198923042458","distractor":"5359193923042458","target":"absent","response":"absent","rt":"6747.3999998569","correct":true,"confidence":2},{"trial_n":39,"span":16,"encoder":"9789548981737648","distractor":"9789048981737648","target":"absent","response":"present","rt":"6358.5999999046","correct":false,"confidence":2},{"trial_n":40,"span":15,"encoder":"128833084127759","distractor":"128533084127759","target":"absent","response":"absent","rt":"8223.7999999523","correct":true,"confidence":3},{"trial_n":41,"span":15,"encoder":"566127220610423","distractor":"566127220210423","target":"present","response":"present","rt":"3184","correct":true,"confidence":3},{"trial_n":42,"span":16,"encoder":"6883384311406288","distractor":"6883384311466288","target":"absent","response":"present","rt":"6556.3000001907","correct":false,"confidence":2},{"trial_n":43,"span":15,"encoder":"745112096128952","distractor":"755112096128952","target":"absent","response":"absent","rt":"2820.6000001431","correct":true,"confidence":1},{"trial_n":44,"span":15,"encoder":"910854246203718","distractor":"910554246203718","target":"present","response":"absent","rt":"4034","correct":false,"confidence":1},{"trial_n":45,"span":14,"encoder":"73876007253254","distractor":"13876007253254","target":"absent","response":"present","rt":"7355.7999999523","correct":false,"confidence":2},{"trial_n":46,"span":13,"encoder":"6073746898544","distractor":"6071746898544","target":"absent","response":"present","rt":"6550.5","correct":false,"confidence":3},{"trial_n":47,"span":12,"encoder":"869386530900","distractor":"869386330900","target":"absent","response":"absent","rt":"7518.2999999523","correct":true,"confidence":3},{"trial_n":48,"span":12,"encoder":"756572862048","distractor":"756572802048","target":"absent","response":"present","rt":"5129.7000000477","correct":false,"confidence":4},{"trial_n":49,"span":11,"encoder":"51430195805","distractor":"54430195805","target":"present","response":"absent","rt":"5285.1000001431","correct":false,"confidence":2},{"trial_n":50,"span":10,"encoder":"0413110512","distractor":"2413110512","target":"absent","response":"absent","rt":"3640.5999999046","correct":true,"confidence":3},{"trial_n":51,"span":10,"encoder":"6020329127","distractor":"6020329527","target":"absent","response":"present","rt":"4589.6000001431","correct":false,"confidence":3},{"trial_n":52,"span":9,"encoder":"178903524","distractor":"138903524","target":"absent","response":"absent","rt":"2781.0999999046","correct":true,"confidence":2},{"trial_n":53,"span":9,"encoder":"712155098","distractor":"712855098","target":"present","response":"present","rt":"4428.9000000954","correct":true,"confidence":5},{"trial_n":54,"span":10,"encoder":"5739222165","distractor":"5739622165","target":"absent","response":"present","rt":"6480.1999998093","correct":false,"confidence":4},{"trial_n":55,"span":9,"encoder":"173244721","distractor":"173244723","target":"present","response":"present","rt":"5014.0999999046","correct":true,"confidence":4},{"trial_n":56,"span":9,"encoder":"721648846","distractor":"721644846","target":"present","response":"present","rt":"6783.9000000954","correct":true,"confidence":3},{"trial_n":57,"span":10,"encoder":"6857725525","distractor":"6857725505","target":"present","response":"present","rt":"5204.2999999523","correct":true,"confidence":3},{"trial_n":58,"span":10,"encoder":"4789448912","distractor":"4789448712","target":"absent","response":"present","rt":"4490.5999999046","correct":false,"confidence":3},{"trial_n":59,"span":9,"encoder":"602253755","distractor":"602253355","target":"absent","response":"absent","rt":"4761.2999999523","correct":true,"confidence":5},{"trial_n":60,"span":9,"encoder":"704074894","distractor":"708074894","target":"absent","response":"absent","rt":"5921.7999999523","correct":true,"confidence":2},{"trial_n":61,"span":10,"encoder":"0671857974","distractor":"0671857954","target":"absent","response":"absent","rt":"4512.1000001431","correct":true,"confidence":2},{"trial_n":62,"span":10,"encoder":"6969416960","distractor":"6962416960","target":"absent","response":"absent","rt":"2273","correct":true,"confidence":5},{"trial_n":63,"span":11,"encoder":"10806322045","distractor":"10806342045","target":"present","response":"present","rt":"5618.5999999046","correct":true,"confidence":3},{"trial_n":64,"span":11,"encoder":"75590117211","distractor":"75590517211","target":"present","response":"present","rt":"4813.3999998569","correct":true,"confidence":3},{"trial_n":65,"span":12,"encoder":"753756814821","distractor":"753754814821","target":"present","response":"absent","rt":"7451.7000000477","correct":false,"confidence":2},{"trial_n":66,"span":11,"encoder":"10519924107","distractor":"20519924107","target":"present","response":"present","rt":"4883.5","correct":true,"confidence":2},{"trial_n":67,"span":11,"encoder":"09125513718","distractor":"09128513718","target":"absent","response":"absent","rt":"3775.8000001907","correct":true,"confidence":2},{"trial_n":68,"span":12,"encoder":"067021419965","distractor":"067021419765","target":"present","response":"absent","rt":"4030.7000000477","correct":false,"confidence":1},{"trial_n":69,"span":11,"encoder":"08565829999","distractor":"08565829699","target":"present","response":"present","rt":"4596.6999998093","correct":true,"confidence":2},{"trial_n":70,"span":11,"encoder":"67143870923","distractor":"67143870723","target":"present","response":"absent","rt":"3222.6000001431","correct":false,"confidence":2},{"trial_n":71,"span":8,"encoder":"89353377","distractor":"89383377","target":"present","response":"present","rt":"6826.5","correct":true,"confidence":-1},{"trial_n":72,"span":8,"encoder":"73931955","distractor":"73931455","target":"present","response":"present","rt":"2744.5","correct":true,"confidence":-1},{"trial_n":73,"span":9,"encoder":"264985610","distractor":"264985210","target":"absent","response":"absent","rt":"5698.1999998093","correct":true,"confidence":-1},{"trial_n":74,"span":9,"encoder":"935667197","distractor":"935667297","target":"absent","response":"absent","rt":"4486","correct":true,"confidence":-1},{"trial_n":75,"span":10,"encoder":"1591543066","distractor":"1591543766","target":"present","response":"present","rt":"5823.5","correct":true,"confidence":-1},{"trial_n":76,"span":10,"encoder":"8991507842","distractor":"8991507862","target":"present","response":"absent","rt":"7541.7000000477","correct":false,"confidence":-1},{"trial_n":77,"span":9,"encoder":"352293103","distractor":"352263103","target":"present","response":"absent","rt":"4599.7000000477","correct":false,"confidence":-1},{"trial_n":78,"span":8,"encoder":"43822238","distractor":"43822233","target":"absent","response":"absent","rt":"2884.4000000954","correct":true,"confidence":-1},{"trial_n":79,"span":8,"encoder":"75796139","distractor":"75796134","target":"absent","response":"absent","rt":"1651.2999999523","correct":true,"confidence":-1},{"trial_n":80,"span":9,"encoder":"300695689","distractor":"300095689","target":"absent","response":"present","rt":"6388","correct":false,"confidence":-1},{"trial_n":81,"span":8,"encoder":"79168756","distractor":"79158756","target":"present","response":"present","rt":"6070.3999998569","correct":true,"confidence":-1},{"trial_n":82,"span":8,"encoder":"02716827","distractor":"02736827","target":"present","response":"present","rt":"4750.8999998569","correct":true,"confidence":-1},{"trial_n":83,"span":9,"encoder":"165373034","distractor":"165370034","target":"absent","response":"absent","rt":"5437.6000001431","correct":true,"confidence":-1},{"trial_n":84,"span":9,"encoder":"323264295","distractor":"321264295","target":"absent","response":"absent","rt":"3237.2000000477","correct":true,"confidence":-1},{"trial_n":85,"span":10,"encoder":"2357808431","distractor":"2357802431","target":"absent","response":"present","rt":"7310.8999998569","correct":false,"confidence":-1},{"trial_n":86,"span":9,"encoder":"936144511","distractor":"996144511","target":"present","response":"present","rt":"5894","correct":true,"confidence":-1},{"trial_n":87,"span":9,"encoder":"163956950","distractor":"143956950","target":"present","response":"present","rt":"3840.8999998569","correct":true,"confidence":-1},{"trial_n":88,"span":10,"encoder":"5614949377","distractor":"9614949377","target":"absent","response":"present","rt":"4277.7000000477","correct":false,"confidence":-1},{"trial_n":89,"span":9,"encoder":"651183083","distractor":"651583083","target":"present","response":"absent","rt":"5148.8999998569","correct":false,"confidence":-1},{"trial_n":90,"span":8,"encoder":"92479762","distractor":"94479762","target":"present","response":"present","rt":"4098.3999998569","correct":true,"confidence":-1},{"trial_n":91,"span":8,"encoder":"34403670","distractor":"34703670","target":"present","response":"present","rt":"5635.5","correct":true,"confidence":5},{"trial_n":92,"span":9,"encoder":"133658785","distractor":"133658783","target":"present","response":"present","rt":"4895.7999999523","correct":true,"confidence":5},{"trial_n":93,"span":9,"encoder":"970445697","distractor":"973445697","target":"present","response":"present","rt":"3792","correct":true,"confidence":3},{"trial_n":94,"span":10,"encoder":"6528673796","distractor":"6528173796","target":"absent","response":"absent","rt":"6291.6000001431","correct":true,"confidence":4},{"trial_n":95,"span":10,"encoder":"7735230581","distractor":"7737230581","target":"absent","response":"absent","rt":"7054.2000000477","correct":true,"confidence":3},{"trial_n":96,"span":11,"encoder":"04061211154","distractor":"04067211154","target":"present","response":"present","rt":"7302.5","correct":true,"confidence":4},{"trial_n":97,"span":11,"encoder":"17896556484","distractor":"17896576484","target":"absent","response":"present","rt":"8403.1000001431","correct":false,"confidence":3},{"trial_n":98,"span":10,"encoder":"2576248247","distractor":"2571248247","target":"absent","response":"absent","rt":"5543.5999999046","correct":true,"confidence":4},{"trial_n":99,"span":10,"encoder":"0285017471","distractor":"0285017473","target":"absent","response":"absent","rt":"2865.7000000477","correct":true,"confidence":5},{"trial_n":100,"span":11,"encoder":"76910592950","distractor":"76910592550","target":"present","response":"present","rt":"7324.7999999523","correct":true,"confidence":3},{"trial_n":101,"span":11,"encoder":"75893939724","distractor":"75893932724","target":"absent","response":"absent","rt":"5922.7000000477","correct":true,"confidence":3},{"trial_n":102,"span":12,"encoder":"064072629550","distractor":"064072629520","target":"present","response":"present","rt":"7929.7999999523","correct":true,"confidence":4},{"trial_n":103,"span":12,"encoder":"617914653907","distractor":"657914653907","target":"present","response":"present","rt":"5658.6000001431","correct":true,"confidence":4},{"trial_n":104,"span":13,"encoder":"4959956201621","distractor":"4953956201621","target":"present","response":"present","rt":"7051.9000000954","correct":true,"confidence":3},{"trial_n":105,"span":13,"encoder":"1221637889872","distractor":"1221637889272","target":"absent","response":"absent","rt":"4324.7000000477","correct":true,"confidence":5},{"trial_n":106,"span":14,"encoder":"29651958219491","distractor":"09651958219491","target":"present","response":"present","rt":"10165.599999905","correct":true,"confidence":2},{"trial_n":107,"span":14,"encoder":"14061388077702","distractor":"14161388077702","target":"absent","response":"absent","rt":"5791.2000000477","correct":true,"confidence":3},{"trial_n":108,"span":15,"encoder":"112365700087667","distractor":"152365700087667","target":"present","response":"present","rt":"8892.7000000477","correct":true,"confidence":4},{"trial_n":109,"span":15,"encoder":"608680188467647","distractor":"608680188468647","target":"present","response":"present","rt":"3179.4000000954","correct":true,"confidence":5},{"trial_n":110,"span":16,"encoder":"2093092748800219","distractor":"2063092748800219","target":"absent","response":"present","rt":"11272","correct":false,"confidence":3},{"trial_n":111,"span":15,"encoder":"101765208019227","distractor":"101765218019227","target":"present","response":"absent","rt":"9938","correct":false,"confidence":2},{"trial_n":112,"span":14,"encoder":"43731286585009","distractor":"43731286589009","target":"absent","response":"absent","rt":"2907.7999999523","correct":true,"confidence":5},{"trial_n":113,"span":14,"encoder":"03470066620388","distractor":"03470066620288","target":"absent","response":"present","rt":"9335.5999999046","correct":false,"confidence":2},{"trial_n":114,"span":13,"encoder":"5005882579736","distractor":"5005882579726","target":"absent","response":"present","rt":"9943.1000001431","correct":false,"confidence":3},{"trial_n":115,"span":12,"encoder":"207688418015","distractor":"207688918015","target":"absent","response":"absent","rt":"6368.2999999523","correct":true,"confidence":3},{"trial_n":116,"span":12,"encoder":"696916834393","distractor":"696616834393","target":"present","response":"present","rt":"12246.399999857","correct":true,"confidence":5},{"trial_n":117,"span":13,"encoder":"6869204255024","distractor":"6869205255024","target":"present","response":"present","rt":"4904.7999999523","correct":true,"confidence":3},{"trial_n":118,"span":13,"encoder":"3509658866051","distractor":"3509652866051","target":"absent","response":"absent","rt":"2830.5999999046","correct":true,"confidence":5},{"trial_n":119,"span":14,"encoder":"12207202148334","distractor":"12207202148234","target":"absent","response":"absent","rt":"1961.6000001431","correct":true,"confidence":5},{"trial_n":120,"span":14,"encoder":"11022360064570","distractor":"11022390064570","target":"present","response":"present","rt":"10587.700000048","correct":true,"confidence":2},{"trial_n":121,"span":15,"encoder":"288269240253895","distractor":"288269249253895","target":"absent","response":"absent","rt":"7695.2999999523","correct":true,"confidence":5},{"trial_n":122,"span":15,"encoder":"983400848480400","distractor":"983400838480400","target":"absent","response":"absent","rt":"5625.1000001431","correct":true,"confidence":5},{"trial_n":123,"span":16,"encoder":"4302787857637011","distractor":"4305787857637011","target":"present","response":"absent","rt":"5836.2999999523","correct":false,"confidence":2},{"trial_n":124,"span":15,"encoder":"874239076427159","distractor":"874239076487159","target":"present","response":"present","rt":"5323.5999999046","correct":true,"confidence":3},{"trial_n":125,"span":15,"encoder":"818571775654111","distractor":"818571775654110","target":"present","response":"present","rt":"9745.3000001907","correct":true,"confidence":5},{"trial_n":126,"span":16,"encoder":"0336303984165437","distractor":"0356303984165437","target":"absent","response":"absent","rt":"5376.2000000477","correct":true,"confidence":5},{"trial_n":127,"span":16,"encoder":"9046446707783428","distractor":"9046447707783428","target":"absent","response":"absent","rt":"7164","correct":true,"confidence":4},{"trial_n":128,"span":17,"encoder":"36175100488053629","distractor":"36175100488063629","target":"present","response":"absent","rt":"7307.7000000477","correct":false,"confidence":2},{"trial_n":129,"span":16,"encoder":"9663638924846894","distractor":"9663338924846894","target":"present","response":"present","rt":"9540","correct":true,"confidence":3},{"trial_n":130,"span":16,"encoder":"9883290561202027","distractor":"9883290561202007","target":"absent","response":"absent","rt":"3858","correct":true,"confidence":5},{"trial_n":131,"span":17,"encoder":"09231028061268657","distractor":"09231028061268607","target":"absent","response":"absent","rt":"2749.9000000954","correct":true,"confidence":5},{"trial_n":132,"span":17,"encoder":"57803691506103130","distractor":"57803691506193130","target":"absent","response":"absent","rt":"3020.9000000954","correct":true,"confidence":4},{"trial_n":133,"span":18,"encoder":"658429376881069305","distractor":"658429370881069305","target":"absent","response":"absent","rt":"5930.7000000477","correct":true,"confidence":4},{"trial_n":134,"span":18,"encoder":"327688172721116646","distractor":"527688172721116646","target":"absent","response":"absent","rt":"6106.5999999046","correct":true,"confidence":2},{"trial_n":135,"span":19,"encoder":"2627613127055697658","distractor":"2627613127058697658","target":"present","response":"present","rt":"9413","correct":true,"confidence":3},{"trial_n":136,"span":19,"encoder":"4082027367585495893","distractor":"4082027367555495893","target":"present","response":"present","rt":"8655.5","correct":true,"confidence":5},{"trial_n":137,"span":20,"encoder":"49959958536708849996","distractor":"49959958536708847996","target":"absent","response":"present","rt":"10903.100000143","correct":false,"confidence":4},{"trial_n":138,"span":19,"encoder":"9864109120897914385","distractor":"9864109122897914385","target":"present","response":"present","rt":"7144.7000000477","correct":true,"confidence":2},{"trial_n":139,"span":19,"encoder":"4478857066908646804","distractor":"4478857066508646804","target":"present","response":"present","rt":"7770.0999999046","correct":true,"confidence":2},{"trial_n":140,"span":20,"encoder":"36302613696981186466","distractor":"36302613696681186466","target":"present","response":"present","rt":"9390","correct":true,"confidence":5}]