[{"trial_n":1,"n_dots":4.25,"target":"right","response":"left","rt":7675.6000000238,"correct":false,"confidence":-1},{"trial_n":2,"n_dots":4.25,"target":"left","response":"right","rt":904.80000001192,"correct":false,"confidence":-1},{"trial_n":3,"n_dots":4.65,"target":"right","response":"right","rt":782.20000001788,"correct":true,"confidence":-1},{"trial_n":4,"n_dots":4.65,"target":"left","response":"left","rt":665.40000000596,"correct":true,"confidence":-1},{"trial_n":5,"n_dots":4.25,"target":"right","response":"right","rt":1309.900000006,"correct":true,"confidence":-1},{"trial_n":6,"n_dots":4.25,"target":"left","response":"left","rt":1043.6999999881,"correct":true,"confidence":-1},{"trial_n":7,"n_dots":3.85,"target":"left","response":"right","rt":895.5,"correct":false,"confidence":-1},{"trial_n":8,"n_dots":4.05,"target":"left","response":"left","rt":967.30000001192,"correct":true,"confidence":-1},{"trial_n":9,"n_dots":4.05,"target":"right","response":"right","rt":86.700000017881,"correct":true,"confidence":-1},{"trial_n":10,"n_dots":3.85,"target":"right","response":"right","rt":22.40000000596,"correct":true,"confidence":-1},{"trial_n":11,"n_dots":3.85,"target":"left","response":"right","rt":129.19999998808,"correct":false,"confidence":-1},{"trial_n":12,"n_dots":4.05,"target":"left","response":"right","rt":174.69999998808,"correct":false,"confidence":-1},{"trial_n":13,"n_dots":4.15,"target":"left","response":"right","rt":68.300000011921,"correct":false,"confidence":-1},{"trial_n":14,"n_dots":4.25,"target":"right","response":"right","rt":1559.2999999821,"correct":true,"confidence":-1},{"trial_n":15,"n_dots":4.25,"target":"right","response":"right","rt":627.79999998212,"correct":true,"confidence":-1},{"trial_n":16,"n_dots":4.15,"target":"right","response":"right","rt":859.29999998212,"correct":true,"confidence":-1},{"trial_n":17,"n_dots":4.15,"target":"right","response":"right","rt":747.20000001788,"correct":true,"confidence":-1},{"trial_n":18,"n_dots":4.05,"target":"left","response":"left","rt":771.59999999404,"correct":true,"confidence":-1},{"trial_n":19,"n_dots":4.05,"target":"left","response":"right","rt":1035.099999994,"correct":false,"confidence":-1},{"trial_n":20,"n_dots":4.15,"target":"right","response":"right","rt":1107.7999999821,"correct":true,"confidence":-1},{"trial_n":21,"n_dots":4.15,"target":"left","response":"left","rt":600,"correct":true,"confidence":4},{"trial_n":22,"n_dots":4.05,"target":"left","response":"right","rt":859.30000001192,"correct":false,"confidence":1},{"trial_n":23,"n_dots":4.15,"target":"right","response":"right","rt":1328.400000006,"correct":true,"confidence":3},{"trial_n":24,"n_dots":4.15,"target":"right","response":"right","rt":1026.5,"correct":true,"confidence":5},{"trial_n":25,"n_dots":4.05,"target":"right","response":"right","rt":1059.7999999821,"correct":true,"confidence":5},{"trial_n":26,"n_dots":4.05,"target":"left","response":"left","rt":1111.2999999821,"correct":true,"confidence":5},{"trial_n":27,"n_dots":3.95,"target":"left","response":"right","rt":962.40000000596,"correct":false,"confidence":3},{"trial_n":28,"n_dots":4.05,"target":"left","response":"left","rt":1210.900000006,"correct":true,"confidence":3},{"trial_n":29,"n_dots":4.05,"target":"right","response":"right","rt":158.19999998808,"correct":true,"confidence":3},{"trial_n":30,"n_dots":3.95,"target":"left","response":"left","rt":1103.2000000179,"correct":true,"confidence":4},{"trial_n":31,"n_dots":3.95,"target":"right","response":"right","rt":822.69999998808,"correct":true,"confidence":4},{"trial_n":32,"n_dots":3.85,"target":"right","response":"right","rt":684.79999998212,"correct":true,"confidence":4},{"trial_n":33,"n_dots":3.85,"target":"right","response":"right","rt":245.60000002384,"correct":true,"confidence":4},{"trial_n":34,"n_dots":3.75,"target":"right","response":"left","rt":1002.5,"correct":false,"confidence":3},{"trial_n":35,"n_dots":3.85,"target":"left","response":"left","rt":282.39999997616,"correct":true,"confidence":3},{"trial_n":36,"n_dots":3.85,"target":"right","response":"right","rt":995.09999999404,"correct":true,"confidence":3},{"trial_n":37,"n_dots":3.75,"target":"left","response":"left","rt":84.90000000596,"correct":true,"confidence":5},{"trial_n":38,"n_dots":3.75,"target":"right","response":"right","rt":1034.2999999821,"correct":true,"confidence":3},{"trial_n":39,"n_dots":3.65,"target":"left","response":"left","rt":929.59999999404,"correct":true,"confidence":5},{"trial_n":40,"n_dots":3.65,"target":"right","response":"right","rt":96.40000000596,"correct":true,"confidence":4},{"trial_n":41,"n_dots":3.55,"target":"right","response":"right","rt":1037.7999999821,"correct":true,"confidence":5},{"trial_n":42,"n_dots":3.55,"target":"right","response":"right","rt":378.69999998808,"correct":true,"confidence":4},{"trial_n":43,"n_dots":3.45,"target":"left","response":"left","rt":1018.7999999821,"correct":true,"confidence":4},{"trial_n":44,"n_dots":3.45,"target":"right","response":"right","rt":690.79999998212,"correct":true,"confidence":1},{"trial_n":45,"n_dots":3.35,"target":"left","response":"left","rt":1273,"correct":true,"confidence":4},{"trial_n":46,"n_dots":3.35,"target":"left","response":"right","rt":679.59999999404,"correct":false,"confidence":4},{"trial_n":47,"n_dots":3.45,"target":"left","response":"left","rt":389.40000000596,"correct":true,"confidence":5},{"trial_n":48,"n_dots":3.45,"target":"left","response":"left","rt":698.5,"correct":true,"confidence":5},{"trial_n":49,"n_dots":3.35,"target":"left","response":"left","rt":1158.7000000179,"correct":true,"confidence":3},{"trial_n":50,"n_dots":3.35,"target":"right","response":"right","rt":857,"correct":true,"confidence":5},{"trial_n":51,"n_dots":3.25,"target":"left","response":"left","rt":1144.1999999881,"correct":true,"confidence":1},{"trial_n":52,"n_dots":3.25,"target":"left","response":"right","rt":408.69999998808,"correct":false,"confidence":5},{"trial_n":53,"n_dots":3.35,"target":"right","response":"left","rt":536.70000001788,"correct":false,"confidence":5},{"trial_n":54,"n_dots":3.45,"target":"right","response":"right","rt":186,"correct":true,"confidence":5},{"trial_n":55,"n_dots":3.45,"target":"right","response":"right","rt":104.09999999404,"correct":true,"confidence":5},{"trial_n":56,"n_dots":3.35,"target":"right","response":"right","rt":150.29999998212,"correct":true,"confidence":5},{"trial_n":57,"n_dots":3.35,"target":"right","response":"right","rt":473,"correct":true,"confidence":5},{"trial_n":58,"n_dots":3.25,"target":"right","response":"right","rt":514.29999998212,"correct":true,"confidence":5},{"trial_n":59,"n_dots":3.25,"target":"right","response":"right","rt":141,"correct":true,"confidence":5},{"trial_n":60,"n_dots":3.15,"target":"left","response":"left","rt":725.90000000596,"correct":true,"confidence":1},{"trial_n":61,"n_dots":3.15,"target":"left","response":"left","rt":78.699999988079,"correct":true,"confidence":2},{"trial_n":62,"n_dots":3.05,"target":"left","response":"right","rt":548.80000001192,"correct":false,"confidence":1},{"trial_n":63,"n_dots":3.15,"target":"right","response":"right","rt":1164.900000006,"correct":true,"confidence":4},{"trial_n":64,"n_dots":3.15,"target":"right","response":"right","rt":140.19999998808,"correct":true,"confidence":5},{"trial_n":65,"n_dots":3.05,"target":"right","response":"right","rt":1357.400000006,"correct":true,"confidence":5},{"trial_n":66,"n_dots":3.05,"target":"left","response":"left","rt":1187.400000006,"correct":true,"confidence":3},{"trial_n":67,"n_dots":2.95,"target":"left","response":"right","rt":498.40000000596,"correct":false,"confidence":3},{"trial_n":68,"n_dots":3.05,"target":"left","response":"left","rt":991.19999998808,"correct":true,"confidence":4},{"trial_n":69,"n_dots":3.05,"target":"left","response":"right","rt":1805.6999999881,"correct":false,"confidence":3},{"trial_n":70,"n_dots":3.15,"target":"left","response":"left","rt":394.59999999404,"correct":true,"confidence":5},{"trial_n":71,"n_dots":3.15,"target":"left","response":"left","rt":892.19999998808,"correct":true,"confidence":3},{"trial_n":72,"n_dots":3.05,"target":"left","response":"left","rt":35.300000011921,"correct":true,"confidence":4},{"trial_n":73,"n_dots":3.05,"target":"right","response":"right","rt":833,"correct":true,"confidence":4},{"trial_n":74,"n_dots":2.95,"target":"right","response":"right","rt":78,"correct":true,"confidence":3},{"trial_n":75,"n_dots":2.95,"target":"right","response":"left","rt":358.90000000596,"correct":false,"confidence":3},{"trial_n":76,"n_dots":3.05,"target":"right","response":"right","rt":489.09999999404,"correct":true,"confidence":4},{"trial_n":77,"n_dots":3.05,"target":"right","response":"left","rt":608.59999999404,"correct":false,"confidence":3},{"trial_n":78,"n_dots":3.15,"target":"left","response":"right","rt":495.20000001788,"correct":false,"confidence":3},{"trial_n":79,"n_dots":3.25,"target":"left","response":"left","rt":354.80000001192,"correct":true,"confidence":3},{"trial_n":80,"n_dots":3.25,"target":"right","response":"right","rt":884.69999998808,"correct":true,"confidence":1},{"trial_n":81,"n_dots":3.15,"target":"left","response":"left","rt":201.59999999404,"correct":true,"confidence":5},{"trial_n":82,"n_dots":3.15,"target":"right","response":"right","rt":584.70000001788,"correct":true,"confidence":5},{"trial_n":83,"n_dots":3.05,"target":"left","response":"left","rt":105.30000001192,"correct":true,"confidence":5},{"trial_n":84,"n_dots":3.05,"target":"left","response":"left","rt":1348.5,"correct":true,"confidence":5},{"trial_n":85,"n_dots":2.95,"target":"left","response":"right","rt":1332.2999999821,"correct":false,"confidence":5},{"trial_n":86,"n_dots":3.05,"target":"right","response":"right","rt":1395.2000000179,"correct":true,"confidence":4},{"trial_n":87,"n_dots":3.05,"target":"left","response":"left","rt":1010.3999999762,"correct":true,"confidence":3},{"trial_n":88,"n_dots":2.95,"target":"left","response":"right","rt":1766.1999999881,"correct":false,"confidence":1},{"trial_n":89,"n_dots":3.05,"target":"right","response":"right","rt":964,"correct":true,"confidence":4},{"trial_n":90,"n_dots":3.05,"target":"right","response":"left","rt":693.40000000596,"correct":false,"confidence":3},{"trial_n":91,"n_dots":3.15,"target":"right","response":"right","rt":693.60000002384,"correct":true,"confidence":3},{"trial_n":92,"n_dots":3.15,"target":"right","response":"left","rt":902.90000000596,"correct":false,"confidence":3},{"trial_n":93,"n_dots":3.25,"target":"right","response":"right","rt":1282.1999999881,"correct":true,"confidence":4},{"trial_n":94,"n_dots":3.25,"target":"left","response":"left","rt":1675.400000006,"correct":true,"confidence":5},{"trial_n":95,"n_dots":3.15,"target":"left","response":"left","rt":1254.900000006,"correct":true,"confidence":5},{"trial_n":96,"n_dots":3.15,"target":"right","response":"left","rt":1192.5,"correct":false,"confidence":4},{"trial_n":97,"n_dots":3.25,"target":"left","response":"left","rt":931.80000001192,"correct":true,"confidence":4},{"trial_n":98,"n_dots":3.25,"target":"left","response":"left","rt":765.10000002384,"correct":true,"confidence":4},{"trial_n":99,"n_dots":3.15,"target":"right","response":"right","rt":1957.400000006,"correct":true,"confidence":3},{"trial_n":100,"n_dots":3.15,"target":"left","response":"right","rt":1229.8999999762,"correct":false,"confidence":3},{"trial_n":101,"n_dots":3.25,"target":"right","response":"right","rt":1815.8000000119,"correct":true,"confidence":3},{"trial_n":102,"n_dots":3.25,"target":"right","response":"right","rt":1339.7000000179,"correct":true,"confidence":3},{"trial_n":103,"n_dots":3.15,"target":"right","response":"left","rt":1161.400000006,"correct":false,"confidence":3},{"trial_n":104,"n_dots":3.25,"target":"left","response":"right","rt":1330,"correct":false,"confidence":2},{"trial_n":105,"n_dots":3.35,"target":"right","response":"right","rt":1242.8999999762,"correct":true,"confidence":5},{"trial_n":106,"n_dots":3.35,"target":"left","response":"left","rt":1077.099999994,"correct":true,"confidence":3},{"trial_n":107,"n_dots":3.25,"target":"left","response":"right","rt":2414.6000000238,"correct":false,"confidence":2},{"trial_n":108,"n_dots":3.35,"target":"left","response":"left","rt":1250.900000006,"correct":true,"confidence":4},{"trial_n":109,"n_dots":3.35,"target":"left","response":"right","rt":1324.599999994,"correct":false,"confidence":2},{"trial_n":110,"n_dots":3.45,"target":"left","response":"left","rt":1225.400000006,"correct":true,"confidence":3},{"trial_n":111,"n_dots":3.45,"target":"left","response":"left","rt":4732,"correct":true,"confidence":1},{"trial_n":112,"n_dots":3.35,"target":"right","response":"right","rt":1066.900000006,"correct":true,"confidence":3},{"trial_n":113,"n_dots":3.35,"target":"left","response":"right","rt":1343.099999994,"correct":false,"confidence":2},{"trial_n":114,"n_dots":3.45,"target":"right","response":"right","rt":1997,"correct":true,"confidence":5},{"trial_n":115,"n_dots":3.45,"target":"right","response":"right","rt":997.69999998808,"correct":true,"confidence":3},{"trial_n":116,"n_dots":3.35,"target":"right","response":"right","rt":812.80000001192,"correct":true,"confidence":5},{"trial_n":117,"n_dots":3.35,"target":"left","response":"right","rt":1061.8000000119,"correct":false,"confidence":3},{"trial_n":118,"n_dots":3.45,"target":"left","response":"left","rt":1012.8999999762,"correct":true,"confidence":5},{"trial_n":119,"n_dots":3.45,"target":"right","response":"right","rt":1188.5,"correct":true,"confidence":2},{"trial_n":120,"n_dots":3.35,"target":"right","response":"right","rt":1218.8000000119,"correct":true,"confidence":4}]