[{"trial_n":1,"min":25,"max":230,"target":"present","response":"absent","rt":5443,"correct":false,"confidence":-1},{"trial_n":2,"min":25,"max":230,"target":"present","response":"present","rt":1163,"correct":true,"confidence":-1},{"trial_n":3,"min":25,"max":230,"target":"absent","response":"present","rt":1202,"correct":false,"confidence":-1},{"trial_n":4,"min":9,"max":246,"target":"absent","response":"absent","rt":891,"correct":true,"confidence":-1},{"trial_n":5,"min":9,"max":246,"target":"present","response":"present","rt":1051,"correct":true,"confidence":-1},{"trial_n":6,"min":25,"max":230,"target":"present","response":"present","rt":610,"correct":true,"confidence":-1},{"trial_n":7,"min":25,"max":230,"target":"absent","response":"absent","rt":898,"correct":true,"confidence":-1},{"trial_n":8,"min":41,"max":214,"target":"absent","response":"present","rt":778,"correct":false,"confidence":-1},{"trial_n":9,"min":25,"max":230,"target":"absent","response":"absent","rt":971.00000000001,"correct":true,"confidence":-1},{"trial_n":10,"min":25,"max":230,"target":"absent","response":"absent","rt":460,"correct":true,"confidence":-1},{"trial_n":11,"min":33,"max":222,"target":"present","response":"present","rt":731,"correct":true,"confidence":-1},{"trial_n":12,"min":33,"max":222,"target":"present","response":"present","rt":650,"correct":true,"confidence":-1},{"trial_n":13,"min":41,"max":214,"target":"absent","response":"absent","rt":522,"correct":true,"confidence":-1},{"trial_n":14,"min":41,"max":214,"target":"absent","response":"absent","rt":438,"correct":true,"confidence":-1},{"trial_n":15,"min":49,"max":206,"target":"absent","response":"absent","rt":515.99999999999,"correct":true,"confidence":-1},{"trial_n":16,"min":49,"max":206,"target":"present","response":"present","rt":829,"correct":true,"confidence":-1},{"trial_n":17,"min":57,"max":198,"target":"absent","response":"absent","rt":708,"correct":true,"confidence":-1},{"trial_n":18,"min":57,"max":198,"target":"present","response":"present","rt":664,"correct":true,"confidence":-1},{"trial_n":19,"min":65,"max":190,"target":"present","response":"present","rt":512,"correct":true,"confidence":-1},{"trial_n":20,"min":65,"max":190,"target":"present","response":"present","rt":478,"correct":true,"confidence":-1},{"trial_n":21,"min":69,"max":186,"target":"present","response":"present","rt":649,"correct":true,"confidence":3},{"trial_n":22,"min":69,"max":186,"target":"present","response":"absent","rt":2746,"correct":false,"confidence":3},{"trial_n":23,"min":65,"max":190,"target":"absent","response":"absent","rt":834,"correct":true,"confidence":5},{"trial_n":24,"min":65,"max":190,"target":"present","response":"absent","rt":826,"correct":false,"confidence":5},{"trial_n":25,"min":61,"max":194,"target":"present","response":"present","rt":774,"correct":true,"confidence":4},{"trial_n":26,"min":61,"max":194,"target":"present","response":"present","rt":1658,"correct":true,"confidence":3},{"trial_n":27,"min":65,"max":190,"target":"present","response":"present","rt":1034,"correct":true,"confidence":4},{"trial_n":28,"min":65,"max":190,"target":"present","response":"present","rt":747,"correct":true,"confidence":4},{"trial_n":29,"min":69,"max":186,"target":"absent","response":"absent","rt":890,"correct":true,"confidence":5},{"trial_n":30,"min":69,"max":186,"target":"present","response":"present","rt":1138,"correct":true,"confidence":3},{"trial_n":31,"min":71,"max":184,"target":"present","response":"present","rt":1051,"correct":true,"confidence":4},{"trial_n":32,"min":71,"max":184,"target":"absent","response":"absent","rt":858,"correct":true,"confidence":5},{"trial_n":33,"min":73,"max":182,"target":"present","response":"absent","rt":771,"correct":false,"confidence":4},{"trial_n":34,"min":71,"max":184,"target":"present","response":"absent","rt":870,"correct":false,"confidence":4},{"trial_n":35,"min":69,"max":186,"target":"present","response":"present","rt":707,"correct":true,"confidence":5},{"trial_n":36,"min":69,"max":186,"target":"present","response":"present","rt":2884,"correct":true,"confidence":4},{"trial_n":37,"min":71,"max":184,"target":"absent","response":"absent","rt":954,"correct":true,"confidence":5},{"trial_n":38,"min":71,"max":184,"target":"absent","response":"absent","rt":984.99999999999,"correct":true,"confidence":5},{"trial_n":39,"min":73,"max":182,"target":"absent","response":"absent","rt":786,"correct":true,"confidence":5},{"trial_n":40,"min":73,"max":182,"target":"present","response":"present","rt":1369,"correct":true,"confidence":3},{"trial_n":41,"min":74,"max":181,"target":"absent","response":"absent","rt":810,"correct":true,"confidence":5},{"trial_n":42,"min":74,"max":181,"target":"absent","response":"absent","rt":1323,"correct":true,"confidence":5},{"trial_n":43,"min":75,"max":180,"target":"absent","response":"absent","rt":714,"correct":true,"confidence":5},{"trial_n":44,"min":75,"max":180,"target":"present","response":"present","rt":994,"correct":true,"confidence":4},{"trial_n":45,"min":76,"max":179,"target":"absent","response":"absent","rt":843.99999999997,"correct":true,"confidence":5},{"trial_n":46,"min":76,"max":179,"target":"present","response":"present","rt":711,"correct":true,"confidence":5},{"trial_n":47,"min":77,"max":178,"target":"present","response":"absent","rt":1044,"correct":false,"confidence":4},{"trial_n":48,"min":76,"max":179,"target":"present","response":"present","rt":1137,"correct":true,"confidence":5},{"trial_n":49,"min":76,"max":179,"target":"present","response":"present","rt":1070,"correct":true,"confidence":3},{"trial_n":50,"min":77,"max":178,"target":"present","response":"present","rt":933,"correct":true,"confidence":4},{"trial_n":51,"min":77,"max":178,"target":"present","response":"present","rt":765.99999999997,"correct":true,"confidence":3},{"trial_n":52,"min":78,"max":177,"target":"absent","response":"absent","rt":915,"correct":true,"confidence":5},{"trial_n":53,"min":78,"max":177,"target":"present","response":"absent","rt":1091,"correct":false,"confidence":5},{"trial_n":54,"min":77,"max":178,"target":"absent","response":"absent","rt":753,"correct":true,"confidence":5},{"trial_n":55,"min":77,"max":178,"target":"absent","response":"absent","rt":873.99999999997,"correct":true,"confidence":5},{"trial_n":56,"min":78,"max":177,"target":"absent","response":"absent","rt":875,"correct":true,"confidence":5},{"trial_n":57,"min":78,"max":177,"target":"absent","response":"absent","rt":748,"correct":true,"confidence":5},{"trial_n":58,"min":79,"max":176,"target":"present","response":"present","rt":939.00000000003,"correct":true,"confidence":3},{"trial_n":59,"min":79,"max":176,"target":"present","response":"absent","rt":1931,"correct":false,"confidence":4},{"trial_n":60,"min":78,"max":177,"target":"absent","response":"absent","rt":995,"correct":true,"confidence":4},{"trial_n":61,"min":78,"max":177,"target":"absent","response":"absent","rt":1234,"correct":true,"confidence":3},{"trial_n":62,"min":79,"max":176,"target":"absent","response":"absent","rt":957.99999999997,"correct":true,"confidence":3},{"trial_n":63,"min":79,"max":176,"target":"absent","response":"absent","rt":811,"correct":true,"confidence":3},{"trial_n":64,"min":80,"max":175,"target":"absent","response":"absent","rt":1203,"correct":true,"confidence":3},{"trial_n":65,"min":80,"max":175,"target":"absent","response":"absent","rt":828,"correct":true,"confidence":3},{"trial_n":66,"min":81,"max":174,"target":"present","response":"absent","rt":793.00000000003,"correct":false,"confidence":4},{"trial_n":67,"min":80,"max":175,"target":"absent","response":"absent","rt":676,"correct":true,"confidence":4},{"trial_n":68,"min":80,"max":175,"target":"absent","response":"absent","rt":876,"correct":true,"confidence":4},{"trial_n":69,"min":81,"max":174,"target":"absent","response":"absent","rt":1052,"correct":true,"confidence":4},{"trial_n":70,"min":81,"max":174,"target":"present","response":"present","rt":875,"correct":true,"confidence":5},{"trial_n":71,"min":41,"max":214,"target":"present","response":"present","rt":1018,"correct":true,"confidence":-1},{"trial_n":72,"min":41,"max":214,"target":"present","response":"present","rt":540.99999999997,"correct":true,"confidence":-1},{"trial_n":73,"min":57,"max":198,"target":"absent","response":"absent","rt":855.00000000003,"correct":true,"confidence":-1},{"trial_n":74,"min":57,"max":198,"target":"absent","response":"absent","rt":822,"correct":true,"confidence":-1},{"trial_n":75,"min":73,"max":182,"target":"present","response":"present","rt":685.99999999997,"correct":true,"confidence":-1},{"trial_n":76,"min":73,"max":182,"target":"absent","response":"absent","rt":726,"correct":true,"confidence":-1},{"trial_n":77,"min":89,"max":166,"target":"present","response":"present","rt":1065,"correct":true,"confidence":-1},{"trial_n":78,"min":89,"max":166,"target":"present","response":"present","rt":702,"correct":true,"confidence":-1},{"trial_n":79,"min":105,"max":150,"target":"present","response":"absent","rt":859,"correct":false,"confidence":-1},{"trial_n":80,"min":89,"max":166,"target":"present","response":"present","rt":1083,"correct":true,"confidence":-1},{"trial_n":81,"min":89,"max":166,"target":"absent","response":"absent","rt":1349,"correct":true,"confidence":-1},{"trial_n":82,"min":97,"max":158,"target":"absent","response":"absent","rt":1188,"correct":true,"confidence":-1},{"trial_n":83,"min":97,"max":158,"target":"absent","response":"present","rt":738,"correct":false,"confidence":-1},{"trial_n":84,"min":89,"max":166,"target":"present","response":"present","rt":721.00000000006,"correct":true,"confidence":-1},{"trial_n":85,"min":89,"max":166,"target":"present","response":"present","rt":647,"correct":true,"confidence":-1},{"trial_n":86,"min":97,"max":158,"target":"present","response":"absent","rt":727,"correct":false,"confidence":-1},{"trial_n":87,"min":89,"max":166,"target":"absent","response":"present","rt":871.99999999994,"correct":false,"confidence":-1},{"trial_n":88,"min":81,"max":174,"target":"present","response":"absent","rt":575,"correct":false,"confidence":-1},{"trial_n":89,"min":73,"max":182,"target":"absent","response":"absent","rt":1535,"correct":true,"confidence":-1},{"trial_n":90,"min":73,"max":182,"target":"present","response":"present","rt":561,"correct":true,"confidence":-1},{"trial_n":91,"min":77,"max":178,"target":"absent","response":"absent","rt":1084,"correct":true,"confidence":3},{"trial_n":92,"min":77,"max":178,"target":"present","response":"present","rt":748,"correct":true,"confidence":5},{"trial_n":93,"min":81,"max":174,"target":"absent","response":"absent","rt":1073,"correct":true,"confidence":5},{"trial_n":94,"min":81,"max":174,"target":"absent","response":"absent","rt":1787,"correct":true,"confidence":3},{"trial_n":95,"min":85,"max":170,"target":"present","response":"present","rt":742,"correct":true,"confidence":5},{"trial_n":96,"min":85,"max":170,"target":"absent","response":"absent","rt":822,"correct":true,"confidence":2},{"trial_n":97,"min":89,"max":166,"target":"present","response":"present","rt":733.99999999994,"correct":true,"confidence":4},{"trial_n":98,"min":89,"max":166,"target":"present","response":"present","rt":1030,"correct":true,"confidence":5},{"trial_n":99,"min":93,"max":162,"target":"present","response":"present","rt":680,"correct":true,"confidence":5},{"trial_n":100,"min":93,"max":162,"target":"present","response":"present","rt":1110.9999999999,"correct":true,"confidence":3},{"trial_n":101,"min":95,"max":160,"target":"absent","response":"present","rt":737,"correct":false,"confidence":3},{"trial_n":102,"min":93,"max":162,"target":"absent","response":"present","rt":763,"correct":false,"confidence":5},{"trial_n":103,"min":91,"max":164,"target":"absent","response":"present","rt":1075,"correct":false,"confidence":5},{"trial_n":104,"min":89,"max":166,"target":"present","response":"present","rt":742.00000000006,"correct":true,"confidence":5},{"trial_n":105,"min":89,"max":166,"target":"present","response":"absent","rt":2598.0000000001,"correct":false,"confidence":3},{"trial_n":106,"min":87,"max":168,"target":"absent","response":"absent","rt":1190,"correct":true,"confidence":5},{"trial_n":107,"min":87,"max":168,"target":"absent","response":"absent","rt":807.00000000006,"correct":true,"confidence":1},{"trial_n":108,"min":89,"max":166,"target":"present","response":"present","rt":718.99999999994,"correct":true,"confidence":1},{"trial_n":109,"min":89,"max":166,"target":"absent","response":"absent","rt":876,"correct":true,"confidence":4},{"trial_n":110,"min":91,"max":164,"target":"present","response":"present","rt":997,"correct":true,"confidence":3},{"trial_n":111,"min":91,"max":164,"target":"absent","response":"present","rt":1643,"correct":false,"confidence":2},{"trial_n":112,"min":90,"max":165,"target":"absent","response":"present","rt":1629,"correct":false,"confidence":3},{"trial_n":113,"min":89,"max":166,"target":"absent","response":"absent","rt":999,"correct":true,"confidence":3},{"trial_n":114,"min":89,"max":166,"target":"present","response":"present","rt":816,"correct":true,"confidence":3},{"trial_n":115,"min":90,"max":165,"target":"absent","response":"absent","rt":1149,"correct":true,"confidence":5},{"trial_n":116,"min":90,"max":165,"target":"absent","response":"absent","rt":1848,"correct":true,"confidence":5},{"trial_n":117,"min":91,"max":164,"target":"present","response":"present","rt":650.00000000006,"correct":true,"confidence":5},{"trial_n":118,"min":91,"max":164,"target":"absent","response":"present","rt":2005.9999999999,"correct":false,"confidence":5},{"trial_n":119,"min":90,"max":165,"target":"absent","response":"present","rt":1990.9999999999,"correct":false,"confidence":4},{"trial_n":120,"min":89,"max":166,"target":"absent","response":"present","rt":1377,"correct":false,"confidence":4},{"trial_n":121,"min":88,"max":167,"target":"present","response":"absent","rt":1087,"correct":false,"confidence":4},{"trial_n":122,"min":87,"max":168,"target":"absent","response":"absent","rt":935,"correct":true,"confidence":4},{"trial_n":123,"min":87,"max":168,"target":"absent","response":"present","rt":1009,"correct":false,"confidence":3},{"trial_n":124,"min":86,"max":169,"target":"present","response":"present","rt":864,"correct":true,"confidence":5},{"trial_n":125,"min":86,"max":169,"target":"present","response":"present","rt":1130,"correct":true,"confidence":5},{"trial_n":126,"min":87,"max":168,"target":"absent","response":"present","rt":753.00000000006,"correct":false,"confidence":5},{"trial_n":127,"min":86,"max":169,"target":"present","response":"present","rt":822.99999999994,"correct":true,"confidence":4},{"trial_n":128,"min":86,"max":169,"target":"absent","response":"absent","rt":1305,"correct":true,"confidence":5},{"trial_n":129,"min":87,"max":168,"target":"absent","response":"absent","rt":942.00000000006,"correct":true,"confidence":5},{"trial_n":130,"min":87,"max":168,"target":"present","response":"present","rt":832.99999999994,"correct":true,"confidence":5},{"trial_n":131,"min":88,"max":167,"target":"present","response":"present","rt":615,"correct":true,"confidence":4},{"trial_n":132,"min":88,"max":167,"target":"absent","response":"present","rt":1089,"correct":false,"confidence":4},{"trial_n":133,"min":87,"max":168,"target":"present","response":"present","rt":1113,"correct":true,"confidence":3},{"trial_n":134,"min":87,"max":168,"target":"present","response":"present","rt":693.00000000006,"correct":true,"confidence":5},{"trial_n":135,"min":88,"max":167,"target":"present","response":"absent","rt":955.99999999994,"correct":false,"confidence":4},{"trial_n":136,"min":87,"max":168,"target":"absent","response":"present","rt":1032.9999999999,"correct":false,"confidence":4},{"trial_n":137,"min":86,"max":169,"target":"absent","response":"absent","rt":864.00000000006,"correct":true,"confidence":4},{"trial_n":138,"min":86,"max":169,"target":"present","response":"present","rt":768.00000000006,"correct":true,"confidence":5},{"trial_n":139,"min":87,"max":168,"target":"present","response":"present","rt":824.99999999994,"correct":true,"confidence":4},{"trial_n":140,"min":87,"max":168,"target":"present","response":"absent","rt":865,"correct":false,"confidence":4}]