[{"trial_n":1,"span":8,"encoder":"31551192","distractor":"31551292","target":"present","response":"present","rt":"4125","correct":true,"confidence":-1},{"trial_n":2,"span":8,"encoder":"11986150","distractor":"11986750","target":"present","response":"present","rt":"2149","correct":true,"confidence":-1},{"trial_n":3,"span":10,"encoder":"3480536812","distractor":"3484536812","target":"absent","response":"absent","rt":"2087","correct":true,"confidence":-1},{"trial_n":4,"span":10,"encoder":"7290624191","distractor":"7290634191","target":"absent","response":"absent","rt":"1434","correct":true,"confidence":-1},{"trial_n":5,"span":12,"encoder":"376896695368","distractor":"376896695968","target":"present","response":"present","rt":"1313","correct":true,"confidence":-1},{"trial_n":6,"span":12,"encoder":"604562671907","distractor":"604362671907","target":"present","response":"absent","rt":"6081","correct":false,"confidence":-1},{"trial_n":7,"span":10,"encoder":"4120085558","distractor":"4120065558","target":"present","response":"absent","rt":"3341","correct":false,"confidence":-1},{"trial_n":8,"span":8,"encoder":"58202155","distractor":"58202157","target":"present","response":"present","rt":"1169","correct":true,"confidence":-1},{"trial_n":9,"span":8,"encoder":"69764835","distractor":"69764805","target":"absent","response":"absent","rt":"1517","correct":true,"confidence":-1},{"trial_n":10,"span":10,"encoder":"0686058055","distractor":"0686058025","target":"absent","response":"present","rt":"2129","correct":false,"confidence":-1},{"trial_n":11,"span":8,"encoder":"50737654","distractor":"50737655","target":"absent","response":"present","rt":"1265","correct":false,"confidence":-1},{"trial_n":12,"span":7,"encoder":"9166526","distractor":"9162526","target":"present","response":"present","rt":"1813","correct":true,"confidence":-1},{"trial_n":13,"span":7,"encoder":"9000928","distractor":"9000948","target":"absent","response":"absent","rt":"1784","correct":true,"confidence":-1},{"trial_n":14,"span":8,"encoder":"86087816","distractor":"84087816","target":"present","response":"present","rt":"1555","correct":true,"confidence":-1},{"trial_n":15,"span":8,"encoder":"90287826","distractor":"90287827","target":"absent","response":"absent","rt":"2244","correct":true,"confidence":-1},{"trial_n":16,"span":9,"encoder":"114650351","distractor":"114850351","target":"present","response":"present","rt":"2313","correct":true,"confidence":-1},{"trial_n":17,"span":9,"encoder":"665051118","distractor":"665050118","target":"absent","response":"present","rt":"1052","correct":false,"confidence":-1},{"trial_n":18,"span":8,"encoder":"11957068","distractor":"11954068","target":"present","response":"present","rt":"1001","correct":true,"confidence":-1},{"trial_n":19,"span":8,"encoder":"69702221","distractor":"29702221","target":"absent","response":"absent","rt":"1920","correct":true,"confidence":-1},{"trial_n":20,"span":9,"encoder":"424566353","distractor":"429566353","target":"absent","response":"present","rt":"2639","correct":false,"confidence":-1},{"trial_n":21,"span":8,"encoder":"26400382","distractor":"26410382","target":"absent","response":"absent","rt":"3666","correct":true,"confidence":5},{"trial_n":22,"span":8,"encoder":"01213144","distractor":"01213104","target":"absent","response":"absent","rt":"3753","correct":true,"confidence":4},{"trial_n":23,"span":9,"encoder":"362400025","distractor":"362400065","target":"present","response":"present","rt":"1942","correct":true,"confidence":4},{"trial_n":24,"span":9,"encoder":"381157465","distractor":"382157465","target":"absent","response":"present","rt":"4066","correct":false,"confidence":3},{"trial_n":25,"span":8,"encoder":"00419755","distractor":"00719755","target":"present","response":"present","rt":"4185","correct":true,"confidence":3},{"trial_n":26,"span":8,"encoder":"77191761","distractor":"72191761","target":"absent","response":"absent","rt":"2687","correct":true,"confidence":4},{"trial_n":27,"span":9,"encoder":"042625780","distractor":"042625710","target":"present","response":"present","rt":"2830","correct":true,"confidence":4},{"trial_n":28,"span":9,"encoder":"581075903","distractor":"581075943","target":"present","response":"absent","rt":"3708","correct":false,"confidence":2},{"trial_n":29,"span":8,"encoder":"60790604","distractor":"60797604","target":"present","response":"present","rt":"3569","correct":true,"confidence":3},{"trial_n":30,"span":8,"encoder":"49886398","distractor":"39886398","target":"present","response":"present","rt":"3522","correct":true,"confidence":3},{"trial_n":31,"span":9,"encoder":"862539326","distractor":"862839326","target":"absent","response":"absent","rt":"2601","correct":true,"confidence":4},{"trial_n":32,"span":9,"encoder":"228561800","distractor":"428561800","target":"absent","response":"absent","rt":"6610","correct":true,"confidence":3},{"trial_n":33,"span":10,"encoder":"0235523108","distractor":"0035523108","target":"present","response":"present","rt":"4167","correct":true,"confidence":2},{"trial_n":34,"span":10,"encoder":"5770554145","distractor":"5770584145","target":"present","response":"present","rt":"2649","correct":true,"confidence":4},{"trial_n":35,"span":11,"encoder":"85871625488","distractor":"85871525488","target":"absent","response":"present","rt":"3804","correct":false,"confidence":2},{"trial_n":36,"span":10,"encoder":"5661835446","distractor":"1661835446","target":"present","response":"absent","rt":"1866.9999999999","correct":false,"confidence":3},{"trial_n":37,"span":9,"encoder":"085271073","distractor":"085571073","target":"present","response":"present","rt":"2125","correct":true,"confidence":4},{"trial_n":38,"span":9,"encoder":"597065184","distractor":"197065184","target":"absent","response":"present","rt":"4012","correct":false,"confidence":3},{"trial_n":39,"span":8,"encoder":"68149690","distractor":"38149690","target":"present","response":"present","rt":"1883","correct":true,"confidence":5},{"trial_n":40,"span":8,"encoder":"53337711","distractor":"53337411","target":"absent","response":"absent","rt":"4739","correct":true,"confidence":5},{"trial_n":41,"span":9,"encoder":"710411282","distractor":"718411282","target":"absent","response":"present","rt":"2943.0000000001","correct":false,"confidence":2},{"trial_n":42,"span":8,"encoder":"44267788","distractor":"44267789","target":"absent","response":"present","rt":"2689.9999999999","correct":false,"confidence":3},{"trial_n":43,"span":7,"encoder":"7044913","distractor":"6044913","target":"present","response":"present","rt":"1718","correct":true,"confidence":5},{"trial_n":44,"span":7,"encoder":"6623812","distractor":"6603812","target":"present","response":"present","rt":"1966","correct":true,"confidence":5},{"trial_n":45,"span":8,"encoder":"44155993","distractor":"44195993","target":"present","response":"absent","rt":"5911","correct":false,"confidence":3},{"trial_n":46,"span":7,"encoder":"0641161","distractor":"8641161","target":"present","response":"absent","rt":"1852","correct":false,"confidence":3},{"trial_n":47,"span":6,"encoder":"529159","distractor":"599159","target":"absent","response":"absent","rt":"1983","correct":true,"confidence":5},{"trial_n":48,"span":6,"encoder":"260204","distractor":"860204","target":"absent","response":"absent","rt":"1335.9999999999","correct":true,"confidence":5},{"trial_n":49,"span":7,"encoder":"3424877","distractor":"3421877","target":"absent","response":"absent","rt":"4601","correct":true,"confidence":5},{"trial_n":50,"span":7,"encoder":"8649977","distractor":"8649777","target":"absent","response":"absent","rt":"4151","correct":true,"confidence":5},{"trial_n":51,"span":8,"encoder":"26668706","distractor":"26668746","target":"absent","response":"absent","rt":"2104.0000000001","correct":true,"confidence":5},{"trial_n":52,"span":8,"encoder":"52124057","distractor":"52125057","target":"present","response":"absent","rt":"2791","correct":false,"confidence":5},{"trial_n":53,"span":7,"encoder":"7351603","distractor":"9351603","target":"absent","response":"absent","rt":"1771","correct":true,"confidence":5},{"trial_n":54,"span":7,"encoder":"7053707","distractor":"6053707","target":"absent","response":"absent","rt":"1637","correct":true,"confidence":5},{"trial_n":55,"span":8,"encoder":"88680085","distractor":"88681085","target":"present","response":"present","rt":"2242.9999999999","correct":true,"confidence":4},{"trial_n":56,"span":8,"encoder":"22759948","distractor":"22759988","target":"absent","response":"present","rt":"1860","correct":false,"confidence":2},{"trial_n":57,"span":7,"encoder":"2349073","distractor":"2359073","target":"absent","response":"present","rt":"2370","correct":false,"confidence":3},{"trial_n":58,"span":6,"encoder":"555583","distractor":"553583","target":"present","response":"absent","rt":"1748","correct":false,"confidence":4},{"trial_n":59,"span":5,"encoder":"57927","distractor":"57977","target":"present","response":"present","rt":"1646","correct":true,"confidence":5},{"trial_n":60,"span":5,"encoder":"92074","distractor":"82074","target":"present","response":"present","rt":"2577","correct":true,"confidence":3},{"trial_n":61,"span":6,"encoder":"224854","distractor":"244854","target":"present","response":"present","rt":"2017","correct":true,"confidence":5},{"trial_n":62,"span":6,"encoder":"128984","distractor":"528984","target":"present","response":"present","rt":"1621","correct":true,"confidence":5},{"trial_n":63,"span":7,"encoder":"8798123","distractor":"8798127","target":"present","response":"present","rt":"2922","correct":true,"confidence":5},{"trial_n":64,"span":7,"encoder":"4543733","distractor":"4543723","target":"absent","response":"absent","rt":"2221","correct":true,"confidence":5},{"trial_n":65,"span":8,"encoder":"00515236","distractor":"00515233","target":"present","response":"absent","rt":"3209","correct":false,"confidence":5},{"trial_n":66,"span":7,"encoder":"9362600","distractor":"9462600","target":"present","response":"present","rt":"3558.0000000001","correct":true,"confidence":3},{"trial_n":67,"span":7,"encoder":"4225498","distractor":"4222498","target":"absent","response":"absent","rt":"3026","correct":true,"confidence":5},{"trial_n":68,"span":8,"encoder":"46365976","distractor":"46355976","target":"absent","response":"absent","rt":"2809","correct":true,"confidence":3},{"trial_n":69,"span":8,"encoder":"54651316","distractor":"34651316","target":"absent","response":"present","rt":"3157","correct":false,"confidence":5},{"trial_n":70,"span":7,"encoder":"2737176","distractor":"2732176","target":"present","response":"present","rt":"2241.0000000001","correct":true,"confidence":5},{"trial_n":71,"span":8,"encoder":"89764108","distractor":"29764108","target":"present","response":"present","rt":"3740","correct":true,"confidence":-1},{"trial_n":72,"span":8,"encoder":"55418123","distractor":"55518123","target":"present","response":"present","rt":"3040.0000000001","correct":true,"confidence":-1},{"trial_n":73,"span":9,"encoder":"742108950","distractor":"742108970","target":"absent","response":"absent","rt":"3003.9999999999","correct":true,"confidence":-1},{"trial_n":74,"span":9,"encoder":"119620691","distractor":"139620691","target":"absent","response":"absent","rt":"4157","correct":true,"confidence":-1},{"trial_n":75,"span":10,"encoder":"3753560651","distractor":"6753560651","target":"present","response":"present","rt":"4750","correct":true,"confidence":-1},{"trial_n":76,"span":10,"encoder":"4310687544","distractor":"4310387544","target":"present","response":"present","rt":"4284","correct":true,"confidence":-1},{"trial_n":77,"span":11,"encoder":"60460527612","distractor":"60460529612","target":"absent","response":"absent","rt":"11768","correct":true,"confidence":-1},{"trial_n":78,"span":11,"encoder":"17191432361","distractor":"17191422361","target":"present","response":"present","rt":"4702","correct":true,"confidence":-1},{"trial_n":79,"span":12,"encoder":"976298567012","distractor":"976294567012","target":"absent","response":"absent","rt":"4605","correct":true,"confidence":-1},{"trial_n":80,"span":12,"encoder":"257345568928","distractor":"257645568928","target":"absent","response":"absent","rt":"2181","correct":true,"confidence":-1},{"trial_n":81,"span":13,"encoder":"5554887443083","distractor":"5554887443081","target":"present","response":"present","rt":"5209","correct":true,"confidence":-1},{"trial_n":82,"span":13,"encoder":"5569588907466","distractor":"5769588907466","target":"absent","response":"absent","rt":"3710","correct":true,"confidence":-1},{"trial_n":83,"span":14,"encoder":"81290585314385","distractor":"81270585314385","target":"present","response":"present","rt":"3443.0000000001","correct":true,"confidence":-1},{"trial_n":84,"span":14,"encoder":"87407394955788","distractor":"87407394955748","target":"absent","response":"absent","rt":"3579","correct":true,"confidence":-1},{"trial_n":85,"span":15,"encoder":"347757931766926","distractor":"347757921766926","target":"present","response":"present","rt":"4799","correct":true,"confidence":-1},{"trial_n":86,"span":15,"encoder":"916455047086167","distractor":"916455047986167","target":"absent","response":"absent","rt":"707","correct":true,"confidence":-1},{"trial_n":87,"span":16,"encoder":"2379854789974584","distractor":"2379854759974584","target":"absent","response":"absent","rt":"692","correct":true,"confidence":-1},{"trial_n":88,"span":16,"encoder":"1968633507223792","distractor":"1968633507223793","target":"absent","response":"present","rt":"673","correct":false,"confidence":-1},{"trial_n":89,"span":15,"encoder":"678010525729297","distractor":"675010525729297","target":"present","response":"present","rt":"3870","correct":true,"confidence":-1},{"trial_n":90,"span":15,"encoder":"333034038924038","distractor":"333034038994038","target":"absent","response":"absent","rt":"7241","correct":true,"confidence":-1},{"trial_n":91,"span":16,"encoder":"1354274494583094","distractor":"1344274494583094","target":"absent","response":"present","rt":"1729","correct":false,"confidence":5},{"trial_n":92,"span":15,"encoder":"952298863577229","distractor":"952298663577229","target":"absent","response":"present","rt":"3972","correct":false,"confidence":4},{"trial_n":93,"span":14,"encoder":"12657267337741","distractor":"12457267337741","target":"absent","response":"absent","rt":"7384","correct":true,"confidence":4},{"trial_n":94,"span":14,"encoder":"84453490654295","distractor":"82453490654295","target":"present","response":"present","rt":"8508","correct":true,"confidence":3},{"trial_n":95,"span":15,"encoder":"397721168730690","distractor":"397721168780690","target":"absent","response":"absent","rt":"12737","correct":true,"confidence":2},{"trial_n":96,"span":15,"encoder":"400509383262851","distractor":"400509383962851","target":"present","response":"present","rt":"10189","correct":true,"confidence":5},{"trial_n":97,"span":16,"encoder":"9389938156462948","distractor":"9389938152462948","target":"absent","response":"absent","rt":"9113","correct":true,"confidence":3},{"trial_n":98,"span":16,"encoder":"4394301783357221","distractor":"4394306783357221","target":"absent","response":"absent","rt":"7394","correct":true,"confidence":3},{"trial_n":99,"span":17,"encoder":"68363919267649069","distractor":"68363919367649069","target":"present","response":"absent","rt":"27034","correct":false,"confidence":3},{"trial_n":100,"span":16,"encoder":"6923508622247169","distractor":"6973508622247169","target":"present","response":"present","rt":"4411","correct":true,"confidence":3},{"trial_n":101,"span":16,"encoder":"8947046588566754","distractor":"8947046583566754","target":"present","response":"present","rt":"2210","correct":true,"confidence":5},{"trial_n":102,"span":17,"encoder":"64458815839987300","distractor":"64459815839987300","target":"absent","response":"absent","rt":"7514","correct":true,"confidence":5},{"trial_n":103,"span":17,"encoder":"55515100999388209","distractor":"54515100999388209","target":"present","response":"present","rt":"12667","correct":true,"confidence":5},{"trial_n":104,"span":18,"encoder":"797249593591644293","distractor":"797249543591644293","target":"present","response":"present","rt":"13338","correct":true,"confidence":4},{"trial_n":105,"span":18,"encoder":"517858793773564331","distractor":"517858793773764331","target":"present","response":"present","rt":"5492","correct":true,"confidence":5},{"trial_n":106,"span":19,"encoder":"1626181723152981616","distractor":"1629181723152981616","target":"absent","response":"absent","rt":"11874","correct":true,"confidence":3},{"trial_n":107,"span":19,"encoder":"4897273569773611732","distractor":"4897273669773611732","target":"absent","response":"present","rt":"6861","correct":false,"confidence":2},{"trial_n":108,"span":18,"encoder":"683001004688008678","distractor":"683001004681008678","target":"present","response":"absent","rt":"6723.0000000002","correct":false,"confidence":3},{"trial_n":109,"span":17,"encoder":"03946059626372177","distractor":"93946059626372177","target":"present","response":"absent","rt":"5751","correct":false,"confidence":1},{"trial_n":110,"span":16,"encoder":"9634566923523352","distractor":"2634566923523352","target":"present","response":"present","rt":"7763","correct":true,"confidence":4},{"trial_n":111,"span":16,"encoder":"7885056885903310","distractor":"7881056885903310","target":"absent","response":"present","rt":"9662","correct":false,"confidence":4},{"trial_n":112,"span":15,"encoder":"343007827123158","distractor":"343009827123158","target":"present","response":"present","rt":"6412","correct":true,"confidence":3},{"trial_n":113,"span":15,"encoder":"513390318191854","distractor":"513390318191454","target":"present","response":"present","rt":"6194","correct":true,"confidence":4},{"trial_n":114,"span":16,"encoder":"0692823047267904","distractor":"0092823047267904","target":"absent","response":"present","rt":"5066.0000000002","correct":false,"confidence":5},{"trial_n":115,"span":15,"encoder":"536049892923581","distractor":"536049892923591","target":"present","response":"present","rt":"7987","correct":true,"confidence":4},{"trial_n":116,"span":15,"encoder":"168085204839447","distractor":"168585204839447","target":"absent","response":"present","rt":"4325","correct":false,"confidence":4},{"trial_n":117,"span":14,"encoder":"19177697690252","distractor":"19277697690252","target":"present","response":"absent","rt":"3889","correct":false,"confidence":3},{"trial_n":118,"span":13,"encoder":"6312510478227","distractor":"6312510478927","target":"present","response":"present","rt":"10019","correct":true,"confidence":2},{"trial_n":119,"span":13,"encoder":"6773134603584","distractor":"6793134603584","target":"present","response":"absent","rt":"7252","correct":false,"confidence":3},{"trial_n":120,"span":12,"encoder":"417163472945","distractor":"417163477945","target":"absent","response":"present","rt":"5330","correct":false,"confidence":2},{"trial_n":121,"span":11,"encoder":"80735806017","distractor":"88735806017","target":"absent","response":"present","rt":"7228","correct":false,"confidence":3},{"trial_n":122,"span":10,"encoder":"0224005309","distractor":"0224075309","target":"present","response":"present","rt":"3305","correct":true,"confidence":5},{"trial_n":123,"span":10,"encoder":"8961545238","distractor":"8965545238","target":"present","response":"absent","rt":"5773","correct":false,"confidence":3},{"trial_n":124,"span":9,"encoder":"743017680","distractor":"742017680","target":"absent","response":"absent","rt":"5351.9999999998","correct":true,"confidence":4},{"trial_n":125,"span":9,"encoder":"123994483","distractor":"123994383","target":"present","response":"present","rt":"2534","correct":true,"confidence":5},{"trial_n":126,"span":10,"encoder":"4015732964","distractor":"4315732964","target":"absent","response":"absent","rt":"1487.0000000002","correct":true,"confidence":5},{"trial_n":127,"span":10,"encoder":"5302082587","distractor":"5308082587","target":"absent","response":"absent","rt":"1842","correct":true,"confidence":5},{"trial_n":128,"span":11,"encoder":"28350104454","distractor":"28350108454","target":"present","response":"present","rt":"3578","correct":true,"confidence":5},{"trial_n":129,"span":11,"encoder":"01008537907","distractor":"01008539907","target":"present","response":"present","rt":"4494","correct":true,"confidence":4},{"trial_n":130,"span":12,"encoder":"660601512624","distractor":"860601512624","target":"absent","response":"absent","rt":"1716","correct":true,"confidence":5},{"trial_n":131,"span":12,"encoder":"045859470927","distractor":"040859470927","target":"absent","response":"absent","rt":"3248","correct":true,"confidence":5},{"trial_n":132,"span":13,"encoder":"2776747182512","distractor":"3776747182512","target":"present","response":"present","rt":"5520.9999999998","correct":true,"confidence":4},{"trial_n":133,"span":13,"encoder":"0479150042562","distractor":"0479150342562","target":"absent","response":"absent","rt":"1851.9999999998","correct":true,"confidence":5},{"trial_n":134,"span":14,"encoder":"13178316392343","distractor":"13178316392303","target":"present","response":"present","rt":"1974.0000000002","correct":true,"confidence":5},{"trial_n":135,"span":14,"encoder":"45935144437689","distractor":"45995144437689","target":"absent","response":"absent","rt":"8209.9999999998","correct":true,"confidence":4},{"trial_n":136,"span":15,"encoder":"817711585458324","distractor":"817711585453324","target":"present","response":"present","rt":"5633","correct":true,"confidence":3},{"trial_n":137,"span":15,"encoder":"773675209840758","distractor":"773675209840752","target":"present","response":"present","rt":"7773.0000000005","correct":true,"confidence":2},{"trial_n":138,"span":16,"encoder":"6331041039567929","distractor":"6331041038567929","target":"present","response":"absent","rt":"10553","correct":false,"confidence":3},{"trial_n":139,"span":15,"encoder":"108351984401693","distractor":"308351984401693","target":"absent","response":"present","rt":"5747","correct":false,"confidence":3},{"trial_n":140,"span":14,"encoder":"11159643151342","distractor":"11159643851342","target":"absent","response":"absent","rt":"14177","correct":true,"confidence":3}]