[{"trial_n":1,"min":25,"max":230,"target":"present","response":"present","rt":4850,"correct":true,"confidence":-1},{"trial_n":2,"min":25,"max":230,"target":"present","response":"present","rt":646.29999995232,"correct":true,"confidence":-1},{"trial_n":3,"min":41,"max":214,"target":"absent","response":"present","rt":1438.4000000954,"correct":false,"confidence":-1},{"trial_n":4,"min":25,"max":230,"target":"absent","response":"absent","rt":2483,"correct":true,"confidence":-1},{"trial_n":5,"min":25,"max":230,"target":"present","response":"present","rt":269.09999990463,"correct":true,"confidence":-1},{"trial_n":6,"min":41,"max":214,"target":"absent","response":"absent","rt":269.39999985695,"correct":true,"confidence":-1},{"trial_n":7,"min":41,"max":214,"target":"absent","response":"absent","rt":259.5,"correct":true,"confidence":-1},{"trial_n":8,"min":57,"max":198,"target":"present","response":"present","rt":101.40000009537,"correct":true,"confidence":-1},{"trial_n":9,"min":57,"max":198,"target":"absent","response":"absent","rt":216.09999990463,"correct":true,"confidence":-1},{"trial_n":10,"min":73,"max":182,"target":"absent","response":"present","rt":28.599999904633,"correct":false,"confidence":-1},{"trial_n":11,"min":65,"max":190,"target":"present","response":"present","rt":422.40000009537,"correct":true,"confidence":-1},{"trial_n":12,"min":65,"max":190,"target":"absent","response":"absent","rt":46.5,"correct":true,"confidence":-1},{"trial_n":13,"min":73,"max":182,"target":"present","response":"absent","rt":242.10000014305,"correct":false,"confidence":-1},{"trial_n":14,"min":65,"max":190,"target":"present","response":"present","rt":335,"correct":true,"confidence":-1},{"trial_n":15,"min":65,"max":190,"target":"present","response":"present","rt":385.40000009537,"correct":true,"confidence":-1},{"trial_n":16,"min":73,"max":182,"target":"absent","response":"absent","rt":263.30000019073,"correct":true,"confidence":-1},{"trial_n":17,"min":73,"max":182,"target":"present","response":"present","rt":241.39999985695,"correct":true,"confidence":-1},{"trial_n":18,"min":81,"max":174,"target":"present","response":"present","rt":459.39999985695,"correct":true,"confidence":-1},{"trial_n":19,"min":81,"max":174,"target":"absent","response":"absent","rt":281.69999980927,"correct":true,"confidence":-1},{"trial_n":20,"min":89,"max":166,"target":"absent","response":"absent","rt":248.90000009537,"correct":true,"confidence":-1},{"trial_n":21,"min":89,"max":166,"target":"present","response":"absent","rt":899,"correct":false,"confidence":2},{"trial_n":22,"min":85,"max":170,"target":"absent","response":"absent","rt":685.5,"correct":true,"confidence":2},{"trial_n":23,"min":85,"max":170,"target":"present","response":"present","rt":1099.1000001431,"correct":true,"confidence":3},{"trial_n":24,"min":89,"max":166,"target":"absent","response":"present","rt":2802.2999999523,"correct":false,"confidence":3},{"trial_n":25,"min":85,"max":170,"target":"present","response":"present","rt":669,"correct":true,"confidence":3},{"trial_n":26,"min":85,"max":170,"target":"absent","response":"present","rt":956.09999990463,"correct":false,"confidence":3},{"trial_n":27,"min":81,"max":174,"target":"absent","response":"absent","rt":642.39999985695,"correct":true,"confidence":4},{"trial_n":28,"min":81,"max":174,"target":"present","response":"present","rt":897.5,"correct":true,"confidence":3},{"trial_n":29,"min":85,"max":170,"target":"present","response":"absent","rt":650.59999990463,"correct":false,"confidence":3},{"trial_n":30,"min":81,"max":174,"target":"absent","response":"absent","rt":1282.6000001431,"correct":true,"confidence":2},{"trial_n":31,"min":81,"max":174,"target":"present","response":"absent","rt":1059.6000001431,"correct":false,"confidence":4},{"trial_n":32,"min":79,"max":176,"target":"absent","response":"absent","rt":648.79999995232,"correct":true,"confidence":4},{"trial_n":33,"min":79,"max":176,"target":"absent","response":"absent","rt":646.79999995232,"correct":true,"confidence":3},{"trial_n":34,"min":81,"max":174,"target":"present","response":"present","rt":563,"correct":true,"confidence":4},{"trial_n":35,"min":81,"max":174,"target":"absent","response":"absent","rt":596.20000004768,"correct":true,"confidence":5},{"trial_n":36,"min":83,"max":172,"target":"present","response":"absent","rt":656.69999980927,"correct":false,"confidence":3},{"trial_n":37,"min":81,"max":174,"target":"present","response":"present","rt":762.89999985695,"correct":true,"confidence":5},{"trial_n":38,"min":81,"max":174,"target":"present","response":"absent","rt":865.60000014305,"correct":false,"confidence":3},{"trial_n":39,"min":79,"max":176,"target":"present","response":"present","rt":781.10000014305,"correct":true,"confidence":4},{"trial_n":40,"min":79,"max":176,"target":"absent","response":"absent","rt":730.20000004768,"correct":true,"confidence":3},{"trial_n":41,"min":80,"max":175,"target":"absent","response":"absent","rt":712.39999985695,"correct":true,"confidence":4},{"trial_n":42,"min":80,"max":175,"target":"present","response":"present","rt":687.29999995232,"correct":true,"confidence":3},{"trial_n":43,"min":81,"max":174,"target":"present","response":"absent","rt":639.20000004768,"correct":false,"confidence":3},{"trial_n":44,"min":80,"max":175,"target":"present","response":"present","rt":595.5,"correct":true,"confidence":5},{"trial_n":45,"min":80,"max":175,"target":"present","response":"present","rt":1174.2999999523,"correct":true,"confidence":3},{"trial_n":46,"min":81,"max":174,"target":"absent","response":"absent","rt":713.09999990463,"correct":true,"confidence":4},{"trial_n":47,"min":81,"max":174,"target":"present","response":"present","rt":1721.4000000954,"correct":true,"confidence":2},{"trial_n":48,"min":82,"max":173,"target":"present","response":"present","rt":848.70000004768,"correct":true,"confidence":2},{"trial_n":49,"min":82,"max":173,"target":"present","response":"present","rt":737.59999990463,"correct":true,"confidence":4},{"trial_n":50,"min":83,"max":172,"target":"absent","response":"absent","rt":703,"correct":true,"confidence":5},{"trial_n":51,"min":83,"max":172,"target":"absent","response":"absent","rt":684.19999980927,"correct":true,"confidence":4},{"trial_n":52,"min":84,"max":171,"target":"absent","response":"absent","rt":591,"correct":true,"confidence":4},{"trial_n":53,"min":84,"max":171,"target":"absent","response":"absent","rt":960.80000019073,"correct":true,"confidence":4},{"trial_n":54,"min":85,"max":170,"target":"present","response":"absent","rt":1023.0999999046,"correct":false,"confidence":4},{"trial_n":55,"min":84,"max":171,"target":"absent","response":"absent","rt":922.39999985695,"correct":true,"confidence":4},{"trial_n":56,"min":84,"max":171,"target":"present","response":"absent","rt":1287.2999999523,"correct":false,"confidence":3},{"trial_n":57,"min":83,"max":172,"target":"present","response":"absent","rt":1122.2999999523,"correct":false,"confidence":3},{"trial_n":58,"min":82,"max":173,"target":"absent","response":"absent","rt":778.5,"correct":true,"confidence":4},{"trial_n":59,"min":82,"max":173,"target":"absent","response":"absent","rt":996.29999995232,"correct":true,"confidence":4},{"trial_n":60,"min":83,"max":172,"target":"absent","response":"absent","rt":818.59999990463,"correct":true,"confidence":4},{"trial_n":61,"min":83,"max":172,"target":"present","response":"present","rt":797.09999990463,"correct":true,"confidence":4},{"trial_n":62,"min":84,"max":171,"target":"absent","response":"absent","rt":880.79999995232,"correct":true,"confidence":4},{"trial_n":63,"min":84,"max":171,"target":"absent","response":"absent","rt":798.29999995232,"correct":true,"confidence":5},{"trial_n":64,"min":85,"max":170,"target":"present","response":"absent","rt":974.80000019073,"correct":false,"confidence":5},{"trial_n":65,"min":84,"max":171,"target":"absent","response":"absent","rt":1260.7999999523,"correct":true,"confidence":5},{"trial_n":66,"min":84,"max":171,"target":"absent","response":"absent","rt":736.70000004768,"correct":true,"confidence":5},{"trial_n":67,"min":85,"max":170,"target":"present","response":"absent","rt":767.90000009537,"correct":false,"confidence":4},{"trial_n":68,"min":84,"max":171,"target":"present","response":"present","rt":1086.5,"correct":true,"confidence":3},{"trial_n":69,"min":84,"max":171,"target":"present","response":"present","rt":967.79999995232,"correct":true,"confidence":3},{"trial_n":70,"min":85,"max":170,"target":"absent","response":"absent","rt":1030.1000001431,"correct":true,"confidence":4},{"trial_n":71,"min":41,"max":214,"target":"present","response":"present","rt":2595.2999999523,"correct":true,"confidence":-1},{"trial_n":72,"min":41,"max":214,"target":"present","response":"present","rt":702,"correct":true,"confidence":-1},{"trial_n":73,"min":57,"max":198,"target":"absent","response":"absent","rt":1188.7999999523,"correct":true,"confidence":-1},{"trial_n":74,"min":57,"max":198,"target":"absent","response":"absent","rt":918.20000004768,"correct":true,"confidence":-1},{"trial_n":75,"min":73,"max":182,"target":"present","response":"present","rt":1088.0999999046,"correct":true,"confidence":-1},{"trial_n":76,"min":73,"max":182,"target":"absent","response":"absent","rt":1416.7000000477,"correct":true,"confidence":-1},{"trial_n":77,"min":89,"max":166,"target":"present","response":"present","rt":1560.5,"correct":true,"confidence":-1},{"trial_n":78,"min":89,"max":166,"target":"present","response":"absent","rt":1583.8999998569,"correct":false,"confidence":-1},{"trial_n":79,"min":73,"max":182,"target":"present","response":"present","rt":1035.8000001907,"correct":true,"confidence":-1},{"trial_n":80,"min":73,"max":182,"target":"absent","response":"present","rt":1071.3000001907,"correct":false,"confidence":-1},{"trial_n":81,"min":65,"max":190,"target":"present","response":"present","rt":649.09999990463,"correct":true,"confidence":-1},{"trial_n":82,"min":65,"max":190,"target":"present","response":"present","rt":1151.2000000477,"correct":true,"confidence":-1},{"trial_n":83,"min":73,"max":182,"target":"present","response":"present","rt":1085.4000000954,"correct":true,"confidence":-1},{"trial_n":84,"min":73,"max":182,"target":"present","response":"present","rt":938.79999995232,"correct":true,"confidence":-1},{"trial_n":85,"min":81,"max":174,"target":"present","response":"present","rt":1042.9000000954,"correct":true,"confidence":-1},{"trial_n":86,"min":81,"max":174,"target":"present","response":"present","rt":592.5,"correct":true,"confidence":-1},{"trial_n":87,"min":89,"max":166,"target":"present","response":"present","rt":1072,"correct":true,"confidence":-1},{"trial_n":88,"min":89,"max":166,"target":"absent","response":"present","rt":1154.5,"correct":false,"confidence":-1},{"trial_n":89,"min":81,"max":174,"target":"absent","response":"absent","rt":1235.7000000477,"correct":true,"confidence":-1},{"trial_n":90,"min":81,"max":174,"target":"absent","response":"present","rt":1320.8999998569,"correct":false,"confidence":-1},{"trial_n":91,"min":77,"max":178,"target":"present","response":"present","rt":956.10000014305,"correct":true,"confidence":5},{"trial_n":92,"min":77,"max":178,"target":"absent","response":"absent","rt":1050.4000000954,"correct":true,"confidence":3},{"trial_n":93,"min":81,"max":174,"target":"present","response":"present","rt":1046.2000000477,"correct":true,"confidence":4},{"trial_n":94,"min":81,"max":174,"target":"present","response":"present","rt":994.29999995232,"correct":true,"confidence":4},{"trial_n":95,"min":85,"max":170,"target":"absent","response":"present","rt":1573.0999999046,"correct":false,"confidence":3},{"trial_n":96,"min":81,"max":174,"target":"present","response":"present","rt":765.09999990463,"correct":true,"confidence":4},{"trial_n":97,"min":81,"max":174,"target":"absent","response":"absent","rt":995.29999995232,"correct":true,"confidence":4},{"trial_n":98,"min":85,"max":170,"target":"present","response":"present","rt":1202.5999999046,"correct":true,"confidence":4},{"trial_n":99,"min":85,"max":170,"target":"absent","response":"absent","rt":762.60000014305,"correct":true,"confidence":4},{"trial_n":100,"min":89,"max":166,"target":"absent","response":"present","rt":987.90000009537,"correct":false,"confidence":4},{"trial_n":101,"min":87,"max":168,"target":"absent","response":"present","rt":1164,"correct":false,"confidence":1},{"trial_n":102,"min":85,"max":170,"target":"present","response":"absent","rt":1676.0999999046,"correct":false,"confidence":2},{"trial_n":103,"min":83,"max":172,"target":"absent","response":"absent","rt":1556.3000001907,"correct":true,"confidence":3},{"trial_n":104,"min":83,"max":172,"target":"present","response":"present","rt":1204,"correct":true,"confidence":1},{"trial_n":105,"min":85,"max":170,"target":"absent","response":"absent","rt":1400.7000000477,"correct":true,"confidence":2},{"trial_n":106,"min":85,"max":170,"target":"absent","response":"absent","rt":1129.6999998093,"correct":true,"confidence":3},{"trial_n":107,"min":87,"max":168,"target":"absent","response":"present","rt":2031.2999999523,"correct":false,"confidence":1},{"trial_n":108,"min":85,"max":170,"target":"absent","response":"absent","rt":1172.0999999046,"correct":true,"confidence":2},{"trial_n":109,"min":85,"max":170,"target":"present","response":"present","rt":746.89999985695,"correct":true,"confidence":4},{"trial_n":110,"min":87,"max":168,"target":"present","response":"present","rt":1120.7000000477,"correct":true,"confidence":3},{"trial_n":111,"min":87,"max":168,"target":"present","response":"present","rt":744.70000004768,"correct":true,"confidence":4},{"trial_n":112,"min":88,"max":167,"target":"present","response":"present","rt":1267.1999998093,"correct":true,"confidence":1},{"trial_n":113,"min":88,"max":167,"target":"present","response":"absent","rt":1290.9000000954,"correct":false,"confidence":1},{"trial_n":114,"min":87,"max":168,"target":"absent","response":"present","rt":1085,"correct":false,"confidence":1},{"trial_n":115,"min":86,"max":169,"target":"present","response":"present","rt":979.10000014305,"correct":true,"confidence":3},{"trial_n":116,"min":86,"max":169,"target":"present","response":"absent","rt":1228,"correct":false,"confidence":1},{"trial_n":117,"min":85,"max":170,"target":"absent","response":"absent","rt":1378.3999998569,"correct":true,"confidence":2},{"trial_n":118,"min":85,"max":170,"target":"absent","response":"absent","rt":965.40000009537,"correct":true,"confidence":1},{"trial_n":119,"min":86,"max":169,"target":"present","response":"present","rt":785.90000009537,"correct":true,"confidence":4},{"trial_n":120,"min":86,"max":169,"target":"absent","response":"absent","rt":1214.2999999523,"correct":true,"confidence":4},{"trial_n":121,"min":87,"max":168,"target":"present","response":"present","rt":775.5,"correct":true,"confidence":4},{"trial_n":122,"min":87,"max":168,"target":"absent","response":"absent","rt":866.29999995232,"correct":true,"confidence":2},{"trial_n":123,"min":88,"max":167,"target":"absent","response":"absent","rt":1329.8999998569,"correct":true,"confidence":2},{"trial_n":124,"min":88,"max":167,"target":"present","response":"present","rt":1077.5,"correct":true,"confidence":4},{"trial_n":125,"min":89,"max":166,"target":"absent","response":"absent","rt":1267,"correct":true,"confidence":4},{"trial_n":126,"min":89,"max":166,"target":"present","response":"present","rt":960.79999995232,"correct":true,"confidence":4},{"trial_n":127,"min":90,"max":165,"target":"present","response":"absent","rt":893.79999995232,"correct":false,"confidence":3},{"trial_n":128,"min":89,"max":166,"target":"absent","response":"absent","rt":1047.5999999046,"correct":true,"confidence":1},{"trial_n":129,"min":89,"max":166,"target":"present","response":"present","rt":1214.5999999046,"correct":true,"confidence":4},{"trial_n":130,"min":90,"max":165,"target":"absent","response":"absent","rt":2464.5,"correct":true,"confidence":1},{"trial_n":131,"min":90,"max":165,"target":"absent","response":"absent","rt":840.59999990463,"correct":true,"confidence":1},{"trial_n":132,"min":91,"max":164,"target":"present","response":"present","rt":824.09999990463,"correct":true,"confidence":4},{"trial_n":133,"min":91,"max":164,"target":"absent","response":"absent","rt":963,"correct":true,"confidence":2},{"trial_n":134,"min":92,"max":163,"target":"absent","response":"absent","rt":1176.9000000954,"correct":true,"confidence":2},{"trial_n":135,"min":92,"max":163,"target":"absent","response":"present","rt":1305.3000001907,"correct":false,"confidence":2},{"trial_n":136,"min":91,"max":164,"target":"present","response":"absent","rt":854.20000004768,"correct":false,"confidence":1},{"trial_n":137,"min":90,"max":165,"target":"absent","response":"absent","rt":1748.7000000477,"correct":true,"confidence":2},{"trial_n":138,"min":90,"max":165,"target":"absent","response":"absent","rt":978.79999995232,"correct":true,"confidence":2},{"trial_n":139,"min":91,"max":164,"target":"present","response":"present","rt":1091.2999999523,"correct":true,"confidence":3},{"trial_n":140,"min":91,"max":164,"target":"absent","response":"absent","rt":1031.6000001431,"correct":true,"confidence":1}]