[{"trial_n":1,"min":25,"max":230,"target":"present","response":"present","rt":3585.4000000954,"correct":true,"confidence":-1},{"trial_n":2,"min":25,"max":230,"target":"present","response":"present","rt":603.39999961853,"correct":true,"confidence":-1},{"trial_n":3,"min":41,"max":214,"target":"absent","response":"absent","rt":608.30000019073,"correct":true,"confidence":-1},{"trial_n":4,"min":41,"max":214,"target":"absent","response":"absent","rt":426.10000038147,"correct":true,"confidence":-1},{"trial_n":5,"min":57,"max":198,"target":"present","response":"present","rt":231.7999997139,"correct":true,"confidence":-1},{"trial_n":6,"min":57,"max":198,"target":"absent","response":"absent","rt":243.2999997139,"correct":true,"confidence":-1},{"trial_n":7,"min":73,"max":182,"target":"absent","response":"present","rt":214.7000002861,"correct":false,"confidence":-1},{"trial_n":8,"min":57,"max":198,"target":"present","response":"present","rt":225.90000009537,"correct":true,"confidence":-1},{"trial_n":9,"min":57,"max":198,"target":"present","response":"absent","rt":147.5,"correct":false,"confidence":-1},{"trial_n":10,"min":41,"max":214,"target":"absent","response":"absent","rt":197.59999990463,"correct":true,"confidence":-1},{"trial_n":11,"min":41,"max":214,"target":"absent","response":"absent","rt":161.09999990463,"correct":true,"confidence":-1},{"trial_n":12,"min":49,"max":206,"target":"absent","response":"absent","rt":126.2000002861,"correct":true,"confidence":-1},{"trial_n":13,"min":49,"max":206,"target":"absent","response":"absent","rt":166.80000019073,"correct":true,"confidence":-1},{"trial_n":14,"min":57,"max":198,"target":"present","response":"present","rt":122.2000002861,"correct":true,"confidence":-1},{"trial_n":15,"min":57,"max":198,"target":"absent","response":"absent","rt":163.09999990463,"correct":true,"confidence":-1},{"trial_n":16,"min":65,"max":190,"target":"absent","response":"absent","rt":297.2999997139,"correct":true,"confidence":-1},{"trial_n":17,"min":65,"max":190,"target":"present","response":"present","rt":167.7999997139,"correct":true,"confidence":-1},{"trial_n":18,"min":73,"max":182,"target":"present","response":"absent","rt":151.7000002861,"correct":false,"confidence":-1},{"trial_n":19,"min":65,"max":190,"target":"absent","response":"absent","rt":273.5,"correct":true,"confidence":-1},{"trial_n":20,"min":65,"max":190,"target":"absent","response":"absent","rt":655,"correct":true,"confidence":-1},{"trial_n":21,"min":69,"max":186,"target":"present","response":"present","rt":458.40000009537,"correct":true,"confidence":4},{"trial_n":22,"min":69,"max":186,"target":"present","response":"present","rt":2658.7000002861,"correct":true,"confidence":3},{"trial_n":23,"min":73,"max":182,"target":"absent","response":"absent","rt":526.40000009537,"correct":true,"confidence":5},{"trial_n":24,"min":73,"max":182,"target":"absent","response":"absent","rt":534.59999990463,"correct":true,"confidence":1},{"trial_n":25,"min":77,"max":178,"target":"present","response":"present","rt":1772.5,"correct":true,"confidence":3},{"trial_n":26,"min":77,"max":178,"target":"present","response":"absent","rt":1061.5,"correct":false,"confidence":5},{"trial_n":27,"min":73,"max":182,"target":"absent","response":"absent","rt":851.69999980927,"correct":true,"confidence":5},{"trial_n":28,"min":73,"max":182,"target":"absent","response":"absent","rt":1947.7999997139,"correct":true,"confidence":5},{"trial_n":29,"min":77,"max":178,"target":"absent","response":"absent","rt":291.7999997139,"correct":true,"confidence":5},{"trial_n":30,"min":77,"max":178,"target":"absent","response":"absent","rt":294.90000009537,"correct":true,"confidence":5},{"trial_n":31,"min":79,"max":176,"target":"present","response":"present","rt":763.30000019073,"correct":true,"confidence":5},{"trial_n":32,"min":79,"max":176,"target":"present","response":"absent","rt":438.40000009537,"correct":false,"confidence":5},{"trial_n":33,"min":77,"max":178,"target":"present","response":"present","rt":621.09999990463,"correct":true,"confidence":5},{"trial_n":34,"min":77,"max":178,"target":"absent","response":"absent","rt":498.69999980927,"correct":true,"confidence":5},{"trial_n":35,"min":79,"max":176,"target":"present","response":"present","rt":516,"correct":true,"confidence":5},{"trial_n":36,"min":79,"max":176,"target":"present","response":"present","rt":668.19999980927,"correct":true,"confidence":5},{"trial_n":37,"min":81,"max":174,"target":"present","response":"present","rt":650.30000019073,"correct":true,"confidence":5},{"trial_n":38,"min":81,"max":174,"target":"present","response":"absent","rt":422.40000009537,"correct":false,"confidence":5},{"trial_n":39,"min":79,"max":176,"target":"absent","response":"absent","rt":512.09999990463,"correct":true,"confidence":5},{"trial_n":40,"min":79,"max":176,"target":"absent","response":"absent","rt":552.69999980927,"correct":true,"confidence":5},{"trial_n":41,"min":80,"max":175,"target":"absent","response":"absent","rt":1119.9000000954,"correct":true,"confidence":5},{"trial_n":42,"min":80,"max":175,"target":"present","response":"absent","rt":432.80000019073,"correct":false,"confidence":5},{"trial_n":43,"min":79,"max":176,"target":"absent","response":"absent","rt":766.80000019073,"correct":true,"confidence":5},{"trial_n":44,"min":79,"max":176,"target":"present","response":"present","rt":585.80000019073,"correct":true,"confidence":4},{"trial_n":45,"min":80,"max":175,"target":"absent","response":"absent","rt":747.59999990463,"correct":true,"confidence":4},{"trial_n":46,"min":80,"max":175,"target":"present","response":"absent","rt":902.80000019073,"correct":false,"confidence":5},{"trial_n":47,"min":79,"max":176,"target":"present","response":"absent","rt":1686,"correct":false,"confidence":5},{"trial_n":48,"min":78,"max":177,"target":"present","response":"absent","rt":574.10000038147,"correct":false,"confidence":5},{"trial_n":49,"min":77,"max":178,"target":"absent","response":"absent","rt":802.7999997139,"correct":true,"confidence":5},{"trial_n":50,"min":77,"max":178,"target":"present","response":"present","rt":923.69999980927,"correct":true,"confidence":5},{"trial_n":51,"min":78,"max":177,"target":"present","response":"present","rt":338.2000002861,"correct":true,"confidence":5},{"trial_n":52,"min":78,"max":177,"target":"present","response":"absent","rt":471.7000002861,"correct":false,"confidence":5},{"trial_n":53,"min":77,"max":178,"target":"present","response":"absent","rt":838.90000009537,"correct":false,"confidence":5},{"trial_n":54,"min":76,"max":179,"target":"present","response":"absent","rt":863.19999980927,"correct":false,"confidence":5},{"trial_n":55,"min":75,"max":180,"target":"absent","response":"absent","rt":679.09999990463,"correct":true,"confidence":5},{"trial_n":56,"min":75,"max":180,"target":"absent","response":"absent","rt":294.59999990463,"correct":true,"confidence":5},{"trial_n":57,"min":76,"max":179,"target":"absent","response":"absent","rt":340.19999980927,"correct":true,"confidence":5},{"trial_n":58,"min":76,"max":179,"target":"present","response":"absent","rt":575.7999997139,"correct":false,"confidence":5},{"trial_n":59,"min":75,"max":180,"target":"present","response":"present","rt":769.69999980927,"correct":true,"confidence":5},{"trial_n":60,"min":75,"max":180,"target":"present","response":"absent","rt":2295.1000003815,"correct":false,"confidence":5},{"trial_n":61,"min":74,"max":181,"target":"absent","response":"absent","rt":519.90000009537,"correct":true,"confidence":1},{"trial_n":62,"min":74,"max":181,"target":"present","response":"absent","rt":615.90000009537,"correct":false,"confidence":5},{"trial_n":63,"min":73,"max":182,"target":"absent","response":"absent","rt":396.40000009537,"correct":true,"confidence":5},{"trial_n":64,"min":73,"max":182,"target":"absent","response":"absent","rt":371.5,"correct":true,"confidence":5},{"trial_n":65,"min":74,"max":181,"target":"absent","response":"absent","rt":268.69999980927,"correct":true,"confidence":5},{"trial_n":66,"min":74,"max":181,"target":"present","response":"present","rt":607.89999961853,"correct":true,"confidence":5},{"trial_n":67,"min":75,"max":180,"target":"absent","response":"absent","rt":682.5,"correct":true,"confidence":5},{"trial_n":68,"min":75,"max":180,"target":"absent","response":"absent","rt":511.39999961853,"correct":true,"confidence":5},{"trial_n":69,"min":76,"max":179,"target":"present","response":"present","rt":187.40000009537,"correct":true,"confidence":5},{"trial_n":70,"min":76,"max":179,"target":"present","response":"absent","rt":498.60000038147,"correct":false,"confidence":5},{"trial_n":71,"min":41,"max":214,"target":"present","response":"present","rt":5748.7999997139,"correct":true,"confidence":-1},{"trial_n":72,"min":41,"max":214,"target":"present","response":"absent","rt":516.10000038147,"correct":false,"confidence":-1},{"trial_n":73,"min":25,"max":230,"target":"absent","response":"absent","rt":336.39999961853,"correct":true,"confidence":-1},{"trial_n":74,"min":25,"max":230,"target":"absent","response":"absent","rt":363.7000002861,"correct":true,"confidence":-1},{"trial_n":75,"min":41,"max":214,"target":"present","response":"present","rt":279.7000002861,"correct":true,"confidence":-1},{"trial_n":76,"min":41,"max":214,"target":"absent","response":"absent","rt":328.19999980927,"correct":true,"confidence":-1},{"trial_n":77,"min":57,"max":198,"target":"present","response":"present","rt":206.19999980927,"correct":true,"confidence":-1},{"trial_n":78,"min":57,"max":198,"target":"absent","response":"absent","rt":462.30000019073,"correct":true,"confidence":-1},{"trial_n":79,"min":73,"max":182,"target":"absent","response":"absent","rt":357.09999990463,"correct":true,"confidence":-1},{"trial_n":80,"min":73,"max":182,"target":"present","response":"present","rt":549.40000009537,"correct":true,"confidence":-1},{"trial_n":81,"min":81,"max":174,"target":"absent","response":"absent","rt":396.09999990463,"correct":true,"confidence":-1},{"trial_n":82,"min":81,"max":174,"target":"present","response":"present","rt":298.89999961853,"correct":true,"confidence":-1},{"trial_n":83,"min":89,"max":166,"target":"absent","response":"absent","rt":448.19999980927,"correct":true,"confidence":-1},{"trial_n":84,"min":89,"max":166,"target":"absent","response":"absent","rt":372.40000009537,"correct":true,"confidence":-1},{"trial_n":85,"min":97,"max":158,"target":"absent","response":"present","rt":348.30000019073,"correct":false,"confidence":-1},{"trial_n":86,"min":89,"max":166,"target":"absent","response":"present","rt":428.19999980927,"correct":false,"confidence":-1},{"trial_n":87,"min":81,"max":174,"target":"present","response":"absent","rt":306.59999990463,"correct":false,"confidence":-1},{"trial_n":88,"min":73,"max":182,"target":"present","response":"present","rt":418.39999961853,"correct":true,"confidence":-1},{"trial_n":89,"min":73,"max":182,"target":"present","response":"present","rt":357.10000038147,"correct":true,"confidence":-1},{"trial_n":90,"min":81,"max":174,"target":"absent","response":"absent","rt":413.7000002861,"correct":true,"confidence":-1},{"trial_n":91,"min":81,"max":174,"target":"absent","response":"absent","rt":395.90000009537,"correct":true,"confidence":5},{"trial_n":92,"min":85,"max":170,"target":"present","response":"absent","rt":622,"correct":false,"confidence":1},{"trial_n":93,"min":81,"max":174,"target":"present","response":"present","rt":423.5,"correct":true,"confidence":5},{"trial_n":94,"min":81,"max":174,"target":"present","response":"present","rt":330.40000009537,"correct":true,"confidence":5},{"trial_n":95,"min":85,"max":170,"target":"present","response":"present","rt":358,"correct":true,"confidence":1},{"trial_n":96,"min":85,"max":170,"target":"present","response":"absent","rt":565.19999980927,"correct":false,"confidence":1},{"trial_n":97,"min":81,"max":174,"target":"present","response":"absent","rt":635.5,"correct":false,"confidence":5},{"trial_n":98,"min":77,"max":178,"target":"present","response":"present","rt":960.40000009537,"correct":true,"confidence":1},{"trial_n":99,"min":77,"max":178,"target":"absent","response":"absent","rt":380.40000009537,"correct":true,"confidence":4},{"trial_n":100,"min":81,"max":174,"target":"present","response":"present","rt":302.19999980927,"correct":true,"confidence":4},{"trial_n":101,"min":81,"max":174,"target":"present","response":"present","rt":550.5,"correct":true,"confidence":3},{"trial_n":102,"min":83,"max":172,"target":"absent","response":"absent","rt":456.40000009537,"correct":true,"confidence":4},{"trial_n":103,"min":83,"max":172,"target":"absent","response":"absent","rt":1151.9000000954,"correct":true,"confidence":4},{"trial_n":104,"min":85,"max":170,"target":"absent","response":"absent","rt":901.59999990463,"correct":true,"confidence":5},{"trial_n":105,"min":85,"max":170,"target":"present","response":"present","rt":425,"correct":true,"confidence":4},{"trial_n":106,"min":87,"max":168,"target":"absent","response":"absent","rt":487.90000009537,"correct":true,"confidence":1},{"trial_n":107,"min":87,"max":168,"target":"present","response":"absent","rt":710.7999997139,"correct":false,"confidence":1},{"trial_n":108,"min":85,"max":170,"target":"absent","response":"absent","rt":360.5,"correct":true,"confidence":1},{"trial_n":109,"min":85,"max":170,"target":"absent","response":"present","rt":364.7000002861,"correct":false,"confidence":2},{"trial_n":110,"min":83,"max":172,"target":"absent","response":"present","rt":322.7999997139,"correct":false,"confidence":1},{"trial_n":111,"min":82,"max":173,"target":"present","response":"absent","rt":279.80000019073,"correct":false,"confidence":1},{"trial_n":112,"min":81,"max":174,"target":"present","response":"absent","rt":888.2000002861,"correct":false,"confidence":3},{"trial_n":113,"min":80,"max":175,"target":"absent","response":"absent","rt":1538.0999999046,"correct":true,"confidence":2},{"trial_n":114,"min":80,"max":175,"target":"absent","response":"absent","rt":514,"correct":true,"confidence":3},{"trial_n":115,"min":81,"max":174,"target":"present","response":"present","rt":689.19999980927,"correct":true,"confidence":2},{"trial_n":116,"min":81,"max":174,"target":"absent","response":"absent","rt":606.30000019073,"correct":true,"confidence":3},{"trial_n":117,"min":82,"max":173,"target":"present","response":"present","rt":923.59999990463,"correct":true,"confidence":4},{"trial_n":118,"min":82,"max":173,"target":"absent","response":"absent","rt":566.30000019073,"correct":true,"confidence":4},{"trial_n":119,"min":83,"max":172,"target":"absent","response":"absent","rt":665.5,"correct":true,"confidence":1},{"trial_n":120,"min":83,"max":172,"target":"absent","response":"present","rt":741.7999997139,"correct":false,"confidence":2},{"trial_n":121,"min":82,"max":173,"target":"present","response":"present","rt":474,"correct":true,"confidence":4},{"trial_n":122,"min":82,"max":173,"target":"absent","response":"absent","rt":505.39999961853,"correct":true,"confidence":4},{"trial_n":123,"min":83,"max":172,"target":"present","response":"present","rt":390.5,"correct":true,"confidence":5},{"trial_n":124,"min":83,"max":172,"target":"present","response":"present","rt":307,"correct":true,"confidence":4},{"trial_n":125,"min":84,"max":171,"target":"absent","response":"absent","rt":899,"correct":true,"confidence":2},{"trial_n":126,"min":84,"max":171,"target":"present","response":"present","rt":537.2999997139,"correct":true,"confidence":4},{"trial_n":127,"min":85,"max":170,"target":"absent","response":"present","rt":530.90000009537,"correct":false,"confidence":1},{"trial_n":128,"min":84,"max":171,"target":"present","response":"absent","rt":790.5,"correct":false,"confidence":1},{"trial_n":129,"min":83,"max":172,"target":"absent","response":"present","rt":547.69999980927,"correct":false,"confidence":1},{"trial_n":130,"min":82,"max":173,"target":"present","response":"absent","rt":661.90000009537,"correct":false,"confidence":1},{"trial_n":131,"min":81,"max":174,"target":"present","response":"present","rt":261.09999990463,"correct":true,"confidence":4},{"trial_n":132,"min":81,"max":174,"target":"absent","response":"absent","rt":879.80000019073,"correct":true,"confidence":1},{"trial_n":133,"min":82,"max":173,"target":"absent","response":"absent","rt":716.80000019073,"correct":true,"confidence":1},{"trial_n":134,"min":82,"max":173,"target":"absent","response":"absent","rt":991.80000019073,"correct":true,"confidence":4},{"trial_n":135,"min":83,"max":172,"target":"absent","response":"absent","rt":1071.5999999046,"correct":true,"confidence":5},{"trial_n":136,"min":83,"max":172,"target":"present","response":"present","rt":619.40000009537,"correct":true,"confidence":4},{"trial_n":137,"min":84,"max":171,"target":"present","response":"present","rt":655,"correct":true,"confidence":4},{"trial_n":138,"min":84,"max":171,"target":"present","response":"present","rt":900.5,"correct":true,"confidence":3},{"trial_n":139,"min":85,"max":170,"target":"present","response":"absent","rt":666.89999961853,"correct":false,"confidence":1},{"trial_n":140,"min":84,"max":171,"target":"present","response":"present","rt":379.5,"correct":true,"confidence":3}]