[{"trial_n":1,"span":8,"encoder":"14001469","distractor":"14001769","target":"present","response":"absent","rt":"7381.2999999821","correct":false,"confidence":-1},{"trial_n":2,"span":6,"encoder":"290204","distractor":"291204","target":"present","response":"absent","rt":"1275.5","correct":false,"confidence":-1},{"trial_n":3,"span":4,"encoder":"8866","distractor":"5866","target":"absent","response":"absent","rt":"1831.900000006","correct":true,"confidence":-1},{"trial_n":4,"span":4,"encoder":"8501","distractor":"8511","target":"absent","response":"present","rt":"1789.900000006","correct":false,"confidence":-1},{"trial_n":5,"span":2,"encoder":"74","distractor":"71","target":"present","response":"present","rt":"1238.1999999881","correct":true,"confidence":-1},{"trial_n":6,"span":2,"encoder":"69","distractor":"66","target":"present","response":"present","rt":"1262.900000006","correct":true,"confidence":-1},{"trial_n":7,"span":4,"encoder":"8691","distractor":"8690","target":"present","response":"present","rt":"1599.099999994","correct":true,"confidence":-1},{"trial_n":8,"span":4,"encoder":"6299","distractor":"6291","target":"absent","response":"absent","rt":"2125.900000006","correct":true,"confidence":-1},{"trial_n":9,"span":6,"encoder":"412464","distractor":"812464","target":"present","response":"present","rt":"2210.2000000179","correct":true,"confidence":-1},{"trial_n":10,"span":6,"encoder":"928160","distractor":"928660","target":"present","response":"present","rt":"1661.099999994","correct":true,"confidence":-1},{"trial_n":11,"span":8,"encoder":"64770549","distractor":"64700549","target":"absent","response":"absent","rt":"1699","correct":true,"confidence":-1},{"trial_n":12,"span":8,"encoder":"01461331","distractor":"09461331","target":"present","response":"present","rt":"1710","correct":true,"confidence":-1},{"trial_n":13,"span":9,"encoder":"699542957","distractor":"699542950","target":"absent","response":"absent","rt":"1676.1000000238","correct":true,"confidence":-1},{"trial_n":14,"span":9,"encoder":"450193080","distractor":"450193090","target":"absent","response":"absent","rt":"1971.900000006","correct":true,"confidence":-1},{"trial_n":15,"span":10,"encoder":"9424024227","distractor":"9424023227","target":"absent","response":"present","rt":"1357.900000006","correct":false,"confidence":-1},{"trial_n":16,"span":9,"encoder":"836976679","distractor":"836376679","target":"absent","response":"present","rt":"1690.900000006","correct":false,"confidence":-1},{"trial_n":17,"span":8,"encoder":"82007224","distractor":"82007624","target":"absent","response":"present","rt":"2184.400000006","correct":false,"confidence":-1},{"trial_n":18,"span":7,"encoder":"0997182","distractor":"0997180","target":"present","response":"present","rt":"1852.2000000179","correct":true,"confidence":-1},{"trial_n":19,"span":7,"encoder":"9638297","distractor":"9636297","target":"present","response":"present","rt":"1285","correct":true,"confidence":-1},{"trial_n":20,"span":8,"encoder":"62031958","distractor":"62032958","target":"absent","response":"present","rt":"1332","correct":false,"confidence":-1},{"trial_n":21,"span":7,"encoder":"6668495","distractor":"6665495","target":"absent","response":"absent","rt":"2463.599999994","correct":true,"confidence":5},{"trial_n":22,"span":7,"encoder":"7407225","distractor":"7407221","target":"present","response":"absent","rt":"3746.3000000119","correct":false,"confidence":3},{"trial_n":23,"span":6,"encoder":"265247","distractor":"205247","target":"present","response":"present","rt":"2074.400000006","correct":true,"confidence":5},{"trial_n":24,"span":6,"encoder":"881842","distractor":"884842","target":"present","response":"present","rt":"2052.3000000119","correct":true,"confidence":5},{"trial_n":25,"span":7,"encoder":"9028111","distractor":"9028119","target":"present","response":"present","rt":"2200.1999999881","correct":true,"confidence":5},{"trial_n":26,"span":7,"encoder":"4263211","distractor":"4243211","target":"absent","response":"absent","rt":"3205.2999999821","correct":true,"confidence":5},{"trial_n":27,"span":8,"encoder":"39655455","distractor":"69655455","target":"present","response":"absent","rt":"3899","correct":false,"confidence":3},{"trial_n":28,"span":7,"encoder":"2537614","distractor":"2587614","target":"present","response":"present","rt":"2735.1999999881","correct":true,"confidence":5},{"trial_n":29,"span":7,"encoder":"0868877","distractor":"0768877","target":"absent","response":"absent","rt":"3716.900000006","correct":true,"confidence":4},{"trial_n":30,"span":8,"encoder":"87371118","distractor":"77371118","target":"absent","response":"absent","rt":"3525","correct":true,"confidence":5},{"trial_n":31,"span":8,"encoder":"23993397","distractor":"23993367","target":"absent","response":"absent","rt":"4525.5","correct":true,"confidence":2},{"trial_n":32,"span":9,"encoder":"913969787","distractor":"913968787","target":"present","response":"absent","rt":"4325.2000000179","correct":false,"confidence":3},{"trial_n":33,"span":8,"encoder":"24798043","distractor":"24198043","target":"absent","response":"absent","rt":"3054","correct":true,"confidence":5},{"trial_n":34,"span":8,"encoder":"60475961","distractor":"60475967","target":"present","response":"absent","rt":"3139.1999999881","correct":false,"confidence":4},{"trial_n":35,"span":7,"encoder":"8989171","distractor":"8989671","target":"present","response":"present","rt":"3634.1999999881","correct":true,"confidence":4},{"trial_n":36,"span":7,"encoder":"0344995","distractor":"0324995","target":"absent","response":"absent","rt":"1869.599999994","correct":true,"confidence":5},{"trial_n":37,"span":8,"encoder":"38647461","distractor":"33647461","target":"present","response":"absent","rt":"4427.5","correct":false,"confidence":5},{"trial_n":38,"span":7,"encoder":"8920546","distractor":"8920506","target":"present","response":"present","rt":"2867.099999994","correct":true,"confidence":5},{"trial_n":39,"span":7,"encoder":"4954903","distractor":"9954903","target":"absent","response":"absent","rt":"2920.5","correct":true,"confidence":4},{"trial_n":40,"span":8,"encoder":"38275217","distractor":"38275216","target":"absent","response":"absent","rt":"2619.400000006","correct":true,"confidence":4},{"trial_n":41,"span":8,"encoder":"36640448","distractor":"36620448","target":"present","response":"present","rt":"2446.1999999881","correct":true,"confidence":4},{"trial_n":42,"span":9,"encoder":"024984530","distractor":"024984630","target":"present","response":"absent","rt":"3559.599999994","correct":false,"confidence":4},{"trial_n":43,"span":8,"encoder":"24378616","distractor":"24378646","target":"present","response":"absent","rt":"2357.900000006","correct":false,"confidence":4},{"trial_n":44,"span":7,"encoder":"4908237","distractor":"4908234","target":"absent","response":"present","rt":"2486.400000006","correct":false,"confidence":5},{"trial_n":45,"span":6,"encoder":"521375","distractor":"521315","target":"absent","response":"absent","rt":"3952.2999999821","correct":true,"confidence":5},{"trial_n":46,"span":6,"encoder":"869244","distractor":"869240","target":"present","response":"present","rt":"2771.1999999881","correct":true,"confidence":5},{"trial_n":47,"span":7,"encoder":"8739135","distractor":"9739135","target":"absent","response":"present","rt":"2720.599999994","correct":false,"confidence":5},{"trial_n":48,"span":6,"encoder":"775402","distractor":"775202","target":"present","response":"present","rt":"3033.400000006","correct":true,"confidence":5},{"trial_n":49,"span":6,"encoder":"174036","distractor":"173036","target":"absent","response":"absent","rt":"5271","correct":true,"confidence":4},{"trial_n":50,"span":7,"encoder":"1018010","distractor":"1068010","target":"absent","response":"absent","rt":"2486.099999994","correct":true,"confidence":4},{"trial_n":51,"span":7,"encoder":"8435371","distractor":"8475371","target":"present","response":"present","rt":"1842.6999999881","correct":true,"confidence":5},{"trial_n":52,"span":8,"encoder":"67371881","distractor":"67371851","target":"present","response":"absent","rt":"3809.5","correct":false,"confidence":5},{"trial_n":53,"span":7,"encoder":"6092943","distractor":"6892943","target":"present","response":"present","rt":"2956.900000006","correct":true,"confidence":5},{"trial_n":54,"span":7,"encoder":"6081051","distractor":"6081057","target":"absent","response":"absent","rt":"3238.400000006","correct":true,"confidence":5},{"trial_n":55,"span":8,"encoder":"70642528","distractor":"70642428","target":"absent","response":"present","rt":"3624.5","correct":false,"confidence":4},{"trial_n":56,"span":7,"encoder":"1743438","distractor":"1763438","target":"absent","response":"absent","rt":"7657.7999999821","correct":true,"confidence":4},{"trial_n":57,"span":7,"encoder":"9716473","distractor":"9716973","target":"present","response":"absent","rt":"3653.400000006","correct":false,"confidence":4},{"trial_n":58,"span":6,"encoder":"827426","distractor":"877426","target":"present","response":"present","rt":"2388","correct":true,"confidence":3},{"trial_n":59,"span":6,"encoder":"635026","distractor":"635826","target":"present","response":"present","rt":"3286.5","correct":true,"confidence":5},{"trial_n":60,"span":7,"encoder":"3486459","distractor":"2486459","target":"absent","response":"absent","rt":"1874","correct":true,"confidence":5},{"trial_n":61,"span":7,"encoder":"7470630","distractor":"7470632","target":"absent","response":"present","rt":"2099.3999999762","correct":false,"confidence":5},{"trial_n":62,"span":6,"encoder":"585727","distractor":"585726","target":"present","response":"present","rt":"2282.900000006","correct":true,"confidence":5},{"trial_n":63,"span":6,"encoder":"090348","distractor":"091348","target":"absent","response":"absent","rt":"2445.5","correct":true,"confidence":5},{"trial_n":64,"span":7,"encoder":"8226318","distractor":"3226318","target":"absent","response":"present","rt":"2038.8000000119","correct":false,"confidence":5},{"trial_n":65,"span":6,"encoder":"383662","distractor":"383669","target":"absent","response":"absent","rt":"3135.599999994","correct":true,"confidence":5},{"trial_n":66,"span":6,"encoder":"541965","distractor":"541865","target":"absent","response":"present","rt":"1470.5","correct":false,"confidence":4},{"trial_n":67,"span":5,"encoder":"50805","distractor":"10805","target":"present","response":"present","rt":"2103.7999999821","correct":true,"confidence":5},{"trial_n":68,"span":5,"encoder":"84427","distractor":"84417","target":"absent","response":"absent","rt":"2821.3000000119","correct":true,"confidence":5},{"trial_n":69,"span":6,"encoder":"323002","distractor":"423002","target":"present","response":"present","rt":"2078.099999994","correct":true,"confidence":5},{"trial_n":70,"span":6,"encoder":"933815","distractor":"933615","target":"present","response":"present","rt":"2040.900000006","correct":true,"confidence":5},{"trial_n":71,"span":8,"encoder":"99348564","distractor":"99348534","target":"present","response":"present","rt":"7014.400000006","correct":true,"confidence":-1},{"trial_n":72,"span":8,"encoder":"36155237","distractor":"36125237","target":"present","response":"present","rt":"5293.7999999821","correct":true,"confidence":-1},{"trial_n":73,"span":9,"encoder":"862856539","distractor":"762856539","target":"absent","response":"absent","rt":"351.40000000596","correct":true,"confidence":-1},{"trial_n":74,"span":9,"encoder":"898131969","distractor":"898131169","target":"absent","response":"present","rt":"2137.400000006","correct":false,"confidence":-1},{"trial_n":75,"span":8,"encoder":"90348181","distractor":"90848181","target":"present","response":"absent","rt":"846.19999998808","correct":false,"confidence":-1},{"trial_n":76,"span":7,"encoder":"2263740","distractor":"2263710","target":"absent","response":"present","rt":"4195.1999999881","correct":false,"confidence":-1},{"trial_n":77,"span":6,"encoder":"909172","distractor":"909173","target":"present","response":"absent","rt":"3262.099999994","correct":false,"confidence":-1},{"trial_n":78,"span":5,"encoder":"89358","distractor":"89350","target":"present","response":"present","rt":"2417.2999999821","correct":true,"confidence":-1},{"trial_n":79,"span":5,"encoder":"82069","distractor":"82063","target":"absent","response":"absent","rt":"1890.2000000179","correct":true,"confidence":-1},{"trial_n":80,"span":6,"encoder":"469283","distractor":"469293","target":"absent","response":"absent","rt":"2697.7999999821","correct":true,"confidence":-1},{"trial_n":81,"span":6,"encoder":"610002","distractor":"610000","target":"present","response":"present","rt":"1938.6999999881","correct":true,"confidence":-1},{"trial_n":82,"span":7,"encoder":"7772358","distractor":"7772355","target":"present","response":"present","rt":"2462.8000000119","correct":true,"confidence":-1},{"trial_n":83,"span":7,"encoder":"1320912","distractor":"1320917","target":"present","response":"present","rt":"1960.2000000179","correct":true,"confidence":-1},{"trial_n":84,"span":8,"encoder":"57153309","distractor":"57153339","target":"present","response":"present","rt":"2878.1999999881","correct":true,"confidence":-1},{"trial_n":85,"span":8,"encoder":"23860475","distractor":"23360475","target":"absent","response":"present","rt":"1962.8000000119","correct":false,"confidence":-1},{"trial_n":86,"span":7,"encoder":"0384919","distractor":"0384949","target":"absent","response":"absent","rt":"834.80000001192","correct":true,"confidence":-1},{"trial_n":87,"span":7,"encoder":"0275296","distractor":"6275296","target":"absent","response":"absent","rt":"3392.5","correct":true,"confidence":-1},{"trial_n":88,"span":8,"encoder":"27435968","distractor":"27435967","target":"present","response":"present","rt":"1564.900000006","correct":true,"confidence":-1},{"trial_n":89,"span":8,"encoder":"35584328","distractor":"35584329","target":"absent","response":"absent","rt":"1466.6000000238","correct":true,"confidence":-1},{"trial_n":90,"span":9,"encoder":"473594981","distractor":"473592981","target":"present","response":"absent","rt":"2821.3000000119","correct":false,"confidence":-1},{"trial_n":91,"span":8,"encoder":"76690342","distractor":"76990342","target":"present","response":"present","rt":"6390","correct":true,"confidence":2},{"trial_n":92,"span":8,"encoder":"39504812","distractor":"39500812","target":"absent","response":"absent","rt":"4452.400000006","correct":true,"confidence":4},{"trial_n":93,"span":9,"encoder":"075466679","distractor":"055466679","target":"absent","response":"absent","rt":"6520.3000000119","correct":true,"confidence":2},{"trial_n":94,"span":9,"encoder":"199429151","distractor":"199929151","target":"present","response":"present","rt":"3882.099999994","correct":true,"confidence":4},{"trial_n":95,"span":10,"encoder":"6548185080","distractor":"6548180080","target":"present","response":"present","rt":"8068.099999994","correct":true,"confidence":3},{"trial_n":96,"span":10,"encoder":"6538851893","distractor":"6538851894","target":"absent","response":"absent","rt":"6150.400000006","correct":true,"confidence":4},{"trial_n":97,"span":11,"encoder":"27124202218","distractor":"27104202218","target":"absent","response":"present","rt":"1571.400000006","correct":false,"confidence":2},{"trial_n":98,"span":10,"encoder":"6620967980","distractor":"6620767980","target":"absent","response":"absent","rt":"4057.3999999762","correct":true,"confidence":4},{"trial_n":99,"span":10,"encoder":"2585316189","distractor":"2585316889","target":"present","response":"absent","rt":"4440.1999999881","correct":false,"confidence":3},{"trial_n":100,"span":9,"encoder":"284750879","distractor":"284750839","target":"present","response":"present","rt":"8709.5","correct":true,"confidence":1},{"trial_n":101,"span":9,"encoder":"547131602","distractor":"547431602","target":"absent","response":"absent","rt":"7623.2000000179","correct":true,"confidence":4},{"trial_n":102,"span":10,"encoder":"8898549771","distractor":"8898541771","target":"present","response":"absent","rt":"7576.6999999881","correct":false,"confidence":1},{"trial_n":103,"span":9,"encoder":"403792117","distractor":"483792117","target":"absent","response":"absent","rt":"6109.400000006","correct":true,"confidence":1},{"trial_n":104,"span":9,"encoder":"576775857","distractor":"571775857","target":"present","response":"present","rt":"8375.7999999821","correct":true,"confidence":5},{"trial_n":105,"span":10,"encoder":"4231105463","distractor":"4232105463","target":"present","response":"present","rt":"5238.2000000179","correct":true,"confidence":5},{"trial_n":106,"span":10,"encoder":"3993737580","distractor":"3993737180","target":"absent","response":"absent","rt":"11541.400000006","correct":true,"confidence":1},{"trial_n":107,"span":11,"encoder":"59405995931","distractor":"59405995631","target":"absent","response":"present","rt":"3292.3000000119","correct":false,"confidence":2},{"trial_n":108,"span":10,"encoder":"4165429680","distractor":"4165429380","target":"present","response":"present","rt":"2714.1000000238","correct":true,"confidence":3},{"trial_n":109,"span":10,"encoder":"6747417658","distractor":"0747417658","target":"absent","response":"absent","rt":"5832.5","correct":true,"confidence":5},{"trial_n":110,"span":11,"encoder":"93557210258","distractor":"93557210254","target":"present","response":"present","rt":"7214.3000000119","correct":true,"confidence":4},{"trial_n":111,"span":11,"encoder":"10848862925","distractor":"10848862125","target":"present","response":"absent","rt":"10057","correct":false,"confidence":3},{"trial_n":112,"span":10,"encoder":"8599501056","distractor":"8599501076","target":"present","response":"present","rt":"2113.599999994","correct":true,"confidence":5},{"trial_n":113,"span":10,"encoder":"4355957970","distractor":"4655957970","target":"present","response":"present","rt":"6077.8000000119","correct":true,"confidence":4},{"trial_n":114,"span":11,"encoder":"26420793476","distractor":"26420793472","target":"present","response":"present","rt":"5955.5","correct":true,"confidence":2},{"trial_n":115,"span":11,"encoder":"81937377875","distractor":"51937377875","target":"present","response":"present","rt":"3768.5","correct":true,"confidence":3},{"trial_n":116,"span":12,"encoder":"004183057359","distractor":"074183057359","target":"present","response":"present","rt":"2445.8000000119","correct":true,"confidence":5},{"trial_n":117,"span":12,"encoder":"458634502781","distractor":"458134502781","target":"absent","response":"absent","rt":"2855.3000000119","correct":true,"confidence":5},{"trial_n":118,"span":13,"encoder":"2935832863813","distractor":"2935832863863","target":"absent","response":"present","rt":"3737.099999994","correct":false,"confidence":2},{"trial_n":119,"span":12,"encoder":"858152652362","distractor":"858152652369","target":"absent","response":"present","rt":"2482.1999999881","correct":false,"confidence":1},{"trial_n":120,"span":11,"encoder":"00788677237","distractor":"00748677237","target":"absent","response":"absent","rt":"3454","correct":true,"confidence":3},{"trial_n":121,"span":11,"encoder":"79447348605","distractor":"79447148605","target":"absent","response":"absent","rt":"3767.900000006","correct":true,"confidence":3},{"trial_n":122,"span":12,"encoder":"357450242546","distractor":"357450842546","target":"absent","response":"present","rt":"8666.099999994","correct":false,"confidence":1},{"trial_n":123,"span":11,"encoder":"35881496417","distractor":"30881496417","target":"absent","response":"absent","rt":"1876.099999994","correct":true,"confidence":4},{"trial_n":124,"span":11,"encoder":"62194682962","distractor":"62184682962","target":"present","response":"present","rt":"3131.599999994","correct":true,"confidence":5},{"trial_n":125,"span":12,"encoder":"190528690299","distractor":"390528690299","target":"absent","response":"absent","rt":"1599.1999999881","correct":true,"confidence":5},{"trial_n":126,"span":12,"encoder":"380454728449","distractor":"380453728449","target":"absent","response":"present","rt":"5398.1999999881","correct":false,"confidence":1},{"trial_n":127,"span":11,"encoder":"48248849980","distractor":"48248843980","target":"absent","response":"absent","rt":"4745.900000006","correct":true,"confidence":3},{"trial_n":128,"span":11,"encoder":"76002668729","distractor":"76002668229","target":"present","response":"present","rt":"6450.599999994","correct":true,"confidence":2},{"trial_n":129,"span":12,"encoder":"481118235367","distractor":"481118236367","target":"present","response":"absent","rt":"2855","correct":false,"confidence":2},{"trial_n":130,"span":11,"encoder":"95130332075","distractor":"95130332055","target":"present","response":"absent","rt":"6382.6999999881","correct":false,"confidence":2},{"trial_n":131,"span":10,"encoder":"8112579906","distractor":"8212579906","target":"absent","response":"absent","rt":"2609.3000000119","correct":true,"confidence":1},{"trial_n":132,"span":10,"encoder":"9338159706","distractor":"3338159706","target":"present","response":"present","rt":"2633.400000006","correct":true,"confidence":4},{"trial_n":133,"span":11,"encoder":"17197491995","distractor":"17197491998","target":"present","response":"present","rt":"4601.099999994","correct":true,"confidence":2},{"trial_n":134,"span":11,"encoder":"75372376590","distractor":"75372376595","target":"present","response":"present","rt":"1720.099999994","correct":true,"confidence":5},{"trial_n":135,"span":12,"encoder":"209636633127","distractor":"209676633127","target":"absent","response":"absent","rt":"3145.7999999821","correct":true,"confidence":2},{"trial_n":136,"span":12,"encoder":"013204245437","distractor":"013284245437","target":"absent","response":"absent","rt":"2922.1999999881","correct":true,"confidence":5},{"trial_n":137,"span":13,"encoder":"2394350188465","distractor":"2394390188465","target":"absent","response":"present","rt":"4017","correct":false,"confidence":3},{"trial_n":138,"span":12,"encoder":"937104601427","distractor":"937104001427","target":"present","response":"present","rt":"3911.6999999881","correct":true,"confidence":2},{"trial_n":139,"span":12,"encoder":"846308232502","distractor":"846308232507","target":"absent","response":"absent","rt":"1381.5","correct":true,"confidence":4},{"trial_n":140,"span":13,"encoder":"0393501872685","distractor":"0393201872685","target":"present","response":"present","rt":"3363.6000000238","correct":true,"confidence":1}]