[{"trial_n":1,"n_dots":4.25,"target":"right","response":"left","rt":1083.6999998093,"correct":false,"confidence":-1},{"trial_n":2,"n_dots":4.25,"target":"right","response":"right","rt":718.60000038147,"correct":true,"confidence":-1},{"trial_n":3,"n_dots":4.25,"target":"left","response":"right","rt":666.59999990463,"correct":false,"confidence":-1},{"trial_n":4,"n_dots":4.65,"target":"left","response":"right","rt":545.89999961853,"correct":false,"confidence":-1},{"trial_n":5,"n_dots":5.05,"target":"right","response":"right","rt":631.5,"correct":true,"confidence":-1},{"trial_n":6,"n_dots":5.05,"target":"right","response":"left","rt":653.39999961853,"correct":false,"confidence":-1},{"trial_n":7,"n_dots":5.45,"target":"right","response":"right","rt":285,"correct":true,"confidence":-1},{"trial_n":8,"n_dots":5.45,"target":"right","response":"right","rt":323.90000009537,"correct":true,"confidence":-1},{"trial_n":9,"n_dots":5.25,"target":"left","response":"left","rt":389.2000002861,"correct":true,"confidence":-1},{"trial_n":10,"n_dots":5.25,"target":"right","response":"right","rt":301,"correct":true,"confidence":-1},{"trial_n":11,"n_dots":5.05,"target":"right","response":"right","rt":1141.5999999046,"correct":true,"confidence":-1},{"trial_n":12,"n_dots":5.05,"target":"right","response":"left","rt":645.2999997139,"correct":false,"confidence":-1},{"trial_n":13,"n_dots":5.15,"target":"left","response":"left","rt":160.80000019073,"correct":true,"confidence":-1},{"trial_n":14,"n_dots":5.15,"target":"left","response":"left","rt":246,"correct":true,"confidence":-1},{"trial_n":15,"n_dots":5.05,"target":"right","response":"right","rt":148.59999990463,"correct":true,"confidence":-1},{"trial_n":16,"n_dots":5.05,"target":"left","response":"left","rt":371,"correct":true,"confidence":-1},{"trial_n":17,"n_dots":4.95,"target":"left","response":"left","rt":18.599999904633,"correct":true,"confidence":-1},{"trial_n":18,"n_dots":4.95,"target":"right","response":"right","rt":46.800000190735,"correct":true,"confidence":-1},{"trial_n":19,"n_dots":4.85,"target":"left","response":"left","rt":3.9000000953674,"correct":true,"confidence":-1},{"trial_n":20,"n_dots":4.85,"target":"right","response":"right","rt":426.2000002861,"correct":true,"confidence":-1},{"trial_n":21,"n_dots":4.75,"target":"left","response":"left","rt":204.5,"correct":true,"confidence":4},{"trial_n":22,"n_dots":4.75,"target":"left","response":"left","rt":322,"correct":true,"confidence":4},{"trial_n":23,"n_dots":4.65,"target":"left","response":"left","rt":422.80000019073,"correct":true,"confidence":4},{"trial_n":24,"n_dots":4.65,"target":"left","response":"left","rt":1248.9000000954,"correct":true,"confidence":3},{"trial_n":25,"n_dots":4.55,"target":"left","response":"left","rt":1547.8999996185,"correct":true,"confidence":2},{"trial_n":26,"n_dots":4.55,"target":"right","response":"right","rt":271,"correct":true,"confidence":3},{"trial_n":27,"n_dots":4.45,"target":"right","response":"right","rt":275,"correct":true,"confidence":3},{"trial_n":28,"n_dots":4.45,"target":"left","response":"left","rt":491.89999961853,"correct":true,"confidence":2},{"trial_n":29,"n_dots":4.35,"target":"left","response":"left","rt":630.09999990463,"correct":true,"confidence":3},{"trial_n":30,"n_dots":4.35,"target":"right","response":"right","rt":220.90000009537,"correct":true,"confidence":3},{"trial_n":31,"n_dots":4.25,"target":"right","response":"right","rt":383.5,"correct":true,"confidence":3},{"trial_n":32,"n_dots":4.25,"target":"right","response":"right","rt":254.59999990463,"correct":true,"confidence":3},{"trial_n":33,"n_dots":4.15,"target":"left","response":"left","rt":1286.4000000954,"correct":true,"confidence":1},{"trial_n":34,"n_dots":4.15,"target":"right","response":"right","rt":264.40000009537,"correct":true,"confidence":1},{"trial_n":35,"n_dots":4.05,"target":"left","response":"left","rt":225.80000019073,"correct":true,"confidence":3},{"trial_n":36,"n_dots":4.05,"target":"left","response":"left","rt":113.10000038147,"correct":true,"confidence":3},{"trial_n":37,"n_dots":3.95,"target":"right","response":"right","rt":358.59999990463,"correct":true,"confidence":2},{"trial_n":38,"n_dots":3.95,"target":"left","response":"left","rt":253.40000009537,"correct":true,"confidence":2},{"trial_n":39,"n_dots":3.85,"target":"right","response":"right","rt":225.7000002861,"correct":true,"confidence":2},{"trial_n":40,"n_dots":3.85,"target":"left","response":"right","rt":672.5,"correct":false,"confidence":1},{"trial_n":41,"n_dots":3.95,"target":"left","response":"left","rt":390.40000009537,"correct":true,"confidence":2},{"trial_n":42,"n_dots":3.95,"target":"right","response":"right","rt":784,"correct":true,"confidence":1},{"trial_n":43,"n_dots":3.85,"target":"right","response":"right","rt":230.09999990463,"correct":true,"confidence":2},{"trial_n":44,"n_dots":3.85,"target":"left","response":"left","rt":467,"correct":true,"confidence":2},{"trial_n":45,"n_dots":3.75,"target":"left","response":"left","rt":913.80000019073,"correct":true,"confidence":4},{"trial_n":46,"n_dots":3.75,"target":"right","response":"right","rt":45.60000038147,"correct":true,"confidence":2},{"trial_n":47,"n_dots":3.65,"target":"left","response":"left","rt":364,"correct":true,"confidence":1},{"trial_n":48,"n_dots":3.65,"target":"left","response":"left","rt":367.7000002861,"correct":true,"confidence":3},{"trial_n":49,"n_dots":3.55,"target":"right","response":"right","rt":161.2999997139,"correct":true,"confidence":2},{"trial_n":50,"n_dots":3.55,"target":"left","response":"right","rt":166.09999990463,"correct":false,"confidence":1},{"trial_n":51,"n_dots":3.65,"target":"right","response":"right","rt":843.2000002861,"correct":true,"confidence":3},{"trial_n":52,"n_dots":3.65,"target":"right","response":"right","rt":987.40000009537,"correct":true,"confidence":1},{"trial_n":53,"n_dots":3.55,"target":"left","response":"left","rt":352.80000019073,"correct":true,"confidence":2},{"trial_n":54,"n_dots":3.55,"target":"left","response":"right","rt":2.5999999046326,"correct":false,"confidence":2},{"trial_n":55,"n_dots":3.65,"target":"left","response":"left","rt":17.300000190735,"correct":true,"confidence":1},{"trial_n":56,"n_dots":3.65,"target":"right","response":"right","rt":47.599999904633,"correct":true,"confidence":3},{"trial_n":57,"n_dots":3.55,"target":"right","response":"left","rt":678.2999997139,"correct":false,"confidence":2},{"trial_n":58,"n_dots":3.65,"target":"right","response":"right","rt":444.90000009537,"correct":true,"confidence":3},{"trial_n":59,"n_dots":3.65,"target":"left","response":"right","rt":947,"correct":false,"confidence":3},{"trial_n":60,"n_dots":3.75,"target":"left","response":"left","rt":1228.5,"correct":true,"confidence":1},{"trial_n":61,"n_dots":3.75,"target":"left","response":"left","rt":1434.5,"correct":true,"confidence":1},{"trial_n":62,"n_dots":3.65,"target":"left","response":"left","rt":705.90000009537,"correct":true,"confidence":2},{"trial_n":63,"n_dots":3.65,"target":"right","response":"right","rt":320.2999997139,"correct":true,"confidence":3},{"trial_n":64,"n_dots":3.55,"target":"right","response":"right","rt":279.30000019073,"correct":true,"confidence":3},{"trial_n":65,"n_dots":3.55,"target":"left","response":"left","rt":1481.8000001907,"correct":true,"confidence":2},{"trial_n":66,"n_dots":3.45,"target":"left","response":"left","rt":510.80000019073,"correct":true,"confidence":3},{"trial_n":67,"n_dots":3.45,"target":"right","response":"left","rt":314.59999990463,"correct":false,"confidence":1},{"trial_n":68,"n_dots":3.55,"target":"right","response":"right","rt":180.89999961853,"correct":true,"confidence":1},{"trial_n":69,"n_dots":3.55,"target":"right","response":"left","rt":1045.2999997139,"correct":false,"confidence":2},{"trial_n":70,"n_dots":3.65,"target":"right","response":"right","rt":371.09999990463,"correct":true,"confidence":2},{"trial_n":71,"n_dots":3.65,"target":"left","response":"left","rt":58.299999713898,"correct":true,"confidence":1},{"trial_n":72,"n_dots":3.55,"target":"right","response":"right","rt":310.40000009537,"correct":true,"confidence":1},{"trial_n":73,"n_dots":3.55,"target":"left","response":"left","rt":713.30000019073,"correct":true,"confidence":3},{"trial_n":74,"n_dots":3.45,"target":"right","response":"right","rt":893.30000019073,"correct":true,"confidence":1},{"trial_n":75,"n_dots":3.45,"target":"right","response":"right","rt":412.7000002861,"correct":true,"confidence":2},{"trial_n":76,"n_dots":3.35,"target":"right","response":"left","rt":864.90000009537,"correct":false,"confidence":2},{"trial_n":77,"n_dots":3.45,"target":"right","response":"left","rt":776,"correct":false,"confidence":1},{"trial_n":78,"n_dots":3.55,"target":"left","response":"left","rt":1429.0999999046,"correct":true,"confidence":3},{"trial_n":79,"n_dots":3.55,"target":"right","response":"left","rt":340.59999990463,"correct":false,"confidence":1},{"trial_n":80,"n_dots":3.65,"target":"right","response":"left","rt":345.60000038147,"correct":false,"confidence":3},{"trial_n":81,"n_dots":3.75,"target":"right","response":"left","rt":158.60000038147,"correct":false,"confidence":3},{"trial_n":82,"n_dots":3.85,"target":"right","response":"right","rt":300,"correct":true,"confidence":2},{"trial_n":83,"n_dots":3.85,"target":"left","response":"left","rt":593.7999997139,"correct":true,"confidence":2},{"trial_n":84,"n_dots":3.75,"target":"left","response":"left","rt":234.69999980927,"correct":true,"confidence":3},{"trial_n":85,"n_dots":3.75,"target":"right","response":"right","rt":454.7999997139,"correct":true,"confidence":3},{"trial_n":86,"n_dots":3.65,"target":"right","response":"left","rt":517,"correct":false,"confidence":1},{"trial_n":87,"n_dots":3.75,"target":"right","response":"right","rt":615.2000002861,"correct":true,"confidence":4},{"trial_n":88,"n_dots":3.75,"target":"right","response":"left","rt":586.80000019073,"correct":false,"confidence":2},{"trial_n":89,"n_dots":3.85,"target":"left","response":"right","rt":735.19999980927,"correct":false,"confidence":3},{"trial_n":90,"n_dots":3.95,"target":"left","response":"left","rt":188.10000038147,"correct":true,"confidence":2},{"trial_n":91,"n_dots":3.95,"target":"right","response":"right","rt":448.40000009537,"correct":true,"confidence":1},{"trial_n":92,"n_dots":3.85,"target":"left","response":"left","rt":1013.4000000954,"correct":true,"confidence":4},{"trial_n":93,"n_dots":3.85,"target":"left","response":"left","rt":776.5,"correct":true,"confidence":3},{"trial_n":94,"n_dots":3.75,"target":"left","response":"right","rt":1377.1999998093,"correct":false,"confidence":2},{"trial_n":95,"n_dots":3.85,"target":"right","response":"right","rt":320.5,"correct":true,"confidence":2},{"trial_n":96,"n_dots":3.85,"target":"left","response":"left","rt":437.80000019073,"correct":true,"confidence":3},{"trial_n":97,"n_dots":3.75,"target":"right","response":"right","rt":419.90000009537,"correct":true,"confidence":3},{"trial_n":98,"n_dots":3.75,"target":"left","response":"left","rt":389.2000002861,"correct":true,"confidence":4},{"trial_n":99,"n_dots":3.65,"target":"right","response":"right","rt":308.09999990463,"correct":true,"confidence":2},{"trial_n":100,"n_dots":3.65,"target":"right","response":"left","rt":558.7000002861,"correct":false,"confidence":3},{"trial_n":101,"n_dots":3.75,"target":"left","response":"left","rt":509.40000009537,"correct":true,"confidence":4},{"trial_n":102,"n_dots":3.75,"target":"left","response":"left","rt":334,"correct":true,"confidence":4},{"trial_n":103,"n_dots":3.65,"target":"left","response":"left","rt":317.59999990463,"correct":true,"confidence":3},{"trial_n":104,"n_dots":3.65,"target":"left","response":"left","rt":326.30000019073,"correct":true,"confidence":4},{"trial_n":105,"n_dots":3.55,"target":"right","response":"right","rt":315.09999990463,"correct":true,"confidence":4},{"trial_n":106,"n_dots":3.55,"target":"left","response":"left","rt":530.69999980927,"correct":true,"confidence":5},{"trial_n":107,"n_dots":3.45,"target":"left","response":"left","rt":1086.6999998093,"correct":true,"confidence":1},{"trial_n":108,"n_dots":3.45,"target":"left","response":"left","rt":294.69999980927,"correct":true,"confidence":2},{"trial_n":109,"n_dots":3.35,"target":"left","response":"right","rt":241.59999990463,"correct":false,"confidence":3},{"trial_n":110,"n_dots":3.45,"target":"left","response":"left","rt":585.19999980927,"correct":true,"confidence":2},{"trial_n":111,"n_dots":3.45,"target":"right","response":"left","rt":123.5,"correct":false,"confidence":2},{"trial_n":112,"n_dots":3.55,"target":"right","response":"right","rt":1107.1999998093,"correct":true,"confidence":3},{"trial_n":113,"n_dots":3.55,"target":"left","response":"left","rt":460.7000002861,"correct":true,"confidence":2},{"trial_n":114,"n_dots":3.45,"target":"right","response":"right","rt":386.10000038147,"correct":true,"confidence":3},{"trial_n":115,"n_dots":3.45,"target":"left","response":"left","rt":335.7000002861,"correct":true,"confidence":2},{"trial_n":116,"n_dots":3.35,"target":"left","response":"left","rt":116.90000009537,"correct":true,"confidence":3},{"trial_n":117,"n_dots":3.35,"target":"right","response":"left","rt":353.30000019073,"correct":false,"confidence":2},{"trial_n":118,"n_dots":3.45,"target":"right","response":"right","rt":458,"correct":true,"confidence":3},{"trial_n":119,"n_dots":3.45,"target":"left","response":"left","rt":313.40000009537,"correct":true,"confidence":3},{"trial_n":120,"n_dots":3.35,"target":"right","response":"left","rt":365.30000019073,"correct":false,"confidence":4}]