[{"trial_n":1,"n_dots":4.25,"target":"right","response":"left","rt":2705.6000001431,"correct":false,"confidence":-1},{"trial_n":2,"n_dots":4.25,"target":"left","response":"left","rt":656.79999995232,"correct":true,"confidence":-1},{"trial_n":3,"n_dots":4.25,"target":"right","response":"right","rt":385.59999990463,"correct":true,"confidence":-1},{"trial_n":4,"n_dots":3.85,"target":"left","response":"left","rt":366,"correct":true,"confidence":-1},{"trial_n":5,"n_dots":3.85,"target":"right","response":"right","rt":593.90000009537,"correct":true,"confidence":-1},{"trial_n":6,"n_dots":3.45,"target":"left","response":"left","rt":571.30000019073,"correct":true,"confidence":-1},{"trial_n":7,"n_dots":3.45,"target":"left","response":"right","rt":341.89999985695,"correct":false,"confidence":-1},{"trial_n":8,"n_dots":3.65,"target":"left","response":"left","rt":223.79999995232,"correct":true,"confidence":-1},{"trial_n":9,"n_dots":3.65,"target":"right","response":"left","rt":251.70000004768,"correct":false,"confidence":-1},{"trial_n":10,"n_dots":3.85,"target":"left","response":"left","rt":904.90000009537,"correct":true,"confidence":-1},{"trial_n":11,"n_dots":3.85,"target":"left","response":"left","rt":718.40000009537,"correct":true,"confidence":-1},{"trial_n":12,"n_dots":3.65,"target":"right","response":"right","rt":275.09999990463,"correct":true,"confidence":-1},{"trial_n":13,"n_dots":3.65,"target":"left","response":"left","rt":281.20000004768,"correct":true,"confidence":-1},{"trial_n":14,"n_dots":3.55,"target":"left","response":"left","rt":741.59999990463,"correct":true,"confidence":-1},{"trial_n":15,"n_dots":3.55,"target":"right","response":"right","rt":140.5,"correct":true,"confidence":-1},{"trial_n":16,"n_dots":3.45,"target":"left","response":"left","rt":372.60000014305,"correct":true,"confidence":-1},{"trial_n":17,"n_dots":3.45,"target":"left","response":"left","rt":186.59999990463,"correct":true,"confidence":-1},{"trial_n":18,"n_dots":3.35,"target":"right","response":"right","rt":52.700000047684,"correct":true,"confidence":-1},{"trial_n":19,"n_dots":3.35,"target":"left","response":"left","rt":418,"correct":true,"confidence":-1},{"trial_n":20,"n_dots":3.25,"target":"right","response":"left","rt":442.59999990463,"correct":false,"confidence":-1},{"trial_n":21,"n_dots":3.35,"target":"left","response":"left","rt":354.30000019073,"correct":true,"confidence":4},{"trial_n":22,"n_dots":3.35,"target":"left","response":"left","rt":358.10000014305,"correct":true,"confidence":3},{"trial_n":23,"n_dots":3.25,"target":"right","response":"left","rt":1150.4000000954,"correct":false,"confidence":3},{"trial_n":24,"n_dots":3.35,"target":"left","response":"left","rt":259.70000004768,"correct":true,"confidence":4},{"trial_n":25,"n_dots":3.35,"target":"left","response":"left","rt":1147.4000000954,"correct":true,"confidence":5},{"trial_n":26,"n_dots":3.25,"target":"left","response":"left","rt":325,"correct":true,"confidence":3},{"trial_n":27,"n_dots":3.25,"target":"left","response":"left","rt":254.60000014305,"correct":true,"confidence":5},{"trial_n":28,"n_dots":3.15,"target":"right","response":"right","rt":278,"correct":true,"confidence":3},{"trial_n":29,"n_dots":3.15,"target":"right","response":"left","rt":470.5,"correct":false,"confidence":3},{"trial_n":30,"n_dots":3.25,"target":"left","response":"left","rt":228.39999985695,"correct":true,"confidence":4},{"trial_n":31,"n_dots":3.25,"target":"right","response":"right","rt":247.40000009537,"correct":true,"confidence":3},{"trial_n":32,"n_dots":3.15,"target":"left","response":"left","rt":1.9000000953674,"correct":true,"confidence":5},{"trial_n":33,"n_dots":3.15,"target":"right","response":"right","rt":659.10000014305,"correct":true,"confidence":4},{"trial_n":34,"n_dots":3.05,"target":"right","response":"left","rt":168.90000009537,"correct":false,"confidence":3},{"trial_n":35,"n_dots":3.15,"target":"right","response":"left","rt":223,"correct":false,"confidence":3},{"trial_n":36,"n_dots":3.25,"target":"right","response":"right","rt":722,"correct":true,"confidence":3},{"trial_n":37,"n_dots":3.25,"target":"right","response":"left","rt":604.20000004768,"correct":false,"confidence":3},{"trial_n":38,"n_dots":3.35,"target":"left","response":"left","rt":623.90000009537,"correct":true,"confidence":4},{"trial_n":39,"n_dots":3.35,"target":"left","response":"left","rt":410.89999985695,"correct":true,"confidence":3},{"trial_n":40,"n_dots":3.25,"target":"left","response":"left","rt":376.20000004768,"correct":true,"confidence":3},{"trial_n":41,"n_dots":3.25,"target":"right","response":"right","rt":916.70000004768,"correct":true,"confidence":3},{"trial_n":42,"n_dots":3.15,"target":"left","response":"left","rt":444.09999990463,"correct":true,"confidence":4},{"trial_n":43,"n_dots":3.15,"target":"left","response":"left","rt":311.89999985695,"correct":true,"confidence":3},{"trial_n":44,"n_dots":3.05,"target":"left","response":"left","rt":699.90000009537,"correct":true,"confidence":2},{"trial_n":45,"n_dots":3.05,"target":"left","response":"left","rt":1163.2999999523,"correct":true,"confidence":2},{"trial_n":46,"n_dots":2.95,"target":"left","response":"left","rt":367.79999995232,"correct":true,"confidence":2},{"trial_n":47,"n_dots":2.95,"target":"right","response":"right","rt":151.90000009537,"correct":true,"confidence":3},{"trial_n":48,"n_dots":2.85,"target":"left","response":"right","rt":203.40000009537,"correct":false,"confidence":3},{"trial_n":49,"n_dots":2.95,"target":"right","response":"right","rt":749.79999995232,"correct":true,"confidence":2},{"trial_n":50,"n_dots":2.95,"target":"right","response":"right","rt":523.10000014305,"correct":true,"confidence":4},{"trial_n":51,"n_dots":2.85,"target":"right","response":"right","rt":585.79999995232,"correct":true,"confidence":4},{"trial_n":52,"n_dots":2.85,"target":"right","response":"right","rt":1.2000000476837,"correct":true,"confidence":3},{"trial_n":53,"n_dots":2.75,"target":"left","response":"left","rt":376.90000009537,"correct":true,"confidence":3},{"trial_n":54,"n_dots":2.75,"target":"left","response":"left","rt":1531.6000001431,"correct":true,"confidence":2},{"trial_n":55,"n_dots":2.65,"target":"left","response":"left","rt":155,"correct":true,"confidence":3},{"trial_n":56,"n_dots":2.65,"target":"right","response":"right","rt":51.5,"correct":true,"confidence":3},{"trial_n":57,"n_dots":2.55,"target":"right","response":"right","rt":86.700000047684,"correct":true,"confidence":3},{"trial_n":58,"n_dots":2.55,"target":"right","response":"left","rt":84.300000190735,"correct":false,"confidence":3},{"trial_n":59,"n_dots":2.65,"target":"right","response":"right","rt":670.70000004768,"correct":true,"confidence":3},{"trial_n":60,"n_dots":2.65,"target":"right","response":"right","rt":112.70000004768,"correct":true,"confidence":4},{"trial_n":61,"n_dots":2.55,"target":"left","response":"right","rt":365.59999990463,"correct":false,"confidence":3},{"trial_n":62,"n_dots":2.65,"target":"right","response":"right","rt":234.29999995232,"correct":true,"confidence":4},{"trial_n":63,"n_dots":2.65,"target":"right","response":"right","rt":16.5,"correct":true,"confidence":3},{"trial_n":64,"n_dots":2.55,"target":"right","response":"left","rt":215.29999995232,"correct":false,"confidence":3},{"trial_n":65,"n_dots":2.65,"target":"right","response":"left","rt":265.79999995232,"correct":false,"confidence":3},{"trial_n":66,"n_dots":2.75,"target":"right","response":"right","rt":126.5,"correct":true,"confidence":3},{"trial_n":67,"n_dots":2.75,"target":"left","response":"left","rt":729.79999995232,"correct":true,"confidence":2},{"trial_n":68,"n_dots":2.65,"target":"left","response":"right","rt":631.40000009537,"correct":false,"confidence":2},{"trial_n":69,"n_dots":2.75,"target":"left","response":"left","rt":406.70000004768,"correct":true,"confidence":2},{"trial_n":70,"n_dots":2.75,"target":"right","response":"right","rt":579.70000004768,"correct":true,"confidence":3},{"trial_n":71,"n_dots":2.65,"target":"left","response":"left","rt":53.800000190735,"correct":true,"confidence":4},{"trial_n":72,"n_dots":2.65,"target":"right","response":"right","rt":682.80000019073,"correct":true,"confidence":3},{"trial_n":73,"n_dots":2.55,"target":"right","response":"left","rt":711.20000004768,"correct":false,"confidence":2},{"trial_n":74,"n_dots":2.65,"target":"left","response":"left","rt":344.20000004768,"correct":true,"confidence":3},{"trial_n":75,"n_dots":2.65,"target":"right","response":"right","rt":427.60000014305,"correct":true,"confidence":3},{"trial_n":76,"n_dots":2.55,"target":"right","response":"left","rt":423.80000019073,"correct":false,"confidence":2},{"trial_n":77,"n_dots":2.65,"target":"left","response":"right","rt":378.90000009537,"correct":false,"confidence":3},{"trial_n":78,"n_dots":2.75,"target":"left","response":"left","rt":489.29999995232,"correct":true,"confidence":3},{"trial_n":79,"n_dots":2.75,"target":"left","response":"left","rt":755.79999995232,"correct":true,"confidence":2},{"trial_n":80,"n_dots":2.65,"target":"left","response":"left","rt":428.80000019073,"correct":true,"confidence":2},{"trial_n":81,"n_dots":2.65,"target":"right","response":"right","rt":1031.8999998569,"correct":true,"confidence":2},{"trial_n":82,"n_dots":2.55,"target":"right","response":"left","rt":854.5,"correct":false,"confidence":3},{"trial_n":83,"n_dots":2.65,"target":"right","response":"right","rt":36,"correct":true,"confidence":4},{"trial_n":84,"n_dots":2.65,"target":"left","response":"left","rt":44.300000190735,"correct":true,"confidence":4},{"trial_n":85,"n_dots":2.55,"target":"right","response":"right","rt":474.70000004768,"correct":true,"confidence":3},{"trial_n":86,"n_dots":2.55,"target":"left","response":"left","rt":1090.7000000477,"correct":true,"confidence":2},{"trial_n":87,"n_dots":2.45,"target":"left","response":"right","rt":675.70000004768,"correct":false,"confidence":3},{"trial_n":88,"n_dots":2.55,"target":"left","response":"left","rt":781.70000004768,"correct":true,"confidence":3},{"trial_n":89,"n_dots":2.55,"target":"left","response":"left","rt":935.20000004768,"correct":true,"confidence":2},{"trial_n":90,"n_dots":2.45,"target":"left","response":"left","rt":432.89999985695,"correct":true,"confidence":2},{"trial_n":91,"n_dots":2.45,"target":"right","response":"right","rt":289.29999995232,"correct":true,"confidence":2},{"trial_n":92,"n_dots":2.35,"target":"right","response":"right","rt":615.30000019073,"correct":true,"confidence":2},{"trial_n":93,"n_dots":2.35,"target":"right","response":"right","rt":436.70000004768,"correct":true,"confidence":4},{"trial_n":94,"n_dots":2.25,"target":"right","response":"right","rt":761.79999995232,"correct":true,"confidence":3},{"trial_n":95,"n_dots":2.25,"target":"left","response":"left","rt":395.29999995232,"correct":true,"confidence":3},{"trial_n":96,"n_dots":2.15,"target":"right","response":"right","rt":319.59999990463,"correct":true,"confidence":3},{"trial_n":97,"n_dots":2.15,"target":"right","response":"right","rt":290.59999990463,"correct":true,"confidence":3},{"trial_n":98,"n_dots":2.05,"target":"left","response":"left","rt":285.29999995232,"correct":true,"confidence":4},{"trial_n":99,"n_dots":2.05,"target":"left","response":"left","rt":328.60000014305,"correct":true,"confidence":4},{"trial_n":100,"n_dots":1.95,"target":"right","response":"left","rt":271.20000004768,"correct":false,"confidence":4},{"trial_n":101,"n_dots":2.05,"target":"left","response":"left","rt":170.70000004768,"correct":true,"confidence":3},{"trial_n":102,"n_dots":2.05,"target":"right","response":"right","rt":278.59999990463,"correct":true,"confidence":2},{"trial_n":103,"n_dots":1.95,"target":"left","response":"left","rt":82,"correct":true,"confidence":4},{"trial_n":104,"n_dots":1.95,"target":"right","response":"right","rt":312.70000004768,"correct":true,"confidence":4},{"trial_n":105,"n_dots":1.85,"target":"right","response":"left","rt":687.19999980927,"correct":false,"confidence":2},{"trial_n":106,"n_dots":1.95,"target":"right","response":"right","rt":495.59999990463,"correct":true,"confidence":2},{"trial_n":107,"n_dots":1.95,"target":"right","response":"left","rt":50.200000047684,"correct":false,"confidence":2},{"trial_n":108,"n_dots":2.05,"target":"right","response":"right","rt":679.29999995232,"correct":true,"confidence":3},{"trial_n":109,"n_dots":2.05,"target":"right","response":"right","rt":284.5,"correct":true,"confidence":3},{"trial_n":110,"n_dots":1.95,"target":"left","response":"left","rt":20.299999952316,"correct":true,"confidence":4},{"trial_n":111,"n_dots":1.95,"target":"left","response":"right","rt":651,"correct":false,"confidence":3},{"trial_n":112,"n_dots":2.05,"target":"left","response":"left","rt":205,"correct":true,"confidence":4},{"trial_n":113,"n_dots":2.05,"target":"left","response":"left","rt":481.80000019073,"correct":true,"confidence":4},{"trial_n":114,"n_dots":1.95,"target":"right","response":"left","rt":80.800000190735,"correct":false,"confidence":4},{"trial_n":115,"n_dots":2.05,"target":"left","response":"left","rt":507.30000019073,"correct":true,"confidence":4},{"trial_n":116,"n_dots":2.05,"target":"right","response":"right","rt":283.29999995232,"correct":true,"confidence":2},{"trial_n":117,"n_dots":1.95,"target":"left","response":"left","rt":400.5,"correct":true,"confidence":4},{"trial_n":118,"n_dots":1.95,"target":"right","response":"left","rt":1853.8999998569,"correct":false,"confidence":3},{"trial_n":119,"n_dots":2.05,"target":"left","response":"right","rt":100.89999985695,"correct":false,"confidence":3},{"trial_n":120,"n_dots":2.15,"target":"right","response":"right","rt":1200.7000000477,"correct":true,"confidence":3}]