[{"trial_n":1,"n_dots":4.25,"target":"left","response":"left","rt":6396,"correct":true,"confidence":-1},{"trial_n":2,"n_dots":4.25,"target":"left","response":"left","rt":758,"correct":true,"confidence":-1},{"trial_n":3,"n_dots":3.85,"target":"left","response":"right","rt":568,"correct":false,"confidence":-1},{"trial_n":4,"n_dots":4.25,"target":"left","response":"left","rt":364,"correct":true,"confidence":-1},{"trial_n":5,"n_dots":4.25,"target":"right","response":"right","rt":379,"correct":true,"confidence":-1},{"trial_n":6,"n_dots":3.85,"target":"right","response":"right","rt":187,"correct":true,"confidence":-1},{"trial_n":7,"n_dots":3.85,"target":"right","response":"right","rt":445.00000000745,"correct":true,"confidence":-1},{"trial_n":8,"n_dots":3.65,"target":"left","response":"left","rt":156.99999999255,"correct":true,"confidence":-1},{"trial_n":9,"n_dots":3.65,"target":"right","response":"right","rt":452.00000000745,"correct":true,"confidence":-1},{"trial_n":10,"n_dots":3.45,"target":"right","response":"right","rt":516,"correct":true,"confidence":-1},{"trial_n":11,"n_dots":3.45,"target":"right","response":"right","rt":4759,"correct":true,"confidence":-1},{"trial_n":12,"n_dots":3.25,"target":"right","response":"left","rt":550,"correct":false,"confidence":-1},{"trial_n":13,"n_dots":3.35,"target":"right","response":"right","rt":196,"correct":true,"confidence":-1},{"trial_n":14,"n_dots":3.35,"target":"right","response":"right","rt":372,"correct":true,"confidence":-1},{"trial_n":15,"n_dots":3.25,"target":"right","response":"right","rt":516,"correct":true,"confidence":-1},{"trial_n":16,"n_dots":3.25,"target":"right","response":"left","rt":570,"correct":false,"confidence":-1},{"trial_n":17,"n_dots":3.35,"target":"left","response":"left","rt":3214,"correct":true,"confidence":-1},{"trial_n":18,"n_dots":3.35,"target":"right","response":"left","rt":5437,"correct":false,"confidence":-1},{"trial_n":19,"n_dots":3.45,"target":"right","response":"right","rt":62,"correct":true,"confidence":-1},{"trial_n":20,"n_dots":3.45,"target":"left","response":"right","rt":982,"correct":false,"confidence":-1},{"trial_n":21,"n_dots":3.55,"target":"left","response":"left","rt":156,"correct":true,"confidence":4},{"trial_n":22,"n_dots":3.55,"target":"left","response":"left","rt":294.99999999255,"correct":true,"confidence":4},{"trial_n":23,"n_dots":3.45,"target":"right","response":"right","rt":243,"correct":true,"confidence":5},{"trial_n":24,"n_dots":3.45,"target":"left","response":"left","rt":99.000000007451,"correct":true,"confidence":5},{"trial_n":25,"n_dots":3.35,"target":"left","response":"right","rt":994,"correct":false,"confidence":3},{"trial_n":26,"n_dots":3.45,"target":"right","response":"right","rt":187,"correct":true,"confidence":4},{"trial_n":27,"n_dots":3.45,"target":"left","response":"left","rt":221,"correct":true,"confidence":4},{"trial_n":28,"n_dots":3.35,"target":"left","response":"right","rt":842,"correct":false,"confidence":3},{"trial_n":29,"n_dots":3.45,"target":"right","response":"right","rt":257,"correct":true,"confidence":5},{"trial_n":30,"n_dots":3.45,"target":"right","response":"right","rt":308,"correct":true,"confidence":3},{"trial_n":31,"n_dots":3.35,"target":"left","response":"left","rt":652,"correct":true,"confidence":2},{"trial_n":32,"n_dots":3.35,"target":"right","response":"right","rt":389,"correct":true,"confidence":4},{"trial_n":33,"n_dots":3.25,"target":"left","response":"right","rt":621,"correct":false,"confidence":4},{"trial_n":34,"n_dots":3.35,"target":"right","response":"right","rt":90,"correct":true,"confidence":4},{"trial_n":35,"n_dots":3.35,"target":"right","response":"right","rt":274,"correct":true,"confidence":4},{"trial_n":36,"n_dots":3.25,"target":"right","response":"right","rt":493.00000000745,"correct":true,"confidence":4},{"trial_n":37,"n_dots":3.25,"target":"right","response":"right","rt":364,"correct":true,"confidence":5},{"trial_n":38,"n_dots":3.15,"target":"left","response":"left","rt":1147,"correct":true,"confidence":2},{"trial_n":39,"n_dots":3.15,"target":"right","response":"right","rt":235,"correct":true,"confidence":3},{"trial_n":40,"n_dots":3.05,"target":"left","response":"left","rt":539,"correct":true,"confidence":3},{"trial_n":41,"n_dots":3.05,"target":"left","response":"left","rt":324,"correct":true,"confidence":3},{"trial_n":42,"n_dots":2.95,"target":"right","response":"right","rt":53.999999992549,"correct":true,"confidence":4},{"trial_n":43,"n_dots":2.95,"target":"right","response":"right","rt":840,"correct":true,"confidence":4},{"trial_n":44,"n_dots":2.85,"target":"left","response":"left","rt":485,"correct":true,"confidence":3},{"trial_n":45,"n_dots":2.85,"target":"left","response":"left","rt":534,"correct":true,"confidence":3},{"trial_n":46,"n_dots":2.75,"target":"right","response":"right","rt":780,"correct":true,"confidence":4},{"trial_n":47,"n_dots":2.75,"target":"left","response":"left","rt":372,"correct":true,"confidence":3},{"trial_n":48,"n_dots":2.65,"target":"right","response":"right","rt":811.00000000745,"correct":true,"confidence":2},{"trial_n":49,"n_dots":2.65,"target":"left","response":"left","rt":550,"correct":true,"confidence":2},{"trial_n":50,"n_dots":2.55,"target":"left","response":"left","rt":486.99999999255,"correct":true,"confidence":4},{"trial_n":51,"n_dots":2.55,"target":"right","response":"left","rt":1603,"correct":false,"confidence":1},{"trial_n":52,"n_dots":2.65,"target":"right","response":"right","rt":487,"correct":true,"confidence":5},{"trial_n":53,"n_dots":2.65,"target":"right","response":"right","rt":467.00000000745,"correct":true,"confidence":4},{"trial_n":54,"n_dots":2.55,"target":"left","response":"left","rt":459,"correct":true,"confidence":4},{"trial_n":55,"n_dots":2.55,"target":"left","response":"left","rt":971,"correct":true,"confidence":4},{"trial_n":56,"n_dots":2.45,"target":"right","response":"left","rt":1564.0000000075,"correct":false,"confidence":2},{"trial_n":57,"n_dots":2.55,"target":"left","response":"left","rt":397,"correct":true,"confidence":4},{"trial_n":58,"n_dots":2.55,"target":"right","response":"right","rt":278,"correct":true,"confidence":4},{"trial_n":59,"n_dots":2.45,"target":"right","response":"right","rt":503,"correct":true,"confidence":4},{"trial_n":60,"n_dots":2.45,"target":"left","response":"left","rt":230,"correct":true,"confidence":3},{"trial_n":61,"n_dots":2.35,"target":"left","response":"right","rt":431.99999999255,"correct":false,"confidence":4},{"trial_n":62,"n_dots":2.45,"target":"left","response":"left","rt":215,"correct":true,"confidence":3},{"trial_n":63,"n_dots":2.45,"target":"right","response":"right","rt":1209,"correct":true,"confidence":5},{"trial_n":64,"n_dots":2.35,"target":"left","response":"right","rt":597,"correct":false,"confidence":5},{"trial_n":65,"n_dots":2.45,"target":"left","response":"right","rt":792,"correct":false,"confidence":3},{"trial_n":66,"n_dots":2.55,"target":"left","response":"left","rt":381,"correct":true,"confidence":5},{"trial_n":67,"n_dots":2.55,"target":"left","response":"left","rt":1070,"correct":true,"confidence":4},{"trial_n":68,"n_dots":2.45,"target":"left","response":"left","rt":651,"correct":true,"confidence":4},{"trial_n":69,"n_dots":2.45,"target":"left","response":"left","rt":159,"correct":true,"confidence":3},{"trial_n":70,"n_dots":2.35,"target":"left","response":"left","rt":100.99999999255,"correct":true,"confidence":4},{"trial_n":71,"n_dots":2.35,"target":"right","response":"right","rt":206,"correct":true,"confidence":4},{"trial_n":72,"n_dots":2.25,"target":"right","response":"right","rt":503,"correct":true,"confidence":5},{"trial_n":73,"n_dots":2.25,"target":"left","response":"left","rt":673.00000000745,"correct":true,"confidence":3},{"trial_n":74,"n_dots":2.15,"target":"right","response":"right","rt":500.99999999255,"correct":true,"confidence":3},{"trial_n":75,"n_dots":2.15,"target":"right","response":"right","rt":552,"correct":true,"confidence":4},{"trial_n":76,"n_dots":2.05,"target":"left","response":"left","rt":899,"correct":true,"confidence":3},{"trial_n":77,"n_dots":2.05,"target":"left","response":"right","rt":591,"correct":false,"confidence":4},{"trial_n":78,"n_dots":2.15,"target":"left","response":"right","rt":743,"correct":false,"confidence":3},{"trial_n":79,"n_dots":2.25,"target":"right","response":"right","rt":610,"correct":true,"confidence":3},{"trial_n":80,"n_dots":2.25,"target":"right","response":"left","rt":701.99999999255,"correct":false,"confidence":2},{"trial_n":81,"n_dots":2.35,"target":"left","response":"right","rt":486.99999999255,"correct":false,"confidence":3},{"trial_n":82,"n_dots":2.45,"target":"left","response":"left","rt":498,"correct":true,"confidence":3},{"trial_n":83,"n_dots":2.45,"target":"left","response":"right","rt":1153,"correct":false,"confidence":4},{"trial_n":84,"n_dots":2.55,"target":"left","response":"left","rt":2470,"correct":true,"confidence":1},{"trial_n":85,"n_dots":2.55,"target":"left","response":"left","rt":945,"correct":true,"confidence":4},{"trial_n":86,"n_dots":2.45,"target":"left","response":"right","rt":471,"correct":false,"confidence":4},{"trial_n":87,"n_dots":2.55,"target":"right","response":"right","rt":1209.9999999925,"correct":true,"confidence":3},{"trial_n":88,"n_dots":2.55,"target":"right","response":"left","rt":503.00000000745,"correct":false,"confidence":3},{"trial_n":89,"n_dots":2.65,"target":"right","response":"right","rt":481,"correct":true,"confidence":3},{"trial_n":90,"n_dots":2.65,"target":"right","response":"right","rt":379,"correct":true,"confidence":4},{"trial_n":91,"n_dots":2.55,"target":"left","response":"right","rt":698.00000000745,"correct":false,"confidence":4},{"trial_n":92,"n_dots":2.65,"target":"right","response":"left","rt":200,"correct":false,"confidence":3},{"trial_n":93,"n_dots":2.75,"target":"left","response":"left","rt":632,"correct":true,"confidence":4},{"trial_n":94,"n_dots":2.75,"target":"left","response":"left","rt":583,"correct":true,"confidence":4},{"trial_n":95,"n_dots":2.65,"target":"left","response":"left","rt":363,"correct":true,"confidence":5},{"trial_n":96,"n_dots":2.65,"target":"right","response":"right","rt":362.00000000745,"correct":true,"confidence":4},{"trial_n":97,"n_dots":2.55,"target":"left","response":"right","rt":642,"correct":false,"confidence":4},{"trial_n":98,"n_dots":2.65,"target":"right","response":"left","rt":418,"correct":false,"confidence":3},{"trial_n":99,"n_dots":2.75,"target":"right","response":"right","rt":129,"correct":true,"confidence":4},{"trial_n":100,"n_dots":2.75,"target":"right","response":"right","rt":151,"correct":true,"confidence":4},{"trial_n":101,"n_dots":2.65,"target":"left","response":"left","rt":881.99999999255,"correct":true,"confidence":4},{"trial_n":102,"n_dots":2.65,"target":"right","response":"right","rt":256,"correct":true,"confidence":4},{"trial_n":103,"n_dots":2.55,"target":"right","response":"left","rt":357,"correct":false,"confidence":4},{"trial_n":104,"n_dots":2.65,"target":"left","response":"right","rt":461.00000000745,"correct":false,"confidence":5},{"trial_n":105,"n_dots":2.75,"target":"right","response":"right","rt":306,"correct":true,"confidence":3},{"trial_n":106,"n_dots":2.75,"target":"left","response":"right","rt":154,"correct":false,"confidence":4},{"trial_n":107,"n_dots":2.85,"target":"right","response":"left","rt":386,"correct":false,"confidence":1},{"trial_n":108,"n_dots":2.95,"target":"right","response":"right","rt":1282,"correct":true,"confidence":2},{"trial_n":109,"n_dots":2.95,"target":"left","response":"right","rt":466,"correct":false,"confidence":3},{"trial_n":110,"n_dots":3.05,"target":"left","response":"left","rt":370.99999999255,"correct":true,"confidence":3},{"trial_n":111,"n_dots":3.05,"target":"left","response":"left","rt":126.00000000745,"correct":true,"confidence":3},{"trial_n":112,"n_dots":2.95,"target":"left","response":"left","rt":762,"correct":true,"confidence":4},{"trial_n":113,"n_dots":2.95,"target":"right","response":"right","rt":241,"correct":true,"confidence":4},{"trial_n":114,"n_dots":2.85,"target":"right","response":"right","rt":341,"correct":true,"confidence":4},{"trial_n":115,"n_dots":2.85,"target":"left","response":"right","rt":604,"correct":false,"confidence":4},{"trial_n":116,"n_dots":2.95,"target":"left","response":"left","rt":786,"correct":true,"confidence":4},{"trial_n":117,"n_dots":2.95,"target":"right","response":"right","rt":690,"correct":true,"confidence":4},{"trial_n":118,"n_dots":2.85,"target":"right","response":"left","rt":1065,"correct":false,"confidence":3},{"trial_n":119,"n_dots":2.95,"target":"right","response":"right","rt":754,"correct":true,"confidence":4},{"trial_n":120,"n_dots":2.95,"target":"right","response":"right","rt":371,"correct":true,"confidence":5}]