[{"trial_n":1,"n_dots":4.25,"target":"right","response":"left","rt":2628,"correct":false,"confidence":-1},{"trial_n":2,"n_dots":4.25,"target":"left","response":"right","rt":658.99999999999,"correct":false,"confidence":-1},{"trial_n":3,"n_dots":4.65,"target":"left","response":"left","rt":162,"correct":true,"confidence":-1},{"trial_n":4,"n_dots":4.65,"target":"right","response":"right","rt":2315,"correct":true,"confidence":-1},{"trial_n":5,"n_dots":4.25,"target":"left","response":"left","rt":975,"correct":true,"confidence":-1},{"trial_n":6,"n_dots":4.25,"target":"right","response":"right","rt":515,"correct":true,"confidence":-1},{"trial_n":7,"n_dots":3.85,"target":"right","response":"right","rt":1245,"correct":true,"confidence":-1},{"trial_n":8,"n_dots":3.85,"target":"left","response":"left","rt":479.99999999999,"correct":true,"confidence":-1},{"trial_n":9,"n_dots":3.65,"target":"left","response":"left","rt":470,"correct":true,"confidence":-1},{"trial_n":10,"n_dots":3.65,"target":"left","response":"left","rt":773,"correct":true,"confidence":-1},{"trial_n":11,"n_dots":3.45,"target":"left","response":"right","rt":402,"correct":false,"confidence":-1},{"trial_n":12,"n_dots":3.65,"target":"right","response":"right","rt":424,"correct":true,"confidence":-1},{"trial_n":13,"n_dots":3.65,"target":"left","response":"left","rt":762,"correct":true,"confidence":-1},{"trial_n":14,"n_dots":3.55,"target":"right","response":"right","rt":75833,"correct":true,"confidence":-1},{"trial_n":15,"n_dots":3.55,"target":"left","response":"left","rt":4395,"correct":true,"confidence":-1},{"trial_n":16,"n_dots":3.45,"target":"left","response":"left","rt":460.00000000003,"correct":true,"confidence":-1},{"trial_n":17,"n_dots":3.45,"target":"left","response":"left","rt":581.99999999997,"correct":true,"confidence":-1},{"trial_n":18,"n_dots":3.35,"target":"left","response":"left","rt":526.00000000003,"correct":true,"confidence":-1},{"trial_n":19,"n_dots":3.35,"target":"left","response":"left","rt":388,"correct":true,"confidence":-1},{"trial_n":20,"n_dots":3.25,"target":"right","response":"right","rt":458,"correct":true,"confidence":-1},{"trial_n":21,"n_dots":3.25,"target":"right","response":"left","rt":198,"correct":false,"confidence":4},{"trial_n":22,"n_dots":3.35,"target":"left","response":"left","rt":430.99999999997,"correct":true,"confidence":4},{"trial_n":23,"n_dots":3.35,"target":"right","response":"right","rt":759,"correct":true,"confidence":4},{"trial_n":24,"n_dots":3.25,"target":"left","response":"left","rt":365.00000000003,"correct":true,"confidence":4},{"trial_n":25,"n_dots":3.25,"target":"left","response":"left","rt":544.99999999997,"correct":true,"confidence":4},{"trial_n":26,"n_dots":3.15,"target":"right","response":"right","rt":267,"correct":true,"confidence":4},{"trial_n":27,"n_dots":3.15,"target":"left","response":"left","rt":219,"correct":true,"confidence":4},{"trial_n":28,"n_dots":3.05,"target":"left","response":"left","rt":512,"correct":true,"confidence":1},{"trial_n":29,"n_dots":3.05,"target":"left","response":"left","rt":953,"correct":true,"confidence":4},{"trial_n":30,"n_dots":2.95,"target":"right","response":"left","rt":444.00000000003,"correct":false,"confidence":4},{"trial_n":31,"n_dots":3.05,"target":"right","response":"left","rt":647,"correct":false,"confidence":4},{"trial_n":32,"n_dots":3.15,"target":"right","response":"right","rt":456,"correct":true,"confidence":4},{"trial_n":33,"n_dots":3.15,"target":"right","response":"right","rt":479.99999999997,"correct":true,"confidence":4},{"trial_n":34,"n_dots":3.05,"target":"right","response":"left","rt":893.00000000003,"correct":false,"confidence":4},{"trial_n":35,"n_dots":3.15,"target":"right","response":"right","rt":399.99999999997,"correct":true,"confidence":4},{"trial_n":36,"n_dots":3.15,"target":"left","response":"left","rt":502.00000000003,"correct":true,"confidence":3},{"trial_n":37,"n_dots":3.05,"target":"left","response":"left","rt":367.00000000003,"correct":true,"confidence":3},{"trial_n":38,"n_dots":3.05,"target":"right","response":"left","rt":387,"correct":false,"confidence":3},{"trial_n":39,"n_dots":3.15,"target":"left","response":"right","rt":253.00000000003,"correct":false,"confidence":3},{"trial_n":40,"n_dots":3.25,"target":"left","response":"left","rt":434.99999999997,"correct":true,"confidence":4},{"trial_n":41,"n_dots":3.25,"target":"left","response":"left","rt":1388,"correct":true,"confidence":3},{"trial_n":42,"n_dots":3.15,"target":"right","response":"left","rt":266,"correct":false,"confidence":3},{"trial_n":43,"n_dots":3.25,"target":"right","response":"right","rt":378.99999999994,"correct":true,"confidence":5},{"trial_n":44,"n_dots":3.25,"target":"right","response":"right","rt":468.99999999994,"correct":true,"confidence":4},{"trial_n":45,"n_dots":3.15,"target":"right","response":"right","rt":614,"correct":true,"confidence":4},{"trial_n":46,"n_dots":3.15,"target":"left","response":"right","rt":393.00000000006,"correct":false,"confidence":4},{"trial_n":47,"n_dots":3.25,"target":"right","response":"right","rt":674,"correct":true,"confidence":3},{"trial_n":48,"n_dots":3.25,"target":"left","response":"left","rt":1065,"correct":true,"confidence":3},{"trial_n":49,"n_dots":3.15,"target":"left","response":"left","rt":493.99999999994,"correct":true,"confidence":5},{"trial_n":50,"n_dots":3.15,"target":"left","response":"right","rt":482.00000000006,"correct":false,"confidence":4},{"trial_n":51,"n_dots":3.25,"target":"left","response":"right","rt":479,"correct":false,"confidence":3},{"trial_n":52,"n_dots":3.35,"target":"right","response":"right","rt":515.99999999994,"correct":true,"confidence":4},{"trial_n":53,"n_dots":3.35,"target":"left","response":"right","rt":3188.9999999999,"correct":false,"confidence":3},{"trial_n":54,"n_dots":3.45,"target":"left","response":"left","rt":684,"correct":true,"confidence":4},{"trial_n":55,"n_dots":3.45,"target":"right","response":"right","rt":794.99999999994,"correct":true,"confidence":3},{"trial_n":56,"n_dots":3.35,"target":"right","response":"left","rt":1267,"correct":false,"confidence":4},{"trial_n":57,"n_dots":3.45,"target":"left","response":"left","rt":570.99999999994,"correct":true,"confidence":5},{"trial_n":58,"n_dots":3.45,"target":"left","response":"left","rt":1099,"correct":true,"confidence":5},{"trial_n":59,"n_dots":3.35,"target":"right","response":"right","rt":505,"correct":true,"confidence":5},{"trial_n":60,"n_dots":3.35,"target":"left","response":"left","rt":460,"correct":true,"confidence":4},{"trial_n":61,"n_dots":3.25,"target":"right","response":"left","rt":1281.9999999999,"correct":false,"confidence":4},{"trial_n":62,"n_dots":3.35,"target":"right","response":"right","rt":316,"correct":true,"confidence":4},{"trial_n":63,"n_dots":3.35,"target":"right","response":"right","rt":501,"correct":true,"confidence":5},{"trial_n":64,"n_dots":3.25,"target":"right","response":"right","rt":1381,"correct":true,"confidence":2},{"trial_n":65,"n_dots":3.25,"target":"left","response":"right","rt":469,"correct":false,"confidence":4},{"trial_n":66,"n_dots":3.35,"target":"right","response":"right","rt":1548.9999999999,"correct":true,"confidence":2},{"trial_n":67,"n_dots":3.35,"target":"right","response":"right","rt":257,"correct":true,"confidence":2},{"trial_n":68,"n_dots":3.25,"target":"right","response":"right","rt":662,"correct":true,"confidence":4},{"trial_n":69,"n_dots":3.25,"target":"right","response":"right","rt":1371.0000000001,"correct":true,"confidence":4},{"trial_n":70,"n_dots":3.15,"target":"right","response":"right","rt":583,"correct":true,"confidence":5},{"trial_n":71,"n_dots":3.15,"target":"left","response":"right","rt":2170.9999999999,"correct":false,"confidence":4},{"trial_n":72,"n_dots":3.25,"target":"right","response":"right","rt":1786,"correct":true,"confidence":5},{"trial_n":73,"n_dots":3.25,"target":"right","response":"right","rt":468.99999999994,"correct":true,"confidence":5},{"trial_n":74,"n_dots":3.15,"target":"left","response":"right","rt":1303,"correct":false,"confidence":2},{"trial_n":75,"n_dots":3.25,"target":"right","response":"right","rt":570.00000000006,"correct":true,"confidence":5},{"trial_n":76,"n_dots":3.25,"target":"left","response":"left","rt":1157,"correct":true,"confidence":4},{"trial_n":77,"n_dots":3.15,"target":"right","response":"right","rt":898,"correct":true,"confidence":5},{"trial_n":78,"n_dots":3.15,"target":"left","response":"right","rt":1490,"correct":false,"confidence":1},{"trial_n":79,"n_dots":3.25,"target":"left","response":"right","rt":1000,"correct":false,"confidence":2},{"trial_n":80,"n_dots":3.35,"target":"left","response":"left","rt":3270.9999999999,"correct":true,"confidence":4},{"trial_n":81,"n_dots":3.35,"target":"left","response":"right","rt":403,"correct":false,"confidence":3},{"trial_n":82,"n_dots":3.45,"target":"left","response":"left","rt":189,"correct":true,"confidence":3},{"trial_n":83,"n_dots":3.45,"target":"left","response":"left","rt":215,"correct":true,"confidence":3},{"trial_n":84,"n_dots":3.35,"target":"left","response":"left","rt":188,"correct":true,"confidence":5},{"trial_n":85,"n_dots":3.35,"target":"right","response":"right","rt":768,"correct":true,"confidence":4},{"trial_n":86,"n_dots":3.25,"target":"right","response":"right","rt":885,"correct":true,"confidence":5},{"trial_n":87,"n_dots":3.25,"target":"left","response":"left","rt":311,"correct":true,"confidence":1},{"trial_n":88,"n_dots":3.15,"target":"right","response":"right","rt":750,"correct":true,"confidence":5},{"trial_n":89,"n_dots":3.15,"target":"left","response":"right","rt":606,"correct":false,"confidence":1},{"trial_n":90,"n_dots":3.25,"target":"right","response":"left","rt":706.99999999994,"correct":false,"confidence":3},{"trial_n":91,"n_dots":3.35,"target":"right","response":"right","rt":485,"correct":true,"confidence":4},{"trial_n":92,"n_dots":3.35,"target":"right","response":"right","rt":1046,"correct":true,"confidence":4},{"trial_n":93,"n_dots":3.25,"target":"right","response":"right","rt":1159.9999999999,"correct":true,"confidence":1},{"trial_n":94,"n_dots":3.25,"target":"right","response":"left","rt":169,"correct":false,"confidence":2},{"trial_n":95,"n_dots":3.35,"target":"right","response":"right","rt":1234,"correct":true,"confidence":4},{"trial_n":96,"n_dots":3.35,"target":"left","response":"left","rt":2630,"correct":true,"confidence":5},{"trial_n":97,"n_dots":3.25,"target":"right","response":"left","rt":2202,"correct":false,"confidence":5},{"trial_n":98,"n_dots":3.35,"target":"right","response":"right","rt":2013,"correct":true,"confidence":4},{"trial_n":99,"n_dots":3.35,"target":"left","response":"left","rt":810.00000000006,"correct":true,"confidence":5},{"trial_n":100,"n_dots":3.25,"target":"left","response":"left","rt":2741,"correct":true,"confidence":3},{"trial_n":101,"n_dots":3.25,"target":"left","response":"left","rt":225,"correct":true,"confidence":3},{"trial_n":102,"n_dots":3.15,"target":"right","response":"right","rt":188.99999999988,"correct":true,"confidence":4},{"trial_n":103,"n_dots":3.15,"target":"left","response":"left","rt":627,"correct":true,"confidence":1},{"trial_n":104,"n_dots":3.05,"target":"left","response":"right","rt":244,"correct":false,"confidence":3},{"trial_n":105,"n_dots":3.15,"target":"left","response":"right","rt":245,"correct":false,"confidence":3},{"trial_n":106,"n_dots":3.25,"target":"left","response":"left","rt":222,"correct":true,"confidence":2},{"trial_n":107,"n_dots":3.25,"target":"right","response":"right","rt":256,"correct":true,"confidence":5},{"trial_n":108,"n_dots":3.15,"target":"right","response":"left","rt":201,"correct":false,"confidence":5},{"trial_n":109,"n_dots":3.25,"target":"right","response":"left","rt":300.99999999988,"correct":false,"confidence":2},{"trial_n":110,"n_dots":3.35,"target":"left","response":"right","rt":440,"correct":false,"confidence":4},{"trial_n":111,"n_dots":3.45,"target":"left","response":"right","rt":179,"correct":false,"confidence":3},{"trial_n":112,"n_dots":3.55,"target":"left","response":"left","rt":343,"correct":true,"confidence":5},{"trial_n":113,"n_dots":3.55,"target":"right","response":"right","rt":1092,"correct":true,"confidence":4},{"trial_n":114,"n_dots":3.45,"target":"right","response":"left","rt":235,"correct":false,"confidence":1},{"trial_n":115,"n_dots":3.55,"target":"left","response":"left","rt":497,"correct":true,"confidence":5},{"trial_n":116,"n_dots":3.55,"target":"right","response":"right","rt":203,"correct":true,"confidence":1},{"trial_n":117,"n_dots":3.45,"target":"right","response":"right","rt":183,"correct":true,"confidence":1},{"trial_n":118,"n_dots":3.45,"target":"left","response":"left","rt":1250,"correct":true,"confidence":1},{"trial_n":119,"n_dots":3.35,"target":"right","response":"left","rt":261.00000000012,"correct":false,"confidence":1},{"trial_n":120,"n_dots":3.45,"target":"right","response":"left","rt":27947,"correct":false,"confidence":1}]