[{"trial_n":1,"n_dots":4.25,"target":"right","response":"left","rt":4997.8000000003,"correct":false,"confidence":-1},{"trial_n":2,"n_dots":4.25,"target":"left","response":"right","rt":1471,"correct":false,"confidence":-1},{"trial_n":3,"n_dots":4.65,"target":"left","response":"left","rt":533.80000000028,"correct":true,"confidence":-1},{"trial_n":4,"n_dots":4.65,"target":"left","response":"left","rt":120.5,"correct":true,"confidence":-1},{"trial_n":5,"n_dots":4.25,"target":"left","response":"left","rt":21.5,"correct":true,"confidence":-1},{"trial_n":6,"n_dots":4.25,"target":"left","response":"right","rt":4050.6000000001,"correct":false,"confidence":-1},{"trial_n":7,"n_dots":4.65,"target":"left","response":"left","rt":907.19999999972,"correct":true,"confidence":-1},{"trial_n":8,"n_dots":4.65,"target":"right","response":"right","rt":359,"correct":true,"confidence":-1},{"trial_n":9,"n_dots":4.45,"target":"left","response":"left","rt":269.30000000028,"correct":true,"confidence":-1},{"trial_n":10,"n_dots":4.45,"target":"right","response":"right","rt":321.60000000009,"correct":true,"confidence":-1},{"trial_n":11,"n_dots":4.25,"target":"right","response":"right","rt":353.19999999972,"correct":true,"confidence":-1},{"trial_n":12,"n_dots":4.25,"target":"right","response":"right","rt":319.79999999981,"correct":true,"confidence":-1},{"trial_n":13,"n_dots":4.15,"target":"right","response":"right","rt":293.69999999972,"correct":true,"confidence":-1},{"trial_n":14,"n_dots":4.15,"target":"left","response":"right","rt":391.10000000009,"correct":false,"confidence":-1},{"trial_n":15,"n_dots":4.25,"target":"left","response":"left","rt":176.39999999991,"correct":true,"confidence":-1},{"trial_n":16,"n_dots":4.25,"target":"right","response":"right","rt":46.600000000093,"correct":true,"confidence":-1},{"trial_n":17,"n_dots":4.15,"target":"right","response":"right","rt":357.19999999972,"correct":true,"confidence":-1},{"trial_n":18,"n_dots":4.15,"target":"left","response":"left","rt":155.20000000019,"correct":true,"confidence":-1},{"trial_n":19,"n_dots":4.05,"target":"right","response":"right","rt":243.10000000009,"correct":true,"confidence":-1},{"trial_n":20,"n_dots":4.05,"target":"left","response":"left","rt":190.29999999981,"correct":true,"confidence":-1},{"trial_n":21,"n_dots":3.95,"target":"right","response":"right","rt":509.60000000009,"correct":true,"confidence":3},{"trial_n":22,"n_dots":3.95,"target":"left","response":"left","rt":973.20000000019,"correct":true,"confidence":3},{"trial_n":23,"n_dots":3.85,"target":"right","response":"right","rt":285.19999999972,"correct":true,"confidence":3},{"trial_n":24,"n_dots":3.85,"target":"left","response":"left","rt":365.10000000009,"correct":true,"confidence":2},{"trial_n":25,"n_dots":3.75,"target":"left","response":"left","rt":306.60000000009,"correct":true,"confidence":5},{"trial_n":26,"n_dots":3.75,"target":"right","response":"right","rt":262.29999999981,"correct":true,"confidence":5},{"trial_n":27,"n_dots":3.65,"target":"right","response":"right","rt":321.79999999981,"correct":true,"confidence":5},{"trial_n":28,"n_dots":3.65,"target":"right","response":"right","rt":360.70000000019,"correct":true,"confidence":5},{"trial_n":29,"n_dots":3.55,"target":"left","response":"left","rt":253.89999999991,"correct":true,"confidence":5},{"trial_n":30,"n_dots":3.55,"target":"right","response":"right","rt":388.79999999981,"correct":true,"confidence":5},{"trial_n":31,"n_dots":3.45,"target":"right","response":"right","rt":300.89999999991,"correct":true,"confidence":5},{"trial_n":32,"n_dots":3.45,"target":"left","response":"left","rt":199.40000000037,"correct":true,"confidence":5},{"trial_n":33,"n_dots":3.35,"target":"right","response":"right","rt":395.5,"correct":true,"confidence":5},{"trial_n":34,"n_dots":3.35,"target":"left","response":"left","rt":351.19999999972,"correct":true,"confidence":5},{"trial_n":35,"n_dots":3.25,"target":"right","response":"right","rt":508.19999999972,"correct":true,"confidence":1},{"trial_n":36,"n_dots":3.25,"target":"left","response":"left","rt":51.799999999814,"correct":true,"confidence":5},{"trial_n":37,"n_dots":3.15,"target":"left","response":"left","rt":330.70000000019,"correct":true,"confidence":5},{"trial_n":38,"n_dots":3.15,"target":"left","response":"right","rt":482.80000000028,"correct":false,"confidence":5},{"trial_n":39,"n_dots":3.25,"target":"left","response":"left","rt":430.29999999981,"correct":true,"confidence":5},{"trial_n":40,"n_dots":3.25,"target":"left","response":"right","rt":614.20000000019,"correct":false,"confidence":3},{"trial_n":41,"n_dots":3.35,"target":"left","response":"right","rt":1065.1000000001,"correct":false,"confidence":3},{"trial_n":42,"n_dots":3.45,"target":"left","response":"left","rt":239,"correct":true,"confidence":5},{"trial_n":43,"n_dots":3.45,"target":"right","response":"right","rt":504.79999999981,"correct":true,"confidence":5},{"trial_n":44,"n_dots":3.35,"target":"right","response":"right","rt":897.70000000019,"correct":true,"confidence":1},{"trial_n":45,"n_dots":3.35,"target":"left","response":"left","rt":311.30000000028,"correct":true,"confidence":4},{"trial_n":46,"n_dots":3.25,"target":"right","response":"right","rt":338.80000000028,"correct":true,"confidence":4},{"trial_n":47,"n_dots":3.25,"target":"right","response":"right","rt":437.29999999981,"correct":true,"confidence":5},{"trial_n":48,"n_dots":3.15,"target":"left","response":"right","rt":532.79999999981,"correct":false,"confidence":1},{"trial_n":49,"n_dots":3.25,"target":"right","response":"right","rt":413.5,"correct":true,"confidence":3},{"trial_n":50,"n_dots":3.25,"target":"right","response":"left","rt":261.70000000019,"correct":false,"confidence":5},{"trial_n":51,"n_dots":3.35,"target":"right","response":"right","rt":366,"correct":true,"confidence":5},{"trial_n":52,"n_dots":3.35,"target":"right","response":"left","rt":484.70000000019,"correct":false,"confidence":2},{"trial_n":53,"n_dots":3.45,"target":"left","response":"left","rt":422.5,"correct":true,"confidence":1},{"trial_n":54,"n_dots":3.45,"target":"left","response":"left","rt":252.29999999981,"correct":true,"confidence":5},{"trial_n":55,"n_dots":3.35,"target":"left","response":"left","rt":566.5,"correct":true,"confidence":4},{"trial_n":56,"n_dots":3.35,"target":"right","response":"right","rt":133.5,"correct":true,"confidence":5},{"trial_n":57,"n_dots":3.25,"target":"right","response":"right","rt":456.70000000019,"correct":true,"confidence":5},{"trial_n":58,"n_dots":3.25,"target":"right","response":"right","rt":351.79999999981,"correct":true,"confidence":5},{"trial_n":59,"n_dots":3.15,"target":"right","response":"right","rt":830.5,"correct":true,"confidence":3},{"trial_n":60,"n_dots":3.15,"target":"left","response":"left","rt":41,"correct":true,"confidence":2},{"trial_n":61,"n_dots":3.05,"target":"left","response":"left","rt":433.29999999981,"correct":true,"confidence":2},{"trial_n":62,"n_dots":3.05,"target":"left","response":"left","rt":380.20000000019,"correct":true,"confidence":1},{"trial_n":63,"n_dots":2.95,"target":"right","response":"right","rt":324.09999999963,"correct":true,"confidence":1},{"trial_n":64,"n_dots":2.95,"target":"left","response":"left","rt":419.29999999981,"correct":true,"confidence":3},{"trial_n":65,"n_dots":2.85,"target":"left","response":"left","rt":294.19999999972,"correct":true,"confidence":4},{"trial_n":66,"n_dots":2.85,"target":"right","response":"right","rt":357.30000000028,"correct":true,"confidence":4},{"trial_n":67,"n_dots":2.75,"target":"right","response":"left","rt":71.400000000373,"correct":false,"confidence":4},{"trial_n":68,"n_dots":2.85,"target":"right","response":"right","rt":80.600000000093,"correct":true,"confidence":4},{"trial_n":69,"n_dots":2.85,"target":"left","response":"right","rt":399.39999999991,"correct":false,"confidence":3},{"trial_n":70,"n_dots":2.95,"target":"right","response":"right","rt":238.39999999991,"correct":true,"confidence":3},{"trial_n":71,"n_dots":2.95,"target":"right","response":"left","rt":845.10000000009,"correct":false,"confidence":1},{"trial_n":72,"n_dots":3.05,"target":"right","response":"right","rt":326.19999999972,"correct":true,"confidence":1},{"trial_n":73,"n_dots":3.05,"target":"left","response":"left","rt":300.60000000009,"correct":true,"confidence":1},{"trial_n":74,"n_dots":2.95,"target":"left","response":"left","rt":528.89999999991,"correct":true,"confidence":3},{"trial_n":75,"n_dots":2.95,"target":"right","response":"right","rt":354.90000000037,"correct":true,"confidence":3},{"trial_n":76,"n_dots":2.85,"target":"right","response":"right","rt":493.5,"correct":true,"confidence":3},{"trial_n":77,"n_dots":2.85,"target":"left","response":"right","rt":441.29999999981,"correct":false,"confidence":3},{"trial_n":78,"n_dots":2.95,"target":"left","response":"left","rt":270.5,"correct":true,"confidence":3},{"trial_n":79,"n_dots":2.95,"target":"left","response":"right","rt":253.70000000019,"correct":false,"confidence":3},{"trial_n":80,"n_dots":3.05,"target":"left","response":"right","rt":509.39999999991,"correct":false,"confidence":2},{"trial_n":81,"n_dots":3.15,"target":"left","response":"right","rt":1248.5,"correct":false,"confidence":2},{"trial_n":82,"n_dots":3.25,"target":"right","response":"left","rt":1681.1000000001,"correct":false,"confidence":4},{"trial_n":83,"n_dots":3.35,"target":"right","response":"left","rt":325.10000000009,"correct":false,"confidence":2},{"trial_n":84,"n_dots":3.45,"target":"right","response":"right","rt":205.79999999981,"correct":true,"confidence":5},{"trial_n":85,"n_dots":3.45,"target":"right","response":"right","rt":335.60000000009,"correct":true,"confidence":5},{"trial_n":86,"n_dots":3.35,"target":"right","response":"left","rt":907.19999999972,"correct":false,"confidence":1},{"trial_n":87,"n_dots":3.45,"target":"left","response":"left","rt":150.5,"correct":true,"confidence":5},{"trial_n":88,"n_dots":3.45,"target":"left","response":"left","rt":432.89999999991,"correct":true,"confidence":5},{"trial_n":89,"n_dots":3.35,"target":"left","response":"left","rt":306.80000000028,"correct":true,"confidence":5},{"trial_n":90,"n_dots":3.35,"target":"left","response":"left","rt":235.70000000019,"correct":true,"confidence":5},{"trial_n":91,"n_dots":3.25,"target":"right","response":"right","rt":349.10000000009,"correct":true,"confidence":1},{"trial_n":92,"n_dots":3.25,"target":"right","response":"left","rt":302.19999999972,"correct":false,"confidence":3},{"trial_n":93,"n_dots":3.35,"target":"right","response":"right","rt":426,"correct":true,"confidence":3},{"trial_n":94,"n_dots":3.35,"target":"left","response":"left","rt":178.70000000019,"correct":true,"confidence":4},{"trial_n":95,"n_dots":3.25,"target":"left","response":"left","rt":347.80000000028,"correct":true,"confidence":4},{"trial_n":96,"n_dots":3.25,"target":"right","response":"right","rt":1559.6999999997,"correct":true,"confidence":3},{"trial_n":97,"n_dots":3.15,"target":"right","response":"right","rt":830.09999999963,"correct":true,"confidence":3},{"trial_n":98,"n_dots":3.15,"target":"left","response":"left","rt":97.699999999721,"correct":true,"confidence":4},{"trial_n":99,"n_dots":3.05,"target":"left","response":"left","rt":78.100000000093,"correct":true,"confidence":5},{"trial_n":100,"n_dots":3.05,"target":"left","response":"left","rt":218.39999999991,"correct":true,"confidence":5},{"trial_n":101,"n_dots":2.95,"target":"right","response":"right","rt":191.80000000028,"correct":true,"confidence":1},{"trial_n":102,"n_dots":2.95,"target":"right","response":"left","rt":690.19999999972,"correct":false,"confidence":1},{"trial_n":103,"n_dots":3.05,"target":"right","response":"right","rt":640.89999999991,"correct":true,"confidence":1},{"trial_n":104,"n_dots":3.05,"target":"left","response":"left","rt":505.30000000028,"correct":true,"confidence":4},{"trial_n":105,"n_dots":2.95,"target":"right","response":"right","rt":284.70000000019,"correct":true,"confidence":4},{"trial_n":106,"n_dots":2.95,"target":"right","response":"right","rt":960,"correct":true,"confidence":1},{"trial_n":107,"n_dots":2.85,"target":"left","response":"left","rt":273.10000000009,"correct":true,"confidence":2},{"trial_n":108,"n_dots":2.85,"target":"left","response":"left","rt":380.10000000009,"correct":true,"confidence":4},{"trial_n":109,"n_dots":2.75,"target":"right","response":"right","rt":414.30000000028,"correct":true,"confidence":3},{"trial_n":110,"n_dots":2.75,"target":"right","response":"right","rt":379.39999999991,"correct":true,"confidence":4},{"trial_n":111,"n_dots":2.65,"target":"left","response":"right","rt":543.5,"correct":false,"confidence":4},{"trial_n":112,"n_dots":2.75,"target":"left","response":"right","rt":557.10000000009,"correct":false,"confidence":5},{"trial_n":113,"n_dots":2.85,"target":"right","response":"right","rt":1923.8999999999,"correct":true,"confidence":1},{"trial_n":114,"n_dots":2.85,"target":"left","response":"left","rt":98.799999999814,"correct":true,"confidence":2},{"trial_n":115,"n_dots":2.75,"target":"right","response":"left","rt":1066.1999999997,"correct":false,"confidence":2},{"trial_n":116,"n_dots":2.85,"target":"left","response":"left","rt":4427.1000000001,"correct":true,"confidence":3},{"trial_n":117,"n_dots":2.85,"target":"right","response":"left","rt":10398.1,"correct":false,"confidence":1},{"trial_n":118,"n_dots":2.95,"target":"right","response":"right","rt":172.79999999981,"correct":true,"confidence":3},{"trial_n":119,"n_dots":2.95,"target":"left","response":"left","rt":147.70000000019,"correct":true,"confidence":2},{"trial_n":120,"n_dots":2.85,"target":"left","response":"left","rt":535.80000000028,"correct":true,"confidence":2}]