[{"trial_n":1,"span":8,"encoder":"83453248","distractor":"89453248","target":"present","response":"present","rt":"4712","correct":true,"confidence":-1},{"trial_n":2,"span":8,"encoder":"56286281","distractor":"52286281","target":"present","response":"present","rt":"2743","correct":true,"confidence":-1},{"trial_n":3,"span":10,"encoder":"1050793821","distractor":"1050733821","target":"absent","response":"absent","rt":"3200","correct":true,"confidence":-1},{"trial_n":4,"span":10,"encoder":"4039040305","distractor":"4039040905","target":"absent","response":"present","rt":"2536","correct":false,"confidence":-1},{"trial_n":5,"span":8,"encoder":"87233513","distractor":"17233513","target":"present","response":"present","rt":"1915","correct":true,"confidence":-1},{"trial_n":6,"span":8,"encoder":"04964511","distractor":"04967511","target":"absent","response":"present","rt":"2669","correct":false,"confidence":-1},{"trial_n":7,"span":6,"encoder":"861572","distractor":"861575","target":"absent","response":"absent","rt":"3309","correct":true,"confidence":-1},{"trial_n":8,"span":6,"encoder":"108163","distractor":"108103","target":"present","response":"absent","rt":"2624","correct":false,"confidence":-1},{"trial_n":9,"span":4,"encoder":"5105","distractor":"5102","target":"absent","response":"absent","rt":"2281","correct":true,"confidence":-1},{"trial_n":10,"span":4,"encoder":"7521","distractor":"7921","target":"present","response":"present","rt":"1234","correct":true,"confidence":-1},{"trial_n":11,"span":6,"encoder":"291879","distractor":"291379","target":"absent","response":"absent","rt":"513","correct":true,"confidence":-1},{"trial_n":12,"span":6,"encoder":"172005","distractor":"192005","target":"absent","response":"present","rt":"454.00000000001","correct":false,"confidence":-1},{"trial_n":13,"span":5,"encoder":"52738","distractor":"52238","target":"absent","response":"present","rt":"451","correct":false,"confidence":-1},{"trial_n":14,"span":4,"encoder":"3429","distractor":"3422","target":"present","response":"present","rt":"441.99999999999","correct":true,"confidence":-1},{"trial_n":15,"span":4,"encoder":"6310","distractor":"6317","target":"present","response":"absent","rt":"262","correct":false,"confidence":-1},{"trial_n":16,"span":3,"encoder":"007","distractor":"009","target":"absent","response":"present","rt":"574","correct":false,"confidence":-1},{"trial_n":17,"span":2,"encoder":"74","distractor":"71","target":"present","response":"absent","rt":"444.00000000001","correct":false,"confidence":-1},{"trial_n":18,"span":2,"encoder":"54","distractor":"50","target":"present","response":"present","rt":"478.00000000001","correct":true,"confidence":-1},{"trial_n":19,"span":2,"encoder":"86","distractor":"88","target":"absent","response":"present","rt":"434","correct":false,"confidence":-1},{"trial_n":20,"span":2,"encoder":"40","distractor":"50","target":"present","response":"absent","rt":"419","correct":false,"confidence":-1},{"trial_n":21,"span":2,"encoder":"52","distractor":"50","target":"present","response":"present","rt":"2230","correct":true,"confidence":1},{"trial_n":22,"span":2,"encoder":"39","distractor":"37","target":"present","response":"present","rt":"1354","correct":true,"confidence":4},{"trial_n":23,"span":3,"encoder":"520","distractor":"020","target":"present","response":"present","rt":"1439","correct":true,"confidence":5},{"trial_n":24,"span":3,"encoder":"997","distractor":"957","target":"absent","response":"absent","rt":"1741","correct":true,"confidence":2},{"trial_n":25,"span":4,"encoder":"5525","distractor":"5625","target":"present","response":"absent","rt":"1644","correct":false,"confidence":4},{"trial_n":26,"span":3,"encoder":"074","distractor":"474","target":"absent","response":"absent","rt":"1649","correct":true,"confidence":4},{"trial_n":27,"span":3,"encoder":"754","distractor":"954","target":"present","response":"present","rt":"1887","correct":true,"confidence":5},{"trial_n":28,"span":4,"encoder":"8197","distractor":"8797","target":"absent","response":"absent","rt":"1680","correct":true,"confidence":5},{"trial_n":29,"span":4,"encoder":"9426","distractor":"7426","target":"present","response":"present","rt":"1353","correct":true,"confidence":3},{"trial_n":30,"span":5,"encoder":"75611","distractor":"75661","target":"present","response":"present","rt":"3957","correct":true,"confidence":4},{"trial_n":31,"span":5,"encoder":"10157","distractor":"10857","target":"absent","response":"present","rt":"2754","correct":false,"confidence":3},{"trial_n":32,"span":4,"encoder":"0264","distractor":"0464","target":"present","response":"absent","rt":"1384","correct":false,"confidence":3},{"trial_n":33,"span":3,"encoder":"198","distractor":"498","target":"present","response":"present","rt":"1831","correct":true,"confidence":2},{"trial_n":34,"span":3,"encoder":"224","distractor":"244","target":"absent","response":"absent","rt":"1760","correct":true,"confidence":3},{"trial_n":35,"span":4,"encoder":"9179","distractor":"9879","target":"present","response":"present","rt":"2302","correct":true,"confidence":5},{"trial_n":36,"span":4,"encoder":"5922","distractor":"5022","target":"present","response":"present","rt":"1986","correct":true,"confidence":4},{"trial_n":37,"span":5,"encoder":"02087","distractor":"02082","target":"absent","response":"absent","rt":"1731","correct":true,"confidence":5},{"trial_n":38,"span":5,"encoder":"68195","distractor":"66195","target":"present","response":"present","rt":"1552","correct":true,"confidence":3},{"trial_n":39,"span":6,"encoder":"445565","distractor":"443565","target":"present","response":"present","rt":"1867","correct":true,"confidence":5},{"trial_n":40,"span":6,"encoder":"499046","distractor":"499049","target":"present","response":"present","rt":"2544","correct":true,"confidence":4},{"trial_n":41,"span":7,"encoder":"8472618","distractor":"8472668","target":"present","response":"present","rt":"1190","correct":true,"confidence":4},{"trial_n":42,"span":7,"encoder":"1421860","distractor":"1421890","target":"absent","response":"absent","rt":"1811","correct":true,"confidence":5},{"trial_n":43,"span":8,"encoder":"77509783","distractor":"87509783","target":"absent","response":"present","rt":"1357","correct":false,"confidence":4},{"trial_n":44,"span":7,"encoder":"5060267","distractor":"5064267","target":"present","response":"present","rt":"3497","correct":true,"confidence":3},{"trial_n":45,"span":7,"encoder":"0887201","distractor":"0887701","target":"absent","response":"present","rt":"1721","correct":false,"confidence":4},{"trial_n":46,"span":6,"encoder":"437791","distractor":"430791","target":"present","response":"present","rt":"1240.9999999999","correct":true,"confidence":5},{"trial_n":47,"span":6,"encoder":"148742","distractor":"138742","target":"present","response":"absent","rt":"1376","correct":false,"confidence":3},{"trial_n":48,"span":5,"encoder":"03095","distractor":"07095","target":"present","response":"present","rt":"1346","correct":true,"confidence":3},{"trial_n":49,"span":5,"encoder":"58591","distractor":"58571","target":"absent","response":"absent","rt":"1979","correct":true,"confidence":5},{"trial_n":50,"span":6,"encoder":"838763","distractor":"833763","target":"absent","response":"absent","rt":"1500","correct":true,"confidence":3},{"trial_n":51,"span":6,"encoder":"366716","distractor":"368716","target":"absent","response":"absent","rt":"1491","correct":true,"confidence":5},{"trial_n":52,"span":7,"encoder":"5260822","distractor":"5260922","target":"absent","response":"absent","rt":"1731","correct":true,"confidence":5},{"trial_n":53,"span":7,"encoder":"0223746","distractor":"0229746","target":"absent","response":"present","rt":"3452","correct":false,"confidence":5},{"trial_n":54,"span":6,"encoder":"561483","distractor":"561486","target":"present","response":"present","rt":"2235","correct":true,"confidence":4},{"trial_n":55,"span":6,"encoder":"179062","distractor":"579062","target":"absent","response":"present","rt":"71429","correct":false,"confidence":4},{"trial_n":56,"span":5,"encoder":"63676","distractor":"43676","target":"present","response":"present","rt":"1403","correct":true,"confidence":5},{"trial_n":57,"span":5,"encoder":"98831","distractor":"98931","target":"absent","response":"absent","rt":"1304","correct":true,"confidence":5},{"trial_n":58,"span":6,"encoder":"075393","distractor":"085393","target":"present","response":"present","rt":"2502","correct":true,"confidence":5},{"trial_n":59,"span":6,"encoder":"278877","distractor":"278577","target":"present","response":"present","rt":"1255","correct":true,"confidence":5},{"trial_n":60,"span":7,"encoder":"6049454","distractor":"0049454","target":"absent","response":"absent","rt":"3993","correct":true,"confidence":5},{"trial_n":61,"span":7,"encoder":"4264954","distractor":"4664954","target":"absent","response":"absent","rt":"1854.9999999999","correct":true,"confidence":5},{"trial_n":62,"span":8,"encoder":"42549362","distractor":"32549362","target":"absent","response":"absent","rt":"2986.9999999999","correct":true,"confidence":5},{"trial_n":63,"span":8,"encoder":"45896327","distractor":"45896328","target":"absent","response":"present","rt":"1553","correct":false,"confidence":4},{"trial_n":64,"span":7,"encoder":"4394572","distractor":"4394582","target":"present","response":"absent","rt":"1565","correct":false,"confidence":3},{"trial_n":65,"span":6,"encoder":"801021","distractor":"801022","target":"absent","response":"present","rt":"872","correct":false,"confidence":2},{"trial_n":66,"span":5,"encoder":"24924","distractor":"54924","target":"absent","response":"present","rt":"745","correct":false,"confidence":2},{"trial_n":67,"span":4,"encoder":"2171","distractor":"3171","target":"absent","response":"present","rt":"1860","correct":false,"confidence":4},{"trial_n":68,"span":3,"encoder":"150","distractor":"155","target":"absent","response":"absent","rt":"1229","correct":true,"confidence":5},{"trial_n":69,"span":3,"encoder":"812","distractor":"832","target":"present","response":"present","rt":"1762","correct":true,"confidence":5},{"trial_n":70,"span":4,"encoder":"0452","distractor":"0952","target":"present","response":"present","rt":"1859","correct":true,"confidence":5},{"trial_n":71,"span":8,"encoder":"38180853","distractor":"38110853","target":"present","response":"present","rt":"1755.0000000001","correct":true,"confidence":-1},{"trial_n":72,"span":8,"encoder":"24939577","distractor":"24939977","target":"present","response":"present","rt":"2339","correct":true,"confidence":-1},{"trial_n":73,"span":9,"encoder":"046746901","distractor":"046749901","target":"absent","response":"absent","rt":"409","correct":true,"confidence":-1},{"trial_n":74,"span":9,"encoder":"080640725","distractor":"080640125","target":"absent","response":"absent","rt":"2126","correct":true,"confidence":-1},{"trial_n":75,"span":10,"encoder":"5340016436","distractor":"5740016436","target":"present","response":"absent","rt":"1078","correct":false,"confidence":-1},{"trial_n":76,"span":9,"encoder":"555900861","distractor":"555900864","target":"present","response":"present","rt":"3598","correct":true,"confidence":-1},{"trial_n":77,"span":9,"encoder":"708912117","distractor":"728912117","target":"absent","response":"absent","rt":"2568.0000000001","correct":true,"confidence":-1},{"trial_n":78,"span":10,"encoder":"0480229996","distractor":"0420229996","target":"present","response":"present","rt":"2834","correct":true,"confidence":-1},{"trial_n":79,"span":10,"encoder":"2154696930","distractor":"2154696950","target":"absent","response":"absent","rt":"785","correct":true,"confidence":-1},{"trial_n":80,"span":11,"encoder":"68826486355","distractor":"68826480355","target":"absent","response":"absent","rt":"2268.0000000001","correct":true,"confidence":-1},{"trial_n":81,"span":11,"encoder":"92437710193","distractor":"92437410193","target":"absent","response":"absent","rt":"1508","correct":true,"confidence":-1},{"trial_n":82,"span":12,"encoder":"052540449851","distractor":"052540449251","target":"present","response":"absent","rt":"1328.0000000001","correct":false,"confidence":-1},{"trial_n":83,"span":11,"encoder":"15080771319","distractor":"15010771319","target":"absent","response":"present","rt":"438","correct":false,"confidence":-1},{"trial_n":84,"span":10,"encoder":"2297243292","distractor":"2297241292","target":"present","response":"absent","rt":"595","correct":false,"confidence":-1},{"trial_n":85,"span":9,"encoder":"096046456","distractor":"096046452","target":"present","response":"absent","rt":"2692.9999999999","correct":false,"confidence":-1},{"trial_n":86,"span":8,"encoder":"92532709","distractor":"92532209","target":"absent","response":"absent","rt":"4754.9999999999","correct":true,"confidence":-1},{"trial_n":87,"span":8,"encoder":"42722680","distractor":"42722660","target":"absent","response":"absent","rt":"22282","correct":true,"confidence":-1},{"trial_n":88,"span":9,"encoder":"101746596","distractor":"101746566","target":"absent","response":"present","rt":"13964","correct":false,"confidence":-1},{"trial_n":89,"span":8,"encoder":"35892115","distractor":"65892115","target":"present","response":"absent","rt":"958","correct":false,"confidence":-1},{"trial_n":90,"span":7,"encoder":"3411207","distractor":"3419207","target":"present","response":"present","rt":"1254","correct":true,"confidence":-1},{"trial_n":91,"span":7,"encoder":"1077167","distractor":"9077167","target":"absent","response":"absent","rt":"2706","correct":true,"confidence":2},{"trial_n":92,"span":8,"encoder":"48546268","distractor":"48542268","target":"present","response":"present","rt":"491","correct":true,"confidence":2},{"trial_n":93,"span":8,"encoder":"65457373","distractor":"65450373","target":"absent","response":"absent","rt":"2337","correct":true,"confidence":5},{"trial_n":94,"span":9,"encoder":"018475729","distractor":"008475729","target":"absent","response":"absent","rt":"4876.0000000001","correct":true,"confidence":4},{"trial_n":95,"span":9,"encoder":"563630272","distractor":"561630272","target":"present","response":"present","rt":"3430.9999999999","correct":true,"confidence":5},{"trial_n":96,"span":10,"encoder":"1868062924","distractor":"1868069924","target":"present","response":"absent","rt":"918","correct":false,"confidence":1},{"trial_n":97,"span":9,"encoder":"778499069","distractor":"728499069","target":"absent","response":"absent","rt":"575","correct":true,"confidence":4},{"trial_n":98,"span":9,"encoder":"243424419","distractor":"249424419","target":"present","response":"absent","rt":"1846","correct":false,"confidence":3},{"trial_n":99,"span":8,"encoder":"79584627","distractor":"75584627","target":"present","response":"present","rt":"2708","correct":true,"confidence":1},{"trial_n":100,"span":8,"encoder":"33779528","distractor":"33773528","target":"present","response":"absent","rt":"4586","correct":false,"confidence":4},{"trial_n":101,"span":7,"encoder":"5904668","distractor":"0904668","target":"absent","response":"absent","rt":"5091","correct":true,"confidence":4},{"trial_n":102,"span":7,"encoder":"3424673","distractor":"3424633","target":"absent","response":"absent","rt":"2657","correct":true,"confidence":4},{"trial_n":103,"span":8,"encoder":"16465071","distractor":"16468071","target":"absent","response":"absent","rt":"1890.0000000001","correct":true,"confidence":5},{"trial_n":104,"span":8,"encoder":"42005362","distractor":"42015362","target":"absent","response":"absent","rt":"5294","correct":true,"confidence":3},{"trial_n":105,"span":9,"encoder":"953373084","distractor":"993373084","target":"present","response":"present","rt":"5950.9999999999","correct":true,"confidence":4},{"trial_n":106,"span":9,"encoder":"676521838","distractor":"676521818","target":"absent","response":"absent","rt":"2885","correct":true,"confidence":4},{"trial_n":107,"span":10,"encoder":"5396037483","distractor":"5398037483","target":"present","response":"absent","rt":"3901.9999999999","correct":false,"confidence":1},{"trial_n":108,"span":9,"encoder":"704185300","distractor":"764185300","target":"absent","response":"present","rt":"3681","correct":false,"confidence":3},{"trial_n":109,"span":8,"encoder":"17718410","distractor":"17718310","target":"absent","response":"absent","rt":"2088","correct":true,"confidence":3},{"trial_n":110,"span":8,"encoder":"76146300","distractor":"76176300","target":"absent","response":"absent","rt":"1481","correct":true,"confidence":3},{"trial_n":111,"span":9,"encoder":"601200544","distractor":"607200544","target":"absent","response":"absent","rt":"6101","correct":true,"confidence":5},{"trial_n":112,"span":9,"encoder":"427712092","distractor":"627712092","target":"absent","response":"absent","rt":"3021","correct":true,"confidence":5},{"trial_n":113,"span":10,"encoder":"5138213804","distractor":"5138213800","target":"absent","response":"absent","rt":"4419","correct":true,"confidence":5},{"trial_n":114,"span":10,"encoder":"1453549678","distractor":"1483549678","target":"absent","response":"present","rt":"5993","correct":false,"confidence":4},{"trial_n":115,"span":9,"encoder":"293424453","distractor":"293424403","target":"absent","response":"absent","rt":"3908","correct":true,"confidence":5},{"trial_n":116,"span":9,"encoder":"777026871","distractor":"777026872","target":"absent","response":"absent","rt":"6612","correct":true,"confidence":2},{"trial_n":117,"span":10,"encoder":"5047532397","distractor":"5047732397","target":"present","response":"present","rt":"4151","correct":true,"confidence":4},{"trial_n":118,"span":10,"encoder":"2157504505","distractor":"2167504505","target":"present","response":"present","rt":"3476","correct":true,"confidence":5},{"trial_n":119,"span":11,"encoder":"86699948171","distractor":"86699748171","target":"present","response":"present","rt":"7404.9999999999","correct":true,"confidence":3},{"trial_n":120,"span":11,"encoder":"88449172093","distractor":"88443172093","target":"absent","response":"absent","rt":"5563.0000000001","correct":true,"confidence":4},{"trial_n":121,"span":12,"encoder":"638603232197","distractor":"638602232197","target":"present","response":"absent","rt":"6196","correct":false,"confidence":4},{"trial_n":122,"span":11,"encoder":"10462056660","distractor":"10468056660","target":"present","response":"present","rt":"4540","correct":true,"confidence":4},{"trial_n":123,"span":11,"encoder":"82147259548","distractor":"82141259548","target":"present","response":"absent","rt":"3670.9999999998","correct":false,"confidence":5},{"trial_n":124,"span":10,"encoder":"2576683677","distractor":"2577683677","target":"absent","response":"present","rt":"2262","correct":false,"confidence":2},{"trial_n":125,"span":9,"encoder":"217367227","distractor":"217337227","target":"present","response":"absent","rt":"1263.9999999998","correct":false,"confidence":3},{"trial_n":126,"span":8,"encoder":"71606759","distractor":"71606749","target":"present","response":"present","rt":"1228","correct":true,"confidence":3},{"trial_n":127,"span":8,"encoder":"25725945","distractor":"25625945","target":"present","response":"absent","rt":"640","correct":false,"confidence":4},{"trial_n":128,"span":7,"encoder":"9985226","distractor":"5985226","target":"present","response":"present","rt":"3111","correct":true,"confidence":4},{"trial_n":129,"span":7,"encoder":"6366612","distractor":"6366615","target":"present","response":"present","rt":"2571","correct":true,"confidence":5},{"trial_n":130,"span":8,"encoder":"09392437","distractor":"09492437","target":"present","response":"present","rt":"2583","correct":true,"confidence":5},{"trial_n":131,"span":8,"encoder":"55826469","distractor":"25826469","target":"present","response":"present","rt":"4185","correct":true,"confidence":5},{"trial_n":132,"span":9,"encoder":"594829452","distractor":"594809452","target":"present","response":"absent","rt":"769","correct":false,"confidence":4},{"trial_n":133,"span":8,"encoder":"48679027","distractor":"48679047","target":"absent","response":"absent","rt":"1087","correct":true,"confidence":4},{"trial_n":134,"span":8,"encoder":"16402495","distractor":"16408495","target":"present","response":"present","rt":"808.99999999977","correct":true,"confidence":4},{"trial_n":135,"span":9,"encoder":"961253343","distractor":"991253343","target":"absent","response":"absent","rt":"6060.0000000002","correct":true,"confidence":4},{"trial_n":136,"span":9,"encoder":"625407021","distractor":"625405021","target":"absent","response":"absent","rt":"848.99999999977","correct":true,"confidence":3},{"trial_n":137,"span":10,"encoder":"7881905162","distractor":"7881905462","target":"absent","response":"absent","rt":"6646.0000000002","correct":true,"confidence":4},{"trial_n":138,"span":10,"encoder":"7023602898","distractor":"7023602897","target":"present","response":"present","rt":"4509","correct":true,"confidence":4},{"trial_n":139,"span":11,"encoder":"57382944124","distractor":"57382744124","target":"present","response":"absent","rt":"1841","correct":false,"confidence":2},{"trial_n":140,"span":10,"encoder":"5181701093","distractor":"5981701093","target":"present","response":"present","rt":"8513","correct":true,"confidence":3}]