[{"trial_n":1,"min":25,"max":230,"target":"present","response":"present","rt":7831.7000000002,"correct":true,"confidence":-1},{"trial_n":2,"min":25,"max":230,"target":"present","response":"present","rt":2803.3000000003,"correct":true,"confidence":-1},{"trial_n":3,"min":41,"max":214,"target":"absent","response":"absent","rt":987.5,"correct":true,"confidence":-1},{"trial_n":4,"min":41,"max":214,"target":"absent","response":"absent","rt":2617.2999999998,"correct":true,"confidence":-1},{"trial_n":5,"min":57,"max":198,"target":"present","response":"present","rt":724.39999999991,"correct":true,"confidence":-1},{"trial_n":6,"min":57,"max":198,"target":"absent","response":"absent","rt":306.5,"correct":true,"confidence":-1},{"trial_n":7,"min":73,"max":182,"target":"present","response":"absent","rt":277.80000000028,"correct":false,"confidence":-1},{"trial_n":8,"min":57,"max":198,"target":"absent","response":"absent","rt":2421,"correct":true,"confidence":-1},{"trial_n":9,"min":57,"max":198,"target":"absent","response":"absent","rt":417.60000000009,"correct":true,"confidence":-1},{"trial_n":10,"min":73,"max":182,"target":"present","response":"present","rt":347,"correct":true,"confidence":-1},{"trial_n":11,"min":73,"max":182,"target":"present","response":"absent","rt":435.10000000009,"correct":false,"confidence":-1},{"trial_n":12,"min":65,"max":190,"target":"present","response":"present","rt":380.79999999981,"correct":true,"confidence":-1},{"trial_n":13,"min":65,"max":190,"target":"absent","response":"present","rt":496,"correct":false,"confidence":-1},{"trial_n":14,"min":57,"max":198,"target":"absent","response":"absent","rt":497.20000000019,"correct":true,"confidence":-1},{"trial_n":15,"min":57,"max":198,"target":"absent","response":"absent","rt":403.79999999981,"correct":true,"confidence":-1},{"trial_n":16,"min":65,"max":190,"target":"present","response":"present","rt":501.5,"correct":true,"confidence":-1},{"trial_n":17,"min":65,"max":190,"target":"absent","response":"absent","rt":303.19999999972,"correct":true,"confidence":-1},{"trial_n":18,"min":73,"max":182,"target":"present","response":"present","rt":300.89999999991,"correct":true,"confidence":-1},{"trial_n":19,"min":73,"max":182,"target":"present","response":"absent","rt":339.29999999981,"correct":false,"confidence":-1},{"trial_n":20,"min":65,"max":190,"target":"present","response":"present","rt":121.10000000009,"correct":true,"confidence":-1},{"trial_n":21,"min":65,"max":190,"target":"absent","response":"absent","rt":857.19999999972,"correct":true,"confidence":3},{"trial_n":22,"min":69,"max":186,"target":"absent","response":"absent","rt":1217.7999999998,"correct":true,"confidence":3},{"trial_n":23,"min":69,"max":186,"target":"present","response":"present","rt":631.89999999991,"correct":true,"confidence":5},{"trial_n":24,"min":73,"max":182,"target":"absent","response":"absent","rt":763.5,"correct":true,"confidence":3},{"trial_n":25,"min":73,"max":182,"target":"absent","response":"absent","rt":551.29999999981,"correct":true,"confidence":3},{"trial_n":26,"min":77,"max":178,"target":"present","response":"present","rt":613.5,"correct":true,"confidence":5},{"trial_n":27,"min":77,"max":178,"target":"present","response":"present","rt":383.20000000019,"correct":true,"confidence":5},{"trial_n":28,"min":81,"max":174,"target":"present","response":"present","rt":401.80000000028,"correct":true,"confidence":5},{"trial_n":29,"min":81,"max":174,"target":"present","response":"absent","rt":1569.8999999999,"correct":false,"confidence":1},{"trial_n":30,"min":77,"max":178,"target":"present","response":"present","rt":1005.0999999996,"correct":true,"confidence":5},{"trial_n":31,"min":77,"max":178,"target":"absent","response":"present","rt":936.29999999981,"correct":false,"confidence":4},{"trial_n":32,"min":75,"max":180,"target":"present","response":"present","rt":469.10000000009,"correct":true,"confidence":3},{"trial_n":33,"min":75,"max":180,"target":"absent","response":"absent","rt":828.60000000009,"correct":true,"confidence":2},{"trial_n":34,"min":77,"max":178,"target":"present","response":"present","rt":472.5,"correct":true,"confidence":5},{"trial_n":35,"min":77,"max":178,"target":"absent","response":"absent","rt":895.70000000019,"correct":true,"confidence":2},{"trial_n":36,"min":79,"max":176,"target":"absent","response":"absent","rt":1638.6000000001,"correct":true,"confidence":1},{"trial_n":37,"min":79,"max":176,"target":"present","response":"present","rt":1194.7000000002,"correct":true,"confidence":5},{"trial_n":38,"min":81,"max":174,"target":"absent","response":"present","rt":898.60000000009,"correct":false,"confidence":4},{"trial_n":39,"min":79,"max":176,"target":"absent","response":"absent","rt":1408.2999999998,"correct":true,"confidence":5},{"trial_n":40,"min":79,"max":176,"target":"absent","response":"present","rt":625,"correct":false,"confidence":3},{"trial_n":41,"min":78,"max":177,"target":"absent","response":"absent","rt":780.19999999972,"correct":true,"confidence":4},{"trial_n":42,"min":78,"max":177,"target":"absent","response":"absent","rt":1476.6000000001,"correct":true,"confidence":3},{"trial_n":43,"min":79,"max":176,"target":"absent","response":"absent","rt":628.89999999991,"correct":true,"confidence":3},{"trial_n":44,"min":79,"max":176,"target":"absent","response":"absent","rt":521.30000000028,"correct":true,"confidence":3},{"trial_n":45,"min":80,"max":175,"target":"present","response":"present","rt":582.80000000028,"correct":true,"confidence":5},{"trial_n":46,"min":80,"max":175,"target":"absent","response":"present","rt":456.10000000009,"correct":false,"confidence":5},{"trial_n":47,"min":79,"max":176,"target":"present","response":"present","rt":587.69999999972,"correct":true,"confidence":5},{"trial_n":48,"min":79,"max":176,"target":"absent","response":"present","rt":410.5,"correct":false,"confidence":5},{"trial_n":49,"min":78,"max":177,"target":"absent","response":"absent","rt":737.69999999972,"correct":true,"confidence":3},{"trial_n":50,"min":78,"max":177,"target":"present","response":"present","rt":432.90000000037,"correct":true,"confidence":5},{"trial_n":51,"min":79,"max":176,"target":"absent","response":"present","rt":722.70000000019,"correct":false,"confidence":5},{"trial_n":52,"min":78,"max":177,"target":"present","response":"present","rt":457.39999999991,"correct":true,"confidence":5},{"trial_n":53,"min":78,"max":177,"target":"present","response":"present","rt":374,"correct":true,"confidence":5},{"trial_n":54,"min":79,"max":176,"target":"present","response":"present","rt":325.29999999981,"correct":true,"confidence":4},{"trial_n":55,"min":79,"max":176,"target":"absent","response":"present","rt":527.10000000009,"correct":false,"confidence":1},{"trial_n":56,"min":78,"max":177,"target":"present","response":"absent","rt":298.29999999981,"correct":false,"confidence":1},{"trial_n":57,"min":77,"max":178,"target":"present","response":"present","rt":427.5,"correct":true,"confidence":5},{"trial_n":58,"min":77,"max":178,"target":"absent","response":"present","rt":338.80000000028,"correct":false,"confidence":5},{"trial_n":59,"min":76,"max":179,"target":"present","response":"present","rt":470.69999999972,"correct":true,"confidence":3},{"trial_n":60,"min":76,"max":179,"target":"absent","response":"present","rt":335.79999999981,"correct":false,"confidence":1},{"trial_n":61,"min":75,"max":180,"target":"present","response":"absent","rt":813.70000000019,"correct":false,"confidence":4},{"trial_n":62,"min":74,"max":181,"target":"present","response":"present","rt":541.29999999981,"correct":true,"confidence":5},{"trial_n":63,"min":74,"max":181,"target":"absent","response":"present","rt":588.70000000019,"correct":false,"confidence":2},{"trial_n":64,"min":73,"max":182,"target":"present","response":"present","rt":388.60000000009,"correct":true,"confidence":5},{"trial_n":65,"min":73,"max":182,"target":"present","response":"present","rt":470.20000000019,"correct":true,"confidence":5},{"trial_n":66,"min":74,"max":181,"target":"absent","response":"present","rt":555.20000000019,"correct":false,"confidence":5},{"trial_n":67,"min":73,"max":182,"target":"present","response":"present","rt":245.5,"correct":true,"confidence":5},{"trial_n":68,"min":73,"max":182,"target":"absent","response":"present","rt":372.20000000019,"correct":false,"confidence":5},{"trial_n":69,"min":72,"max":183,"target":"present","response":"present","rt":301.89999999991,"correct":true,"confidence":5},{"trial_n":70,"min":72,"max":183,"target":"present","response":"present","rt":315.40000000037,"correct":true,"confidence":5},{"trial_n":71,"min":41,"max":214,"target":"present","response":"present","rt":3751.0999999996,"correct":true,"confidence":-1},{"trial_n":72,"min":41,"max":214,"target":"present","response":"present","rt":884.20000000019,"correct":true,"confidence":-1},{"trial_n":73,"min":57,"max":198,"target":"absent","response":"present","rt":707.10000000009,"correct":false,"confidence":-1},{"trial_n":74,"min":41,"max":214,"target":"absent","response":"absent","rt":1743.3999999999,"correct":true,"confidence":-1},{"trial_n":75,"min":41,"max":214,"target":"present","response":"present","rt":600.20000000019,"correct":true,"confidence":-1},{"trial_n":76,"min":57,"max":198,"target":"absent","response":"present","rt":470.89999999991,"correct":false,"confidence":-1},{"trial_n":77,"min":41,"max":214,"target":"present","response":"present","rt":692.39999999991,"correct":true,"confidence":-1},{"trial_n":78,"min":41,"max":214,"target":"present","response":"absent","rt":277.89999999991,"correct":false,"confidence":-1},{"trial_n":79,"min":25,"max":230,"target":"present","response":"absent","rt":911.5,"correct":false,"confidence":-1},{"trial_n":80,"min":9,"max":246,"target":"present","response":"present","rt":559.30000000028,"correct":true,"confidence":-1},{"trial_n":81,"min":9,"max":246,"target":"absent","response":"present","rt":359.89999999991,"correct":false,"confidence":-1},{"trial_n":82,"min":1,"max":254,"target":"present","response":"present","rt":1527.4000000004,"correct":true,"confidence":-1},{"trial_n":83,"min":1,"max":254,"target":"absent","response":"absent","rt":557.80000000028,"correct":true,"confidence":-1},{"trial_n":84,"min":9,"max":246,"target":"present","response":"present","rt":565.90000000037,"correct":true,"confidence":-1},{"trial_n":85,"min":9,"max":246,"target":"present","response":"present","rt":538.5,"correct":true,"confidence":-1},{"trial_n":86,"min":17,"max":238,"target":"absent","response":"absent","rt":489,"correct":true,"confidence":-1},{"trial_n":87,"min":17,"max":238,"target":"present","response":"present","rt":273.69999999972,"correct":true,"confidence":-1},{"trial_n":88,"min":25,"max":230,"target":"absent","response":"absent","rt":305.89999999991,"correct":true,"confidence":-1},{"trial_n":89,"min":25,"max":230,"target":"present","response":"present","rt":282.80000000028,"correct":true,"confidence":-1},{"trial_n":90,"min":33,"max":222,"target":"absent","response":"absent","rt":199.5,"correct":true,"confidence":-1},{"trial_n":91,"min":33,"max":222,"target":"present","response":"present","rt":3076.2999999998,"correct":true,"confidence":3},{"trial_n":92,"min":37,"max":218,"target":"absent","response":"absent","rt":1031.7999999998,"correct":true,"confidence":5},{"trial_n":93,"min":37,"max":218,"target":"present","response":"present","rt":1651.2999999998,"correct":true,"confidence":5},{"trial_n":94,"min":41,"max":214,"target":"present","response":"present","rt":635.80000000028,"correct":true,"confidence":5},{"trial_n":95,"min":41,"max":214,"target":"absent","response":"absent","rt":911.69999999972,"correct":true,"confidence":5},{"trial_n":96,"min":45,"max":210,"target":"absent","response":"present","rt":324.80000000028,"correct":false,"confidence":5},{"trial_n":97,"min":41,"max":214,"target":"present","response":"present","rt":629.90000000037,"correct":true,"confidence":5},{"trial_n":98,"min":41,"max":214,"target":"present","response":"present","rt":964.30000000028,"correct":true,"confidence":5},{"trial_n":99,"min":45,"max":210,"target":"present","response":"present","rt":386.30000000028,"correct":true,"confidence":5},{"trial_n":100,"min":45,"max":210,"target":"present","response":"present","rt":416.79999999981,"correct":true,"confidence":5},{"trial_n":101,"min":47,"max":208,"target":"absent","response":"absent","rt":1202.8999999999,"correct":true,"confidence":5},{"trial_n":102,"min":47,"max":208,"target":"present","response":"present","rt":390.30000000028,"correct":true,"confidence":3},{"trial_n":103,"min":49,"max":206,"target":"absent","response":"absent","rt":454.5,"correct":true,"confidence":4},{"trial_n":104,"min":49,"max":206,"target":"present","response":"present","rt":1209.1000000001,"correct":true,"confidence":4},{"trial_n":105,"min":51,"max":204,"target":"absent","response":"present","rt":660.29999999981,"correct":false,"confidence":1},{"trial_n":106,"min":49,"max":206,"target":"present","response":"present","rt":1221.1999999997,"correct":true,"confidence":4},{"trial_n":107,"min":49,"max":206,"target":"absent","response":"absent","rt":489.30000000028,"correct":true,"confidence":5},{"trial_n":108,"min":51,"max":204,"target":"absent","response":"present","rt":657.39999999991,"correct":false,"confidence":1},{"trial_n":109,"min":49,"max":206,"target":"absent","response":"absent","rt":1078.0999999996,"correct":true,"confidence":4},{"trial_n":110,"min":49,"max":206,"target":"absent","response":"present","rt":541.89999999991,"correct":false,"confidence":3},{"trial_n":111,"min":48,"max":207,"target":"absent","response":"absent","rt":825.20000000019,"correct":true,"confidence":4},{"trial_n":112,"min":48,"max":207,"target":"absent","response":"absent","rt":506.80000000028,"correct":true,"confidence":5},{"trial_n":113,"min":49,"max":206,"target":"absent","response":"absent","rt":576,"correct":true,"confidence":5},{"trial_n":114,"min":49,"max":206,"target":"present","response":"present","rt":437.70000000019,"correct":true,"confidence":5},{"trial_n":115,"min":50,"max":205,"target":"absent","response":"absent","rt":346.60000000009,"correct":true,"confidence":5},{"trial_n":116,"min":50,"max":205,"target":"absent","response":"present","rt":570.39999999991,"correct":false,"confidence":5},{"trial_n":117,"min":49,"max":206,"target":"present","response":"present","rt":586.5,"correct":true,"confidence":5},{"trial_n":118,"min":49,"max":206,"target":"absent","response":"absent","rt":421,"correct":true,"confidence":5},{"trial_n":119,"min":50,"max":205,"target":"absent","response":"absent","rt":1019.6999999997,"correct":true,"confidence":5},{"trial_n":120,"min":50,"max":205,"target":"present","response":"present","rt":305.39999999991,"correct":true,"confidence":5},{"trial_n":121,"min":51,"max":204,"target":"present","response":"present","rt":559.70000000019,"correct":true,"confidence":5},{"trial_n":122,"min":51,"max":204,"target":"present","response":"present","rt":553.20000000019,"correct":true,"confidence":5},{"trial_n":123,"min":52,"max":203,"target":"absent","response":"present","rt":511.09999999963,"correct":false,"confidence":5},{"trial_n":124,"min":51,"max":204,"target":"absent","response":"absent","rt":922.79999999981,"correct":true,"confidence":5},{"trial_n":125,"min":51,"max":204,"target":"absent","response":"absent","rt":507.5,"correct":true,"confidence":5},{"trial_n":126,"min":52,"max":203,"target":"present","response":"present","rt":369.5,"correct":true,"confidence":5},{"trial_n":127,"min":52,"max":203,"target":"present","response":"present","rt":967.70000000019,"correct":true,"confidence":5},{"trial_n":128,"min":53,"max":202,"target":"present","response":"absent","rt":536.89999999991,"correct":false,"confidence":1},{"trial_n":129,"min":52,"max":203,"target":"absent","response":"present","rt":613.69999999972,"correct":false,"confidence":1},{"trial_n":130,"min":51,"max":204,"target":"absent","response":"absent","rt":409.29999999981,"correct":true,"confidence":5},{"trial_n":131,"min":51,"max":204,"target":"present","response":"present","rt":1215.5,"correct":true,"confidence":5},{"trial_n":132,"min":52,"max":203,"target":"present","response":"present","rt":1129.3999999999,"correct":true,"confidence":4},{"trial_n":133,"min":52,"max":203,"target":"present","response":"present","rt":830.09999999963,"correct":true,"confidence":4},{"trial_n":134,"min":53,"max":202,"target":"absent","response":"absent","rt":2911.5,"correct":true,"confidence":4},{"trial_n":135,"min":53,"max":202,"target":"present","response":"present","rt":1619.1999999997,"correct":true,"confidence":4},{"trial_n":136,"min":54,"max":201,"target":"present","response":"present","rt":565.89999999991,"correct":true,"confidence":3},{"trial_n":137,"min":54,"max":201,"target":"absent","response":"absent","rt":1036.3000000003,"correct":true,"confidence":3},{"trial_n":138,"min":55,"max":200,"target":"absent","response":"absent","rt":1076.6000000001,"correct":true,"confidence":3},{"trial_n":139,"min":55,"max":200,"target":"absent","response":"absent","rt":446.10000000009,"correct":true,"confidence":3},{"trial_n":140,"min":56,"max":199,"target":"present","response":"present","rt":699.30000000028,"correct":true,"confidence":4}]