[{"trial_n":1,"span":8,"encoder":"66321706","distractor":"64321706","target":"present","response":"present","rt":"6533.8999999999","correct":true,"confidence":-1},{"trial_n":2,"span":8,"encoder":"08011074","distractor":"08014074","target":"present","response":"present","rt":"1404.2999999998","correct":true,"confidence":-1},{"trial_n":3,"span":10,"encoder":"2063130737","distractor":"2063130732","target":"absent","response":"present","rt":"1341.7000000002","correct":false,"confidence":-1},{"trial_n":4,"span":8,"encoder":"66903416","distractor":"66993416","target":"absent","response":"present","rt":"1734.3000000003","correct":false,"confidence":-1},{"trial_n":5,"span":6,"encoder":"154202","distractor":"154242","target":"present","response":"present","rt":"999.29999999981","correct":true,"confidence":-1},{"trial_n":6,"span":6,"encoder":"511664","distractor":"511666","target":"absent","response":"absent","rt":"1135.2999999998","correct":true,"confidence":-1},{"trial_n":7,"span":8,"encoder":"47105752","distractor":"47105152","target":"absent","response":"present","rt":"985.80000000028","correct":false,"confidence":-1},{"trial_n":8,"span":6,"encoder":"100003","distractor":"100043","target":"absent","response":"present","rt":"712.20000000019","correct":false,"confidence":-1},{"trial_n":9,"span":4,"encoder":"7291","distractor":"7271","target":"present","response":"present","rt":"540.70000000019","correct":true,"confidence":-1},{"trial_n":10,"span":4,"encoder":"4676","distractor":"1676","target":"absent","response":"present","rt":"581.89999999991","correct":false,"confidence":-1},{"trial_n":11,"span":2,"encoder":"36","distractor":"32","target":"present","response":"present","rt":"538.89999999991","correct":true,"confidence":-1},{"trial_n":12,"span":2,"encoder":"12","distractor":"22","target":"present","response":"present","rt":"644.80000000028","correct":true,"confidence":-1},{"trial_n":13,"span":3,"encoder":"351","distractor":"751","target":"absent","response":"present","rt":"536.90000000037","correct":false,"confidence":-1},{"trial_n":14,"span":2,"encoder":"30","distractor":"50","target":"present","response":"present","rt":"487.20000000019","correct":true,"confidence":-1},{"trial_n":15,"span":2,"encoder":"07","distractor":"03","target":"absent","response":"present","rt":"650.19999999972","correct":false,"confidence":-1},{"trial_n":16,"span":2,"encoder":"76","distractor":"77","target":"absent","response":"present","rt":"480.79999999981","correct":false,"confidence":-1},{"trial_n":17,"span":2,"encoder":"22","distractor":"62","target":"present","response":"absent","rt":"416.29999999981","correct":false,"confidence":-1},{"trial_n":18,"span":2,"encoder":"99","distractor":"59","target":"present","response":"present","rt":"407.29999999981","correct":true,"confidence":-1},{"trial_n":19,"span":2,"encoder":"66","distractor":"68","target":"absent","response":"absent","rt":"1035.6000000001","correct":true,"confidence":-1},{"trial_n":20,"span":3,"encoder":"231","distractor":"271","target":"present","response":"present","rt":"1026.6000000001","correct":true,"confidence":-1},{"trial_n":21,"span":3,"encoder":"894","distractor":"896","target":"present","response":"present","rt":"2109.3999999999","correct":true,"confidence":2},{"trial_n":22,"span":4,"encoder":"0358","distractor":"0858","target":"absent","response":"absent","rt":"2041.3000000003","correct":true,"confidence":5},{"trial_n":23,"span":4,"encoder":"7157","distractor":"7187","target":"absent","response":"absent","rt":"1252.1000000001","correct":true,"confidence":5},{"trial_n":24,"span":5,"encoder":"73514","distractor":"77514","target":"absent","response":"absent","rt":"2107.5999999996","correct":true,"confidence":5},{"trial_n":25,"span":5,"encoder":"71806","distractor":"51806","target":"absent","response":"absent","rt":"1829.5","correct":true,"confidence":5},{"trial_n":26,"span":6,"encoder":"918256","distractor":"918296","target":"present","response":"present","rt":"3133.3000000003","correct":true,"confidence":2},{"trial_n":27,"span":6,"encoder":"380647","distractor":"330647","target":"present","response":"present","rt":"2015.0999999996","correct":true,"confidence":2},{"trial_n":28,"span":7,"encoder":"6160266","distractor":"7160266","target":"absent","response":"absent","rt":"3398.5","correct":true,"confidence":1},{"trial_n":29,"span":7,"encoder":"8409948","distractor":"8403948","target":"absent","response":"present","rt":"2847.7000000002","correct":false,"confidence":5},{"trial_n":30,"span":6,"encoder":"229997","distractor":"222997","target":"present","response":"present","rt":"1656.7999999998","correct":true,"confidence":5},{"trial_n":31,"span":6,"encoder":"666402","distractor":"266402","target":"absent","response":"absent","rt":"6880.6999999997","correct":true,"confidence":3},{"trial_n":32,"span":7,"encoder":"8658504","distractor":"8657504","target":"present","response":"absent","rt":"1953.2000000002","correct":false,"confidence":3},{"trial_n":33,"span":6,"encoder":"007733","distractor":"007732","target":"absent","response":"present","rt":"1196.3999999994","correct":false,"confidence":4},{"trial_n":34,"span":5,"encoder":"91901","distractor":"97901","target":"present","response":"present","rt":"1839.5","correct":true,"confidence":5},{"trial_n":35,"span":5,"encoder":"98257","distractor":"98254","target":"absent","response":"absent","rt":"2208","correct":true,"confidence":5},{"trial_n":36,"span":6,"encoder":"757531","distractor":"757231","target":"present","response":"present","rt":"2808.0999999996","correct":true,"confidence":4},{"trial_n":37,"span":6,"encoder":"011274","distractor":"011279","target":"present","response":"present","rt":"1063.2999999998","correct":true,"confidence":3},{"trial_n":38,"span":7,"encoder":"6594521","distractor":"6994521","target":"absent","response":"absent","rt":"8400.5","correct":true,"confidence":3},{"trial_n":39,"span":7,"encoder":"1096579","distractor":"1046579","target":"present","response":"present","rt":"1526.5","correct":true,"confidence":3},{"trial_n":40,"span":8,"encoder":"32584424","distractor":"32582424","target":"present","response":"present","rt":"837","correct":true,"confidence":3},{"trial_n":41,"span":8,"encoder":"30690205","distractor":"30690201","target":"absent","response":"present","rt":"1669.9000000004","correct":false,"confidence":2},{"trial_n":42,"span":7,"encoder":"5018196","distractor":"5018126","target":"present","response":"present","rt":"910","correct":true,"confidence":2},{"trial_n":43,"span":7,"encoder":"1023574","distractor":"1023554","target":"absent","response":"present","rt":"2032.2999999998","correct":false,"confidence":2},{"trial_n":44,"span":6,"encoder":"648568","distractor":"648668","target":"absent","response":"absent","rt":"1787.0999999996","correct":true,"confidence":2},{"trial_n":45,"span":6,"encoder":"880892","distractor":"880192","target":"absent","response":"present","rt":"1621.5999999996","correct":false,"confidence":2},{"trial_n":46,"span":5,"encoder":"97856","distractor":"97858","target":"absent","response":"absent","rt":"2054.6000000006","correct":true,"confidence":4},{"trial_n":47,"span":5,"encoder":"94111","distractor":"94911","target":"absent","response":"absent","rt":"3051.9000000004","correct":true,"confidence":5},{"trial_n":48,"span":6,"encoder":"125878","distractor":"125870","target":"present","response":"present","rt":"3215.7999999998","correct":true,"confidence":5},{"trial_n":49,"span":6,"encoder":"042852","distractor":"042854","target":"present","response":"present","rt":"4946.6999999993","correct":true,"confidence":4},{"trial_n":50,"span":7,"encoder":"2213937","distractor":"2213934","target":"present","response":"present","rt":"2038.3999999994","correct":true,"confidence":5},{"trial_n":51,"span":7,"encoder":"8765012","distractor":"8765015","target":"absent","response":"present","rt":"3899.5","correct":false,"confidence":3},{"trial_n":52,"span":6,"encoder":"996487","distractor":"996482","target":"present","response":"absent","rt":"2334.4000000004","correct":false,"confidence":4},{"trial_n":53,"span":5,"encoder":"65792","distractor":"61792","target":"present","response":"present","rt":"2523.2999999998","correct":true,"confidence":5},{"trial_n":54,"span":5,"encoder":"50551","distractor":"58551","target":"present","response":"present","rt":"1159.7000000002","correct":true,"confidence":5},{"trial_n":55,"span":6,"encoder":"559118","distractor":"519118","target":"absent","response":"present","rt":"1649.2000000002","correct":false,"confidence":5},{"trial_n":56,"span":5,"encoder":"71078","distractor":"31078","target":"present","response":"present","rt":"1348.4000000004","correct":true,"confidence":5},{"trial_n":57,"span":5,"encoder":"44547","distractor":"44543","target":"present","response":"absent","rt":"2015.3999999994","correct":false,"confidence":1},{"trial_n":58,"span":4,"encoder":"5574","distractor":"4574","target":"present","response":"present","rt":"1130.7999999998","correct":true,"confidence":4},{"trial_n":59,"span":4,"encoder":"1023","distractor":"1323","target":"absent","response":"absent","rt":"1477.5","correct":true,"confidence":5},{"trial_n":60,"span":5,"encoder":"54894","distractor":"54897","target":"absent","response":"absent","rt":"1314.7000000002","correct":true,"confidence":5},{"trial_n":61,"span":5,"encoder":"01047","distractor":"01007","target":"present","response":"present","rt":"3986.2000000002","correct":true,"confidence":3},{"trial_n":62,"span":6,"encoder":"736099","distractor":"736049","target":"present","response":"present","rt":"3001.0999999996","correct":true,"confidence":5},{"trial_n":63,"span":6,"encoder":"709409","distractor":"729409","target":"present","response":"present","rt":"3532.7999999998","correct":true,"confidence":5},{"trial_n":64,"span":7,"encoder":"1962678","distractor":"1262678","target":"absent","response":"present","rt":"3815.6000000006","correct":false,"confidence":3},{"trial_n":65,"span":6,"encoder":"723879","distractor":"023879","target":"absent","response":"absent","rt":"1374.5","correct":true,"confidence":5},{"trial_n":66,"span":6,"encoder":"800898","distractor":"870898","target":"present","response":"present","rt":"2295.9000000004","correct":true,"confidence":5},{"trial_n":67,"span":7,"encoder":"2115128","distractor":"2115120","target":"present","response":"present","rt":"3038.7999999998","correct":true,"confidence":4},{"trial_n":68,"span":7,"encoder":"7610441","distractor":"7610421","target":"absent","response":"absent","rt":"1045.7999999998","correct":true,"confidence":4},{"trial_n":69,"span":8,"encoder":"81416997","distractor":"81416987","target":"absent","response":"absent","rt":"2426.6999999993","correct":true,"confidence":5},{"trial_n":70,"span":8,"encoder":"21082055","distractor":"27082055","target":"present","response":"present","rt":"2514","correct":true,"confidence":5},{"trial_n":71,"span":8,"encoder":"32563168","distractor":"38563168","target":"present","response":"present","rt":"3390","correct":true,"confidence":-1},{"trial_n":72,"span":8,"encoder":"52931711","distractor":"52931701","target":"present","response":"present","rt":"572.10000000056","correct":true,"confidence":-1},{"trial_n":73,"span":9,"encoder":"588280205","distractor":"588200205","target":"absent","response":"present","rt":"326.59999999963","correct":false,"confidence":-1},{"trial_n":74,"span":8,"encoder":"28223189","distractor":"20223189","target":"absent","response":"present","rt":"523.5","correct":false,"confidence":-1},{"trial_n":75,"span":7,"encoder":"3062465","distractor":"3062467","target":"present","response":"present","rt":"1042.0999999996","correct":true,"confidence":-1},{"trial_n":76,"span":7,"encoder":"0663474","distractor":"5663474","target":"present","response":"present","rt":"589.90000000037","correct":true,"confidence":-1},{"trial_n":77,"span":8,"encoder":"03603944","distractor":"03653944","target":"present","response":"present","rt":"5398.9000000004","correct":true,"confidence":-1},{"trial_n":78,"span":8,"encoder":"25134307","distractor":"25134300","target":"present","response":"present","rt":"1710.2000000002","correct":true,"confidence":-1},{"trial_n":79,"span":9,"encoder":"782341467","distractor":"782341463","target":"present","response":"present","rt":"1198.2999999998","correct":true,"confidence":-1},{"trial_n":80,"span":9,"encoder":"837722744","distractor":"837722704","target":"present","response":"present","rt":"1348.6000000006","correct":true,"confidence":-1},{"trial_n":81,"span":10,"encoder":"4316859303","distractor":"4311859303","target":"absent","response":"present","rt":"5718","correct":false,"confidence":-1},{"trial_n":82,"span":9,"encoder":"785302220","distractor":"785309220","target":"present","response":"present","rt":"1275.3999999994","correct":true,"confidence":-1},{"trial_n":83,"span":9,"encoder":"260747906","distractor":"260747909","target":"present","response":"present","rt":"2238.6999999993","correct":true,"confidence":-1},{"trial_n":84,"span":10,"encoder":"2041458233","distractor":"2041448233","target":"present","response":"present","rt":"1326.2999999998","correct":true,"confidence":-1},{"trial_n":85,"span":10,"encoder":"1695939643","distractor":"1695939613","target":"absent","response":"present","rt":"984.79999999981","correct":false,"confidence":-1},{"trial_n":86,"span":9,"encoder":"383787320","distractor":"983787320","target":"present","response":"present","rt":"1259.3000000007","correct":true,"confidence":-1},{"trial_n":87,"span":9,"encoder":"546731170","distractor":"546131170","target":"absent","response":"present","rt":"758.20000000019","correct":false,"confidence":-1},{"trial_n":88,"span":8,"encoder":"97708089","distractor":"97708989","target":"absent","response":"present","rt":"484.90000000037","correct":false,"confidence":-1},{"trial_n":89,"span":7,"encoder":"7050002","distractor":"2050002","target":"present","response":"present","rt":"1332.2999999998","correct":true,"confidence":-1},{"trial_n":90,"span":7,"encoder":"5608566","distractor":"5908566","target":"absent","response":"present","rt":"1958.5999999996","correct":false,"confidence":-1},{"trial_n":91,"span":6,"encoder":"955349","distractor":"955347","target":"absent","response":"absent","rt":"964","correct":true,"confidence":5},{"trial_n":92,"span":6,"encoder":"387351","distractor":"317351","target":"absent","response":"absent","rt":"3368","correct":true,"confidence":1},{"trial_n":93,"span":7,"encoder":"0805988","distractor":"0805948","target":"present","response":"present","rt":"3936.7999999998","correct":true,"confidence":5},{"trial_n":94,"span":7,"encoder":"3475673","distractor":"3473673","target":"present","response":"present","rt":"2440.7999999998","correct":true,"confidence":5},{"trial_n":95,"span":8,"encoder":"64251934","distractor":"64257934","target":"absent","response":"absent","rt":"8093.5","correct":true,"confidence":5},{"trial_n":96,"span":8,"encoder":"20966974","distractor":"20966874","target":"absent","response":"absent","rt":"3374.8000000007","correct":true,"confidence":5},{"trial_n":97,"span":9,"encoder":"118699001","distractor":"118699901","target":"absent","response":"absent","rt":"2934.9000000004","correct":true,"confidence":5},{"trial_n":98,"span":9,"encoder":"127109878","distractor":"137109878","target":"present","response":"present","rt":"6194.0999999996","correct":true,"confidence":5},{"trial_n":99,"span":10,"encoder":"4062989880","distractor":"4262989880","target":"absent","response":"absent","rt":"6235.7000000002","correct":true,"confidence":5},{"trial_n":100,"span":10,"encoder":"5804158078","distractor":"5804178078","target":"present","response":"present","rt":"6333.7000000002","correct":true,"confidence":1},{"trial_n":101,"span":11,"encoder":"72133917478","distractor":"72133317478","target":"present","response":"present","rt":"3117.2999999998","correct":true,"confidence":5},{"trial_n":102,"span":11,"encoder":"01838766152","distractor":"01838766153","target":"present","response":"present","rt":"3885.3999999994","correct":true,"confidence":5},{"trial_n":103,"span":12,"encoder":"007993221753","distractor":"007993221773","target":"present","response":"present","rt":"2080.4000000004","correct":true,"confidence":5},{"trial_n":104,"span":12,"encoder":"744316983664","distractor":"744316983674","target":"present","response":"present","rt":"1756.1000000006","correct":true,"confidence":5},{"trial_n":105,"span":13,"encoder":"5886438551001","distractor":"5186438551001","target":"absent","response":"present","rt":"4818.7999999998","correct":false,"confidence":5},{"trial_n":106,"span":12,"encoder":"496242139129","distractor":"496242139029","target":"absent","response":"absent","rt":"4237.9000000004","correct":true,"confidence":1},{"trial_n":107,"span":12,"encoder":"906750790097","distractor":"006750790097","target":"absent","response":"absent","rt":"5772.5","correct":true,"confidence":5},{"trial_n":108,"span":13,"encoder":"8856086543255","distractor":"8858086543255","target":"present","response":"absent","rt":"7568.2999999998","correct":false,"confidence":1},{"trial_n":109,"span":12,"encoder":"814375740115","distractor":"818375740115","target":"present","response":"absent","rt":"8366","correct":false,"confidence":1},{"trial_n":110,"span":11,"encoder":"01257090643","distractor":"01287090643","target":"present","response":"present","rt":"5912.4000000004","correct":true,"confidence":2},{"trial_n":111,"span":11,"encoder":"10141178816","distractor":"10141198816","target":"absent","response":"absent","rt":"2596.3999999994","correct":true,"confidence":5},{"trial_n":112,"span":12,"encoder":"108965670560","distractor":"108965670860","target":"present","response":"present","rt":"4638.5","correct":true,"confidence":5},{"trial_n":113,"span":12,"encoder":"263404726506","distractor":"263404746506","target":"absent","response":"present","rt":"3138.5","correct":false,"confidence":5},{"trial_n":114,"span":11,"encoder":"40619443352","distractor":"40619443355","target":"absent","response":"absent","rt":"1924.3999999994","correct":true,"confidence":1},{"trial_n":115,"span":11,"encoder":"12688034933","distractor":"12688035933","target":"present","response":"present","rt":"10444.300000001","correct":true,"confidence":5},{"trial_n":116,"span":12,"encoder":"533057337060","distractor":"533058337060","target":"present","response":"present","rt":"9918.2999999998","correct":true,"confidence":3},{"trial_n":117,"span":12,"encoder":"801190777291","distractor":"801190777298","target":"present","response":"present","rt":"2133.2000000002","correct":true,"confidence":1},{"trial_n":118,"span":13,"encoder":"1644029616918","distractor":"1644029616978","target":"absent","response":"absent","rt":"1714.2999999998","correct":true,"confidence":1},{"trial_n":119,"span":13,"encoder":"0487486478802","distractor":"0487486479802","target":"absent","response":"absent","rt":"32873.3","correct":true,"confidence":1},{"trial_n":120,"span":14,"encoder":"31629307899379","distractor":"31629907899379","target":"present","response":"absent","rt":"2980.7999999998","correct":false,"confidence":1},{"trial_n":121,"span":13,"encoder":"3968841431008","distractor":"3968841331008","target":"absent","response":"absent","rt":"3184","correct":true,"confidence":1},{"trial_n":122,"span":13,"encoder":"7762482260398","distractor":"7782482260398","target":"present","response":"present","rt":"6335","correct":true,"confidence":4},{"trial_n":123,"span":14,"encoder":"41757741750942","distractor":"41757740750942","target":"absent","response":"present","rt":"5128","correct":false,"confidence":1},{"trial_n":124,"span":13,"encoder":"8268149573460","distractor":"8268149573760","target":"absent","response":"absent","rt":"2516.2000000002","correct":true,"confidence":4},{"trial_n":125,"span":13,"encoder":"5992064900713","distractor":"5992064600713","target":"absent","response":"absent","rt":"3265.7000000002","correct":true,"confidence":5},{"trial_n":126,"span":14,"encoder":"13195342349039","distractor":"13195342349019","target":"absent","response":"present","rt":"3010.5","correct":false,"confidence":1},{"trial_n":127,"span":13,"encoder":"4761722750053","distractor":"4761722759053","target":"absent","response":"present","rt":"3309.7999999998","correct":false,"confidence":2},{"trial_n":128,"span":12,"encoder":"145394774874","distractor":"145394974874","target":"absent","response":"absent","rt":"2714.6000000006","correct":true,"confidence":5},{"trial_n":129,"span":12,"encoder":"702045367745","distractor":"702015367745","target":"present","response":"present","rt":"6920.5999999996","correct":true,"confidence":1},{"trial_n":130,"span":13,"encoder":"4604177327934","distractor":"4604177327534","target":"present","response":"present","rt":"6099.2000000002","correct":true,"confidence":1},{"trial_n":131,"span":13,"encoder":"0043449212286","distractor":"0043449212246","target":"present","response":"absent","rt":"5189.7999999998","correct":false,"confidence":1},{"trial_n":132,"span":12,"encoder":"797317440892","distractor":"797317440862","target":"absent","response":"absent","rt":"2709.7000000002","correct":true,"confidence":5},{"trial_n":133,"span":12,"encoder":"426275391936","distractor":"426275391906","target":"present","response":"present","rt":"2652","correct":true,"confidence":5},{"trial_n":134,"span":13,"encoder":"2937385527133","distractor":"2947385527133","target":"present","response":"absent","rt":"7720.6000000006","correct":false,"confidence":1},{"trial_n":135,"span":12,"encoder":"486108140049","distractor":"481108140049","target":"absent","response":"absent","rt":"6280.5999999996","correct":true,"confidence":1},{"trial_n":136,"span":12,"encoder":"514763725877","distractor":"114763725877","target":"absent","response":"absent","rt":"12262.7","correct":true,"confidence":2},{"trial_n":137,"span":13,"encoder":"6506355632773","distractor":"6506345632773","target":"present","response":"present","rt":"3776","correct":true,"confidence":5},{"trial_n":138,"span":13,"encoder":"9028390455641","distractor":"9028392455641","target":"absent","response":"absent","rt":"12181.1","correct":true,"confidence":5},{"trial_n":139,"span":14,"encoder":"50570345652623","distractor":"50570345652653","target":"absent","response":"absent","rt":"2134.4000000004","correct":true,"confidence":5},{"trial_n":140,"span":14,"encoder":"04461582247885","distractor":"04461582247883","target":"absent","response":"absent","rt":"2144.5","correct":true,"confidence":5}]