[{"trial_n":1,"min":25,"max":230,"target":"present","response":"absent","rt":9316,"correct":false,"confidence":-1},{"trial_n":2,"min":25,"max":230,"target":"present","response":"present","rt":1407,"correct":true,"confidence":-1},{"trial_n":3,"min":25,"max":230,"target":"absent","response":"absent","rt":3841,"correct":true,"confidence":-1},{"trial_n":4,"min":41,"max":214,"target":"absent","response":"present","rt":872,"correct":false,"confidence":-1},{"trial_n":5,"min":25,"max":230,"target":"present","response":"present","rt":694.00000000001,"correct":true,"confidence":-1},{"trial_n":6,"min":25,"max":230,"target":"absent","response":"absent","rt":511,"correct":true,"confidence":-1},{"trial_n":7,"min":41,"max":214,"target":"absent","response":"absent","rt":578.00000000001,"correct":true,"confidence":-1},{"trial_n":8,"min":41,"max":214,"target":"present","response":"present","rt":525,"correct":true,"confidence":-1},{"trial_n":9,"min":57,"max":198,"target":"present","response":"present","rt":529,"correct":true,"confidence":-1},{"trial_n":10,"min":57,"max":198,"target":"present","response":"present","rt":404,"correct":true,"confidence":-1},{"trial_n":11,"min":65,"max":190,"target":"present","response":"absent","rt":245,"correct":false,"confidence":-1},{"trial_n":12,"min":57,"max":198,"target":"absent","response":"absent","rt":590,"correct":true,"confidence":-1},{"trial_n":13,"min":57,"max":198,"target":"absent","response":"absent","rt":623,"correct":true,"confidence":-1},{"trial_n":14,"min":65,"max":190,"target":"present","response":"present","rt":562,"correct":true,"confidence":-1},{"trial_n":15,"min":65,"max":190,"target":"absent","response":"absent","rt":298,"correct":true,"confidence":-1},{"trial_n":16,"min":73,"max":182,"target":"absent","response":"present","rt":262,"correct":false,"confidence":-1},{"trial_n":17,"min":65,"max":190,"target":"present","response":"present","rt":540.00000000001,"correct":true,"confidence":-1},{"trial_n":18,"min":65,"max":190,"target":"absent","response":"absent","rt":275.00000000001,"correct":true,"confidence":-1},{"trial_n":19,"min":73,"max":182,"target":"present","response":"present","rt":505,"correct":true,"confidence":-1},{"trial_n":20,"min":73,"max":182,"target":"absent","response":"absent","rt":566,"correct":true,"confidence":-1},{"trial_n":21,"min":77,"max":178,"target":"present","response":"absent","rt":1946,"correct":false,"confidence":2},{"trial_n":22,"min":73,"max":182,"target":"present","response":"absent","rt":932,"correct":false,"confidence":4},{"trial_n":23,"min":69,"max":186,"target":"present","response":"present","rt":1360,"correct":true,"confidence":5},{"trial_n":24,"min":69,"max":186,"target":"absent","response":"absent","rt":1895,"correct":true,"confidence":3},{"trial_n":25,"min":73,"max":182,"target":"absent","response":"absent","rt":757,"correct":true,"confidence":4},{"trial_n":26,"min":73,"max":182,"target":"absent","response":"absent","rt":2311,"correct":true,"confidence":4},{"trial_n":27,"min":77,"max":178,"target":"present","response":"present","rt":1020,"correct":true,"confidence":5},{"trial_n":28,"min":77,"max":178,"target":"absent","response":"present","rt":1609,"correct":false,"confidence":5},{"trial_n":29,"min":73,"max":182,"target":"absent","response":"absent","rt":1566,"correct":true,"confidence":4},{"trial_n":30,"min":73,"max":182,"target":"absent","response":"present","rt":1034,"correct":false,"confidence":3},{"trial_n":31,"min":71,"max":184,"target":"present","response":"present","rt":939,"correct":true,"confidence":5},{"trial_n":32,"min":71,"max":184,"target":"present","response":"present","rt":863,"correct":true,"confidence":4},{"trial_n":33,"min":73,"max":182,"target":"present","response":"present","rt":850,"correct":true,"confidence":4},{"trial_n":34,"min":73,"max":182,"target":"absent","response":"absent","rt":1149,"correct":true,"confidence":3},{"trial_n":35,"min":75,"max":180,"target":"absent","response":"absent","rt":633,"correct":true,"confidence":3},{"trial_n":36,"min":75,"max":180,"target":"present","response":"present","rt":917.99999999997,"correct":true,"confidence":5},{"trial_n":37,"min":77,"max":178,"target":"absent","response":"absent","rt":634,"correct":true,"confidence":5},{"trial_n":38,"min":77,"max":178,"target":"absent","response":"absent","rt":688,"correct":true,"confidence":5},{"trial_n":39,"min":79,"max":176,"target":"absent","response":"absent","rt":1398,"correct":true,"confidence":4},{"trial_n":40,"min":79,"max":176,"target":"present","response":"present","rt":863.99999999997,"correct":true,"confidence":1},{"trial_n":41,"min":80,"max":175,"target":"absent","response":"absent","rt":2364,"correct":true,"confidence":4},{"trial_n":42,"min":80,"max":175,"target":"absent","response":"present","rt":4097,"correct":false,"confidence":2},{"trial_n":43,"min":79,"max":176,"target":"present","response":"present","rt":987.00000000003,"correct":true,"confidence":4},{"trial_n":44,"min":79,"max":176,"target":"present","response":"absent","rt":549.00000000006,"correct":false,"confidence":3},{"trial_n":45,"min":78,"max":177,"target":"absent","response":"absent","rt":971,"correct":true,"confidence":5},{"trial_n":46,"min":78,"max":177,"target":"present","response":"present","rt":888,"correct":true,"confidence":5},{"trial_n":47,"min":79,"max":176,"target":"absent","response":"absent","rt":813,"correct":true,"confidence":5},{"trial_n":48,"min":79,"max":176,"target":"absent","response":"absent","rt":758,"correct":true,"confidence":4},{"trial_n":49,"min":80,"max":175,"target":"present","response":"present","rt":784,"correct":true,"confidence":5},{"trial_n":50,"min":80,"max":175,"target":"absent","response":"present","rt":768,"correct":false,"confidence":4},{"trial_n":51,"min":79,"max":176,"target":"absent","response":"absent","rt":633,"correct":true,"confidence":4},{"trial_n":52,"min":79,"max":176,"target":"absent","response":"absent","rt":803,"correct":true,"confidence":5},{"trial_n":53,"min":80,"max":175,"target":"present","response":"present","rt":1260.0000000001,"correct":true,"confidence":5},{"trial_n":54,"min":80,"max":175,"target":"present","response":"absent","rt":2859,"correct":false,"confidence":2},{"trial_n":55,"min":79,"max":176,"target":"present","response":"absent","rt":866,"correct":false,"confidence":2},{"trial_n":56,"min":78,"max":177,"target":"absent","response":"present","rt":1818.9999999999,"correct":false,"confidence":3},{"trial_n":57,"min":77,"max":178,"target":"present","response":"present","rt":1021,"correct":true,"confidence":4},{"trial_n":58,"min":77,"max":178,"target":"absent","response":"absent","rt":2513.9999999999,"correct":true,"confidence":2},{"trial_n":59,"min":78,"max":177,"target":"absent","response":"absent","rt":1400,"correct":true,"confidence":4},{"trial_n":60,"min":78,"max":177,"target":"absent","response":"present","rt":1130,"correct":false,"confidence":2},{"trial_n":61,"min":77,"max":178,"target":"absent","response":"absent","rt":948,"correct":true,"confidence":3},{"trial_n":62,"min":77,"max":178,"target":"present","response":"present","rt":1011,"correct":true,"confidence":3},{"trial_n":63,"min":78,"max":177,"target":"present","response":"present","rt":1518.0000000001,"correct":true,"confidence":5},{"trial_n":64,"min":78,"max":177,"target":"present","response":"present","rt":901,"correct":true,"confidence":5},{"trial_n":65,"min":79,"max":176,"target":"present","response":"present","rt":741.99999999994,"correct":true,"confidence":4},{"trial_n":66,"min":79,"max":176,"target":"present","response":"present","rt":863,"correct":true,"confidence":4},{"trial_n":67,"min":80,"max":175,"target":"present","response":"absent","rt":856.99999999994,"correct":false,"confidence":1},{"trial_n":68,"min":79,"max":176,"target":"present","response":"present","rt":1856,"correct":true,"confidence":3},{"trial_n":69,"min":79,"max":176,"target":"present","response":"absent","rt":809,"correct":false,"confidence":3},{"trial_n":70,"min":78,"max":177,"target":"present","response":"absent","rt":868,"correct":false,"confidence":2},{"trial_n":71,"min":41,"max":214,"target":"present","response":"absent","rt":6354,"correct":false,"confidence":-1},{"trial_n":72,"min":41,"max":214,"target":"present","response":"present","rt":515,"correct":true,"confidence":-1},{"trial_n":73,"min":41,"max":214,"target":"absent","response":"present","rt":267.00000000006,"correct":false,"confidence":-1},{"trial_n":74,"min":25,"max":230,"target":"absent","response":"present","rt":180,"correct":false,"confidence":-1},{"trial_n":75,"min":9,"max":246,"target":"present","response":"absent","rt":241,"correct":false,"confidence":-1},{"trial_n":76,"min":0,"max":255,"target":"absent","response":"absent","rt":1866,"correct":true,"confidence":-1},{"trial_n":77,"min":0,"max":255,"target":"absent","response":"absent","rt":159,"correct":true,"confidence":-1},{"trial_n":78,"min":16,"max":239,"target":"absent","response":"present","rt":1045.9999999999,"correct":false,"confidence":-1},{"trial_n":79,"min":0,"max":255,"target":"present","response":"absent","rt":788,"correct":false,"confidence":-1},{"trial_n":80,"min":0,"max":255,"target":"present","response":"present","rt":864,"correct":true,"confidence":-1},{"trial_n":81,"min":0,"max":255,"target":"absent","response":"absent","rt":3180.9999999999,"correct":true,"confidence":-1},{"trial_n":82,"min":8,"max":247,"target":"absent","response":"absent","rt":797,"correct":true,"confidence":-1},{"trial_n":83,"min":8,"max":247,"target":"present","response":"present","rt":446.99999999994,"correct":true,"confidence":-1},{"trial_n":84,"min":16,"max":239,"target":"present","response":"present","rt":1262,"correct":true,"confidence":-1},{"trial_n":85,"min":16,"max":239,"target":"absent","response":"absent","rt":461,"correct":true,"confidence":-1},{"trial_n":86,"min":24,"max":231,"target":"absent","response":"absent","rt":412,"correct":true,"confidence":-1},{"trial_n":87,"min":24,"max":231,"target":"present","response":"present","rt":351,"correct":true,"confidence":-1},{"trial_n":88,"min":32,"max":223,"target":"absent","response":"absent","rt":384,"correct":true,"confidence":-1},{"trial_n":89,"min":32,"max":223,"target":"present","response":"present","rt":529,"correct":true,"confidence":-1},{"trial_n":90,"min":40,"max":215,"target":"present","response":"present","rt":447.99999999994,"correct":true,"confidence":-1},{"trial_n":91,"min":40,"max":215,"target":"present","response":"present","rt":323,"correct":true,"confidence":5},{"trial_n":92,"min":44,"max":211,"target":"absent","response":"absent","rt":1686,"correct":true,"confidence":5},{"trial_n":93,"min":44,"max":211,"target":"absent","response":"absent","rt":1322,"correct":true,"confidence":1},{"trial_n":94,"min":48,"max":207,"target":"absent","response":"absent","rt":707,"correct":true,"confidence":5},{"trial_n":95,"min":48,"max":207,"target":"absent","response":"absent","rt":647.00000000006,"correct":true,"confidence":5},{"trial_n":96,"min":52,"max":203,"target":"present","response":"present","rt":4834.9999999999,"correct":true,"confidence":2},{"trial_n":97,"min":52,"max":203,"target":"absent","response":"absent","rt":1052,"correct":true,"confidence":1},{"trial_n":98,"min":56,"max":199,"target":"present","response":"absent","rt":4399,"correct":false,"confidence":4},{"trial_n":99,"min":52,"max":203,"target":"absent","response":"absent","rt":577,"correct":true,"confidence":5},{"trial_n":100,"min":52,"max":203,"target":"present","response":"present","rt":545,"correct":true,"confidence":5},{"trial_n":101,"min":54,"max":201,"target":"present","response":"present","rt":601,"correct":true,"confidence":5},{"trial_n":102,"min":54,"max":201,"target":"absent","response":"absent","rt":502,"correct":true,"confidence":3},{"trial_n":103,"min":56,"max":199,"target":"present","response":"present","rt":692,"correct":true,"confidence":5},{"trial_n":104,"min":56,"max":199,"target":"absent","response":"absent","rt":483,"correct":true,"confidence":5},{"trial_n":105,"min":58,"max":197,"target":"present","response":"present","rt":503.99999999994,"correct":true,"confidence":4},{"trial_n":106,"min":58,"max":197,"target":"present","response":"present","rt":694,"correct":true,"confidence":5},{"trial_n":107,"min":60,"max":195,"target":"present","response":"absent","rt":3618,"correct":false,"confidence":5},{"trial_n":108,"min":58,"max":197,"target":"present","response":"present","rt":446.00000000006,"correct":true,"confidence":5},{"trial_n":109,"min":58,"max":197,"target":"absent","response":"absent","rt":1760.9999999999,"correct":true,"confidence":5},{"trial_n":110,"min":60,"max":195,"target":"present","response":"present","rt":368,"correct":true,"confidence":5},{"trial_n":111,"min":60,"max":195,"target":"absent","response":"absent","rt":1083.9999999999,"correct":true,"confidence":5},{"trial_n":112,"min":61,"max":194,"target":"present","response":"present","rt":2861,"correct":true,"confidence":4},{"trial_n":113,"min":61,"max":194,"target":"absent","response":"absent","rt":695,"correct":true,"confidence":5},{"trial_n":114,"min":62,"max":193,"target":"absent","response":"absent","rt":2165.0000000001,"correct":true,"confidence":2},{"trial_n":115,"min":62,"max":193,"target":"absent","response":"present","rt":635,"correct":false,"confidence":5},{"trial_n":116,"min":61,"max":194,"target":"present","response":"present","rt":262,"correct":true,"confidence":5},{"trial_n":117,"min":61,"max":194,"target":"absent","response":"absent","rt":610,"correct":true,"confidence":5},{"trial_n":118,"min":62,"max":193,"target":"absent","response":"absent","rt":736,"correct":true,"confidence":5},{"trial_n":119,"min":62,"max":193,"target":"present","response":"present","rt":159.00000000012,"correct":true,"confidence":5},{"trial_n":120,"min":63,"max":192,"target":"present","response":"present","rt":2188,"correct":true,"confidence":5},{"trial_n":121,"min":63,"max":192,"target":"absent","response":"absent","rt":970,"correct":true,"confidence":4},{"trial_n":122,"min":64,"max":191,"target":"absent","response":"absent","rt":533.99999999988,"correct":true,"confidence":4},{"trial_n":123,"min":64,"max":191,"target":"present","response":"present","rt":479,"correct":true,"confidence":5},{"trial_n":124,"min":65,"max":190,"target":"present","response":"present","rt":163,"correct":true,"confidence":5},{"trial_n":125,"min":65,"max":190,"target":"present","response":"present","rt":2425,"correct":true,"confidence":5},{"trial_n":126,"min":66,"max":189,"target":"present","response":"present","rt":263,"correct":true,"confidence":5},{"trial_n":127,"min":66,"max":189,"target":"absent","response":"absent","rt":386.99999999988,"correct":true,"confidence":5},{"trial_n":128,"min":67,"max":188,"target":"absent","response":"absent","rt":492,"correct":true,"confidence":5},{"trial_n":129,"min":67,"max":188,"target":"present","response":"present","rt":274.99999999988,"correct":true,"confidence":1},{"trial_n":130,"min":68,"max":187,"target":"absent","response":"present","rt":772,"correct":false,"confidence":5},{"trial_n":131,"min":67,"max":188,"target":"present","response":"present","rt":2862,"correct":true,"confidence":1},{"trial_n":132,"min":67,"max":188,"target":"absent","response":"absent","rt":512,"correct":true,"confidence":5},{"trial_n":133,"min":68,"max":187,"target":"present","response":"present","rt":1038,"correct":true,"confidence":1},{"trial_n":134,"min":68,"max":187,"target":"absent","response":"absent","rt":815.99999999988,"correct":true,"confidence":5},{"trial_n":135,"min":69,"max":186,"target":"present","response":"present","rt":295,"correct":true,"confidence":5},{"trial_n":136,"min":69,"max":186,"target":"absent","response":"absent","rt":388.99999999988,"correct":true,"confidence":5},{"trial_n":137,"min":70,"max":185,"target":"present","response":"present","rt":723.99999999988,"correct":true,"confidence":5},{"trial_n":138,"min":70,"max":185,"target":"present","response":"present","rt":455,"correct":true,"confidence":1},{"trial_n":139,"min":71,"max":184,"target":"present","response":"present","rt":600,"correct":true,"confidence":5},{"trial_n":140,"min":71,"max":184,"target":"absent","response":"present","rt":1781.9999999999,"correct":false,"confidence":2}]