[{"trial_n":1,"span":8,"encoder":"65629880","distractor":"65629888","target":"present","response":"present","rt":"3123.5","correct":true,"confidence":-1},{"trial_n":2,"span":8,"encoder":"36011272","distractor":"36011274","target":"present","response":"absent","rt":"2745.3999996185","correct":false,"confidence":-1},{"trial_n":3,"span":6,"encoder":"622877","distractor":"922877","target":"absent","response":"absent","rt":"1402.4000005722","correct":true,"confidence":-1},{"trial_n":4,"span":6,"encoder":"075158","distractor":"045158","target":"absent","response":"absent","rt":"1429.4000005722","correct":true,"confidence":-1},{"trial_n":5,"span":8,"encoder":"54174802","distractor":"53174802","target":"present","response":"present","rt":"1962","correct":true,"confidence":-1},{"trial_n":6,"span":8,"encoder":"26568175","distractor":"26068175","target":"present","response":"present","rt":"2007.6999998093","correct":true,"confidence":-1},{"trial_n":7,"span":10,"encoder":"8172592960","distractor":"8172595960","target":"absent","response":"present","rt":"2373.8000001907","correct":false,"confidence":-1},{"trial_n":8,"span":8,"encoder":"29142894","distractor":"29642894","target":"absent","response":"absent","rt":"3282.3000001907","correct":true,"confidence":-1},{"trial_n":9,"span":8,"encoder":"98544227","distractor":"90544227","target":"absent","response":"absent","rt":"2178.6000003815","correct":true,"confidence":-1},{"trial_n":10,"span":10,"encoder":"0046311856","distractor":"0045311856","target":"present","response":"present","rt":"1555.4000005722","correct":true,"confidence":-1},{"trial_n":11,"span":10,"encoder":"8734625484","distractor":"8734625489","target":"present","response":"present","rt":"38129.699999809","correct":true,"confidence":-1},{"trial_n":12,"span":11,"encoder":"14534164101","distractor":"14534124101","target":"present","response":"present","rt":"2483.1999998093","correct":true,"confidence":-1},{"trial_n":13,"span":11,"encoder":"06192919462","distractor":"06132919462","target":"present","response":"present","rt":"3528.1999998093","correct":true,"confidence":-1},{"trial_n":14,"span":12,"encoder":"300704033049","distractor":"700704033049","target":"absent","response":"absent","rt":"2357.5","correct":true,"confidence":-1},{"trial_n":15,"span":12,"encoder":"823241989954","distractor":"873241989954","target":"absent","response":"present","rt":"2008.6999998093","correct":false,"confidence":-1},{"trial_n":16,"span":11,"encoder":"33596570561","distractor":"33596570261","target":"present","response":"present","rt":"1437","correct":true,"confidence":-1},{"trial_n":17,"span":11,"encoder":"30451451170","distractor":"30451451110","target":"absent","response":"present","rt":"1202.5","correct":false,"confidence":-1},{"trial_n":18,"span":10,"encoder":"7733400147","distractor":"7733440147","target":"present","response":"absent","rt":"2256.6999998093","correct":false,"confidence":-1},{"trial_n":19,"span":9,"encoder":"864654699","distractor":"864654690","target":"absent","response":"absent","rt":"2948","correct":true,"confidence":-1},{"trial_n":20,"span":9,"encoder":"086289307","distractor":"086589307","target":"absent","response":"present","rt":"2326.5","correct":false,"confidence":-1},{"trial_n":21,"span":8,"encoder":"96504488","distractor":"96404488","target":"present","response":"present","rt":"4792.8999996185","correct":true,"confidence":4},{"trial_n":22,"span":8,"encoder":"65655445","distractor":"65655545","target":"absent","response":"present","rt":"1225.2000007629","correct":false,"confidence":5},{"trial_n":23,"span":7,"encoder":"4610737","distractor":"4618737","target":"present","response":"present","rt":"2668","correct":true,"confidence":4},{"trial_n":24,"span":7,"encoder":"7441351","distractor":"1441351","target":"present","response":"present","rt":"2714.5","correct":true,"confidence":5},{"trial_n":25,"span":8,"encoder":"64777002","distractor":"64777602","target":"absent","response":"present","rt":"1369.8999996185","correct":false,"confidence":3},{"trial_n":26,"span":7,"encoder":"5757544","distractor":"5754544","target":"present","response":"absent","rt":"3335.6999998093","correct":false,"confidence":2},{"trial_n":27,"span":6,"encoder":"677530","distractor":"677533","target":"absent","response":"present","rt":"1614.5","correct":false,"confidence":5},{"trial_n":28,"span":5,"encoder":"49324","distractor":"49323","target":"present","response":"present","rt":"3101.3000001907","correct":true,"confidence":5},{"trial_n":29,"span":5,"encoder":"95828","distractor":"95818","target":"absent","response":"present","rt":"1989.8000001907","correct":false,"confidence":2},{"trial_n":30,"span":4,"encoder":"5196","distractor":"5496","target":"absent","response":"present","rt":"2401.2999992371","correct":false,"confidence":3},{"trial_n":31,"span":3,"encoder":"441","distractor":"741","target":"absent","response":"present","rt":"5917","correct":false,"confidence":1},{"trial_n":32,"span":2,"encoder":"15","distractor":"85","target":"absent","response":"absent","rt":"2489.3999996185","correct":true,"confidence":5},{"trial_n":33,"span":2,"encoder":"05","distractor":"35","target":"absent","response":"absent","rt":"1825.6999998093","correct":true,"confidence":5},{"trial_n":34,"span":3,"encoder":"196","distractor":"106","target":"present","response":"present","rt":"2010.2000007629","correct":true,"confidence":5},{"trial_n":35,"span":3,"encoder":"707","distractor":"307","target":"absent","response":"absent","rt":"1748.3000001907","correct":true,"confidence":5},{"trial_n":36,"span":4,"encoder":"8506","distractor":"8505","target":"absent","response":"absent","rt":"2665.3999996185","correct":true,"confidence":5},{"trial_n":37,"span":4,"encoder":"0074","distractor":"0474","target":"present","response":"present","rt":"1549.3999996185","correct":true,"confidence":5},{"trial_n":38,"span":5,"encoder":"10551","distractor":"10951","target":"present","response":"present","rt":"2834","correct":true,"confidence":5},{"trial_n":39,"span":5,"encoder":"72654","distractor":"72684","target":"absent","response":"absent","rt":"2045.3999996185","correct":true,"confidence":5},{"trial_n":40,"span":6,"encoder":"492370","distractor":"192370","target":"present","response":"absent","rt":"3675.5999994278","correct":false,"confidence":4},{"trial_n":41,"span":5,"encoder":"14476","distractor":"14376","target":"absent","response":"present","rt":"3270.2999992371","correct":false,"confidence":3},{"trial_n":42,"span":4,"encoder":"2124","distractor":"7124","target":"present","response":"present","rt":"1278.3000001907","correct":true,"confidence":5},{"trial_n":43,"span":4,"encoder":"2521","distractor":"4521","target":"absent","response":"absent","rt":"1625.3000001907","correct":true,"confidence":5},{"trial_n":44,"span":5,"encoder":"83249","distractor":"87249","target":"present","response":"present","rt":"1816","correct":true,"confidence":5},{"trial_n":45,"span":5,"encoder":"01925","distractor":"07925","target":"absent","response":"absent","rt":"2698.8000001907","correct":true,"confidence":5},{"trial_n":46,"span":6,"encoder":"395321","distractor":"394321","target":"absent","response":"present","rt":"2661.3000001907","correct":false,"confidence":4},{"trial_n":47,"span":5,"encoder":"11442","distractor":"11342","target":"present","response":"present","rt":"2461.0999994278","correct":true,"confidence":4},{"trial_n":48,"span":5,"encoder":"89851","distractor":"89951","target":"absent","response":"absent","rt":"1957","correct":true,"confidence":5},{"trial_n":49,"span":6,"encoder":"145590","distractor":"144590","target":"present","response":"present","rt":"1833","correct":true,"confidence":5},{"trial_n":50,"span":6,"encoder":"809714","distractor":"809754","target":"absent","response":"absent","rt":"3559.8000001907","correct":true,"confidence":5},{"trial_n":51,"span":7,"encoder":"3754397","distractor":"8754397","target":"present","response":"present","rt":"2677.9000005722","correct":true,"confidence":5},{"trial_n":52,"span":7,"encoder":"3009727","distractor":"3008727","target":"present","response":"absent","rt":"1435.1999998093","correct":false,"confidence":3},{"trial_n":53,"span":6,"encoder":"474034","distractor":"474030","target":"absent","response":"present","rt":"4885.6999998093","correct":false,"confidence":4},{"trial_n":54,"span":5,"encoder":"22481","distractor":"27481","target":"present","response":"present","rt":"2652.5","correct":true,"confidence":5},{"trial_n":55,"span":5,"encoder":"20942","distractor":"20941","target":"present","response":"present","rt":"1808.6999998093","correct":true,"confidence":5},{"trial_n":56,"span":6,"encoder":"847592","distractor":"847594","target":"present","response":"present","rt":"2250.4000005722","correct":true,"confidence":5},{"trial_n":57,"span":6,"encoder":"952980","distractor":"952680","target":"absent","response":"absent","rt":"5921","correct":true,"confidence":4},{"trial_n":58,"span":7,"encoder":"3847844","distractor":"3847842","target":"absent","response":"absent","rt":"2879.3999996185","correct":true,"confidence":3},{"trial_n":59,"span":7,"encoder":"4621690","distractor":"4621680","target":"present","response":"absent","rt":"3002.8999996185","correct":false,"confidence":3},{"trial_n":60,"span":6,"encoder":"978062","distractor":"978762","target":"present","response":"present","rt":"2827.3000001907","correct":true,"confidence":5},{"trial_n":61,"span":6,"encoder":"614003","distractor":"614000","target":"present","response":"present","rt":"1868.9000005722","correct":true,"confidence":4},{"trial_n":62,"span":7,"encoder":"3996595","distractor":"3986595","target":"absent","response":"absent","rt":"2842.8000001907","correct":true,"confidence":2},{"trial_n":63,"span":7,"encoder":"3893829","distractor":"5893829","target":"absent","response":"present","rt":"2268.3000001907","correct":false,"confidence":4},{"trial_n":64,"span":6,"encoder":"879768","distractor":"079768","target":"present","response":"present","rt":"1652.0999994278","correct":true,"confidence":4},{"trial_n":65,"span":6,"encoder":"850760","distractor":"150760","target":"absent","response":"absent","rt":"1443.5","correct":true,"confidence":5},{"trial_n":66,"span":7,"encoder":"7398246","distractor":"7598246","target":"present","response":"present","rt":"1648.4000005722","correct":true,"confidence":4},{"trial_n":67,"span":7,"encoder":"0262008","distractor":"0267008","target":"present","response":"present","rt":"3981.1000003815","correct":true,"confidence":3},{"trial_n":68,"span":8,"encoder":"18692094","distractor":"18692194","target":"present","response":"present","rt":"2110.3000001907","correct":true,"confidence":5},{"trial_n":69,"span":8,"encoder":"19092910","distractor":"19792910","target":"absent","response":"absent","rt":"1913","correct":true,"confidence":5},{"trial_n":70,"span":9,"encoder":"985439033","distractor":"985435033","target":"present","response":"present","rt":"1336.3000001907","correct":true,"confidence":4},{"trial_n":71,"span":8,"encoder":"54426445","distractor":"54426145","target":"present","response":"present","rt":"4166.8999996185","correct":true,"confidence":-1},{"trial_n":72,"span":8,"encoder":"53727429","distractor":"53727129","target":"present","response":"present","rt":"2510.5","correct":true,"confidence":-1},{"trial_n":73,"span":9,"encoder":"451044022","distractor":"451049022","target":"absent","response":"absent","rt":"2235.8000001907","correct":true,"confidence":-1},{"trial_n":74,"span":9,"encoder":"665581227","distractor":"665581727","target":"absent","response":"present","rt":"3530.6999998093","correct":false,"confidence":-1},{"trial_n":75,"span":8,"encoder":"24421299","distractor":"24426299","target":"present","response":"present","rt":"4358.5","correct":true,"confidence":-1},{"trial_n":76,"span":8,"encoder":"03779764","distractor":"03739764","target":"absent","response":"absent","rt":"2667.1999998093","correct":true,"confidence":-1},{"trial_n":77,"span":9,"encoder":"554748198","distractor":"554718198","target":"present","response":"present","rt":"6490.6999998093","correct":true,"confidence":-1},{"trial_n":78,"span":9,"encoder":"092707587","distractor":"092707887","target":"present","response":"present","rt":"5867","correct":true,"confidence":-1},{"trial_n":79,"span":10,"encoder":"1622287825","distractor":"1622887825","target":"absent","response":"present","rt":"5315.2999992371","correct":false,"confidence":-1},{"trial_n":80,"span":9,"encoder":"327794989","distractor":"327794969","target":"absent","response":"absent","rt":"4904.6999998093","correct":true,"confidence":-1},{"trial_n":81,"span":9,"encoder":"286275567","distractor":"586275567","target":"absent","response":"absent","rt":"5868.8000001907","correct":true,"confidence":-1},{"trial_n":82,"span":10,"encoder":"5692562700","distractor":"5692562100","target":"absent","response":"present","rt":"2238.8000001907","correct":false,"confidence":-1},{"trial_n":83,"span":9,"encoder":"714067349","distractor":"714767349","target":"present","response":"absent","rt":"1696.6999998093","correct":false,"confidence":-1},{"trial_n":84,"span":8,"encoder":"52603489","distractor":"52603789","target":"present","response":"present","rt":"2293.1999998093","correct":true,"confidence":-1},{"trial_n":85,"span":8,"encoder":"22783078","distractor":"25783078","target":"present","response":"present","rt":"1859.7999992371","correct":true,"confidence":-1},{"trial_n":86,"span":9,"encoder":"647897395","distractor":"646897395","target":"absent","response":"present","rt":"2797.1000003815","correct":false,"confidence":-1},{"trial_n":87,"span":8,"encoder":"39858583","distractor":"39858983","target":"absent","response":"present","rt":"29689.400000572","correct":false,"confidence":-1},{"trial_n":88,"span":7,"encoder":"5680726","distractor":"5680727","target":"present","response":"present","rt":"1827.3000001907","correct":true,"confidence":-1},{"trial_n":89,"span":7,"encoder":"9488927","distractor":"9488827","target":"absent","response":"absent","rt":"6093.2999992371","correct":true,"confidence":-1},{"trial_n":90,"span":8,"encoder":"56138560","distractor":"56138580","target":"absent","response":"absent","rt":"2584.9000005722","correct":true,"confidence":-1},{"trial_n":91,"span":8,"encoder":"06291323","distractor":"06991323","target":"absent","response":"absent","rt":"2406.5","correct":true,"confidence":4},{"trial_n":92,"span":9,"encoder":"700031011","distractor":"200031011","target":"present","response":"absent","rt":"2765.1999998093","correct":false,"confidence":4},{"trial_n":93,"span":8,"encoder":"34924907","distractor":"30924907","target":"absent","response":"present","rt":"4343.3000001907","correct":false,"confidence":2},{"trial_n":94,"span":7,"encoder":"1215169","distractor":"1115169","target":"present","response":"present","rt":"3592","correct":true,"confidence":4},{"trial_n":95,"span":7,"encoder":"0470103","distractor":"3470103","target":"present","response":"present","rt":"3245.4000005722","correct":true,"confidence":3},{"trial_n":96,"span":8,"encoder":"63475451","distractor":"43475451","target":"present","response":"present","rt":"3987.1999998093","correct":true,"confidence":4},{"trial_n":97,"span":8,"encoder":"70454204","distractor":"75454204","target":"absent","response":"present","rt":"3734","correct":false,"confidence":2},{"trial_n":98,"span":7,"encoder":"6194185","distractor":"6994185","target":"absent","response":"absent","rt":"2852.3000001907","correct":true,"confidence":5},{"trial_n":99,"span":7,"encoder":"0823813","distractor":"0863813","target":"absent","response":"present","rt":"4525.0999994278","correct":false,"confidence":5},{"trial_n":100,"span":6,"encoder":"139673","distractor":"239673","target":"absent","response":"absent","rt":"1737.7999992371","correct":true,"confidence":5},{"trial_n":101,"span":6,"encoder":"601610","distractor":"671610","target":"present","response":"present","rt":"1819.3999996185","correct":true,"confidence":5},{"trial_n":102,"span":7,"encoder":"6236299","distractor":"6236296","target":"present","response":"absent","rt":"8197.4000005722","correct":false,"confidence":1},{"trial_n":103,"span":6,"encoder":"192796","distractor":"192696","target":"absent","response":"absent","rt":"2353.2999992371","correct":true,"confidence":5},{"trial_n":104,"span":6,"encoder":"125232","distractor":"825232","target":"absent","response":"absent","rt":"2698.3000001907","correct":true,"confidence":5},{"trial_n":105,"span":7,"encoder":"9731505","distractor":"3731505","target":"absent","response":"absent","rt":"25315","correct":true,"confidence":5},{"trial_n":106,"span":7,"encoder":"7652475","distractor":"3652475","target":"absent","response":"absent","rt":"2677.5","correct":true,"confidence":5},{"trial_n":107,"span":8,"encoder":"27135110","distractor":"27175110","target":"present","response":"absent","rt":"4701","correct":false,"confidence":3},{"trial_n":108,"span":7,"encoder":"2020561","distractor":"2020564","target":"present","response":"present","rt":"1871.5","correct":true,"confidence":5},{"trial_n":109,"span":7,"encoder":"9590189","distractor":"9990189","target":"absent","response":"absent","rt":"3213.6000003815","correct":true,"confidence":3},{"trial_n":110,"span":8,"encoder":"26665322","distractor":"26668322","target":"present","response":"present","rt":"3713.5999994278","correct":true,"confidence":5},{"trial_n":111,"span":8,"encoder":"15182470","distractor":"15182400","target":"present","response":"present","rt":"6276.6999998093","correct":true,"confidence":4},{"trial_n":112,"span":9,"encoder":"146924373","distractor":"246924373","target":"present","response":"present","rt":"5189.9000005722","correct":true,"confidence":3},{"trial_n":113,"span":9,"encoder":"908000090","distractor":"903000090","target":"absent","response":"absent","rt":"3090.1000003815","correct":true,"confidence":3},{"trial_n":114,"span":10,"encoder":"4247496277","distractor":"4247436277","target":"present","response":"present","rt":"4800.7000007629","correct":true,"confidence":5},{"trial_n":115,"span":10,"encoder":"5056162954","distractor":"5056165954","target":"present","response":"present","rt":"3268.6999998093","correct":true,"confidence":3},{"trial_n":116,"span":11,"encoder":"05002417787","distractor":"05002617787","target":"absent","response":"absent","rt":"2507.1000003815","correct":true,"confidence":3},{"trial_n":117,"span":11,"encoder":"99236199767","distractor":"19236199767","target":"present","response":"absent","rt":"2755.8999996185","correct":false,"confidence":3},{"trial_n":118,"span":10,"encoder":"0686243760","distractor":"0686343760","target":"absent","response":"absent","rt":"4301.0999994278","correct":true,"confidence":5},{"trial_n":119,"span":10,"encoder":"3917179201","distractor":"3917189201","target":"absent","response":"absent","rt":"2345.3999996185","correct":true,"confidence":3},{"trial_n":120,"span":11,"encoder":"60061206438","distractor":"60061205438","target":"present","response":"present","rt":"6975","correct":true,"confidence":4},{"trial_n":121,"span":11,"encoder":"93720905744","distractor":"93720905244","target":"present","response":"present","rt":"2019.9000005722","correct":true,"confidence":3},{"trial_n":122,"span":12,"encoder":"778401380575","distractor":"778401360575","target":"absent","response":"absent","rt":"6921.3999996185","correct":true,"confidence":3},{"trial_n":123,"span":12,"encoder":"770164958632","distractor":"700164958632","target":"absent","response":"absent","rt":"6179.1999998093","correct":true,"confidence":3},{"trial_n":124,"span":13,"encoder":"3016655477333","distractor":"3016655477339","target":"present","response":"present","rt":"4020.8000001907","correct":true,"confidence":4},{"trial_n":125,"span":13,"encoder":"1955024153817","distractor":"1955024353817","target":"absent","response":"present","rt":"5035.2999992371","correct":false,"confidence":4},{"trial_n":126,"span":12,"encoder":"557923678569","distractor":"557923178569","target":"present","response":"present","rt":"9270.8999996185","correct":true,"confidence":3},{"trial_n":127,"span":12,"encoder":"512131905070","distractor":"012131905070","target":"present","response":"present","rt":"3113.3999996185","correct":true,"confidence":2},{"trial_n":128,"span":13,"encoder":"3233384509928","distractor":"3203384509928","target":"present","response":"present","rt":"2048.8999996185","correct":true,"confidence":5},{"trial_n":129,"span":13,"encoder":"9245102365368","distractor":"9545102365368","target":"present","response":"present","rt":"5744.6999998093","correct":true,"confidence":3},{"trial_n":130,"span":14,"encoder":"59567701087178","distractor":"59567701087177","target":"present","response":"present","rt":"3607.1000003815","correct":true,"confidence":5},{"trial_n":131,"span":14,"encoder":"72918814825532","distractor":"72918714825532","target":"absent","response":"absent","rt":"6468.6000003815","correct":true,"confidence":4},{"trial_n":132,"span":15,"encoder":"638938993018878","distractor":"638938993098878","target":"present","response":"absent","rt":"6907.3999996185","correct":false,"confidence":3},{"trial_n":133,"span":14,"encoder":"74374275368353","distractor":"74374275364353","target":"present","response":"present","rt":"6357.8999996185","correct":true,"confidence":4},{"trial_n":134,"span":14,"encoder":"08181734231924","distractor":"08161734231924","target":"absent","response":"present","rt":"4248.8000001907","correct":false,"confidence":3},{"trial_n":135,"span":13,"encoder":"8345286887856","distractor":"8345286987856","target":"absent","response":"absent","rt":"3313","correct":true,"confidence":4},{"trial_n":136,"span":13,"encoder":"1107975359959","distractor":"1107975259959","target":"present","response":"absent","rt":"2854.4000005722","correct":false,"confidence":3},{"trial_n":137,"span":12,"encoder":"315483162024","distractor":"315483169024","target":"present","response":"present","rt":"3741.3999996185","correct":true,"confidence":3},{"trial_n":138,"span":12,"encoder":"509537163778","distractor":"609537163778","target":"present","response":"present","rt":"7719.3999996185","correct":true,"confidence":3},{"trial_n":139,"span":13,"encoder":"2330103009739","distractor":"2330103000739","target":"absent","response":"present","rt":"4590.7999992371","correct":false,"confidence":4},{"trial_n":140,"span":12,"encoder":"289978399181","distractor":"289978399180","target":"absent","response":"absent","rt":"2496.1999998093","correct":true,"confidence":5}]