[{"trial_n":1,"n_dots":4.25,"target":"left","response":"left","rt":6603.3999996185,"correct":true,"confidence":-1},{"trial_n":2,"n_dots":4.25,"target":"left","response":"left","rt":745.5,"correct":true,"confidence":-1},{"trial_n":3,"n_dots":3.85,"target":"left","response":"left","rt":269.40000152588,"correct":true,"confidence":-1},{"trial_n":4,"n_dots":3.85,"target":"left","response":"left","rt":1374.8000011444,"correct":true,"confidence":-1},{"trial_n":5,"n_dots":3.45,"target":"left","response":"left","rt":336.5,"correct":true,"confidence":-1},{"trial_n":6,"n_dots":3.45,"target":"right","response":"right","rt":398.09999847412,"correct":true,"confidence":-1},{"trial_n":7,"n_dots":3.05,"target":"right","response":"left","rt":290.69999885559,"correct":false,"confidence":-1},{"trial_n":8,"n_dots":3.25,"target":"right","response":"right","rt":677.39999961853,"correct":true,"confidence":-1},{"trial_n":9,"n_dots":3.25,"target":"left","response":"left","rt":276.29999923706,"correct":true,"confidence":-1},{"trial_n":10,"n_dots":3.05,"target":"right","response":"right","rt":242,"correct":true,"confidence":-1},{"trial_n":11,"n_dots":3.05,"target":"right","response":"left","rt":912.70000076294,"correct":false,"confidence":-1},{"trial_n":12,"n_dots":3.25,"target":"right","response":"right","rt":653.60000038147,"correct":true,"confidence":-1},{"trial_n":13,"n_dots":3.25,"target":"left","response":"right","rt":812.39999961853,"correct":false,"confidence":-1},{"trial_n":14,"n_dots":3.35,"target":"left","response":"left","rt":1095,"correct":true,"confidence":-1},{"trial_n":15,"n_dots":3.35,"target":"right","response":"left","rt":594,"correct":false,"confidence":-1},{"trial_n":16,"n_dots":3.45,"target":"right","response":"right","rt":145.70000076294,"correct":true,"confidence":-1},{"trial_n":17,"n_dots":3.45,"target":"right","response":"left","rt":24.299999237061,"correct":false,"confidence":-1},{"trial_n":18,"n_dots":3.55,"target":"left","response":"left","rt":80.39999961853,"correct":true,"confidence":-1},{"trial_n":19,"n_dots":3.55,"target":"right","response":"right","rt":443.5,"correct":true,"confidence":-1},{"trial_n":20,"n_dots":3.45,"target":"left","response":"left","rt":308.60000038147,"correct":true,"confidence":-1},{"trial_n":21,"n_dots":3.45,"target":"left","response":"left","rt":2493.0999984741,"correct":true,"confidence":3},{"trial_n":22,"n_dots":3.35,"target":"right","response":"left","rt":597,"correct":false,"confidence":1},{"trial_n":23,"n_dots":3.45,"target":"right","response":"right","rt":922.30000114441,"correct":true,"confidence":1},{"trial_n":24,"n_dots":3.45,"target":"right","response":"right","rt":305.79999923706,"correct":true,"confidence":1},{"trial_n":25,"n_dots":3.35,"target":"left","response":"left","rt":1639.2999992371,"correct":true,"confidence":1},{"trial_n":26,"n_dots":3.35,"target":"left","response":"left","rt":423.79999923706,"correct":true,"confidence":1},{"trial_n":27,"n_dots":3.25,"target":"left","response":"left","rt":652.40000152588,"correct":true,"confidence":1},{"trial_n":28,"n_dots":3.25,"target":"left","response":"left","rt":379.39999961853,"correct":true,"confidence":1},{"trial_n":29,"n_dots":3.15,"target":"left","response":"right","rt":1482.9000015259,"correct":false,"confidence":1},{"trial_n":30,"n_dots":3.25,"target":"left","response":"left","rt":2105.2000007629,"correct":true,"confidence":1},{"trial_n":31,"n_dots":3.25,"target":"left","response":"left","rt":682.29999923706,"correct":true,"confidence":1},{"trial_n":32,"n_dots":3.15,"target":"left","response":"right","rt":585.69999885559,"correct":false,"confidence":1},{"trial_n":33,"n_dots":3.25,"target":"right","response":"left","rt":439.29999923706,"correct":false,"confidence":1},{"trial_n":34,"n_dots":3.35,"target":"right","response":"right","rt":315.80000114441,"correct":true,"confidence":1},{"trial_n":35,"n_dots":3.35,"target":"left","response":"left","rt":140.60000038147,"correct":true,"confidence":1},{"trial_n":36,"n_dots":3.25,"target":"left","response":"right","rt":660.59999847412,"correct":false,"confidence":1},{"trial_n":37,"n_dots":3.35,"target":"left","response":"left","rt":401.39999961853,"correct":true,"confidence":1},{"trial_n":38,"n_dots":3.35,"target":"left","response":"left","rt":553.40000152588,"correct":true,"confidence":1},{"trial_n":39,"n_dots":3.25,"target":"right","response":"right","rt":293.10000038147,"correct":true,"confidence":1},{"trial_n":40,"n_dots":3.25,"target":"right","response":"right","rt":292.89999961853,"correct":true,"confidence":1},{"trial_n":41,"n_dots":3.15,"target":"right","response":"right","rt":646.30000114441,"correct":true,"confidence":1},{"trial_n":42,"n_dots":3.15,"target":"left","response":"left","rt":302.69999885559,"correct":true,"confidence":2},{"trial_n":43,"n_dots":3.05,"target":"left","response":"left","rt":150.70000076294,"correct":true,"confidence":3},{"trial_n":44,"n_dots":3.05,"target":"left","response":"left","rt":301,"correct":true,"confidence":3},{"trial_n":45,"n_dots":2.95,"target":"left","response":"left","rt":309.30000114441,"correct":true,"confidence":1},{"trial_n":46,"n_dots":2.95,"target":"right","response":"right","rt":304.5,"correct":true,"confidence":1},{"trial_n":47,"n_dots":2.85,"target":"right","response":"left","rt":75.299999237061,"correct":false,"confidence":2},{"trial_n":48,"n_dots":2.95,"target":"left","response":"left","rt":380.79999923706,"correct":true,"confidence":3},{"trial_n":49,"n_dots":2.95,"target":"left","response":"left","rt":405.10000038147,"correct":true,"confidence":3},{"trial_n":50,"n_dots":2.85,"target":"left","response":"left","rt":729.09999847412,"correct":true,"confidence":3},{"trial_n":51,"n_dots":2.85,"target":"right","response":"right","rt":789.39999961853,"correct":true,"confidence":3},{"trial_n":52,"n_dots":2.75,"target":"left","response":"left","rt":403.29999923706,"correct":true,"confidence":3},{"trial_n":53,"n_dots":2.75,"target":"right","response":"right","rt":796.70000076294,"correct":true,"confidence":3},{"trial_n":54,"n_dots":2.65,"target":"left","response":"left","rt":721,"correct":true,"confidence":3},{"trial_n":55,"n_dots":2.65,"target":"right","response":"left","rt":1091.7000007629,"correct":false,"confidence":1},{"trial_n":56,"n_dots":2.75,"target":"left","response":"left","rt":630.80000114441,"correct":true,"confidence":3},{"trial_n":57,"n_dots":2.75,"target":"left","response":"right","rt":1551.1999988556,"correct":false,"confidence":2},{"trial_n":58,"n_dots":2.85,"target":"right","response":"left","rt":734.09999847412,"correct":false,"confidence":2},{"trial_n":59,"n_dots":2.95,"target":"left","response":"left","rt":565.70000076294,"correct":true,"confidence":2},{"trial_n":60,"n_dots":2.95,"target":"right","response":"right","rt":688.70000076294,"correct":true,"confidence":3},{"trial_n":61,"n_dots":2.85,"target":"left","response":"left","rt":484.69999885559,"correct":true,"confidence":2},{"trial_n":62,"n_dots":2.85,"target":"right","response":"right","rt":364,"correct":true,"confidence":2},{"trial_n":63,"n_dots":2.75,"target":"right","response":"left","rt":1270.6000003815,"correct":false,"confidence":3},{"trial_n":64,"n_dots":2.85,"target":"left","response":"left","rt":513.30000114441,"correct":true,"confidence":3},{"trial_n":65,"n_dots":2.85,"target":"right","response":"right","rt":517.30000114441,"correct":true,"confidence":3},{"trial_n":66,"n_dots":2.75,"target":"right","response":"left","rt":418.89999961853,"correct":false,"confidence":3},{"trial_n":67,"n_dots":2.85,"target":"left","response":"left","rt":1011.5,"correct":true,"confidence":3},{"trial_n":68,"n_dots":2.85,"target":"left","response":"left","rt":1040.8999996185,"correct":true,"confidence":3},{"trial_n":69,"n_dots":2.75,"target":"left","response":"right","rt":1190.1999988556,"correct":false,"confidence":3},{"trial_n":70,"n_dots":2.85,"target":"left","response":"left","rt":889,"correct":true,"confidence":3},{"trial_n":71,"n_dots":2.85,"target":"left","response":"left","rt":1024.3999996185,"correct":true,"confidence":3},{"trial_n":72,"n_dots":2.75,"target":"right","response":"right","rt":907.39999961853,"correct":true,"confidence":3},{"trial_n":73,"n_dots":2.75,"target":"right","response":"right","rt":1519.3999996185,"correct":true,"confidence":2},{"trial_n":74,"n_dots":2.65,"target":"left","response":"right","rt":1186.8999996185,"correct":false,"confidence":2},{"trial_n":75,"n_dots":2.75,"target":"left","response":"left","rt":1697.6000003815,"correct":true,"confidence":2},{"trial_n":76,"n_dots":2.75,"target":"right","response":"right","rt":1213.2000007629,"correct":true,"confidence":2},{"trial_n":77,"n_dots":2.65,"target":"left","response":"right","rt":766.39999961853,"correct":false,"confidence":2},{"trial_n":78,"n_dots":2.75,"target":"right","response":"right","rt":771.80000114441,"correct":true,"confidence":2},{"trial_n":79,"n_dots":2.75,"target":"left","response":"left","rt":842,"correct":true,"confidence":2},{"trial_n":80,"n_dots":2.65,"target":"right","response":"right","rt":1040.1000003815,"correct":true,"confidence":2},{"trial_n":81,"n_dots":2.65,"target":"left","response":"right","rt":900,"correct":false,"confidence":3},{"trial_n":82,"n_dots":2.75,"target":"right","response":"right","rt":913,"correct":true,"confidence":3},{"trial_n":83,"n_dots":2.75,"target":"right","response":"left","rt":807.30000114441,"correct":false,"confidence":3},{"trial_n":84,"n_dots":2.85,"target":"left","response":"right","rt":965.80000114441,"correct":false,"confidence":2},{"trial_n":85,"n_dots":2.95,"target":"right","response":"right","rt":1325,"correct":true,"confidence":3},{"trial_n":86,"n_dots":2.95,"target":"left","response":"left","rt":776.19999885559,"correct":true,"confidence":2},{"trial_n":87,"n_dots":2.85,"target":"left","response":"right","rt":567.10000038147,"correct":false,"confidence":3},{"trial_n":88,"n_dots":2.95,"target":"right","response":"right","rt":356.20000076294,"correct":true,"confidence":3},{"trial_n":89,"n_dots":2.95,"target":"left","response":"left","rt":1191.8000011444,"correct":true,"confidence":3},{"trial_n":90,"n_dots":2.85,"target":"left","response":"left","rt":1038.6000003815,"correct":true,"confidence":3},{"trial_n":91,"n_dots":2.85,"target":"right","response":"right","rt":695.30000114441,"correct":true,"confidence":3},{"trial_n":92,"n_dots":2.75,"target":"left","response":"left","rt":912.90000152588,"correct":true,"confidence":2},{"trial_n":93,"n_dots":2.75,"target":"right","response":"right","rt":1197.5,"correct":true,"confidence":2},{"trial_n":94,"n_dots":2.65,"target":"right","response":"right","rt":1030.8999996185,"correct":true,"confidence":3},{"trial_n":95,"n_dots":2.65,"target":"right","response":"left","rt":1201.7999992371,"correct":false,"confidence":3},{"trial_n":96,"n_dots":2.75,"target":"right","response":"right","rt":751.80000114441,"correct":true,"confidence":3},{"trial_n":97,"n_dots":2.75,"target":"right","response":"left","rt":332.29999923706,"correct":false,"confidence":4},{"trial_n":98,"n_dots":2.85,"target":"right","response":"right","rt":270.70000076294,"correct":true,"confidence":2},{"trial_n":99,"n_dots":2.85,"target":"right","response":"left","rt":719.29999923706,"correct":false,"confidence":1},{"trial_n":100,"n_dots":2.95,"target":"right","response":"right","rt":764.30000114441,"correct":true,"confidence":2},{"trial_n":101,"n_dots":2.95,"target":"left","response":"left","rt":647.90000152588,"correct":true,"confidence":2},{"trial_n":102,"n_dots":2.85,"target":"right","response":"right","rt":447.19999885559,"correct":true,"confidence":3},{"trial_n":103,"n_dots":2.85,"target":"right","response":"left","rt":578.79999923706,"correct":false,"confidence":3},{"trial_n":104,"n_dots":2.95,"target":"left","response":"right","rt":738.79999923706,"correct":false,"confidence":2},{"trial_n":105,"n_dots":3.05,"target":"left","response":"left","rt":57.60000038147,"correct":true,"confidence":3},{"trial_n":106,"n_dots":3.05,"target":"right","response":"right","rt":647.79999923706,"correct":true,"confidence":3},{"trial_n":107,"n_dots":2.95,"target":"left","response":"left","rt":140.5,"correct":true,"confidence":2},{"trial_n":108,"n_dots":2.95,"target":"right","response":"right","rt":902.69999885559,"correct":true,"confidence":2},{"trial_n":109,"n_dots":2.85,"target":"right","response":"left","rt":769.10000038147,"correct":false,"confidence":2},{"trial_n":110,"n_dots":2.95,"target":"left","response":"right","rt":373,"correct":false,"confidence":2},{"trial_n":111,"n_dots":3.05,"target":"right","response":"right","rt":1754.2000007629,"correct":true,"confidence":2},{"trial_n":112,"n_dots":3.05,"target":"left","response":"left","rt":3984.8999996185,"correct":true,"confidence":3},{"trial_n":113,"n_dots":2.95,"target":"right","response":"right","rt":532.5,"correct":true,"confidence":2},{"trial_n":114,"n_dots":2.95,"target":"left","response":"left","rt":121.09999847412,"correct":true,"confidence":2},{"trial_n":115,"n_dots":2.85,"target":"right","response":"right","rt":346.80000114441,"correct":true,"confidence":2},{"trial_n":116,"n_dots":2.85,"target":"right","response":"right","rt":772.5,"correct":true,"confidence":2},{"trial_n":117,"n_dots":2.75,"target":"right","response":"right","rt":1116.5,"correct":true,"confidence":3},{"trial_n":118,"n_dots":2.75,"target":"right","response":"left","rt":425.30000114441,"correct":false,"confidence":2},{"trial_n":119,"n_dots":2.85,"target":"right","response":"right","rt":473.60000038147,"correct":true,"confidence":1},{"trial_n":120,"n_dots":2.85,"target":"right","response":"left","rt":824.20000076294,"correct":false,"confidence":2}]