[{"trial_n":1,"min":25,"max":230,"target":"present","response":"absent","rt":5226.7000007629,"correct":false,"confidence":-1},{"trial_n":2,"min":25,"max":230,"target":"present","response":"present","rt":2176.1000003815,"correct":true,"confidence":-1},{"trial_n":3,"min":25,"max":230,"target":"absent","response":"present","rt":950.79999923706,"correct":false,"confidence":-1},{"trial_n":4,"min":9,"max":246,"target":"absent","response":"present","rt":2269.5,"correct":false,"confidence":-1},{"trial_n":5,"min":0,"max":255,"target":"present","response":"present","rt":4037.1999998093,"correct":true,"confidence":-1},{"trial_n":6,"min":0,"max":255,"target":"present","response":"present","rt":729,"correct":true,"confidence":-1},{"trial_n":7,"min":16,"max":239,"target":"present","response":"present","rt":447.69999980927,"correct":true,"confidence":-1},{"trial_n":8,"min":16,"max":239,"target":"absent","response":"absent","rt":848.4000005722,"correct":true,"confidence":-1},{"trial_n":9,"min":32,"max":223,"target":"absent","response":"absent","rt":405.60000038147,"correct":true,"confidence":-1},{"trial_n":10,"min":32,"max":223,"target":"present","response":"present","rt":2041.3999996185,"correct":true,"confidence":-1},{"trial_n":11,"min":40,"max":215,"target":"absent","response":"absent","rt":1516.8000001907,"correct":true,"confidence":-1},{"trial_n":12,"min":40,"max":215,"target":"present","response":"present","rt":398.29999923706,"correct":true,"confidence":-1},{"trial_n":13,"min":48,"max":207,"target":"absent","response":"absent","rt":238.10000038147,"correct":true,"confidence":-1},{"trial_n":14,"min":48,"max":207,"target":"absent","response":"absent","rt":215.5,"correct":true,"confidence":-1},{"trial_n":15,"min":56,"max":199,"target":"absent","response":"absent","rt":204.70000076294,"correct":true,"confidence":-1},{"trial_n":16,"min":56,"max":199,"target":"present","response":"present","rt":933.30000019073,"correct":true,"confidence":-1},{"trial_n":17,"min":64,"max":191,"target":"absent","response":"absent","rt":494.0999994278,"correct":true,"confidence":-1},{"trial_n":18,"min":64,"max":191,"target":"present","response":"present","rt":512.0999994278,"correct":true,"confidence":-1},{"trial_n":19,"min":72,"max":183,"target":"present","response":"present","rt":376.89999961853,"correct":true,"confidence":-1},{"trial_n":20,"min":72,"max":183,"target":"absent","response":"absent","rt":203.69999980927,"correct":true,"confidence":-1},{"trial_n":21,"min":76,"max":179,"target":"absent","response":"absent","rt":603,"correct":true,"confidence":4},{"trial_n":22,"min":76,"max":179,"target":"absent","response":"absent","rt":1197,"correct":true,"confidence":4},{"trial_n":23,"min":80,"max":175,"target":"present","response":"present","rt":1326.5999994278,"correct":true,"confidence":4},{"trial_n":24,"min":80,"max":175,"target":"absent","response":"absent","rt":1116.3000001907,"correct":true,"confidence":4},{"trial_n":25,"min":84,"max":171,"target":"present","response":"present","rt":1039.0999994278,"correct":true,"confidence":5},{"trial_n":26,"min":84,"max":171,"target":"present","response":"present","rt":1119.6999998093,"correct":true,"confidence":5},{"trial_n":27,"min":88,"max":167,"target":"present","response":"present","rt":901.60000038147,"correct":true,"confidence":5},{"trial_n":28,"min":88,"max":167,"target":"absent","response":"present","rt":1242.1000003815,"correct":false,"confidence":5},{"trial_n":29,"min":84,"max":171,"target":"present","response":"present","rt":904.30000019073,"correct":true,"confidence":5},{"trial_n":30,"min":84,"max":171,"target":"absent","response":"absent","rt":712.19999980927,"correct":true,"confidence":4},{"trial_n":31,"min":86,"max":169,"target":"absent","response":"present","rt":2337.7999992371,"correct":false,"confidence":3},{"trial_n":32,"min":84,"max":171,"target":"absent","response":"present","rt":955.10000038147,"correct":false,"confidence":4},{"trial_n":33,"min":82,"max":173,"target":"present","response":"present","rt":896.80000019073,"correct":true,"confidence":5},{"trial_n":34,"min":82,"max":173,"target":"absent","response":"absent","rt":696,"correct":true,"confidence":4},{"trial_n":35,"min":84,"max":171,"target":"present","response":"present","rt":1296.6999998093,"correct":true,"confidence":5},{"trial_n":36,"min":84,"max":171,"target":"absent","response":"present","rt":677,"correct":false,"confidence":5},{"trial_n":37,"min":82,"max":173,"target":"absent","response":"absent","rt":612.20000076294,"correct":true,"confidence":5},{"trial_n":38,"min":82,"max":173,"target":"absent","response":"absent","rt":1414.1000003815,"correct":true,"confidence":3},{"trial_n":39,"min":84,"max":171,"target":"present","response":"present","rt":705.80000019073,"correct":true,"confidence":5},{"trial_n":40,"min":84,"max":171,"target":"present","response":"present","rt":536.89999961853,"correct":true,"confidence":5},{"trial_n":41,"min":85,"max":170,"target":"present","response":"absent","rt":1055.1000003815,"correct":false,"confidence":1},{"trial_n":42,"min":84,"max":171,"target":"absent","response":"present","rt":1373.6999998093,"correct":false,"confidence":4},{"trial_n":43,"min":83,"max":172,"target":"absent","response":"absent","rt":1038.1999998093,"correct":true,"confidence":1},{"trial_n":44,"min":83,"max":172,"target":"absent","response":"absent","rt":2782.5,"correct":true,"confidence":4},{"trial_n":45,"min":84,"max":171,"target":"present","response":"present","rt":768.89999961853,"correct":true,"confidence":4},{"trial_n":46,"min":84,"max":171,"target":"absent","response":"absent","rt":924.30000019073,"correct":true,"confidence":4},{"trial_n":47,"min":85,"max":170,"target":"absent","response":"absent","rt":881.5999994278,"correct":true,"confidence":4},{"trial_n":48,"min":85,"max":170,"target":"absent","response":"absent","rt":855.5999994278,"correct":true,"confidence":3},{"trial_n":49,"min":86,"max":169,"target":"present","response":"present","rt":741.89999961853,"correct":true,"confidence":4},{"trial_n":50,"min":86,"max":169,"target":"present","response":"present","rt":731.60000038147,"correct":true,"confidence":4},{"trial_n":51,"min":87,"max":168,"target":"absent","response":"absent","rt":1520.4000005722,"correct":true,"confidence":1},{"trial_n":52,"min":87,"max":168,"target":"present","response":"present","rt":2159.1999998093,"correct":true,"confidence":5},{"trial_n":53,"min":88,"max":167,"target":"absent","response":"absent","rt":1267.9000005722,"correct":true,"confidence":4},{"trial_n":54,"min":88,"max":167,"target":"present","response":"present","rt":757.5,"correct":true,"confidence":3},{"trial_n":55,"min":89,"max":166,"target":"present","response":"absent","rt":652.4000005722,"correct":false,"confidence":5},{"trial_n":56,"min":88,"max":167,"target":"present","response":"present","rt":767.30000019073,"correct":true,"confidence":5},{"trial_n":57,"min":88,"max":167,"target":"present","response":"present","rt":866.10000038147,"correct":true,"confidence":5},{"trial_n":58,"min":89,"max":166,"target":"absent","response":"absent","rt":695.89999961853,"correct":true,"confidence":5},{"trial_n":59,"min":89,"max":166,"target":"present","response":"absent","rt":661.30000019073,"correct":false,"confidence":2},{"trial_n":60,"min":88,"max":167,"target":"absent","response":"present","rt":672,"correct":false,"confidence":5},{"trial_n":61,"min":87,"max":168,"target":"present","response":"present","rt":753.69999980927,"correct":true,"confidence":5},{"trial_n":62,"min":87,"max":168,"target":"present","response":"absent","rt":725.0999994278,"correct":false,"confidence":1},{"trial_n":63,"min":86,"max":169,"target":"present","response":"absent","rt":663.20000076294,"correct":false,"confidence":5},{"trial_n":64,"min":85,"max":170,"target":"present","response":"present","rt":593.89999961853,"correct":true,"confidence":5},{"trial_n":65,"min":85,"max":170,"target":"present","response":"absent","rt":517.5,"correct":false,"confidence":3},{"trial_n":66,"min":84,"max":171,"target":"absent","response":"absent","rt":833.5999994278,"correct":true,"confidence":3},{"trial_n":67,"min":84,"max":171,"target":"present","response":"present","rt":1199.1000003815,"correct":true,"confidence":4},{"trial_n":68,"min":85,"max":170,"target":"present","response":"present","rt":835.5,"correct":true,"confidence":4},{"trial_n":69,"min":85,"max":170,"target":"absent","response":"absent","rt":633.30000019073,"correct":true,"confidence":5},{"trial_n":70,"min":86,"max":169,"target":"absent","response":"absent","rt":573.69999980927,"correct":true,"confidence":5},{"trial_n":71,"min":41,"max":214,"target":"present","response":"absent","rt":4360.9000005722,"correct":false,"confidence":-1},{"trial_n":72,"min":41,"max":214,"target":"present","response":"present","rt":341.69999980927,"correct":true,"confidence":-1},{"trial_n":73,"min":41,"max":214,"target":"absent","response":"absent","rt":435.19999980927,"correct":true,"confidence":-1},{"trial_n":74,"min":57,"max":198,"target":"absent","response":"absent","rt":202.5,"correct":true,"confidence":-1},{"trial_n":75,"min":57,"max":198,"target":"present","response":"present","rt":1476.6000003815,"correct":true,"confidence":-1},{"trial_n":76,"min":73,"max":182,"target":"present","response":"present","rt":264.30000019073,"correct":true,"confidence":-1},{"trial_n":77,"min":73,"max":182,"target":"present","response":"present","rt":233.69999980927,"correct":true,"confidence":-1},{"trial_n":78,"min":89,"max":166,"target":"absent","response":"absent","rt":256.30000019073,"correct":true,"confidence":-1},{"trial_n":79,"min":89,"max":166,"target":"present","response":"present","rt":450.39999961853,"correct":true,"confidence":-1},{"trial_n":80,"min":105,"max":150,"target":"present","response":"present","rt":453.30000019073,"correct":true,"confidence":-1},{"trial_n":81,"min":105,"max":150,"target":"present","response":"present","rt":690.5999994278,"correct":true,"confidence":-1},{"trial_n":82,"min":113,"max":142,"target":"present","response":"present","rt":205.60000038147,"correct":true,"confidence":-1},{"trial_n":83,"min":113,"max":142,"target":"present","response":"absent","rt":85.099999427795,"correct":false,"confidence":-1},{"trial_n":84,"min":105,"max":150,"target":"present","response":"absent","rt":582.60000038147,"correct":false,"confidence":-1},{"trial_n":85,"min":97,"max":158,"target":"present","response":"present","rt":751.5,"correct":true,"confidence":-1},{"trial_n":86,"min":97,"max":158,"target":"present","response":"present","rt":857.60000038147,"correct":true,"confidence":-1},{"trial_n":87,"min":105,"max":150,"target":"present","response":"present","rt":484,"correct":true,"confidence":-1},{"trial_n":88,"min":105,"max":150,"target":"present","response":"absent","rt":193,"correct":false,"confidence":-1},{"trial_n":89,"min":97,"max":158,"target":"absent","response":"present","rt":263.89999961853,"correct":false,"confidence":-1},{"trial_n":90,"min":89,"max":166,"target":"present","response":"present","rt":137.4000005722,"correct":true,"confidence":-1},{"trial_n":91,"min":89,"max":166,"target":"present","response":"present","rt":408.19999980927,"correct":true,"confidence":5},{"trial_n":92,"min":93,"max":162,"target":"absent","response":"absent","rt":302.70000076294,"correct":true,"confidence":4},{"trial_n":93,"min":93,"max":162,"target":"absent","response":"absent","rt":1140.1999998093,"correct":true,"confidence":5},{"trial_n":94,"min":97,"max":158,"target":"absent","response":"present","rt":1651.1000003815,"correct":false,"confidence":4},{"trial_n":95,"min":93,"max":162,"target":"absent","response":"present","rt":1009.8999996185,"correct":false,"confidence":3},{"trial_n":96,"min":89,"max":166,"target":"present","response":"present","rt":462.60000038147,"correct":true,"confidence":3},{"trial_n":97,"min":89,"max":166,"target":"absent","response":"absent","rt":923.19999980927,"correct":true,"confidence":5},{"trial_n":98,"min":93,"max":162,"target":"absent","response":"present","rt":2982.1000003815,"correct":false,"confidence":3},{"trial_n":99,"min":89,"max":166,"target":"present","response":"present","rt":586,"correct":true,"confidence":5},{"trial_n":100,"min":89,"max":166,"target":"absent","response":"present","rt":1392.7999992371,"correct":false,"confidence":5},{"trial_n":101,"min":87,"max":168,"target":"present","response":"present","rt":1526.1000003815,"correct":true,"confidence":3},{"trial_n":102,"min":87,"max":168,"target":"absent","response":"absent","rt":995.30000019073,"correct":true,"confidence":1},{"trial_n":103,"min":89,"max":166,"target":"present","response":"present","rt":722,"correct":true,"confidence":5},{"trial_n":104,"min":89,"max":166,"target":"present","response":"present","rt":517.39999961853,"correct":true,"confidence":4},{"trial_n":105,"min":91,"max":164,"target":"absent","response":"absent","rt":921.5,"correct":true,"confidence":4},{"trial_n":106,"min":91,"max":164,"target":"absent","response":"absent","rt":1866.8000001907,"correct":true,"confidence":5},{"trial_n":107,"min":93,"max":162,"target":"absent","response":"absent","rt":943.20000076294,"correct":true,"confidence":5},{"trial_n":108,"min":93,"max":162,"target":"absent","response":"present","rt":567.69999980927,"correct":false,"confidence":4},{"trial_n":109,"min":91,"max":164,"target":"present","response":"present","rt":741.39999961853,"correct":true,"confidence":4},{"trial_n":110,"min":91,"max":164,"target":"absent","response":"present","rt":826,"correct":false,"confidence":4},{"trial_n":111,"min":90,"max":165,"target":"present","response":"present","rt":734.5,"correct":true,"confidence":5},{"trial_n":112,"min":90,"max":165,"target":"present","response":"present","rt":682.60000038147,"correct":true,"confidence":3},{"trial_n":113,"min":91,"max":164,"target":"absent","response":"absent","rt":765.80000019073,"correct":true,"confidence":4},{"trial_n":114,"min":91,"max":164,"target":"absent","response":"present","rt":1462.5,"correct":false,"confidence":5},{"trial_n":115,"min":90,"max":165,"target":"absent","response":"absent","rt":760,"correct":true,"confidence":1},{"trial_n":116,"min":90,"max":165,"target":"absent","response":"present","rt":1565.7000007629,"correct":false,"confidence":1},{"trial_n":117,"min":89,"max":166,"target":"absent","response":"present","rt":683.5999994278,"correct":false,"confidence":3},{"trial_n":118,"min":88,"max":167,"target":"absent","response":"present","rt":822.39999961853,"correct":false,"confidence":4},{"trial_n":119,"min":87,"max":168,"target":"absent","response":"present","rt":1814.1999998093,"correct":false,"confidence":1},{"trial_n":120,"min":86,"max":169,"target":"absent","response":"present","rt":701.29999923706,"correct":false,"confidence":1},{"trial_n":121,"min":85,"max":170,"target":"present","response":"present","rt":1268,"correct":true,"confidence":4},{"trial_n":122,"min":85,"max":170,"target":"absent","response":"absent","rt":1503.7000007629,"correct":true,"confidence":4},{"trial_n":123,"min":86,"max":169,"target":"absent","response":"absent","rt":1567.6999998093,"correct":true,"confidence":4},{"trial_n":124,"min":86,"max":169,"target":"present","response":"present","rt":872.60000038147,"correct":true,"confidence":5},{"trial_n":125,"min":87,"max":168,"target":"present","response":"present","rt":877.39999961853,"correct":true,"confidence":4},{"trial_n":126,"min":87,"max":168,"target":"present","response":"present","rt":442.89999961853,"correct":true,"confidence":5},{"trial_n":127,"min":88,"max":167,"target":"absent","response":"present","rt":2711.9000005722,"correct":false,"confidence":1},{"trial_n":128,"min":87,"max":168,"target":"present","response":"absent","rt":877.5,"correct":false,"confidence":5},{"trial_n":129,"min":86,"max":169,"target":"absent","response":"absent","rt":1552,"correct":true,"confidence":3},{"trial_n":130,"min":86,"max":169,"target":"present","response":"present","rt":455.60000038147,"correct":true,"confidence":5},{"trial_n":131,"min":87,"max":168,"target":"present","response":"present","rt":703,"correct":true,"confidence":5},{"trial_n":132,"min":87,"max":168,"target":"present","response":"present","rt":636.39999961853,"correct":true,"confidence":4},{"trial_n":133,"min":88,"max":167,"target":"absent","response":"absent","rt":643.39999961853,"correct":true,"confidence":4},{"trial_n":134,"min":88,"max":167,"target":"present","response":"absent","rt":523.30000019073,"correct":false,"confidence":4},{"trial_n":135,"min":87,"max":168,"target":"absent","response":"present","rt":894.60000038147,"correct":false,"confidence":1},{"trial_n":136,"min":86,"max":169,"target":"present","response":"present","rt":740.5999994278,"correct":true,"confidence":4},{"trial_n":137,"min":86,"max":169,"target":"present","response":"present","rt":510.5,"correct":true,"confidence":5},{"trial_n":138,"min":87,"max":168,"target":"absent","response":"present","rt":1135.1999998093,"correct":false,"confidence":1},{"trial_n":139,"min":86,"max":169,"target":"absent","response":"present","rt":585.5999994278,"correct":false,"confidence":1},{"trial_n":140,"min":85,"max":170,"target":"absent","response":"absent","rt":1125.8000001907,"correct":true,"confidence":5}]