[{"trial_n":1,"span":8,"encoder":"28201109","distractor":"28201209","target":"present","response":"present","rt":"3276.5","correct":true,"confidence":-1},{"trial_n":2,"span":8,"encoder":"50034607","distractor":"50034707","target":"present","response":"present","rt":"2541.099999994","correct":true,"confidence":-1},{"trial_n":3,"span":10,"encoder":"7200479694","distractor":"7202479694","target":"absent","response":"present","rt":"4842.1999999881","correct":false,"confidence":-1},{"trial_n":4,"span":8,"encoder":"33315308","distractor":"53315308","target":"absent","response":"present","rt":"2524.1999999881","correct":false,"confidence":-1},{"trial_n":5,"span":6,"encoder":"382237","distractor":"382737","target":"present","response":"present","rt":"1762.099999994","correct":true,"confidence":-1},{"trial_n":6,"span":6,"encoder":"960541","distractor":"950541","target":"present","response":"present","rt":"1959.6999999881","correct":true,"confidence":-1},{"trial_n":7,"span":8,"encoder":"46150055","distractor":"46950055","target":"absent","response":"absent","rt":"4057","correct":true,"confidence":-1},{"trial_n":8,"span":8,"encoder":"67314716","distractor":"67354716","target":"present","response":"present","rt":"2732.3000000119","correct":true,"confidence":-1},{"trial_n":9,"span":10,"encoder":"0866750101","distractor":"0866757101","target":"present","response":"present","rt":"4160.2999999821","correct":true,"confidence":-1},{"trial_n":10,"span":10,"encoder":"8267612333","distractor":"8267912333","target":"present","response":"absent","rt":"3695.8000000119","correct":false,"confidence":-1},{"trial_n":11,"span":8,"encoder":"07617812","distractor":"07617872","target":"absent","response":"absent","rt":"2766.7999999821","correct":true,"confidence":-1},{"trial_n":12,"span":8,"encoder":"02203674","distractor":"02303674","target":"absent","response":"absent","rt":"2037.5","correct":true,"confidence":-1},{"trial_n":13,"span":9,"encoder":"522970853","distractor":"522970852","target":"absent","response":"present","rt":"3831.400000006","correct":false,"confidence":-1},{"trial_n":14,"span":8,"encoder":"38027488","distractor":"38087488","target":"present","response":"present","rt":"219110.80000001","correct":true,"confidence":-1},{"trial_n":15,"span":8,"encoder":"99078003","distractor":"99078403","target":"absent","response":"absent","rt":"896.30000001192","correct":true,"confidence":-1},{"trial_n":16,"span":9,"encoder":"565625822","distractor":"865625822","target":"present","response":"present","rt":"1105.1999999881","correct":true,"confidence":-1},{"trial_n":17,"span":9,"encoder":"651777652","distractor":"671777652","target":"present","response":"absent","rt":"19949.399999976","correct":false,"confidence":-1},{"trial_n":18,"span":8,"encoder":"07407744","distractor":"07407344","target":"present","response":"absent","rt":"15793.599999994","correct":false,"confidence":-1},{"trial_n":19,"span":7,"encoder":"5990715","distractor":"5790715","target":"absent","response":"present","rt":"12117.699999988","correct":false,"confidence":-1},{"trial_n":20,"span":6,"encoder":"823544","distractor":"823144","target":"absent","response":"present","rt":"1526.400000006","correct":false,"confidence":-1},{"trial_n":21,"span":5,"encoder":"04919","distractor":"04519","target":"present","response":"present","rt":"1985.5","correct":true,"confidence":2},{"trial_n":22,"span":5,"encoder":"58559","distractor":"58558","target":"present","response":"absent","rt":"301.89999997616","correct":false,"confidence":4},{"trial_n":23,"span":4,"encoder":"6635","distractor":"6625","target":"absent","response":"present","rt":"790.60000002384","correct":false,"confidence":2},{"trial_n":24,"span":3,"encoder":"732","distractor":"232","target":"absent","response":"absent","rt":"878.29999998212","correct":true,"confidence":4},{"trial_n":25,"span":3,"encoder":"997","distractor":"994","target":"present","response":"present","rt":"395.70000001788","correct":true,"confidence":2},{"trial_n":26,"span":4,"encoder":"6345","distractor":"6945","target":"absent","response":"absent","rt":"823.40000000596","correct":true,"confidence":2},{"trial_n":27,"span":4,"encoder":"8937","distractor":"6937","target":"present","response":"present","rt":"976.90000000596","correct":true,"confidence":5},{"trial_n":28,"span":5,"encoder":"50948","distractor":"54948","target":"absent","response":"absent","rt":"905.30000001192","correct":true,"confidence":5},{"trial_n":29,"span":5,"encoder":"37750","distractor":"37780","target":"present","response":"present","rt":"955.5","correct":true,"confidence":5},{"trial_n":30,"span":6,"encoder":"341805","distractor":"340805","target":"present","response":"present","rt":"1091.2000000179","correct":true,"confidence":4},{"trial_n":31,"span":6,"encoder":"241320","distractor":"241328","target":"present","response":"present","rt":"1584","correct":true,"confidence":3},{"trial_n":32,"span":7,"encoder":"2106218","distractor":"2806218","target":"absent","response":"present","rt":"2668.7000000179","correct":false,"confidence":2},{"trial_n":33,"span":6,"encoder":"137649","distractor":"187649","target":"present","response":"present","rt":"886.5","correct":true,"confidence":3},{"trial_n":34,"span":6,"encoder":"749094","distractor":"649094","target":"absent","response":"present","rt":"1462.599999994","correct":false,"confidence":3},{"trial_n":35,"span":5,"encoder":"49871","distractor":"49861","target":"absent","response":"present","rt":"1096.2000000179","correct":false,"confidence":3},{"trial_n":36,"span":4,"encoder":"7771","distractor":"7671","target":"present","response":"present","rt":"2641.6999999881","correct":true,"confidence":3},{"trial_n":37,"span":4,"encoder":"8201","distractor":"1201","target":"present","response":"present","rt":"880.30000001192","correct":true,"confidence":4},{"trial_n":38,"span":5,"encoder":"58995","distractor":"58905","target":"present","response":"present","rt":"969.40000000596","correct":true,"confidence":4},{"trial_n":39,"span":5,"encoder":"27063","distractor":"07063","target":"present","response":"present","rt":"1772.400000006","correct":true,"confidence":3},{"trial_n":40,"span":6,"encoder":"061548","distractor":"068548","target":"present","response":"present","rt":"864","correct":true,"confidence":3},{"trial_n":41,"span":6,"encoder":"742281","distractor":"742289","target":"present","response":"present","rt":"1649.400000006","correct":true,"confidence":3},{"trial_n":42,"span":7,"encoder":"7320594","distractor":"7350594","target":"present","response":"absent","rt":"655","correct":false,"confidence":3},{"trial_n":43,"span":6,"encoder":"420761","distractor":"420763","target":"absent","response":"absent","rt":"1246.3000000119","correct":true,"confidence":4},{"trial_n":44,"span":6,"encoder":"504294","distractor":"505294","target":"present","response":"present","rt":"965.70000001788","correct":true,"confidence":3},{"trial_n":45,"span":7,"encoder":"6915026","distractor":"6985026","target":"present","response":"absent","rt":"904.79999998212","correct":false,"confidence":3},{"trial_n":46,"span":6,"encoder":"083887","distractor":"085887","target":"absent","response":"absent","rt":"1027.900000006","correct":true,"confidence":3},{"trial_n":47,"span":6,"encoder":"240939","distractor":"220939","target":"present","response":"absent","rt":"10140.199999988","correct":false,"confidence":2},{"trial_n":48,"span":5,"encoder":"68853","distractor":"78853","target":"present","response":"absent","rt":"2602.400000006","correct":false,"confidence":1},{"trial_n":49,"span":4,"encoder":"2678","distractor":"2638","target":"absent","response":"present","rt":"1216.3000000119","correct":false,"confidence":4},{"trial_n":50,"span":3,"encoder":"856","distractor":"852","target":"present","response":"present","rt":"2291.900000006","correct":true,"confidence":3},{"trial_n":51,"span":3,"encoder":"451","distractor":"251","target":"absent","response":"absent","rt":"1393.400000006","correct":true,"confidence":5},{"trial_n":52,"span":4,"encoder":"0365","distractor":"0360","target":"present","response":"present","rt":"1376.3000000119","correct":true,"confidence":5},{"trial_n":53,"span":4,"encoder":"5504","distractor":"5704","target":"absent","response":"absent","rt":"1086.7000000179","correct":true,"confidence":5},{"trial_n":54,"span":5,"encoder":"29694","distractor":"25694","target":"absent","response":"absent","rt":"1521.599999994","correct":true,"confidence":5},{"trial_n":55,"span":5,"encoder":"80230","distractor":"80239","target":"absent","response":"absent","rt":"1977","correct":true,"confidence":5},{"trial_n":56,"span":6,"encoder":"818747","distractor":"888747","target":"absent","response":"absent","rt":"1483.1999999881","correct":true,"confidence":5},{"trial_n":57,"span":6,"encoder":"762023","distractor":"762063","target":"absent","response":"absent","rt":"3853.2999999821","correct":true,"confidence":5},{"trial_n":58,"span":7,"encoder":"2503475","distractor":"2513475","target":"absent","response":"absent","rt":"1255.2999999821","correct":true,"confidence":5},{"trial_n":59,"span":7,"encoder":"7767300","distractor":"7767302","target":"present","response":"present","rt":"3943.6000000238","correct":true,"confidence":3},{"trial_n":60,"span":8,"encoder":"74792213","distractor":"74792233","target":"present","response":"present","rt":"4349.3000000119","correct":true,"confidence":4},{"trial_n":61,"span":8,"encoder":"30572520","distractor":"30592520","target":"absent","response":"absent","rt":"2529.8000000119","correct":true,"confidence":2},{"trial_n":62,"span":9,"encoder":"780825033","distractor":"780824033","target":"present","response":"present","rt":"3605.599999994","correct":true,"confidence":4},{"trial_n":63,"span":9,"encoder":"589314103","distractor":"589314108","target":"absent","response":"absent","rt":"4877","correct":true,"confidence":5},{"trial_n":64,"span":10,"encoder":"3393668717","distractor":"3393668797","target":"absent","response":"present","rt":"3409.3000000119","correct":false,"confidence":4},{"trial_n":65,"span":9,"encoder":"986259324","distractor":"986253324","target":"absent","response":"absent","rt":"3867.5","correct":true,"confidence":5},{"trial_n":66,"span":9,"encoder":"159814393","distractor":"159814093","target":"present","response":"present","rt":"4022.099999994","correct":true,"confidence":2},{"trial_n":67,"span":10,"encoder":"4072722738","distractor":"4072722798","target":"absent","response":"absent","rt":"3761","correct":true,"confidence":5},{"trial_n":68,"span":10,"encoder":"8199294375","distractor":"8179294375","target":"absent","response":"absent","rt":"3796","correct":true,"confidence":3},{"trial_n":69,"span":11,"encoder":"75661429418","distractor":"75661421418","target":"absent","response":"present","rt":"7575.2999999821","correct":false,"confidence":1},{"trial_n":70,"span":10,"encoder":"4820892932","distractor":"4860892932","target":"absent","response":"absent","rt":"5489.099999994","correct":true,"confidence":5},{"trial_n":71,"span":8,"encoder":"96052438","distractor":"96057438","target":"present","response":"present","rt":"3574.400000006","correct":true,"confidence":-1},{"trial_n":72,"span":8,"encoder":"84045370","distractor":"84045670","target":"present","response":"present","rt":"4090.8000000119","correct":true,"confidence":-1},{"trial_n":73,"span":9,"encoder":"079481058","distractor":"079421058","target":"absent","response":"absent","rt":"6361.7999999821","correct":true,"confidence":-1},{"trial_n":74,"span":9,"encoder":"696803618","distractor":"696203618","target":"absent","response":"present","rt":"6073.099999994","correct":false,"confidence":-1},{"trial_n":75,"span":8,"encoder":"42088987","distractor":"42058987","target":"present","response":"present","rt":"5141.8000000119","correct":true,"confidence":-1},{"trial_n":76,"span":8,"encoder":"64787512","distractor":"64787517","target":"absent","response":"present","rt":"7349.099999994","correct":false,"confidence":-1},{"trial_n":77,"span":7,"encoder":"4064763","distractor":"4164763","target":"absent","response":"absent","rt":"6130.7000000179","correct":true,"confidence":-1},{"trial_n":78,"span":7,"encoder":"8976070","distractor":"8979070","target":"present","response":"absent","rt":"7076.3000000119","correct":false,"confidence":-1},{"trial_n":79,"span":6,"encoder":"926944","distractor":"726944","target":"absent","response":"absent","rt":"238.5","correct":true,"confidence":-1},{"trial_n":80,"span":6,"encoder":"217309","distractor":"117309","target":"present","response":"absent","rt":"48.90000000596","correct":false,"confidence":-1},{"trial_n":81,"span":5,"encoder":"47052","distractor":"40052","target":"absent","response":"absent","rt":"16.799999982119","correct":true,"confidence":-1},{"trial_n":82,"span":5,"encoder":"09307","distractor":"06307","target":"absent","response":"present","rt":"74.90000000596","correct":false,"confidence":-1},{"trial_n":83,"span":4,"encoder":"0167","distractor":"7167","target":"absent","response":"absent","rt":"18.59999999404","correct":true,"confidence":-1},{"trial_n":84,"span":4,"encoder":"4424","distractor":"4421","target":"absent","response":"absent","rt":"114.59999999404","correct":true,"confidence":-1},{"trial_n":85,"span":5,"encoder":"47386","distractor":"07386","target":"present","response":"absent","rt":"72.700000017881","correct":false,"confidence":-1},{"trial_n":86,"span":4,"encoder":"4459","distractor":"4659","target":"present","response":"absent","rt":"64.699999988079","correct":false,"confidence":-1},{"trial_n":87,"span":3,"encoder":"688","distractor":"682","target":"absent","response":"absent","rt":"10.199999988079","correct":true,"confidence":-1},{"trial_n":88,"span":3,"encoder":"470","distractor":"170","target":"present","response":"absent","rt":"173.40000000596","correct":false,"confidence":-1},{"trial_n":89,"span":2,"encoder":"40","distractor":"41","target":"absent","response":"absent","rt":"51.199999988079","correct":true,"confidence":-1},{"trial_n":90,"span":2,"encoder":"74","distractor":"78","target":"present","response":"absent","rt":"32.299999982119","correct":false,"confidence":-1},{"trial_n":91,"span":2,"encoder":"93","distractor":"98","target":"absent","response":"present","rt":"293.30000001192","correct":false,"confidence":2},{"trial_n":92,"span":2,"encoder":"38","distractor":"48","target":"present","response":"absent","rt":"119.39999997616","correct":false,"confidence":4},{"trial_n":93,"span":2,"encoder":"84","distractor":"87","target":"absent","response":"absent","rt":"15.59999999404","correct":true,"confidence":4},{"trial_n":94,"span":2,"encoder":"43","distractor":"23","target":"absent","response":"absent","rt":"43.100000023842","correct":true,"confidence":3},{"trial_n":95,"span":3,"encoder":"176","distractor":"171","target":"absent","response":"absent","rt":"20","correct":true,"confidence":5},{"trial_n":96,"span":3,"encoder":"781","distractor":"881","target":"present","response":"present","rt":"101.19999998808","correct":true,"confidence":3},{"trial_n":97,"span":4,"encoder":"4556","distractor":"4551","target":"present","response":"absent","rt":"15.800000011921","correct":false,"confidence":3},{"trial_n":98,"span":3,"encoder":"495","distractor":"496","target":"absent","response":"absent","rt":"102.89999997616","correct":true,"confidence":5},{"trial_n":99,"span":3,"encoder":"334","distractor":"364","target":"present","response":"absent","rt":"79.40000000596","correct":false,"confidence":2},{"trial_n":100,"span":2,"encoder":"71","distractor":"76","target":"present","response":"present","rt":"4.5","correct":true,"confidence":3},{"trial_n":101,"span":2,"encoder":"98","distractor":"93","target":"present","response":"absent","rt":"114.20000001788","correct":false,"confidence":2},{"trial_n":102,"span":2,"encoder":"37","distractor":"27","target":"absent","response":"present","rt":"1.5","correct":false,"confidence":4},{"trial_n":103,"span":2,"encoder":"03","distractor":"93","target":"absent","response":"present","rt":"125.70000001788","correct":false,"confidence":2},{"trial_n":104,"span":2,"encoder":"94","distractor":"44","target":"present","response":"absent","rt":"-1.0999999940395","correct":false,"confidence":4},{"trial_n":105,"span":2,"encoder":"57","distractor":"97","target":"present","response":"present","rt":"93.699999988079","correct":true,"confidence":1},{"trial_n":106,"span":2,"encoder":"25","distractor":"23","target":"present","response":"present","rt":"44.5","correct":true,"confidence":1},{"trial_n":107,"span":3,"encoder":"948","distractor":"944","target":"present","response":"present","rt":"46.90000000596","correct":true,"confidence":2},{"trial_n":108,"span":3,"encoder":"735","distractor":"785","target":"absent","response":"present","rt":"94.09999999404","correct":false,"confidence":4},{"trial_n":109,"span":2,"encoder":"17","distractor":"67","target":"present","response":"present","rt":"8.1999999880791","correct":true,"confidence":3},{"trial_n":110,"span":2,"encoder":"21","distractor":"61","target":"absent","response":"present","rt":"106.70000001788","correct":false,"confidence":4},{"trial_n":111,"span":2,"encoder":"17","distractor":"67","target":"absent","response":"present","rt":"509.20000001788","correct":false,"confidence":2},{"trial_n":112,"span":2,"encoder":"52","distractor":"22","target":"present","response":"absent","rt":"96.40000000596","correct":false,"confidence":4},{"trial_n":113,"span":2,"encoder":"42","distractor":"52","target":"absent","response":"present","rt":"109.19999998808","correct":false,"confidence":3},{"trial_n":114,"span":2,"encoder":"34","distractor":"04","target":"present","response":"present","rt":"36.90000000596","correct":true,"confidence":1},{"trial_n":115,"span":2,"encoder":"29","distractor":"20","target":"present","response":"absent","rt":"51.100000023842","correct":false,"confidence":2},{"trial_n":116,"span":2,"encoder":"16","distractor":"26","target":"absent","response":"absent","rt":"63.90000000596","correct":true,"confidence":1},{"trial_n":117,"span":2,"encoder":"98","distractor":"99","target":"absent","response":"absent","rt":"154.19999998808","correct":true,"confidence":3},{"trial_n":118,"span":3,"encoder":"510","distractor":"520","target":"absent","response":"present","rt":"664.69999998808","correct":false,"confidence":4},{"trial_n":119,"span":2,"encoder":"15","distractor":"19","target":"present","response":"present","rt":"39","correct":true,"confidence":4},{"trial_n":120,"span":2,"encoder":"96","distractor":"26","target":"present","response":"present","rt":"11.699999988079","correct":true,"confidence":2},{"trial_n":121,"span":3,"encoder":"016","distractor":"216","target":"absent","response":"absent","rt":"4.9000000059605","correct":true,"confidence":4},{"trial_n":122,"span":3,"encoder":"393","distractor":"399","target":"absent","response":"absent","rt":"183.90000000596","correct":true,"confidence":2},{"trial_n":123,"span":4,"encoder":"7319","distractor":"7419","target":"absent","response":"absent","rt":"225.69999998808","correct":true,"confidence":4},{"trial_n":124,"span":4,"encoder":"7706","distractor":"7726","target":"absent","response":"absent","rt":"115.5","correct":true,"confidence":1},{"trial_n":125,"span":5,"encoder":"03967","distractor":"63967","target":"present","response":"present","rt":"87.700000017881","correct":true,"confidence":4},{"trial_n":126,"span":5,"encoder":"99755","distractor":"99785","target":"present","response":"present","rt":"0.099999994039536","correct":true,"confidence":3},{"trial_n":127,"span":6,"encoder":"468329","distractor":"568329","target":"present","response":"absent","rt":"125.39999997616","correct":false,"confidence":2},{"trial_n":128,"span":5,"encoder":"21628","distractor":"21625","target":"present","response":"present","rt":"174.09999999404","correct":true,"confidence":2},{"trial_n":129,"span":5,"encoder":"85645","distractor":"86645","target":"present","response":"absent","rt":"168.59999999404","correct":false,"confidence":4},{"trial_n":130,"span":4,"encoder":"8636","distractor":"8635","target":"absent","response":"absent","rt":"24","correct":true,"confidence":1},{"trial_n":131,"span":4,"encoder":"9394","distractor":"9374","target":"present","response":"present","rt":"139.60000002384","correct":true,"confidence":3},{"trial_n":132,"span":5,"encoder":"71512","distractor":"71513","target":"absent","response":"absent","rt":"27.800000011921","correct":true,"confidence":4},{"trial_n":133,"span":5,"encoder":"27774","distractor":"27974","target":"absent","response":"present","rt":"57.90000000596","correct":false,"confidence":3},{"trial_n":134,"span":4,"encoder":"7491","distractor":"3491","target":"present","response":"absent","rt":"2.2999999821186","correct":false,"confidence":1},{"trial_n":135,"span":3,"encoder":"012","distractor":"112","target":"absent","response":"present","rt":"98.300000011921","correct":false,"confidence":4},{"trial_n":136,"span":2,"encoder":"59","distractor":"49","target":"present","response":"present","rt":"117.30000001192","correct":true,"confidence":2},{"trial_n":137,"span":2,"encoder":"84","distractor":"74","target":"present","response":"present","rt":"-0.90000000596046","correct":true,"confidence":4},{"trial_n":138,"span":3,"encoder":"978","distractor":"970","target":"present","response":"absent","rt":"114","correct":false,"confidence":2},{"trial_n":139,"span":2,"encoder":"67","distractor":"64","target":"absent","response":"absent","rt":"41.600000023842","correct":true,"confidence":4},{"trial_n":140,"span":2,"encoder":"40","distractor":"50","target":"present","response":"absent","rt":"87.5","correct":false,"confidence":2}]