[{"trial_n":1,"span":8,"encoder":"09898008","distractor":"09818008","target":"present","response":"absent","rt":"3389.7000007629","correct":false,"confidence":-1},{"trial_n":2,"span":6,"encoder":"919599","distractor":"219599","target":"present","response":"present","rt":"1712.1000003815","correct":true,"confidence":-1},{"trial_n":3,"span":6,"encoder":"686554","distractor":"686574","target":"absent","response":"absent","rt":"2189.2000007629","correct":true,"confidence":-1},{"trial_n":4,"span":8,"encoder":"76690643","distractor":"76690647","target":"absent","response":"absent","rt":"1090.7000007629","correct":true,"confidence":-1},{"trial_n":5,"span":8,"encoder":"42524356","distractor":"42524352","target":"present","response":"present","rt":"993.5","correct":true,"confidence":-1},{"trial_n":6,"span":10,"encoder":"6480879426","distractor":"6483879426","target":"present","response":"present","rt":"2381.5","correct":true,"confidence":-1},{"trial_n":7,"span":10,"encoder":"7952789054","distractor":"7951789054","target":"absent","response":"absent","rt":"1866.1000003815","correct":true,"confidence":-1},{"trial_n":8,"span":12,"encoder":"642115771003","distractor":"642118771003","target":"present","response":"present","rt":"2263","correct":true,"confidence":-1},{"trial_n":9,"span":12,"encoder":"279473240871","distractor":"279413240871","target":"present","response":"present","rt":"1797.8999996185","correct":true,"confidence":-1},{"trial_n":10,"span":14,"encoder":"44611931944068","distractor":"44611931644068","target":"absent","response":"present","rt":"1915.5","correct":false,"confidence":-1},{"trial_n":11,"span":12,"encoder":"155001495436","distractor":"155001497436","target":"absent","response":"absent","rt":"1703","correct":true,"confidence":-1},{"trial_n":12,"span":12,"encoder":"121623957872","distractor":"121523957872","target":"present","response":"absent","rt":"2368.6000003815","correct":false,"confidence":-1},{"trial_n":13,"span":11,"encoder":"86898039933","distractor":"86898019933","target":"present","response":"present","rt":"1626.2999992371","correct":true,"confidence":-1},{"trial_n":14,"span":11,"encoder":"65489205433","distractor":"65489265433","target":"absent","response":"absent","rt":"1492.1000003815","correct":true,"confidence":-1},{"trial_n":15,"span":12,"encoder":"960460457921","distractor":"960460437921","target":"present","response":"present","rt":"2719.3999996185","correct":true,"confidence":-1},{"trial_n":16,"span":12,"encoder":"299454050299","distractor":"299454050799","target":"present","response":"absent","rt":"1236","correct":false,"confidence":-1},{"trial_n":17,"span":11,"encoder":"20476864318","distractor":"00476864318","target":"absent","response":"present","rt":"1685","correct":false,"confidence":-1},{"trial_n":18,"span":10,"encoder":"8103587025","distractor":"8103587085","target":"present","response":"present","rt":"1407.8999996185","correct":true,"confidence":-1},{"trial_n":19,"span":10,"encoder":"3422068690","distractor":"3422068697","target":"absent","response":"absent","rt":"2945.8999996185","correct":true,"confidence":-1},{"trial_n":20,"span":11,"encoder":"83204647316","distractor":"83244647316","target":"absent","response":"absent","rt":"2351.5","correct":true,"confidence":-1},{"trial_n":21,"span":11,"encoder":"48907514095","distractor":"48907514025","target":"present","response":"present","rt":"1763.3999996185","correct":true,"confidence":4},{"trial_n":22,"span":12,"encoder":"581777364811","distractor":"881777364811","target":"absent","response":"present","rt":"2707.8999996185","correct":false,"confidence":3},{"trial_n":23,"span":11,"encoder":"68817231809","distractor":"68817239809","target":"present","response":"present","rt":"2973.2999992371","correct":true,"confidence":4},{"trial_n":24,"span":11,"encoder":"49629968490","distractor":"49629968440","target":"absent","response":"absent","rt":"3584.5","correct":true,"confidence":3},{"trial_n":25,"span":12,"encoder":"785580383845","distractor":"785584383845","target":"present","response":"absent","rt":"4224.8000011444","correct":false,"confidence":2},{"trial_n":26,"span":11,"encoder":"43583389469","distractor":"43583089469","target":"absent","response":"present","rt":"4494.7000007629","correct":false,"confidence":2},{"trial_n":27,"span":10,"encoder":"5743154841","distractor":"5743254841","target":"present","response":"present","rt":"3992.8000011444","correct":true,"confidence":3},{"trial_n":28,"span":10,"encoder":"4557900917","distractor":"4557900217","target":"absent","response":"absent","rt":"2118.5","correct":true,"confidence":4},{"trial_n":29,"span":11,"encoder":"65906166139","distractor":"65906466139","target":"present","response":"present","rt":"3389.8999996185","correct":true,"confidence":3},{"trial_n":30,"span":11,"encoder":"99559603345","distractor":"99559693345","target":"present","response":"present","rt":"1978.1999988556","correct":true,"confidence":3},{"trial_n":31,"span":12,"encoder":"751835957376","distractor":"791835957376","target":"absent","response":"present","rt":"5687.3999996185","correct":false,"confidence":2},{"trial_n":32,"span":11,"encoder":"32565442836","distractor":"32565445836","target":"absent","response":"absent","rt":"4031.7000007629","correct":true,"confidence":3},{"trial_n":33,"span":11,"encoder":"20456508439","distractor":"20456508939","target":"present","response":"present","rt":"2894.5","correct":true,"confidence":3},{"trial_n":34,"span":12,"encoder":"142703484634","distractor":"152703484634","target":"absent","response":"present","rt":"4315.8999996185","correct":false,"confidence":3},{"trial_n":35,"span":11,"encoder":"45557220140","distractor":"45558220140","target":"absent","response":"absent","rt":"3658.6000003815","correct":true,"confidence":3},{"trial_n":36,"span":11,"encoder":"80231038333","distractor":"80231038233","target":"absent","response":"absent","rt":"2979","correct":true,"confidence":4},{"trial_n":37,"span":12,"encoder":"675279782226","distractor":"675279783226","target":"absent","response":"absent","rt":"3373.7999992371","correct":true,"confidence":2},{"trial_n":38,"span":12,"encoder":"052546917159","distractor":"052546917459","target":"present","response":"present","rt":"4766","correct":true,"confidence":2},{"trial_n":39,"span":13,"encoder":"7584680313014","distractor":"7584680013014","target":"present","response":"absent","rt":"4879.8999996185","correct":false,"confidence":3},{"trial_n":40,"span":12,"encoder":"140260033764","distractor":"640260033764","target":"absent","response":"present","rt":"4791.6999988556","correct":false,"confidence":3},{"trial_n":41,"span":11,"encoder":"85228336529","distractor":"85228334529","target":"present","response":"absent","rt":"3857.6000003815","correct":false,"confidence":3},{"trial_n":42,"span":10,"encoder":"4804910528","distractor":"4804910568","target":"absent","response":"present","rt":"2806.0999984741","correct":false,"confidence":3},{"trial_n":43,"span":9,"encoder":"754762420","distractor":"054762420","target":"absent","response":"present","rt":"3919.1999988556","correct":false,"confidence":3},{"trial_n":44,"span":8,"encoder":"44236252","distractor":"44736252","target":"absent","response":"absent","rt":"1699.7000007629","correct":true,"confidence":3},{"trial_n":45,"span":8,"encoder":"03849314","distractor":"03849317","target":"absent","response":"absent","rt":"1267.6000003815","correct":true,"confidence":4},{"trial_n":46,"span":9,"encoder":"159076906","distractor":"159076946","target":"present","response":"present","rt":"2109.6000003815","correct":true,"confidence":3},{"trial_n":47,"span":9,"encoder":"517848430","distractor":"511848430","target":"absent","response":"present","rt":"2652.3999996185","correct":false,"confidence":3},{"trial_n":48,"span":8,"encoder":"12273952","distractor":"12273752","target":"absent","response":"absent","rt":"1583","correct":true,"confidence":4},{"trial_n":49,"span":8,"encoder":"83582194","distractor":"83582894","target":"present","response":"present","rt":"2702.3999996185","correct":true,"confidence":4},{"trial_n":50,"span":9,"encoder":"396963272","distractor":"396923272","target":"absent","response":"absent","rt":"3181.1999988556","correct":true,"confidence":3},{"trial_n":51,"span":9,"encoder":"138357408","distractor":"138307408","target":"present","response":"absent","rt":"4140.3999996185","correct":false,"confidence":3},{"trial_n":52,"span":8,"encoder":"89792358","distractor":"89492358","target":"absent","response":"present","rt":"3515.7999992371","correct":false,"confidence":3},{"trial_n":53,"span":7,"encoder":"1607690","distractor":"1608690","target":"present","response":"present","rt":"1952.9000015259","correct":true,"confidence":3},{"trial_n":54,"span":7,"encoder":"7398945","distractor":"5398945","target":"absent","response":"present","rt":"5812.1000003815","correct":false,"confidence":3},{"trial_n":55,"span":6,"encoder":"564297","distractor":"564097","target":"present","response":"present","rt":"1503.8999996185","correct":true,"confidence":5},{"trial_n":56,"span":6,"encoder":"879834","distractor":"899834","target":"present","response":"present","rt":"2317.8999996185","correct":true,"confidence":4},{"trial_n":57,"span":7,"encoder":"4668525","distractor":"8668525","target":"present","response":"present","rt":"4327.2000007629","correct":true,"confidence":3},{"trial_n":58,"span":7,"encoder":"5452283","distractor":"5452223","target":"present","response":"present","rt":"1908.2999992371","correct":true,"confidence":3},{"trial_n":59,"span":8,"encoder":"60315619","distractor":"60335619","target":"absent","response":"absent","rt":"2367.1000003815","correct":true,"confidence":3},{"trial_n":60,"span":8,"encoder":"72862635","distractor":"72863635","target":"absent","response":"present","rt":"2858.1000003815","correct":false,"confidence":3},{"trial_n":61,"span":7,"encoder":"6000246","distractor":"6000046","target":"present","response":"absent","rt":"2496.5","correct":false,"confidence":3},{"trial_n":62,"span":6,"encoder":"197455","distractor":"197495","target":"present","response":"present","rt":"1827.3999996185","correct":true,"confidence":3},{"trial_n":63,"span":6,"encoder":"262201","distractor":"262202","target":"present","response":"absent","rt":"2742.8000011444","correct":false,"confidence":3},{"trial_n":64,"span":5,"encoder":"76480","distractor":"79480","target":"absent","response":"absent","rt":"2094.7999992371","correct":true,"confidence":3},{"trial_n":65,"span":5,"encoder":"50710","distractor":"50750","target":"absent","response":"present","rt":"2240.2999992371","correct":false,"confidence":3},{"trial_n":66,"span":4,"encoder":"6105","distractor":"6103","target":"present","response":"present","rt":"2992.2000007629","correct":true,"confidence":4},{"trial_n":67,"span":4,"encoder":"6084","distractor":"6083","target":"absent","response":"absent","rt":"1167.7000007629","correct":true,"confidence":3},{"trial_n":68,"span":5,"encoder":"98452","distractor":"92452","target":"present","response":"absent","rt":"2300.1000003815","correct":false,"confidence":4},{"trial_n":69,"span":4,"encoder":"9629","distractor":"9329","target":"present","response":"present","rt":"1417.6000003815","correct":true,"confidence":5},{"trial_n":70,"span":4,"encoder":"2628","distractor":"2648","target":"present","response":"present","rt":"1003.1000003815","correct":true,"confidence":5},{"trial_n":71,"span":8,"encoder":"51051084","distractor":"51751084","target":"present","response":"present","rt":"4597.6000003815","correct":true,"confidence":-1},{"trial_n":72,"span":8,"encoder":"57454217","distractor":"57459217","target":"present","response":"present","rt":"4594.7000007629","correct":true,"confidence":-1},{"trial_n":73,"span":9,"encoder":"552252328","distractor":"552252318","target":"absent","response":"absent","rt":"2297.5999984741","correct":true,"confidence":-1},{"trial_n":74,"span":9,"encoder":"016902796","distractor":"016903796","target":"absent","response":"absent","rt":"3705.8000011444","correct":true,"confidence":-1},{"trial_n":75,"span":10,"encoder":"6571206996","distractor":"6571306996","target":"present","response":"absent","rt":"4512.5","correct":false,"confidence":-1},{"trial_n":76,"span":9,"encoder":"211751655","distractor":"211711655","target":"absent","response":"absent","rt":"5695.3999996185","correct":true,"confidence":-1},{"trial_n":77,"span":9,"encoder":"860178004","distractor":"860178024","target":"present","response":"present","rt":"488.80000114441","correct":true,"confidence":-1},{"trial_n":78,"span":10,"encoder":"1048283706","distractor":"1048243706","target":"present","response":"present","rt":"305.5","correct":true,"confidence":-1},{"trial_n":79,"span":10,"encoder":"9294345327","distractor":"9294345322","target":"absent","response":"absent","rt":"380.70000076294","correct":true,"confidence":-1},{"trial_n":80,"span":11,"encoder":"42074571762","distractor":"42074521762","target":"absent","response":"present","rt":"413.29999923706","correct":false,"confidence":-1},{"trial_n":81,"span":10,"encoder":"3479140729","distractor":"3479140829","target":"absent","response":"absent","rt":"1967.3999996185","correct":true,"confidence":-1},{"trial_n":82,"span":10,"encoder":"2637988877","distractor":"2637988870","target":"present","response":"absent","rt":"2129.4000015259","correct":false,"confidence":-1},{"trial_n":83,"span":9,"encoder":"436643550","distractor":"736643550","target":"present","response":"absent","rt":"229.5","correct":false,"confidence":-1},{"trial_n":84,"span":8,"encoder":"09953596","distractor":"09553596","target":"present","response":"present","rt":"521.19999885559","correct":true,"confidence":-1},{"trial_n":85,"span":8,"encoder":"20875705","distractor":"10875705","target":"absent","response":"present","rt":"439.5","correct":false,"confidence":-1},{"trial_n":86,"span":7,"encoder":"8197557","distractor":"8193557","target":"absent","response":"absent","rt":"359.60000038147","correct":true,"confidence":-1},{"trial_n":87,"span":7,"encoder":"8255518","distractor":"8205518","target":"absent","response":"present","rt":"760.10000038147","correct":false,"confidence":-1},{"trial_n":88,"span":6,"encoder":"035879","distractor":"035876","target":"present","response":"absent","rt":"424.70000076294","correct":false,"confidence":-1},{"trial_n":89,"span":5,"encoder":"67503","distractor":"62503","target":"absent","response":"absent","rt":"1161.1000003815","correct":true,"confidence":-1},{"trial_n":90,"span":5,"encoder":"90006","distractor":"95006","target":"absent","response":"present","rt":"1433.7999992371","correct":false,"confidence":-1},{"trial_n":91,"span":4,"encoder":"0912","distractor":"0812","target":"absent","response":"absent","rt":"2736","correct":true,"confidence":4},{"trial_n":92,"span":4,"encoder":"2424","distractor":"2426","target":"absent","response":"absent","rt":"2818.1000003815","correct":true,"confidence":3},{"trial_n":93,"span":5,"encoder":"25450","distractor":"25453","target":"absent","response":"absent","rt":"2418.7999992371","correct":true,"confidence":3},{"trial_n":94,"span":5,"encoder":"28102","distractor":"28402","target":"present","response":"present","rt":"3578.1000003815","correct":true,"confidence":3},{"trial_n":95,"span":6,"encoder":"620345","distractor":"625345","target":"absent","response":"absent","rt":"3320.5","correct":true,"confidence":3},{"trial_n":96,"span":6,"encoder":"020556","distractor":"020356","target":"absent","response":"absent","rt":"3479.3999996185","correct":true,"confidence":3},{"trial_n":97,"span":7,"encoder":"2510322","distractor":"2510392","target":"absent","response":"absent","rt":"5129.1999988556","correct":true,"confidence":3},{"trial_n":98,"span":7,"encoder":"2961602","distractor":"2981602","target":"absent","response":"absent","rt":"4557.8999996185","correct":true,"confidence":3},{"trial_n":99,"span":8,"encoder":"84541156","distractor":"64541156","target":"present","response":"present","rt":"4300.2000007629","correct":true,"confidence":3},{"trial_n":100,"span":8,"encoder":"60437948","distractor":"60497948","target":"present","response":"absent","rt":"3967.8999996185","correct":false,"confidence":3},{"trial_n":101,"span":7,"encoder":"1765324","distractor":"1765314","target":"absent","response":"absent","rt":"4389","correct":true,"confidence":3},{"trial_n":102,"span":7,"encoder":"3418034","distractor":"3718034","target":"present","response":"absent","rt":"6731.3999996185","correct":false,"confidence":2},{"trial_n":103,"span":6,"encoder":"350116","distractor":"350186","target":"present","response":"present","rt":"2318.2000007629","correct":true,"confidence":3},{"trial_n":104,"span":6,"encoder":"571551","distractor":"561551","target":"present","response":"present","rt":"1764.6999988556","correct":true,"confidence":3},{"trial_n":105,"span":7,"encoder":"0816577","distractor":"6816577","target":"present","response":"present","rt":"2672.2999992371","correct":true,"confidence":3},{"trial_n":106,"span":7,"encoder":"8012947","distractor":"8022947","target":"absent","response":"absent","rt":"5603.3999996185","correct":true,"confidence":3},{"trial_n":107,"span":8,"encoder":"71860624","distractor":"76860624","target":"absent","response":"absent","rt":"5048.2000007629","correct":true,"confidence":3},{"trial_n":108,"span":8,"encoder":"53243760","distractor":"53243761","target":"present","response":"present","rt":"1750.5","correct":true,"confidence":3},{"trial_n":109,"span":9,"encoder":"911586814","distractor":"911586816","target":"present","response":"present","rt":"1798","correct":true,"confidence":3},{"trial_n":110,"span":9,"encoder":"136472231","distractor":"136972231","target":"present","response":"present","rt":"3147.2999992371","correct":true,"confidence":3},{"trial_n":111,"span":10,"encoder":"5980613778","distractor":"5980613775","target":"present","response":"present","rt":"1798","correct":true,"confidence":3},{"trial_n":112,"span":10,"encoder":"6646830663","distractor":"6626830663","target":"present","response":"present","rt":"3931.8000011444","correct":true,"confidence":3},{"trial_n":113,"span":11,"encoder":"17166743245","distractor":"17166741245","target":"present","response":"absent","rt":"4782","correct":false,"confidence":2},{"trial_n":114,"span":10,"encoder":"2912875143","distractor":"2912871143","target":"absent","response":"absent","rt":"2850.8999996185","correct":true,"confidence":3},{"trial_n":115,"span":10,"encoder":"0456813599","distractor":"0456513599","target":"present","response":"present","rt":"5123","correct":true,"confidence":3},{"trial_n":116,"span":11,"encoder":"61209686650","distractor":"61209686350","target":"present","response":"present","rt":"2386.3000011444","correct":true,"confidence":3},{"trial_n":117,"span":11,"encoder":"27491263411","distractor":"67491263411","target":"absent","response":"present","rt":"1996.2000007629","correct":false,"confidence":3},{"trial_n":118,"span":10,"encoder":"7088476871","distractor":"7088476371","target":"present","response":"present","rt":"2221.7000007629","correct":true,"confidence":3},{"trial_n":119,"span":10,"encoder":"9763870625","distractor":"9763370625","target":"present","response":"present","rt":"3685.3999996185","correct":true,"confidence":3},{"trial_n":120,"span":11,"encoder":"48619973654","distractor":"48689973654","target":"present","response":"absent","rt":"6127.5","correct":false,"confidence":3},{"trial_n":121,"span":10,"encoder":"7453059255","distractor":"7053059255","target":"absent","response":"present","rt":"4072.8000011444","correct":false,"confidence":3},{"trial_n":122,"span":9,"encoder":"580110299","distractor":"580110229","target":"present","response":"absent","rt":"5200.5","correct":false,"confidence":2},{"trial_n":123,"span":8,"encoder":"53805609","distractor":"56805609","target":"absent","response":"absent","rt":"3519","correct":true,"confidence":3},{"trial_n":124,"span":8,"encoder":"63161053","distractor":"63166053","target":"absent","response":"absent","rt":"2578.1000003815","correct":true,"confidence":3},{"trial_n":125,"span":9,"encoder":"619213514","distractor":"619213519","target":"absent","response":"absent","rt":"2805.7000007629","correct":true,"confidence":3},{"trial_n":126,"span":9,"encoder":"185618019","distractor":"185614019","target":"present","response":"present","rt":"6319.2999992371","correct":true,"confidence":3},{"trial_n":127,"span":10,"encoder":"8175271144","distractor":"8175275144","target":"absent","response":"absent","rt":"4652.6000003815","correct":true,"confidence":3},{"trial_n":128,"span":10,"encoder":"3557661275","distractor":"3557651275","target":"absent","response":"present","rt":"3572.8999996185","correct":false,"confidence":2},{"trial_n":129,"span":9,"encoder":"666849520","distractor":"661849520","target":"absent","response":"present","rt":"5643.6000003815","correct":false,"confidence":3},{"trial_n":130,"span":8,"encoder":"17583718","distractor":"97583718","target":"present","response":"present","rt":"1889","correct":true,"confidence":3},{"trial_n":131,"span":8,"encoder":"65450758","distractor":"65450258","target":"absent","response":"absent","rt":"2325.6999988556","correct":true,"confidence":3},{"trial_n":132,"span":9,"encoder":"502755826","distractor":"522755826","target":"absent","response":"present","rt":"11261.200000763","correct":false,"confidence":2},{"trial_n":133,"span":8,"encoder":"75795540","distractor":"75797540","target":"present","response":"present","rt":"2822.3000011444","correct":true,"confidence":3},{"trial_n":134,"span":8,"encoder":"10200024","distractor":"10600024","target":"absent","response":"absent","rt":"2519.6999988556","correct":true,"confidence":3},{"trial_n":135,"span":9,"encoder":"076867159","distractor":"076867189","target":"present","response":"present","rt":"2428","correct":true,"confidence":3},{"trial_n":136,"span":9,"encoder":"017980227","distractor":"057980227","target":"absent","response":"absent","rt":"3575.1000003815","correct":true,"confidence":3},{"trial_n":137,"span":10,"encoder":"5454919995","distractor":"5454919994","target":"present","response":"present","rt":"1859.7999992371","correct":true,"confidence":3},{"trial_n":138,"span":10,"encoder":"7533661204","distractor":"7533361204","target":"present","response":"present","rt":"2018.3999996185","correct":true,"confidence":3},{"trial_n":139,"span":11,"encoder":"93391423525","distractor":"93361423525","target":"present","response":"absent","rt":"8137.0999984741","correct":false,"confidence":3},{"trial_n":140,"span":10,"encoder":"7867343290","distractor":"7827343290","target":"present","response":"present","rt":"4573.7999992371","correct":true,"confidence":3}]