[{"trial_n":1,"min":25,"max":230,"target":"present","response":"present","rt":4628.7000000179,"correct":true,"confidence":-1},{"trial_n":2,"min":25,"max":230,"target":"present","response":"absent","rt":894.40000000596,"correct":false,"confidence":-1},{"trial_n":3,"min":9,"max":246,"target":"absent","response":"present","rt":886.79999998212,"correct":false,"confidence":-1},{"trial_n":4,"min":0,"max":255,"target":"absent","response":"absent","rt":2052,"correct":true,"confidence":-1},{"trial_n":5,"min":0,"max":255,"target":"present","response":"present","rt":1336,"correct":true,"confidence":-1},{"trial_n":6,"min":16,"max":239,"target":"absent","response":"absent","rt":709,"correct":true,"confidence":-1},{"trial_n":7,"min":16,"max":239,"target":"absent","response":"absent","rt":506.59999999404,"correct":true,"confidence":-1},{"trial_n":8,"min":32,"max":223,"target":"absent","response":"absent","rt":362.60000002384,"correct":true,"confidence":-1},{"trial_n":9,"min":32,"max":223,"target":"absent","response":"absent","rt":374.59999999404,"correct":true,"confidence":-1},{"trial_n":10,"min":48,"max":207,"target":"present","response":"present","rt":489.60000002384,"correct":true,"confidence":-1},{"trial_n":11,"min":48,"max":207,"target":"present","response":"present","rt":553.30000001192,"correct":true,"confidence":-1},{"trial_n":12,"min":56,"max":199,"target":"present","response":"absent","rt":520.09999999404,"correct":false,"confidence":-1},{"trial_n":13,"min":48,"max":207,"target":"absent","response":"absent","rt":392.29999998212,"correct":true,"confidence":-1},{"trial_n":14,"min":48,"max":207,"target":"absent","response":"absent","rt":461.5,"correct":true,"confidence":-1},{"trial_n":15,"min":56,"max":199,"target":"present","response":"absent","rt":341.30000001192,"correct":false,"confidence":-1},{"trial_n":16,"min":48,"max":207,"target":"absent","response":"absent","rt":2497.5,"correct":true,"confidence":-1},{"trial_n":17,"min":48,"max":207,"target":"present","response":"present","rt":611.69999998808,"correct":true,"confidence":-1},{"trial_n":18,"min":56,"max":199,"target":"absent","response":"absent","rt":835.10000002384,"correct":true,"confidence":-1},{"trial_n":19,"min":56,"max":199,"target":"present","response":"present","rt":416.09999999404,"correct":true,"confidence":-1},{"trial_n":20,"min":64,"max":191,"target":"present","response":"absent","rt":562.39999997616,"correct":false,"confidence":-1},{"trial_n":21,"min":60,"max":195,"target":"absent","response":"present","rt":7909.599999994,"correct":false,"confidence":1},{"trial_n":22,"min":56,"max":199,"target":"absent","response":"present","rt":7392.7000000179,"correct":false,"confidence":3},{"trial_n":23,"min":52,"max":203,"target":"absent","response":"present","rt":770.5,"correct":false,"confidence":3},{"trial_n":24,"min":48,"max":207,"target":"absent","response":"present","rt":1710,"correct":false,"confidence":3},{"trial_n":25,"min":44,"max":211,"target":"present","response":"present","rt":1484.5,"correct":true,"confidence":2},{"trial_n":26,"min":44,"max":211,"target":"present","response":"present","rt":490.29999998212,"correct":true,"confidence":5},{"trial_n":27,"min":48,"max":207,"target":"absent","response":"absent","rt":861.5,"correct":true,"confidence":2},{"trial_n":28,"min":48,"max":207,"target":"present","response":"present","rt":764.09999999404,"correct":true,"confidence":2},{"trial_n":29,"min":52,"max":203,"target":"present","response":"present","rt":1067.400000006,"correct":true,"confidence":5},{"trial_n":30,"min":52,"max":203,"target":"absent","response":"absent","rt":1109.1999999881,"correct":true,"confidence":2},{"trial_n":31,"min":54,"max":201,"target":"absent","response":"present","rt":1736,"correct":false,"confidence":2},{"trial_n":32,"min":52,"max":203,"target":"absent","response":"absent","rt":646.90000000596,"correct":true,"confidence":4},{"trial_n":33,"min":52,"max":203,"target":"absent","response":"absent","rt":663.69999998808,"correct":true,"confidence":3},{"trial_n":34,"min":54,"max":201,"target":"present","response":"present","rt":478.80000001192,"correct":true,"confidence":5},{"trial_n":35,"min":54,"max":201,"target":"absent","response":"absent","rt":521,"correct":true,"confidence":4},{"trial_n":36,"min":56,"max":199,"target":"present","response":"present","rt":631.89999997616,"correct":true,"confidence":3},{"trial_n":37,"min":56,"max":199,"target":"present","response":"present","rt":1115.599999994,"correct":true,"confidence":3},{"trial_n":38,"min":58,"max":197,"target":"absent","response":"absent","rt":874.5,"correct":true,"confidence":3},{"trial_n":39,"min":58,"max":197,"target":"present","response":"absent","rt":768.59999999404,"correct":false,"confidence":2},{"trial_n":40,"min":56,"max":199,"target":"absent","response":"absent","rt":898.09999999404,"correct":true,"confidence":4},{"trial_n":41,"min":56,"max":199,"target":"present","response":"absent","rt":1391.3999999762,"correct":false,"confidence":4},{"trial_n":42,"min":55,"max":200,"target":"present","response":"present","rt":430.59999999404,"correct":true,"confidence":5},{"trial_n":43,"min":55,"max":200,"target":"present","response":"present","rt":628.40000000596,"correct":true,"confidence":5},{"trial_n":44,"min":56,"max":199,"target":"absent","response":"absent","rt":554.40000000596,"correct":true,"confidence":4},{"trial_n":45,"min":56,"max":199,"target":"present","response":"present","rt":433.5,"correct":true,"confidence":5},{"trial_n":46,"min":57,"max":198,"target":"present","response":"absent","rt":532.59999999404,"correct":false,"confidence":4},{"trial_n":47,"min":56,"max":199,"target":"absent","response":"absent","rt":572.30000001192,"correct":true,"confidence":4},{"trial_n":48,"min":56,"max":199,"target":"present","response":"present","rt":311.09999999404,"correct":true,"confidence":5},{"trial_n":49,"min":57,"max":198,"target":"present","response":"present","rt":942.40000000596,"correct":true,"confidence":3},{"trial_n":50,"min":57,"max":198,"target":"absent","response":"present","rt":496.09999999404,"correct":false,"confidence":3},{"trial_n":51,"min":56,"max":199,"target":"absent","response":"present","rt":1159.6999999881,"correct":false,"confidence":3},{"trial_n":52,"min":55,"max":200,"target":"present","response":"absent","rt":461,"correct":false,"confidence":3},{"trial_n":53,"min":54,"max":201,"target":"present","response":"present","rt":591.69999998808,"correct":true,"confidence":3},{"trial_n":54,"min":54,"max":201,"target":"present","response":"present","rt":442.59999999404,"correct":true,"confidence":4},{"trial_n":55,"min":55,"max":200,"target":"absent","response":"absent","rt":526.5,"correct":true,"confidence":3},{"trial_n":56,"min":55,"max":200,"target":"present","response":"present","rt":485.29999998212,"correct":true,"confidence":4},{"trial_n":57,"min":56,"max":199,"target":"absent","response":"absent","rt":938.69999998808,"correct":true,"confidence":2},{"trial_n":58,"min":56,"max":199,"target":"present","response":"present","rt":669.79999998212,"correct":true,"confidence":4},{"trial_n":59,"min":57,"max":198,"target":"absent","response":"present","rt":1903.1999999881,"correct":false,"confidence":1},{"trial_n":60,"min":56,"max":199,"target":"present","response":"present","rt":447.09999999404,"correct":true,"confidence":5},{"trial_n":61,"min":56,"max":199,"target":"present","response":"present","rt":571.40000000596,"correct":true,"confidence":5},{"trial_n":62,"min":57,"max":198,"target":"present","response":"present","rt":999.09999999404,"correct":true,"confidence":5},{"trial_n":63,"min":57,"max":198,"target":"present","response":"present","rt":650.79999998212,"correct":true,"confidence":5},{"trial_n":64,"min":58,"max":197,"target":"present","response":"present","rt":496.40000000596,"correct":true,"confidence":5},{"trial_n":65,"min":58,"max":197,"target":"absent","response":"absent","rt":470.19999998808,"correct":true,"confidence":5},{"trial_n":66,"min":59,"max":196,"target":"absent","response":"absent","rt":681,"correct":true,"confidence":5},{"trial_n":67,"min":59,"max":196,"target":"present","response":"present","rt":1212.8000000119,"correct":true,"confidence":3},{"trial_n":68,"min":60,"max":195,"target":"absent","response":"present","rt":1575.3000000119,"correct":false,"confidence":3},{"trial_n":69,"min":59,"max":196,"target":"absent","response":"absent","rt":501.90000000596,"correct":true,"confidence":3},{"trial_n":70,"min":59,"max":196,"target":"absent","response":"absent","rt":619.40000000596,"correct":true,"confidence":5},{"trial_n":71,"min":41,"max":214,"target":"present","response":"present","rt":7148,"correct":true,"confidence":-1},{"trial_n":72,"min":41,"max":214,"target":"present","response":"absent","rt":1656,"correct":false,"confidence":-1},{"trial_n":73,"min":25,"max":230,"target":"absent","response":"present","rt":2893,"correct":false,"confidence":-1},{"trial_n":74,"min":9,"max":246,"target":"absent","response":"absent","rt":514.59999999404,"correct":true,"confidence":-1},{"trial_n":75,"min":9,"max":246,"target":"present","response":"absent","rt":310.59999999404,"correct":false,"confidence":-1},{"trial_n":76,"min":0,"max":255,"target":"present","response":"present","rt":148.20000001788,"correct":true,"confidence":-1},{"trial_n":77,"min":0,"max":255,"target":"present","response":"present","rt":610.19999998808,"correct":true,"confidence":-1},{"trial_n":78,"min":16,"max":239,"target":"present","response":"present","rt":174.40000000596,"correct":true,"confidence":-1},{"trial_n":79,"min":16,"max":239,"target":"absent","response":"absent","rt":421,"correct":true,"confidence":-1},{"trial_n":80,"min":32,"max":223,"target":"absent","response":"absent","rt":370.89999997616,"correct":true,"confidence":-1},{"trial_n":81,"min":32,"max":223,"target":"absent","response":"absent","rt":339.19999998808,"correct":true,"confidence":-1},{"trial_n":82,"min":40,"max":215,"target":"absent","response":"absent","rt":274.20000001788,"correct":true,"confidence":-1},{"trial_n":83,"min":40,"max":215,"target":"absent","response":"absent","rt":476.69999998808,"correct":true,"confidence":-1},{"trial_n":84,"min":48,"max":207,"target":"absent","response":"absent","rt":259.19999998808,"correct":true,"confidence":-1},{"trial_n":85,"min":48,"max":207,"target":"absent","response":"absent","rt":462.30000001192,"correct":true,"confidence":-1},{"trial_n":86,"min":56,"max":199,"target":"present","response":"absent","rt":328.19999998808,"correct":false,"confidence":-1},{"trial_n":87,"min":48,"max":207,"target":"absent","response":"absent","rt":792.69999998808,"correct":true,"confidence":-1},{"trial_n":88,"min":48,"max":207,"target":"present","response":"present","rt":153.40000000596,"correct":true,"confidence":-1},{"trial_n":89,"min":56,"max":199,"target":"absent","response":"present","rt":501.29999998212,"correct":false,"confidence":-1},{"trial_n":90,"min":48,"max":207,"target":"present","response":"present","rt":197.5,"correct":true,"confidence":-1},{"trial_n":91,"min":48,"max":207,"target":"absent","response":"absent","rt":460.09999999404,"correct":true,"confidence":5},{"trial_n":92,"min":52,"max":203,"target":"absent","response":"absent","rt":609,"correct":true,"confidence":5},{"trial_n":93,"min":52,"max":203,"target":"present","response":"present","rt":954.60000002384,"correct":true,"confidence":3},{"trial_n":94,"min":56,"max":199,"target":"present","response":"absent","rt":1051.099999994,"correct":false,"confidence":3},{"trial_n":95,"min":52,"max":203,"target":"absent","response":"absent","rt":963.30000001192,"correct":true,"confidence":3},{"trial_n":96,"min":52,"max":203,"target":"absent","response":"absent","rt":677.30000001192,"correct":true,"confidence":5},{"trial_n":97,"min":56,"max":199,"target":"present","response":"present","rt":704.69999998808,"correct":true,"confidence":5},{"trial_n":98,"min":56,"max":199,"target":"absent","response":"present","rt":995.89999997616,"correct":false,"confidence":5},{"trial_n":99,"min":52,"max":203,"target":"present","response":"present","rt":826.60000002384,"correct":true,"confidence":4},{"trial_n":100,"min":52,"max":203,"target":"absent","response":"absent","rt":621.30000001192,"correct":true,"confidence":4},{"trial_n":101,"min":54,"max":201,"target":"present","response":"present","rt":873.5,"correct":true,"confidence":3},{"trial_n":102,"min":54,"max":201,"target":"present","response":"present","rt":513.30000001192,"correct":true,"confidence":5},{"trial_n":103,"min":56,"max":199,"target":"present","response":"present","rt":369.90000000596,"correct":true,"confidence":5},{"trial_n":104,"min":56,"max":199,"target":"absent","response":"absent","rt":1061.5,"correct":true,"confidence":5},{"trial_n":105,"min":58,"max":197,"target":"present","response":"present","rt":677.59999999404,"correct":true,"confidence":5},{"trial_n":106,"min":58,"max":197,"target":"present","response":"present","rt":534.20000001788,"correct":true,"confidence":5},{"trial_n":107,"min":60,"max":195,"target":"absent","response":"absent","rt":1347.6999999881,"correct":true,"confidence":5},{"trial_n":108,"min":60,"max":195,"target":"absent","response":"absent","rt":751.09999999404,"correct":true,"confidence":5},{"trial_n":109,"min":62,"max":193,"target":"present","response":"present","rt":538.19999998808,"correct":true,"confidence":5},{"trial_n":110,"min":62,"max":193,"target":"present","response":"absent","rt":2442.3000000119,"correct":false,"confidence":1},{"trial_n":111,"min":61,"max":194,"target":"present","response":"present","rt":1019.8000000119,"correct":true,"confidence":5},{"trial_n":112,"min":61,"max":194,"target":"absent","response":"absent","rt":1324,"correct":true,"confidence":5},{"trial_n":113,"min":62,"max":193,"target":"present","response":"present","rt":1107.1000000238,"correct":true,"confidence":4},{"trial_n":114,"min":62,"max":193,"target":"present","response":"absent","rt":716.40000000596,"correct":false,"confidence":5},{"trial_n":115,"min":61,"max":194,"target":"absent","response":"absent","rt":735.80000001192,"correct":true,"confidence":4},{"trial_n":116,"min":61,"max":194,"target":"absent","response":"absent","rt":875,"correct":true,"confidence":5},{"trial_n":117,"min":62,"max":193,"target":"present","response":"present","rt":680,"correct":true,"confidence":5},{"trial_n":118,"min":62,"max":193,"target":"present","response":"present","rt":3209.400000006,"correct":true,"confidence":4},{"trial_n":119,"min":63,"max":192,"target":"absent","response":"absent","rt":624,"correct":true,"confidence":1},{"trial_n":120,"min":63,"max":192,"target":"absent","response":"absent","rt":743.5,"correct":true,"confidence":4},{"trial_n":121,"min":64,"max":191,"target":"present","response":"present","rt":1715.1000000238,"correct":true,"confidence":5},{"trial_n":122,"min":64,"max":191,"target":"absent","response":"absent","rt":672,"correct":true,"confidence":4},{"trial_n":123,"min":65,"max":190,"target":"absent","response":"absent","rt":554.40000000596,"correct":true,"confidence":4},{"trial_n":124,"min":65,"max":190,"target":"absent","response":"absent","rt":758.19999998808,"correct":true,"confidence":5},{"trial_n":125,"min":66,"max":189,"target":"absent","response":"present","rt":3153.1999999881,"correct":false,"confidence":2},{"trial_n":126,"min":65,"max":190,"target":"absent","response":"absent","rt":842.39999997616,"correct":true,"confidence":4},{"trial_n":127,"min":65,"max":190,"target":"absent","response":"absent","rt":724.69999998808,"correct":true,"confidence":4},{"trial_n":128,"min":66,"max":189,"target":"present","response":"present","rt":539.30000001192,"correct":true,"confidence":5},{"trial_n":129,"min":66,"max":189,"target":"present","response":"present","rt":697.30000001192,"correct":true,"confidence":3},{"trial_n":130,"min":67,"max":188,"target":"present","response":"present","rt":524.80000001192,"correct":true,"confidence":4},{"trial_n":131,"min":67,"max":188,"target":"present","response":"present","rt":568,"correct":true,"confidence":4},{"trial_n":132,"min":68,"max":187,"target":"present","response":"present","rt":867.90000000596,"correct":true,"confidence":4},{"trial_n":133,"min":68,"max":187,"target":"absent","response":"absent","rt":569.5,"correct":true,"confidence":5},{"trial_n":134,"min":69,"max":186,"target":"present","response":"present","rt":1385,"correct":true,"confidence":2},{"trial_n":135,"min":69,"max":186,"target":"present","response":"absent","rt":851.29999998212,"correct":false,"confidence":1},{"trial_n":136,"min":68,"max":187,"target":"present","response":"absent","rt":676.20000001788,"correct":false,"confidence":1},{"trial_n":137,"min":67,"max":188,"target":"absent","response":"present","rt":399.20000001788,"correct":false,"confidence":1},{"trial_n":138,"min":66,"max":189,"target":"present","response":"present","rt":546.09999999404,"correct":true,"confidence":5},{"trial_n":139,"min":66,"max":189,"target":"absent","response":"absent","rt":557.5,"correct":true,"confidence":5},{"trial_n":140,"min":67,"max":188,"target":"present","response":"present","rt":1019.2999999821,"correct":true,"confidence":5}]