[{"trial_n":1,"min":25,"max":230,"target":"present","response":"absent","rt":3506.2000000002,"correct":false,"confidence":-1},{"trial_n":2,"min":25,"max":230,"target":"present","response":"present","rt":963.20000000019,"correct":true,"confidence":-1},{"trial_n":3,"min":25,"max":230,"target":"absent","response":"absent","rt":489,"correct":true,"confidence":-1},{"trial_n":4,"min":41,"max":214,"target":"absent","response":"absent","rt":354.39999999944,"correct":true,"confidence":-1},{"trial_n":5,"min":41,"max":214,"target":"present","response":"present","rt":316.19999999925,"correct":true,"confidence":-1},{"trial_n":6,"min":57,"max":198,"target":"absent","response":"absent","rt":328.90000000037,"correct":true,"confidence":-1},{"trial_n":7,"min":57,"max":198,"target":"present","response":"present","rt":450,"correct":true,"confidence":-1},{"trial_n":8,"min":73,"max":182,"target":"absent","response":"absent","rt":281.39999999944,"correct":true,"confidence":-1},{"trial_n":9,"min":73,"max":182,"target":"absent","response":"absent","rt":261.39999999944,"correct":true,"confidence":-1},{"trial_n":10,"min":89,"max":166,"target":"present","response":"absent","rt":290,"correct":false,"confidence":-1},{"trial_n":11,"min":81,"max":174,"target":"present","response":"absent","rt":197.89999999944,"correct":false,"confidence":-1},{"trial_n":12,"min":73,"max":182,"target":"absent","response":"absent","rt":656.69999999925,"correct":true,"confidence":-1},{"trial_n":13,"min":73,"max":182,"target":"absent","response":"absent","rt":337.09999999963,"correct":true,"confidence":-1},{"trial_n":14,"min":81,"max":174,"target":"present","response":"absent","rt":338,"correct":false,"confidence":-1},{"trial_n":15,"min":73,"max":182,"target":"absent","response":"absent","rt":379.39999999944,"correct":true,"confidence":-1},{"trial_n":16,"min":73,"max":182,"target":"present","response":"present","rt":430.70000000019,"correct":true,"confidence":-1},{"trial_n":17,"min":81,"max":174,"target":"absent","response":"absent","rt":378.70000000019,"correct":true,"confidence":-1},{"trial_n":18,"min":81,"max":174,"target":"present","response":"absent","rt":619.39999999944,"correct":false,"confidence":-1},{"trial_n":19,"min":73,"max":182,"target":"present","response":"present","rt":334.20000000019,"correct":true,"confidence":-1},{"trial_n":20,"min":73,"max":182,"target":"present","response":"present","rt":381.70000000019,"correct":true,"confidence":-1},{"trial_n":21,"min":77,"max":178,"target":"absent","response":"absent","rt":1310.5,"correct":true,"confidence":1},{"trial_n":22,"min":77,"max":178,"target":"present","response":"present","rt":306.20000000019,"correct":true,"confidence":4},{"trial_n":23,"min":81,"max":174,"target":"absent","response":"absent","rt":576.19999999925,"correct":true,"confidence":1},{"trial_n":24,"min":81,"max":174,"target":"present","response":"present","rt":654.5,"correct":true,"confidence":4},{"trial_n":25,"min":85,"max":170,"target":"present","response":"present","rt":881.40000000037,"correct":true,"confidence":4},{"trial_n":26,"min":85,"max":170,"target":"present","response":"absent","rt":629.20000000019,"correct":false,"confidence":2},{"trial_n":27,"min":81,"max":174,"target":"absent","response":"absent","rt":546.90000000037,"correct":true,"confidence":1},{"trial_n":28,"min":81,"max":174,"target":"present","response":"present","rt":635.40000000037,"correct":true,"confidence":3},{"trial_n":29,"min":85,"max":170,"target":"present","response":"present","rt":1025.4000000004,"correct":true,"confidence":3},{"trial_n":30,"min":85,"max":170,"target":"absent","response":"absent","rt":431.80000000075,"correct":true,"confidence":3},{"trial_n":31,"min":87,"max":168,"target":"absent","response":"absent","rt":2126.2000000002,"correct":true,"confidence":4},{"trial_n":32,"min":87,"max":168,"target":"absent","response":"present","rt":1149.2999999998,"correct":false,"confidence":4},{"trial_n":33,"min":85,"max":170,"target":"present","response":"present","rt":797.69999999925,"correct":true,"confidence":4},{"trial_n":34,"min":85,"max":170,"target":"present","response":"absent","rt":621.70000000019,"correct":false,"confidence":3},{"trial_n":35,"min":83,"max":172,"target":"absent","response":"absent","rt":510.79999999981,"correct":true,"confidence":3},{"trial_n":36,"min":83,"max":172,"target":"absent","response":"absent","rt":416.29999999981,"correct":true,"confidence":3},{"trial_n":37,"min":85,"max":170,"target":"present","response":"present","rt":1166.1000000006,"correct":true,"confidence":3},{"trial_n":38,"min":85,"max":170,"target":"present","response":"present","rt":693.5,"correct":true,"confidence":3},{"trial_n":39,"min":87,"max":168,"target":"absent","response":"absent","rt":391,"correct":true,"confidence":2},{"trial_n":40,"min":87,"max":168,"target":"present","response":"absent","rt":1484.1000000006,"correct":false,"confidence":3},{"trial_n":41,"min":86,"max":169,"target":"absent","response":"absent","rt":481,"correct":true,"confidence":2},{"trial_n":42,"min":86,"max":169,"target":"present","response":"absent","rt":385.20000000019,"correct":false,"confidence":4},{"trial_n":43,"min":85,"max":170,"target":"absent","response":"present","rt":608.30000000075,"correct":false,"confidence":2},{"trial_n":44,"min":84,"max":171,"target":"absent","response":"absent","rt":431.40000000037,"correct":true,"confidence":4},{"trial_n":45,"min":84,"max":171,"target":"absent","response":"absent","rt":507.29999999981,"correct":true,"confidence":3},{"trial_n":46,"min":85,"max":170,"target":"absent","response":"absent","rt":528.59999999963,"correct":true,"confidence":3},{"trial_n":47,"min":85,"max":170,"target":"absent","response":"absent","rt":380.39999999944,"correct":true,"confidence":3},{"trial_n":48,"min":86,"max":169,"target":"present","response":"present","rt":820,"correct":true,"confidence":2},{"trial_n":49,"min":86,"max":169,"target":"absent","response":"absent","rt":478,"correct":true,"confidence":3},{"trial_n":50,"min":87,"max":168,"target":"absent","response":"absent","rt":448.10000000056,"correct":true,"confidence":4},{"trial_n":51,"min":87,"max":168,"target":"absent","response":"absent","rt":1643.2000000002,"correct":true,"confidence":4},{"trial_n":52,"min":88,"max":167,"target":"present","response":"present","rt":652,"correct":true,"confidence":2},{"trial_n":53,"min":88,"max":167,"target":"present","response":"present","rt":1129.2000000002,"correct":true,"confidence":2},{"trial_n":54,"min":89,"max":166,"target":"present","response":"present","rt":898.40000000037,"correct":true,"confidence":3},{"trial_n":55,"min":89,"max":166,"target":"present","response":"absent","rt":1005.8000000007,"correct":false,"confidence":2},{"trial_n":56,"min":88,"max":167,"target":"absent","response":"absent","rt":533.20000000019,"correct":true,"confidence":2},{"trial_n":57,"min":88,"max":167,"target":"absent","response":"absent","rt":446,"correct":true,"confidence":3},{"trial_n":58,"min":89,"max":166,"target":"present","response":"absent","rt":525.80000000075,"correct":false,"confidence":3},{"trial_n":59,"min":88,"max":167,"target":"absent","response":"absent","rt":406.79999999981,"correct":true,"confidence":3},{"trial_n":60,"min":88,"max":167,"target":"present","response":"present","rt":617.59999999963,"correct":true,"confidence":3},{"trial_n":61,"min":89,"max":166,"target":"absent","response":"absent","rt":1275.7000000002,"correct":true,"confidence":3},{"trial_n":62,"min":89,"max":166,"target":"present","response":"present","rt":784.90000000037,"correct":true,"confidence":4},{"trial_n":63,"min":90,"max":165,"target":"present","response":"absent","rt":416,"correct":false,"confidence":2},{"trial_n":64,"min":89,"max":166,"target":"present","response":"absent","rt":404,"correct":false,"confidence":2},{"trial_n":65,"min":88,"max":167,"target":"present","response":"absent","rt":302.80000000075,"correct":false,"confidence":2},{"trial_n":66,"min":87,"max":168,"target":"absent","response":"absent","rt":309.89999999944,"correct":true,"confidence":3},{"trial_n":67,"min":87,"max":168,"target":"absent","response":"absent","rt":308.70000000019,"correct":true,"confidence":3},{"trial_n":68,"min":88,"max":167,"target":"present","response":"absent","rt":349.5,"correct":false,"confidence":3},{"trial_n":69,"min":87,"max":168,"target":"present","response":"present","rt":863.19999999925,"correct":true,"confidence":3},{"trial_n":70,"min":87,"max":168,"target":"absent","response":"absent","rt":572.09999999963,"correct":true,"confidence":2},{"trial_n":71,"min":41,"max":214,"target":"present","response":"absent","rt":4434.6000000006,"correct":false,"confidence":-1},{"trial_n":72,"min":41,"max":214,"target":"present","response":"present","rt":517.60000000056,"correct":true,"confidence":-1},{"trial_n":73,"min":41,"max":214,"target":"absent","response":"absent","rt":465.20000000019,"correct":true,"confidence":-1},{"trial_n":74,"min":57,"max":198,"target":"absent","response":"absent","rt":974.29999999981,"correct":true,"confidence":-1},{"trial_n":75,"min":57,"max":198,"target":"present","response":"present","rt":742.40000000037,"correct":true,"confidence":-1},{"trial_n":76,"min":73,"max":182,"target":"present","response":"present","rt":351.79999999981,"correct":true,"confidence":-1},{"trial_n":77,"min":73,"max":182,"target":"present","response":"present","rt":421.90000000037,"correct":true,"confidence":-1},{"trial_n":78,"min":89,"max":166,"target":"absent","response":"absent","rt":483.70000000019,"correct":true,"confidence":-1},{"trial_n":79,"min":89,"max":166,"target":"present","response":"absent","rt":1064.2000000002,"correct":false,"confidence":-1},{"trial_n":80,"min":73,"max":182,"target":"absent","response":"absent","rt":433.39999999944,"correct":true,"confidence":-1},{"trial_n":81,"min":73,"max":182,"target":"absent","response":"absent","rt":551.30000000075,"correct":true,"confidence":-1},{"trial_n":82,"min":81,"max":174,"target":"present","response":"absent","rt":383.5,"correct":false,"confidence":-1},{"trial_n":83,"min":73,"max":182,"target":"present","response":"present","rt":320.60000000056,"correct":true,"confidence":-1},{"trial_n":84,"min":73,"max":182,"target":"present","response":"present","rt":191.90000000037,"correct":true,"confidence":-1},{"trial_n":85,"min":81,"max":174,"target":"absent","response":"absent","rt":254,"correct":true,"confidence":-1},{"trial_n":86,"min":81,"max":174,"target":"absent","response":"absent","rt":468.10000000056,"correct":true,"confidence":-1},{"trial_n":87,"min":89,"max":166,"target":"absent","response":"present","rt":612.39999999944,"correct":false,"confidence":-1},{"trial_n":88,"min":81,"max":174,"target":"absent","response":"absent","rt":417.90000000037,"correct":true,"confidence":-1},{"trial_n":89,"min":81,"max":174,"target":"present","response":"present","rt":222.60000000056,"correct":true,"confidence":-1},{"trial_n":90,"min":89,"max":166,"target":"present","response":"present","rt":466.79999999981,"correct":true,"confidence":-1},{"trial_n":91,"min":89,"max":166,"target":"present","response":"present","rt":748.59999999963,"correct":true,"confidence":1},{"trial_n":92,"min":93,"max":162,"target":"absent","response":"present","rt":648.5,"correct":false,"confidence":3},{"trial_n":93,"min":89,"max":166,"target":"absent","response":"absent","rt":455,"correct":true,"confidence":3},{"trial_n":94,"min":89,"max":166,"target":"absent","response":"present","rt":637.19999999925,"correct":false,"confidence":1},{"trial_n":95,"min":85,"max":170,"target":"present","response":"present","rt":440.59999999963,"correct":true,"confidence":3},{"trial_n":96,"min":85,"max":170,"target":"present","response":"present","rt":282,"correct":true,"confidence":4},{"trial_n":97,"min":89,"max":166,"target":"present","response":"present","rt":355.09999999963,"correct":true,"confidence":4},{"trial_n":98,"min":89,"max":166,"target":"present","response":"present","rt":470.09999999963,"correct":true,"confidence":4},{"trial_n":99,"min":93,"max":162,"target":"present","response":"present","rt":569.10000000056,"correct":true,"confidence":3},{"trial_n":100,"min":93,"max":162,"target":"absent","response":"present","rt":595.59999999963,"correct":false,"confidence":1},{"trial_n":101,"min":91,"max":164,"target":"present","response":"present","rt":365.39999999944,"correct":true,"confidence":4},{"trial_n":102,"min":91,"max":164,"target":"present","response":"present","rt":720,"correct":true,"confidence":1},{"trial_n":103,"min":93,"max":162,"target":"absent","response":"present","rt":560.80000000075,"correct":false,"confidence":1},{"trial_n":104,"min":91,"max":164,"target":"absent","response":"present","rt":495.79999999981,"correct":false,"confidence":1},{"trial_n":105,"min":89,"max":166,"target":"present","response":"present","rt":552.40000000037,"correct":true,"confidence":2},{"trial_n":106,"min":89,"max":166,"target":"present","response":"present","rt":559,"correct":true,"confidence":3},{"trial_n":107,"min":91,"max":164,"target":"absent","response":"present","rt":703.89999999944,"correct":false,"confidence":1},{"trial_n":108,"min":89,"max":166,"target":"absent","response":"present","rt":295.89999999944,"correct":false,"confidence":2},{"trial_n":109,"min":87,"max":168,"target":"present","response":"present","rt":453.70000000019,"correct":true,"confidence":3},{"trial_n":110,"min":87,"max":168,"target":"present","response":"present","rt":438.10000000056,"correct":true,"confidence":3},{"trial_n":111,"min":88,"max":167,"target":"absent","response":"absent","rt":1352.5999999996,"correct":true,"confidence":1},{"trial_n":112,"min":88,"max":167,"target":"present","response":"present","rt":717.70000000019,"correct":true,"confidence":3},{"trial_n":113,"min":89,"max":166,"target":"absent","response":"present","rt":2242.3000000007,"correct":false,"confidence":3},{"trial_n":114,"min":88,"max":167,"target":"present","response":"present","rt":328.30000000075,"correct":true,"confidence":4},{"trial_n":115,"min":88,"max":167,"target":"absent","response":"present","rt":765,"correct":false,"confidence":3},{"trial_n":116,"min":87,"max":168,"target":"present","response":"present","rt":456.5,"correct":true,"confidence":4},{"trial_n":117,"min":87,"max":168,"target":"absent","response":"absent","rt":919.70000000019,"correct":true,"confidence":3},{"trial_n":118,"min":88,"max":167,"target":"present","response":"present","rt":762.10000000056,"correct":true,"confidence":1},{"trial_n":119,"min":88,"max":167,"target":"absent","response":"present","rt":333.89999999944,"correct":false,"confidence":1},{"trial_n":120,"min":87,"max":168,"target":"absent","response":"present","rt":662.79999999981,"correct":false,"confidence":1},{"trial_n":121,"min":86,"max":169,"target":"present","response":"present","rt":1514.2000000002,"correct":true,"confidence":2},{"trial_n":122,"min":86,"max":169,"target":"absent","response":"absent","rt":999.59999999963,"correct":true,"confidence":4},{"trial_n":123,"min":87,"max":168,"target":"present","response":"absent","rt":1155.7999999998,"correct":false,"confidence":4},{"trial_n":124,"min":86,"max":169,"target":"absent","response":"absent","rt":1764.7000000002,"correct":true,"confidence":4},{"trial_n":125,"min":86,"max":169,"target":"present","response":"present","rt":1680,"correct":true,"confidence":3},{"trial_n":126,"min":87,"max":168,"target":"absent","response":"present","rt":926.60000000056,"correct":false,"confidence":1},{"trial_n":127,"min":86,"max":169,"target":"absent","response":"present","rt":425.5,"correct":false,"confidence":1},{"trial_n":128,"min":85,"max":170,"target":"absent","response":"present","rt":738.40000000037,"correct":false,"confidence":1},{"trial_n":129,"min":84,"max":171,"target":"present","response":"present","rt":646.29999999981,"correct":true,"confidence":1},{"trial_n":130,"min":84,"max":171,"target":"present","response":"absent","rt":461.5,"correct":false,"confidence":1},{"trial_n":131,"min":83,"max":172,"target":"absent","response":"absent","rt":1877.8000000007,"correct":true,"confidence":2},{"trial_n":132,"min":83,"max":172,"target":"absent","response":"absent","rt":794.59999999963,"correct":true,"confidence":2},{"trial_n":133,"min":84,"max":171,"target":"present","response":"present","rt":462.59999999963,"correct":true,"confidence":3},{"trial_n":134,"min":84,"max":171,"target":"absent","response":"absent","rt":1037.5999999996,"correct":true,"confidence":3},{"trial_n":135,"min":85,"max":170,"target":"present","response":"present","rt":439.59999999963,"correct":true,"confidence":3},{"trial_n":136,"min":85,"max":170,"target":"absent","response":"absent","rt":984.5,"correct":true,"confidence":3},{"trial_n":137,"min":86,"max":169,"target":"absent","response":"absent","rt":1631.3999999994,"correct":true,"confidence":3},{"trial_n":138,"min":86,"max":169,"target":"present","response":"present","rt":835.20000000019,"correct":true,"confidence":1},{"trial_n":139,"min":87,"max":168,"target":"absent","response":"absent","rt":1029,"correct":true,"confidence":3},{"trial_n":140,"min":87,"max":168,"target":"present","response":"present","rt":1158.0999999996,"correct":true,"confidence":1}]