[{"trial_n":1,"min":25,"max":230,"target":"present","response":"present","rt":6837.2000000477,"correct":true,"confidence":-1},{"trial_n":2,"min":25,"max":230,"target":"present","response":"present","rt":2745.9000000954,"correct":true,"confidence":-1},{"trial_n":3,"min":41,"max":214,"target":"absent","response":"absent","rt":1416.2000000477,"correct":true,"confidence":-1},{"trial_n":4,"min":41,"max":214,"target":"absent","response":"absent","rt":1148.6000001431,"correct":true,"confidence":-1},{"trial_n":5,"min":57,"max":198,"target":"present","response":"present","rt":537.90000009537,"correct":true,"confidence":-1},{"trial_n":6,"min":57,"max":198,"target":"present","response":"present","rt":358.20000004768,"correct":true,"confidence":-1},{"trial_n":7,"min":73,"max":182,"target":"present","response":"present","rt":930.10000014305,"correct":true,"confidence":-1},{"trial_n":8,"min":73,"max":182,"target":"absent","response":"absent","rt":421.29999995232,"correct":true,"confidence":-1},{"trial_n":9,"min":89,"max":166,"target":"present","response":"absent","rt":802.5,"correct":false,"confidence":-1},{"trial_n":10,"min":73,"max":182,"target":"present","response":"absent","rt":1164.4000000954,"correct":false,"confidence":-1},{"trial_n":11,"min":65,"max":190,"target":"absent","response":"absent","rt":534.10000014305,"correct":true,"confidence":-1},{"trial_n":12,"min":65,"max":190,"target":"absent","response":"absent","rt":653.70000004768,"correct":true,"confidence":-1},{"trial_n":13,"min":73,"max":182,"target":"absent","response":"absent","rt":678.89999985695,"correct":true,"confidence":-1},{"trial_n":14,"min":73,"max":182,"target":"present","response":"present","rt":735.29999995232,"correct":true,"confidence":-1},{"trial_n":15,"min":81,"max":174,"target":"absent","response":"absent","rt":596.70000004768,"correct":true,"confidence":-1},{"trial_n":16,"min":81,"max":174,"target":"present","response":"absent","rt":775.40000009537,"correct":false,"confidence":-1},{"trial_n":17,"min":73,"max":182,"target":"present","response":"present","rt":596.79999995232,"correct":true,"confidence":-1},{"trial_n":18,"min":73,"max":182,"target":"present","response":"present","rt":588.30000019073,"correct":true,"confidence":-1},{"trial_n":19,"min":81,"max":174,"target":"absent","response":"absent","rt":414.09999990463,"correct":true,"confidence":-1},{"trial_n":20,"min":81,"max":174,"target":"absent","response":"absent","rt":385.70000004768,"correct":true,"confidence":-1},{"trial_n":21,"min":85,"max":170,"target":"absent","response":"absent","rt":621.59999990463,"correct":true,"confidence":3},{"trial_n":22,"min":85,"max":170,"target":"absent","response":"present","rt":1663,"correct":false,"confidence":2},{"trial_n":23,"min":81,"max":174,"target":"present","response":"present","rt":832.70000004768,"correct":true,"confidence":4},{"trial_n":24,"min":81,"max":174,"target":"absent","response":"absent","rt":1390.2999999523,"correct":true,"confidence":3},{"trial_n":25,"min":85,"max":170,"target":"absent","response":"present","rt":1190.7999999523,"correct":false,"confidence":3},{"trial_n":26,"min":81,"max":174,"target":"absent","response":"absent","rt":796.70000004768,"correct":true,"confidence":4},{"trial_n":27,"min":81,"max":174,"target":"present","response":"present","rt":1238.8999998569,"correct":true,"confidence":3},{"trial_n":28,"min":85,"max":170,"target":"absent","response":"absent","rt":661.10000014305,"correct":true,"confidence":2},{"trial_n":29,"min":85,"max":170,"target":"present","response":"present","rt":877.79999995232,"correct":true,"confidence":3},{"trial_n":30,"min":89,"max":166,"target":"present","response":"present","rt":692.5,"correct":true,"confidence":4},{"trial_n":31,"min":89,"max":166,"target":"present","response":"present","rt":1236.6000001431,"correct":true,"confidence":3},{"trial_n":32,"min":91,"max":164,"target":"present","response":"absent","rt":686.5,"correct":false,"confidence":2},{"trial_n":33,"min":89,"max":166,"target":"present","response":"absent","rt":3162.9000000954,"correct":false,"confidence":1},{"trial_n":34,"min":87,"max":168,"target":"absent","response":"absent","rt":816,"correct":true,"confidence":1},{"trial_n":35,"min":87,"max":168,"target":"present","response":"absent","rt":1213,"correct":false,"confidence":2},{"trial_n":36,"min":85,"max":170,"target":"absent","response":"absent","rt":1069.4000000954,"correct":true,"confidence":2},{"trial_n":37,"min":85,"max":170,"target":"absent","response":"absent","rt":2508.2999999523,"correct":true,"confidence":1},{"trial_n":38,"min":87,"max":168,"target":"absent","response":"absent","rt":762.89999985695,"correct":true,"confidence":1},{"trial_n":39,"min":87,"max":168,"target":"absent","response":"absent","rt":3409.8999998569,"correct":true,"confidence":1},{"trial_n":40,"min":89,"max":166,"target":"absent","response":"absent","rt":753,"correct":true,"confidence":2},{"trial_n":41,"min":89,"max":166,"target":"absent","response":"absent","rt":2021.6000001431,"correct":true,"confidence":2},{"trial_n":42,"min":90,"max":165,"target":"absent","response":"absent","rt":680.80000019073,"correct":true,"confidence":2},{"trial_n":43,"min":90,"max":165,"target":"absent","response":"absent","rt":554.60000014305,"correct":true,"confidence":1},{"trial_n":44,"min":91,"max":164,"target":"present","response":"absent","rt":1513.2000000477,"correct":false,"confidence":1},{"trial_n":45,"min":90,"max":165,"target":"present","response":"absent","rt":778,"correct":false,"confidence":2},{"trial_n":46,"min":89,"max":166,"target":"present","response":"absent","rt":2475.7999999523,"correct":false,"confidence":4},{"trial_n":47,"min":88,"max":167,"target":"present","response":"present","rt":1622,"correct":true,"confidence":4},{"trial_n":48,"min":88,"max":167,"target":"absent","response":"present","rt":1022.8000001907,"correct":false,"confidence":3},{"trial_n":49,"min":87,"max":168,"target":"present","response":"absent","rt":678.40000009537,"correct":false,"confidence":3},{"trial_n":50,"min":86,"max":169,"target":"present","response":"present","rt":1066.6000001431,"correct":true,"confidence":4},{"trial_n":51,"min":86,"max":169,"target":"present","response":"present","rt":712,"correct":true,"confidence":4},{"trial_n":52,"min":87,"max":168,"target":"absent","response":"absent","rt":895,"correct":true,"confidence":3},{"trial_n":53,"min":87,"max":168,"target":"present","response":"present","rt":739.79999995232,"correct":true,"confidence":3},{"trial_n":54,"min":88,"max":167,"target":"present","response":"present","rt":1027.1999998093,"correct":true,"confidence":2},{"trial_n":55,"min":88,"max":167,"target":"absent","response":"present","rt":1235.8000001907,"correct":false,"confidence":1},{"trial_n":56,"min":87,"max":168,"target":"present","response":"absent","rt":764,"correct":false,"confidence":3},{"trial_n":57,"min":86,"max":169,"target":"present","response":"present","rt":676.70000004768,"correct":true,"confidence":4},{"trial_n":58,"min":86,"max":169,"target":"present","response":"absent","rt":1209.2000000477,"correct":false,"confidence":3},{"trial_n":59,"min":85,"max":170,"target":"absent","response":"absent","rt":983,"correct":true,"confidence":4},{"trial_n":60,"min":85,"max":170,"target":"absent","response":"absent","rt":456.70000004768,"correct":true,"confidence":5},{"trial_n":61,"min":86,"max":169,"target":"absent","response":"absent","rt":676.79999995232,"correct":true,"confidence":1},{"trial_n":62,"min":86,"max":169,"target":"present","response":"absent","rt":1145.0999999046,"correct":false,"confidence":2},{"trial_n":63,"min":85,"max":170,"target":"absent","response":"absent","rt":1556.7000000477,"correct":true,"confidence":3},{"trial_n":64,"min":85,"max":170,"target":"present","response":"present","rt":944.79999995232,"correct":true,"confidence":3},{"trial_n":65,"min":86,"max":169,"target":"absent","response":"absent","rt":815.59999990463,"correct":true,"confidence":1},{"trial_n":66,"min":86,"max":169,"target":"absent","response":"absent","rt":709.70000004768,"correct":true,"confidence":4},{"trial_n":67,"min":87,"max":168,"target":"absent","response":"absent","rt":1383.9000000954,"correct":true,"confidence":4},{"trial_n":68,"min":87,"max":168,"target":"present","response":"present","rt":782.89999985695,"correct":true,"confidence":3},{"trial_n":69,"min":88,"max":167,"target":"present","response":"present","rt":944.20000004768,"correct":true,"confidence":3},{"trial_n":70,"min":88,"max":167,"target":"present","response":"present","rt":751.5,"correct":true,"confidence":3},{"trial_n":71,"min":41,"max":214,"target":"present","response":"present","rt":2026.7000000477,"correct":true,"confidence":-1},{"trial_n":72,"min":41,"max":214,"target":"present","response":"present","rt":595,"correct":true,"confidence":-1},{"trial_n":73,"min":57,"max":198,"target":"absent","response":"absent","rt":742.39999985695,"correct":true,"confidence":-1},{"trial_n":74,"min":57,"max":198,"target":"absent","response":"absent","rt":637.70000004768,"correct":true,"confidence":-1},{"trial_n":75,"min":73,"max":182,"target":"present","response":"present","rt":410.90000009537,"correct":true,"confidence":-1},{"trial_n":76,"min":73,"max":182,"target":"absent","response":"absent","rt":1012.7000000477,"correct":true,"confidence":-1},{"trial_n":77,"min":89,"max":166,"target":"absent","response":"absent","rt":597,"correct":true,"confidence":-1},{"trial_n":78,"min":89,"max":166,"target":"absent","response":"absent","rt":600.20000004768,"correct":true,"confidence":-1},{"trial_n":79,"min":105,"max":150,"target":"present","response":"absent","rt":583.10000014305,"correct":false,"confidence":-1},{"trial_n":80,"min":89,"max":166,"target":"present","response":"absent","rt":548.90000009537,"correct":false,"confidence":-1},{"trial_n":81,"min":81,"max":174,"target":"absent","response":"absent","rt":641.29999995232,"correct":true,"confidence":-1},{"trial_n":82,"min":81,"max":174,"target":"present","response":"present","rt":592.39999985695,"correct":true,"confidence":-1},{"trial_n":83,"min":89,"max":166,"target":"present","response":"present","rt":428.89999985695,"correct":true,"confidence":-1},{"trial_n":84,"min":89,"max":166,"target":"present","response":"present","rt":667.20000004768,"correct":true,"confidence":-1},{"trial_n":85,"min":97,"max":158,"target":"absent","response":"present","rt":557.20000004768,"correct":false,"confidence":-1},{"trial_n":86,"min":89,"max":166,"target":"absent","response":"absent","rt":525.39999985695,"correct":true,"confidence":-1},{"trial_n":87,"min":89,"max":166,"target":"absent","response":"absent","rt":399.20000004768,"correct":true,"confidence":-1},{"trial_n":88,"min":97,"max":158,"target":"present","response":"absent","rt":551.60000014305,"correct":false,"confidence":-1},{"trial_n":89,"min":89,"max":166,"target":"present","response":"present","rt":600.70000004768,"correct":true,"confidence":-1},{"trial_n":90,"min":89,"max":166,"target":"absent","response":"absent","rt":569.40000009537,"correct":true,"confidence":-1},{"trial_n":91,"min":93,"max":162,"target":"absent","response":"present","rt":813.29999995232,"correct":false,"confidence":1},{"trial_n":92,"min":89,"max":166,"target":"present","response":"present","rt":775.79999995232,"correct":true,"confidence":3},{"trial_n":93,"min":89,"max":166,"target":"present","response":"absent","rt":763.09999990463,"correct":false,"confidence":1},{"trial_n":94,"min":85,"max":170,"target":"absent","response":"absent","rt":684.5,"correct":true,"confidence":3},{"trial_n":95,"min":85,"max":170,"target":"absent","response":"absent","rt":657.60000014305,"correct":true,"confidence":3},{"trial_n":96,"min":89,"max":166,"target":"absent","response":"absent","rt":564.5,"correct":true,"confidence":3},{"trial_n":97,"min":89,"max":166,"target":"present","response":"absent","rt":479.29999995232,"correct":false,"confidence":4},{"trial_n":98,"min":85,"max":170,"target":"absent","response":"absent","rt":504.79999995232,"correct":true,"confidence":2},{"trial_n":99,"min":85,"max":170,"target":"present","response":"absent","rt":495.29999995232,"correct":false,"confidence":2},{"trial_n":100,"min":81,"max":174,"target":"present","response":"present","rt":394.19999980927,"correct":true,"confidence":4},{"trial_n":101,"min":81,"max":174,"target":"absent","response":"absent","rt":703.40000009537,"correct":true,"confidence":3},{"trial_n":102,"min":83,"max":172,"target":"absent","response":"absent","rt":817.79999995232,"correct":true,"confidence":3},{"trial_n":103,"min":83,"max":172,"target":"absent","response":"absent","rt":572,"correct":true,"confidence":3},{"trial_n":104,"min":85,"max":170,"target":"present","response":"present","rt":470.90000009537,"correct":true,"confidence":2},{"trial_n":105,"min":85,"max":170,"target":"present","response":"present","rt":536.40000009537,"correct":true,"confidence":3},{"trial_n":106,"min":87,"max":168,"target":"present","response":"present","rt":503.20000004768,"correct":true,"confidence":3},{"trial_n":107,"min":87,"max":168,"target":"absent","response":"absent","rt":588.70000004768,"correct":true,"confidence":3},{"trial_n":108,"min":89,"max":166,"target":"absent","response":"absent","rt":468.60000014305,"correct":true,"confidence":2},{"trial_n":109,"min":89,"max":166,"target":"absent","response":"present","rt":2058.6000001431,"correct":false,"confidence":3},{"trial_n":110,"min":87,"max":168,"target":"present","response":"absent","rt":471.29999995232,"correct":false,"confidence":4},{"trial_n":111,"min":86,"max":169,"target":"present","response":"present","rt":610.89999985695,"correct":true,"confidence":1},{"trial_n":112,"min":86,"max":169,"target":"present","response":"present","rt":450,"correct":true,"confidence":3},{"trial_n":113,"min":87,"max":168,"target":"absent","response":"present","rt":4251.6999998093,"correct":false,"confidence":1},{"trial_n":114,"min":86,"max":169,"target":"present","response":"absent","rt":1415.2000000477,"correct":false,"confidence":2},{"trial_n":115,"min":85,"max":170,"target":"present","response":"present","rt":453.09999990463,"correct":true,"confidence":4},{"trial_n":116,"min":85,"max":170,"target":"present","response":"present","rt":526.10000014305,"correct":true,"confidence":4},{"trial_n":117,"min":86,"max":169,"target":"present","response":"present","rt":603.60000014305,"correct":true,"confidence":4},{"trial_n":118,"min":86,"max":169,"target":"present","response":"present","rt":403,"correct":true,"confidence":4},{"trial_n":119,"min":87,"max":168,"target":"absent","response":"present","rt":923.20000004768,"correct":false,"confidence":1},{"trial_n":120,"min":86,"max":169,"target":"absent","response":"present","rt":798.70000004768,"correct":false,"confidence":1},{"trial_n":121,"min":85,"max":170,"target":"absent","response":"absent","rt":927,"correct":true,"confidence":4},{"trial_n":122,"min":85,"max":170,"target":"absent","response":"absent","rt":737.10000014305,"correct":true,"confidence":3},{"trial_n":123,"min":86,"max":169,"target":"present","response":"absent","rt":941.10000014305,"correct":false,"confidence":4},{"trial_n":124,"min":85,"max":170,"target":"present","response":"absent","rt":614.70000004768,"correct":false,"confidence":3},{"trial_n":125,"min":84,"max":171,"target":"present","response":"absent","rt":666.5,"correct":false,"confidence":4},{"trial_n":126,"min":83,"max":172,"target":"present","response":"present","rt":659.30000019073,"correct":true,"confidence":4},{"trial_n":127,"min":83,"max":172,"target":"present","response":"present","rt":712.29999995232,"correct":true,"confidence":4},{"trial_n":128,"min":84,"max":171,"target":"present","response":"present","rt":661,"correct":true,"confidence":4},{"trial_n":129,"min":84,"max":171,"target":"present","response":"present","rt":436.79999995232,"correct":true,"confidence":4},{"trial_n":130,"min":85,"max":170,"target":"present","response":"present","rt":418.29999995232,"correct":true,"confidence":4},{"trial_n":131,"min":85,"max":170,"target":"absent","response":"absent","rt":554.59999990463,"correct":true,"confidence":3},{"trial_n":132,"min":86,"max":169,"target":"present","response":"present","rt":613.09999990463,"correct":true,"confidence":3},{"trial_n":133,"min":86,"max":169,"target":"absent","response":"present","rt":636.29999995232,"correct":false,"confidence":2},{"trial_n":134,"min":85,"max":170,"target":"absent","response":"absent","rt":689.5,"correct":true,"confidence":3},{"trial_n":135,"min":85,"max":170,"target":"absent","response":"absent","rt":731,"correct":true,"confidence":3},{"trial_n":136,"min":86,"max":169,"target":"absent","response":"absent","rt":565.5,"correct":true,"confidence":2},{"trial_n":137,"min":86,"max":169,"target":"absent","response":"absent","rt":1427.1000001431,"correct":true,"confidence":4},{"trial_n":138,"min":87,"max":168,"target":"absent","response":"absent","rt":691.10000014305,"correct":true,"confidence":4},{"trial_n":139,"min":87,"max":168,"target":"absent","response":"absent","rt":532.79999995232,"correct":true,"confidence":4},{"trial_n":140,"min":88,"max":167,"target":"present","response":"absent","rt":683.20000004768,"correct":false,"confidence":4}]