[{"trial_n":1,"n_dots":4.25,"target":"right","response":"right","rt":2854.5999999999,"correct":true,"confidence":-1},{"trial_n":2,"n_dots":4.25,"target":"right","response":"left","rt":1028.6000000001,"correct":false,"confidence":-1},{"trial_n":3,"n_dots":4.65,"target":"left","response":"left","rt":499.30000000005,"correct":true,"confidence":-1},{"trial_n":4,"n_dots":4.65,"target":"left","response":"left","rt":343.79999999981,"correct":true,"confidence":-1},{"trial_n":5,"n_dots":4.25,"target":"right","response":"right","rt":344.5,"correct":true,"confidence":-1},{"trial_n":6,"n_dots":4.25,"target":"left","response":"left","rt":400.09999999986,"correct":true,"confidence":-1},{"trial_n":7,"n_dots":3.85,"target":"right","response":"left","rt":273,"correct":false,"confidence":-1},{"trial_n":8,"n_dots":4.05,"target":"right","response":"left","rt":371.39999999991,"correct":false,"confidence":-1},{"trial_n":9,"n_dots":4.25,"target":"right","response":"left","rt":333.19999999995,"correct":false,"confidence":-1},{"trial_n":10,"n_dots":4.45,"target":"left","response":"left","rt":488,"correct":true,"confidence":-1},{"trial_n":11,"n_dots":4.45,"target":"left","response":"right","rt":278.69999999995,"correct":false,"confidence":-1},{"trial_n":12,"n_dots":4.65,"target":"left","response":"left","rt":717.39999999991,"correct":true,"confidence":-1},{"trial_n":13,"n_dots":4.65,"target":"left","response":"left","rt":386.89999999991,"correct":true,"confidence":-1},{"trial_n":14,"n_dots":4.55,"target":"right","response":"right","rt":825.30000000005,"correct":true,"confidence":-1},{"trial_n":15,"n_dots":4.55,"target":"right","response":"right","rt":975.69999999995,"correct":true,"confidence":-1},{"trial_n":16,"n_dots":4.45,"target":"left","response":"left","rt":589.29999999981,"correct":true,"confidence":-1},{"trial_n":17,"n_dots":4.45,"target":"right","response":"right","rt":161.90000000014,"correct":true,"confidence":-1},{"trial_n":18,"n_dots":4.35,"target":"right","response":"right","rt":388.5,"correct":true,"confidence":-1},{"trial_n":19,"n_dots":4.35,"target":"right","response":"right","rt":268.80000000005,"correct":true,"confidence":-1},{"trial_n":20,"n_dots":4.25,"target":"left","response":"left","rt":257.59999999986,"correct":true,"confidence":-1},{"trial_n":21,"n_dots":4.25,"target":"left","response":"left","rt":770.69999999995,"correct":true,"confidence":3},{"trial_n":22,"n_dots":4.15,"target":"right","response":"right","rt":633.80000000005,"correct":true,"confidence":2},{"trial_n":23,"n_dots":4.15,"target":"left","response":"left","rt":866.19999999995,"correct":true,"confidence":1},{"trial_n":24,"n_dots":4.05,"target":"right","response":"left","rt":1031,"correct":false,"confidence":2},{"trial_n":25,"n_dots":4.15,"target":"left","response":"left","rt":589.5,"correct":true,"confidence":3},{"trial_n":26,"n_dots":4.15,"target":"left","response":"left","rt":1256.1000000001,"correct":true,"confidence":3},{"trial_n":27,"n_dots":4.05,"target":"left","response":"left","rt":640.09999999986,"correct":true,"confidence":3},{"trial_n":28,"n_dots":4.05,"target":"right","response":"right","rt":686.19999999995,"correct":true,"confidence":2},{"trial_n":29,"n_dots":3.95,"target":"left","response":"left","rt":954,"correct":true,"confidence":3},{"trial_n":30,"n_dots":3.95,"target":"right","response":"right","rt":832.29999999981,"correct":true,"confidence":2},{"trial_n":31,"n_dots":3.85,"target":"left","response":"left","rt":816.30000000005,"correct":true,"confidence":3},{"trial_n":32,"n_dots":3.85,"target":"left","response":"left","rt":2295.2,"correct":true,"confidence":1},{"trial_n":33,"n_dots":3.75,"target":"left","response":"left","rt":675.30000000005,"correct":true,"confidence":4},{"trial_n":34,"n_dots":3.75,"target":"left","response":"left","rt":899.10000000009,"correct":true,"confidence":4},{"trial_n":35,"n_dots":3.65,"target":"right","response":"right","rt":877.80000000005,"correct":true,"confidence":2},{"trial_n":36,"n_dots":3.65,"target":"left","response":"left","rt":578.89999999991,"correct":true,"confidence":3},{"trial_n":37,"n_dots":3.55,"target":"left","response":"left","rt":830.29999999981,"correct":true,"confidence":2},{"trial_n":38,"n_dots":3.55,"target":"right","response":"left","rt":1529.7,"correct":false,"confidence":1},{"trial_n":39,"n_dots":3.65,"target":"left","response":"left","rt":681.69999999995,"correct":true,"confidence":1},{"trial_n":40,"n_dots":3.65,"target":"left","response":"right","rt":1160.8999999999,"correct":false,"confidence":1},{"trial_n":41,"n_dots":3.75,"target":"right","response":"right","rt":385.30000000005,"correct":true,"confidence":2},{"trial_n":42,"n_dots":3.75,"target":"right","response":"right","rt":368.5,"correct":true,"confidence":1},{"trial_n":43,"n_dots":3.65,"target":"right","response":"right","rt":600.40000000014,"correct":true,"confidence":3},{"trial_n":44,"n_dots":3.65,"target":"left","response":"left","rt":552.59999999986,"correct":true,"confidence":3},{"trial_n":45,"n_dots":3.55,"target":"right","response":"right","rt":946.19999999995,"correct":true,"confidence":4},{"trial_n":46,"n_dots":3.55,"target":"right","response":"right","rt":942.30000000005,"correct":true,"confidence":3},{"trial_n":47,"n_dots":3.45,"target":"right","response":"left","rt":1021.8,"correct":false,"confidence":3},{"trial_n":48,"n_dots":3.55,"target":"left","response":"left","rt":1666.1000000001,"correct":true,"confidence":2},{"trial_n":49,"n_dots":3.55,"target":"left","response":"left","rt":749.59999999986,"correct":true,"confidence":2},{"trial_n":50,"n_dots":3.45,"target":"left","response":"right","rt":1477.3999999999,"correct":false,"confidence":1},{"trial_n":51,"n_dots":3.55,"target":"left","response":"left","rt":1005,"correct":true,"confidence":2},{"trial_n":52,"n_dots":3.55,"target":"left","response":"left","rt":907.5,"correct":true,"confidence":2},{"trial_n":53,"n_dots":3.45,"target":"left","response":"left","rt":777.29999999981,"correct":true,"confidence":2},{"trial_n":54,"n_dots":3.45,"target":"right","response":"right","rt":822.5,"correct":true,"confidence":3},{"trial_n":55,"n_dots":3.35,"target":"right","response":"right","rt":917.19999999995,"correct":true,"confidence":3},{"trial_n":56,"n_dots":3.35,"target":"right","response":"left","rt":467.79999999981,"correct":false,"confidence":2},{"trial_n":57,"n_dots":3.45,"target":"right","response":"left","rt":573.60000000009,"correct":false,"confidence":2},{"trial_n":58,"n_dots":3.55,"target":"right","response":"right","rt":521.89999999991,"correct":true,"confidence":4},{"trial_n":59,"n_dots":3.55,"target":"left","response":"left","rt":1022.2,"correct":true,"confidence":3},{"trial_n":60,"n_dots":3.45,"target":"right","response":"right","rt":537.5,"correct":true,"confidence":1},{"trial_n":61,"n_dots":3.45,"target":"right","response":"right","rt":1442.3,"correct":true,"confidence":2},{"trial_n":62,"n_dots":3.35,"target":"right","response":"right","rt":814.10000000009,"correct":true,"confidence":2},{"trial_n":63,"n_dots":3.35,"target":"right","response":"right","rt":521.80000000005,"correct":true,"confidence":2},{"trial_n":64,"n_dots":3.25,"target":"right","response":"left","rt":766.5,"correct":false,"confidence":3},{"trial_n":65,"n_dots":3.35,"target":"right","response":"right","rt":711.69999999995,"correct":true,"confidence":1},{"trial_n":66,"n_dots":3.35,"target":"right","response":"right","rt":1049.8999999999,"correct":true,"confidence":1},{"trial_n":67,"n_dots":3.25,"target":"right","response":"right","rt":1064.7000000002,"correct":true,"confidence":1},{"trial_n":68,"n_dots":3.25,"target":"left","response":"left","rt":1161.5,"correct":true,"confidence":2},{"trial_n":69,"n_dots":3.15,"target":"left","response":"left","rt":1635,"correct":true,"confidence":2},{"trial_n":70,"n_dots":3.15,"target":"left","response":"right","rt":862.19999999995,"correct":false,"confidence":2},{"trial_n":71,"n_dots":3.25,"target":"right","response":"right","rt":1262.1000000001,"correct":true,"confidence":2},{"trial_n":72,"n_dots":3.25,"target":"left","response":"left","rt":830.69999999995,"correct":true,"confidence":2},{"trial_n":73,"n_dots":3.15,"target":"left","response":"left","rt":1856.4000000001,"correct":true,"confidence":2},{"trial_n":74,"n_dots":3.15,"target":"left","response":"left","rt":1500.5,"correct":true,"confidence":2},{"trial_n":75,"n_dots":3.05,"target":"right","response":"right","rt":983.69999999995,"correct":true,"confidence":3},{"trial_n":76,"n_dots":3.05,"target":"right","response":"right","rt":646.39999999991,"correct":true,"confidence":3},{"trial_n":77,"n_dots":2.95,"target":"right","response":"left","rt":551.5,"correct":false,"confidence":2},{"trial_n":78,"n_dots":3.05,"target":"left","response":"left","rt":1232.7999999998,"correct":true,"confidence":2},{"trial_n":79,"n_dots":3.05,"target":"left","response":"right","rt":1250.1000000001,"correct":false,"confidence":1},{"trial_n":80,"n_dots":3.15,"target":"left","response":"left","rt":680.19999999995,"correct":true,"confidence":2},{"trial_n":81,"n_dots":3.15,"target":"left","response":"left","rt":809.39999999991,"correct":true,"confidence":2},{"trial_n":82,"n_dots":3.05,"target":"left","response":"left","rt":782.40000000014,"correct":true,"confidence":3},{"trial_n":83,"n_dots":3.05,"target":"left","response":"right","rt":582.90000000014,"correct":false,"confidence":3},{"trial_n":84,"n_dots":3.15,"target":"left","response":"left","rt":655.89999999991,"correct":true,"confidence":3},{"trial_n":85,"n_dots":3.15,"target":"right","response":"left","rt":444,"correct":false,"confidence":2},{"trial_n":86,"n_dots":3.25,"target":"left","response":"left","rt":401.69999999995,"correct":true,"confidence":2},{"trial_n":87,"n_dots":3.25,"target":"right","response":"right","rt":650.5,"correct":true,"confidence":2},{"trial_n":88,"n_dots":3.15,"target":"left","response":"right","rt":1179.6000000001,"correct":false,"confidence":2},{"trial_n":89,"n_dots":3.25,"target":"right","response":"left","rt":523.5,"correct":false,"confidence":2},{"trial_n":90,"n_dots":3.35,"target":"right","response":"left","rt":394.10000000009,"correct":false,"confidence":2},{"trial_n":91,"n_dots":3.45,"target":"right","response":"right","rt":547.80000000005,"correct":true,"confidence":3},{"trial_n":92,"n_dots":3.45,"target":"right","response":"left","rt":1732.2,"correct":false,"confidence":1},{"trial_n":93,"n_dots":3.55,"target":"left","response":"left","rt":544.80000000005,"correct":true,"confidence":2},{"trial_n":94,"n_dots":3.55,"target":"right","response":"right","rt":758.60000000009,"correct":true,"confidence":3},{"trial_n":95,"n_dots":3.45,"target":"left","response":"left","rt":862.10000000009,"correct":true,"confidence":1},{"trial_n":96,"n_dots":3.45,"target":"right","response":"left","rt":1123.0999999999,"correct":false,"confidence":3},{"trial_n":97,"n_dots":3.55,"target":"right","response":"right","rt":548.19999999995,"correct":true,"confidence":3},{"trial_n":98,"n_dots":3.55,"target":"left","response":"right","rt":372.40000000014,"correct":false,"confidence":1},{"trial_n":99,"n_dots":3.65,"target":"right","response":"left","rt":1360.2,"correct":false,"confidence":2},{"trial_n":100,"n_dots":3.75,"target":"right","response":"right","rt":1183.7,"correct":true,"confidence":3},{"trial_n":101,"n_dots":3.75,"target":"left","response":"left","rt":517.09999999986,"correct":true,"confidence":4},{"trial_n":102,"n_dots":3.65,"target":"left","response":"left","rt":579.19999999995,"correct":true,"confidence":3},{"trial_n":103,"n_dots":3.65,"target":"right","response":"right","rt":637.69999999995,"correct":true,"confidence":4},{"trial_n":104,"n_dots":3.55,"target":"right","response":"right","rt":632.89999999991,"correct":true,"confidence":4},{"trial_n":105,"n_dots":3.55,"target":"left","response":"left","rt":646.19999999995,"correct":true,"confidence":3},{"trial_n":106,"n_dots":3.45,"target":"right","response":"left","rt":447.70000000019,"correct":false,"confidence":3},{"trial_n":107,"n_dots":3.55,"target":"left","response":"left","rt":1443.5,"correct":true,"confidence":2},{"trial_n":108,"n_dots":3.55,"target":"left","response":"right","rt":1214.5,"correct":false,"confidence":2},{"trial_n":109,"n_dots":3.65,"target":"right","response":"right","rt":340.60000000009,"correct":true,"confidence":2},{"trial_n":110,"n_dots":3.65,"target":"left","response":"right","rt":894.19999999995,"correct":false,"confidence":2},{"trial_n":111,"n_dots":3.75,"target":"right","response":"right","rt":151.19999999995,"correct":true,"confidence":2},{"trial_n":112,"n_dots":3.75,"target":"right","response":"right","rt":217.29999999981,"correct":true,"confidence":2},{"trial_n":113,"n_dots":3.65,"target":"left","response":"left","rt":424.19999999995,"correct":true,"confidence":3},{"trial_n":114,"n_dots":3.65,"target":"left","response":"left","rt":1254.8,"correct":true,"confidence":3},{"trial_n":115,"n_dots":3.55,"target":"right","response":"right","rt":367.5,"correct":true,"confidence":3},{"trial_n":116,"n_dots":3.55,"target":"right","response":"right","rt":1300.3999999999,"correct":true,"confidence":2},{"trial_n":117,"n_dots":3.45,"target":"left","response":"right","rt":1127.8999999999,"correct":false,"confidence":2},{"trial_n":118,"n_dots":3.55,"target":"left","response":"right","rt":1372.7,"correct":false,"confidence":2},{"trial_n":119,"n_dots":3.65,"target":"right","response":"right","rt":779.19999999995,"correct":true,"confidence":3},{"trial_n":120,"n_dots":3.65,"target":"left","response":"left","rt":511.80000000005,"correct":true,"confidence":2}]