[{"trial_n":1,"n_dots":4.25,"target":"right","response":"left","rt":5415.1999999881,"correct":false,"confidence":-1},{"trial_n":2,"n_dots":4.25,"target":"left","response":"left","rt":538.19999998808,"correct":true,"confidence":-1},{"trial_n":3,"n_dots":4.25,"target":"right","response":"right","rt":388.19999998808,"correct":true,"confidence":-1},{"trial_n":4,"n_dots":3.85,"target":"left","response":"left","rt":99.300000011921,"correct":true,"confidence":-1},{"trial_n":5,"n_dots":3.85,"target":"left","response":"left","rt":371.79999995232,"correct":true,"confidence":-1},{"trial_n":6,"n_dots":3.45,"target":"left","response":"right","rt":417.5,"correct":false,"confidence":-1},{"trial_n":7,"n_dots":3.85,"target":"left","response":"right","rt":554.09999996424,"correct":false,"confidence":-1},{"trial_n":8,"n_dots":4.05,"target":"right","response":"right","rt":351.89999997616,"correct":true,"confidence":-1},{"trial_n":9,"n_dots":4.05,"target":"left","response":"left","rt":329.19999998808,"correct":true,"confidence":-1},{"trial_n":10,"n_dots":3.85,"target":"right","response":"right","rt":485.5,"correct":true,"confidence":-1},{"trial_n":11,"n_dots":3.85,"target":"right","response":"left","rt":904.60000002384,"correct":false,"confidence":-1},{"trial_n":12,"n_dots":4.05,"target":"right","response":"right","rt":372.90000003576,"correct":true,"confidence":-1},{"trial_n":13,"n_dots":4.05,"target":"right","response":"right","rt":356.80000001192,"correct":true,"confidence":-1},{"trial_n":14,"n_dots":3.95,"target":"left","response":"left","rt":12.599999964237,"correct":true,"confidence":-1},{"trial_n":15,"n_dots":3.95,"target":"right","response":"right","rt":560.60000002384,"correct":true,"confidence":-1},{"trial_n":16,"n_dots":3.85,"target":"right","response":"right","rt":435.19999998808,"correct":true,"confidence":-1},{"trial_n":17,"n_dots":3.85,"target":"right","response":"right","rt":446.10000002384,"correct":true,"confidence":-1},{"trial_n":18,"n_dots":3.75,"target":"left","response":"left","rt":68.100000023842,"correct":true,"confidence":-1},{"trial_n":19,"n_dots":3.75,"target":"left","response":"left","rt":60.199999988079,"correct":true,"confidence":-1},{"trial_n":20,"n_dots":3.65,"target":"right","response":"right","rt":570.69999998808,"correct":true,"confidence":-1},{"trial_n":21,"n_dots":3.65,"target":"right","response":"right","rt":497.80000001192,"correct":true,"confidence":3},{"trial_n":22,"n_dots":3.55,"target":"left","response":"left","rt":414.19999998808,"correct":true,"confidence":3},{"trial_n":23,"n_dots":3.55,"target":"right","response":"right","rt":345.69999998808,"correct":true,"confidence":4},{"trial_n":24,"n_dots":3.45,"target":"left","response":"left","rt":480.60000002384,"correct":true,"confidence":4},{"trial_n":25,"n_dots":3.45,"target":"left","response":"left","rt":329.20000004768,"correct":true,"confidence":3},{"trial_n":26,"n_dots":3.35,"target":"right","response":"right","rt":445.89999997616,"correct":true,"confidence":4},{"trial_n":27,"n_dots":3.35,"target":"right","response":"right","rt":210.69999998808,"correct":true,"confidence":3},{"trial_n":28,"n_dots":3.25,"target":"left","response":"left","rt":1612.5,"correct":true,"confidence":2},{"trial_n":29,"n_dots":3.25,"target":"right","response":"right","rt":354.70000004768,"correct":true,"confidence":3},{"trial_n":30,"n_dots":3.15,"target":"left","response":"left","rt":2615.8000000119,"correct":true,"confidence":2},{"trial_n":31,"n_dots":3.15,"target":"right","response":"left","rt":296,"correct":false,"confidence":2},{"trial_n":32,"n_dots":3.25,"target":"right","response":"right","rt":160.30000001192,"correct":true,"confidence":4},{"trial_n":33,"n_dots":3.25,"target":"left","response":"left","rt":259.10000002384,"correct":true,"confidence":2},{"trial_n":34,"n_dots":3.15,"target":"right","response":"right","rt":591.80000001192,"correct":true,"confidence":3},{"trial_n":35,"n_dots":3.15,"target":"left","response":"left","rt":1247.8999999762,"correct":true,"confidence":2},{"trial_n":36,"n_dots":3.05,"target":"left","response":"left","rt":331.10000002384,"correct":true,"confidence":3},{"trial_n":37,"n_dots":3.05,"target":"right","response":"right","rt":311.10000002384,"correct":true,"confidence":3},{"trial_n":38,"n_dots":2.95,"target":"left","response":"left","rt":378,"correct":true,"confidence":2},{"trial_n":39,"n_dots":2.95,"target":"left","response":"left","rt":779.19999998808,"correct":true,"confidence":2},{"trial_n":40,"n_dots":2.85,"target":"right","response":"right","rt":387.40000003576,"correct":true,"confidence":4},{"trial_n":41,"n_dots":2.85,"target":"right","response":"left","rt":394.39999997616,"correct":false,"confidence":2},{"trial_n":42,"n_dots":2.95,"target":"right","response":"right","rt":452.89999997616,"correct":true,"confidence":2},{"trial_n":43,"n_dots":2.95,"target":"left","response":"left","rt":206.19999998808,"correct":true,"confidence":4},{"trial_n":44,"n_dots":2.85,"target":"right","response":"right","rt":218.89999997616,"correct":true,"confidence":3},{"trial_n":45,"n_dots":2.85,"target":"right","response":"left","rt":278.39999997616,"correct":false,"confidence":3},{"trial_n":46,"n_dots":2.95,"target":"left","response":"left","rt":328.30000001192,"correct":true,"confidence":2},{"trial_n":47,"n_dots":2.95,"target":"left","response":"left","rt":430.19999998808,"correct":true,"confidence":3},{"trial_n":48,"n_dots":2.85,"target":"right","response":"right","rt":509.89999997616,"correct":true,"confidence":2},{"trial_n":49,"n_dots":2.85,"target":"right","response":"right","rt":730.39999997616,"correct":true,"confidence":2},{"trial_n":50,"n_dots":2.75,"target":"left","response":"right","rt":622.69999998808,"correct":false,"confidence":3},{"trial_n":51,"n_dots":2.85,"target":"right","response":"left","rt":1793.2999999523,"correct":false,"confidence":2},{"trial_n":52,"n_dots":2.95,"target":"right","response":"left","rt":301.09999996424,"correct":false,"confidence":3},{"trial_n":53,"n_dots":3.05,"target":"left","response":"left","rt":463.30000001192,"correct":true,"confidence":4},{"trial_n":54,"n_dots":3.05,"target":"left","response":"left","rt":523.80000001192,"correct":true,"confidence":2},{"trial_n":55,"n_dots":2.95,"target":"right","response":"right","rt":766.80000001192,"correct":true,"confidence":4},{"trial_n":56,"n_dots":2.95,"target":"right","response":"left","rt":1133.8000000119,"correct":false,"confidence":3},{"trial_n":57,"n_dots":3.05,"target":"right","response":"right","rt":1845.8000000119,"correct":true,"confidence":4},{"trial_n":58,"n_dots":3.05,"target":"right","response":"right","rt":1533.6999999881,"correct":true,"confidence":4},{"trial_n":59,"n_dots":2.95,"target":"right","response":"right","rt":741.40000003576,"correct":true,"confidence":4},{"trial_n":60,"n_dots":2.95,"target":"left","response":"right","rt":1459.5,"correct":false,"confidence":3},{"trial_n":61,"n_dots":3.05,"target":"right","response":"left","rt":1174.1999999881,"correct":false,"confidence":2},{"trial_n":62,"n_dots":3.15,"target":"right","response":"right","rt":440.5,"correct":true,"confidence":2},{"trial_n":63,"n_dots":3.15,"target":"left","response":"left","rt":316,"correct":true,"confidence":2},{"trial_n":64,"n_dots":3.05,"target":"left","response":"right","rt":69.699999988079,"correct":false,"confidence":2},{"trial_n":65,"n_dots":3.15,"target":"left","response":"left","rt":85.099999964237,"correct":true,"confidence":2},{"trial_n":66,"n_dots":3.15,"target":"left","response":"left","rt":242.80000001192,"correct":true,"confidence":3},{"trial_n":67,"n_dots":3.05,"target":"right","response":"right","rt":305.90000003576,"correct":true,"confidence":3},{"trial_n":68,"n_dots":3.05,"target":"right","response":"right","rt":507.89999997616,"correct":true,"confidence":3},{"trial_n":69,"n_dots":2.95,"target":"right","response":"left","rt":2468.0999999642,"correct":false,"confidence":2},{"trial_n":70,"n_dots":3.05,"target":"right","response":"right","rt":839,"correct":true,"confidence":4},{"trial_n":71,"n_dots":3.05,"target":"left","response":"left","rt":458.5,"correct":true,"confidence":3},{"trial_n":72,"n_dots":2.95,"target":"right","response":"right","rt":1069.3999999762,"correct":true,"confidence":4},{"trial_n":73,"n_dots":2.95,"target":"left","response":"left","rt":245.39999997616,"correct":true,"confidence":3},{"trial_n":74,"n_dots":2.85,"target":"left","response":"left","rt":499.70000004768,"correct":true,"confidence":3},{"trial_n":75,"n_dots":2.85,"target":"right","response":"right","rt":347.40000003576,"correct":true,"confidence":4},{"trial_n":76,"n_dots":2.75,"target":"right","response":"right","rt":548,"correct":true,"confidence":3},{"trial_n":77,"n_dots":2.75,"target":"right","response":"left","rt":107,"correct":false,"confidence":2},{"trial_n":78,"n_dots":2.85,"target":"right","response":"right","rt":112.19999998808,"correct":true,"confidence":3},{"trial_n":79,"n_dots":2.85,"target":"right","response":"right","rt":1113.3000000119,"correct":true,"confidence":4},{"trial_n":80,"n_dots":2.75,"target":"right","response":"right","rt":138.19999998808,"correct":true,"confidence":2},{"trial_n":81,"n_dots":2.75,"target":"left","response":"left","rt":2047.9000000358,"correct":true,"confidence":5},{"trial_n":82,"n_dots":2.65,"target":"left","response":"left","rt":341.80000001192,"correct":true,"confidence":4},{"trial_n":83,"n_dots":2.65,"target":"left","response":"right","rt":319.59999996424,"correct":false,"confidence":4},{"trial_n":84,"n_dots":2.75,"target":"right","response":"right","rt":348.5,"correct":true,"confidence":3},{"trial_n":85,"n_dots":2.75,"target":"right","response":"left","rt":370.29999995232,"correct":false,"confidence":4},{"trial_n":86,"n_dots":2.85,"target":"left","response":"right","rt":3130.4000000358,"correct":false,"confidence":2},{"trial_n":87,"n_dots":2.95,"target":"right","response":"right","rt":39.5,"correct":true,"confidence":1},{"trial_n":88,"n_dots":2.95,"target":"left","response":"left","rt":860.5,"correct":true,"confidence":4},{"trial_n":89,"n_dots":2.85,"target":"left","response":"left","rt":4716.6000000238,"correct":true,"confidence":2},{"trial_n":90,"n_dots":2.85,"target":"left","response":"right","rt":1045.8999999762,"correct":false,"confidence":4},{"trial_n":91,"n_dots":2.95,"target":"left","response":"left","rt":416.69999998808,"correct":true,"confidence":4},{"trial_n":92,"n_dots":2.95,"target":"left","response":"left","rt":764.69999998808,"correct":true,"confidence":3},{"trial_n":93,"n_dots":2.85,"target":"right","response":"left","rt":153,"correct":false,"confidence":5},{"trial_n":94,"n_dots":2.95,"target":"right","response":"right","rt":401.5,"correct":true,"confidence":4},{"trial_n":95,"n_dots":2.95,"target":"left","response":"left","rt":995.30000001192,"correct":true,"confidence":4},{"trial_n":96,"n_dots":2.85,"target":"left","response":"left","rt":120.30000001192,"correct":true,"confidence":4},{"trial_n":97,"n_dots":2.85,"target":"left","response":"right","rt":210.30000001192,"correct":false,"confidence":3},{"trial_n":98,"n_dots":2.95,"target":"right","response":"right","rt":929.69999998808,"correct":true,"confidence":3},{"trial_n":99,"n_dots":2.95,"target":"left","response":"right","rt":22.099999964237,"correct":false,"confidence":2},{"trial_n":100,"n_dots":3.05,"target":"right","response":"right","rt":322.10000002384,"correct":true,"confidence":4},{"trial_n":101,"n_dots":3.05,"target":"left","response":"right","rt":290.5,"correct":false,"confidence":3},{"trial_n":102,"n_dots":3.15,"target":"left","response":"right","rt":268.80000001192,"correct":false,"confidence":3},{"trial_n":103,"n_dots":3.25,"target":"left","response":"right","rt":224.5,"correct":false,"confidence":3},{"trial_n":104,"n_dots":3.35,"target":"left","response":"right","rt":2221.5,"correct":false,"confidence":2},{"trial_n":105,"n_dots":3.45,"target":"left","response":"left","rt":416.30000001192,"correct":true,"confidence":3},{"trial_n":106,"n_dots":3.45,"target":"right","response":"right","rt":966,"correct":true,"confidence":2},{"trial_n":107,"n_dots":3.35,"target":"left","response":"left","rt":1980,"correct":true,"confidence":3},{"trial_n":108,"n_dots":3.35,"target":"left","response":"right","rt":296.19999998808,"correct":false,"confidence":3},{"trial_n":109,"n_dots":3.45,"target":"left","response":"right","rt":379.09999996424,"correct":false,"confidence":3},{"trial_n":110,"n_dots":3.55,"target":"right","response":"right","rt":2.3000000119209,"correct":true,"confidence":3},{"trial_n":111,"n_dots":3.55,"target":"left","response":"left","rt":71.100000023842,"correct":true,"confidence":1},{"trial_n":112,"n_dots":3.45,"target":"left","response":"right","rt":1284.5,"correct":false,"confidence":2},{"trial_n":113,"n_dots":3.55,"target":"right","response":"right","rt":623.19999998808,"correct":true,"confidence":4},{"trial_n":114,"n_dots":3.55,"target":"left","response":"right","rt":365.70000004768,"correct":false,"confidence":3},{"trial_n":115,"n_dots":3.65,"target":"left","response":"left","rt":427.90000003576,"correct":true,"confidence":4},{"trial_n":116,"n_dots":3.65,"target":"left","response":"left","rt":194.29999995232,"correct":true,"confidence":3},{"trial_n":117,"n_dots":3.55,"target":"right","response":"right","rt":557.59999996424,"correct":true,"confidence":4},{"trial_n":118,"n_dots":3.55,"target":"right","response":"right","rt":26.199999988079,"correct":true,"confidence":4},{"trial_n":119,"n_dots":3.45,"target":"right","response":"right","rt":743.60000002384,"correct":true,"confidence":4},{"trial_n":120,"n_dots":3.45,"target":"left","response":"left","rt":1243.8000000119,"correct":true,"confidence":3}]