[{"trial_n":1,"n_dots":4.25,"target":"right","response":"left","rt":3643.7000000477,"correct":false,"confidence":-1},{"trial_n":2,"n_dots":4.25,"target":"left","response":"left","rt":632.90000009537,"correct":true,"confidence":-1},{"trial_n":3,"n_dots":4.25,"target":"left","response":"left","rt":265.5,"correct":true,"confidence":-1},{"trial_n":4,"n_dots":3.85,"target":"right","response":"left","rt":265.20000004768,"correct":false,"confidence":-1},{"trial_n":5,"n_dots":4.25,"target":"left","response":"left","rt":136.89999985695,"correct":true,"confidence":-1},{"trial_n":6,"n_dots":4.25,"target":"right","response":"right","rt":269.80000019073,"correct":true,"confidence":-1},{"trial_n":7,"n_dots":3.85,"target":"left","response":"left","rt":288.5,"correct":true,"confidence":-1},{"trial_n":8,"n_dots":3.85,"target":"left","response":"right","rt":562.40000009537,"correct":false,"confidence":-1},{"trial_n":9,"n_dots":4.05,"target":"left","response":"left","rt":269.70000004768,"correct":true,"confidence":-1},{"trial_n":10,"n_dots":4.05,"target":"right","response":"right","rt":587.60000014305,"correct":true,"confidence":-1},{"trial_n":11,"n_dots":3.85,"target":"right","response":"right","rt":505.79999995232,"correct":true,"confidence":-1},{"trial_n":12,"n_dots":3.85,"target":"right","response":"right","rt":289,"correct":true,"confidence":-1},{"trial_n":13,"n_dots":3.75,"target":"right","response":"left","rt":282.70000004768,"correct":false,"confidence":-1},{"trial_n":14,"n_dots":3.85,"target":"left","response":"right","rt":278,"correct":false,"confidence":-1},{"trial_n":15,"n_dots":3.95,"target":"right","response":"left","rt":311.20000004768,"correct":false,"confidence":-1},{"trial_n":16,"n_dots":4.05,"target":"left","response":"right","rt":591.59999990463,"correct":false,"confidence":-1},{"trial_n":17,"n_dots":4.15,"target":"left","response":"right","rt":417.19999980927,"correct":false,"confidence":-1},{"trial_n":18,"n_dots":4.25,"target":"left","response":"left","rt":227.40000009537,"correct":true,"confidence":-1},{"trial_n":19,"n_dots":4.25,"target":"right","response":"left","rt":205.80000019073,"correct":false,"confidence":-1},{"trial_n":20,"n_dots":4.35,"target":"right","response":"right","rt":483.60000014305,"correct":true,"confidence":-1},{"trial_n":21,"n_dots":4.35,"target":"right","response":"left","rt":927.09999990463,"correct":false,"confidence":3},{"trial_n":22,"n_dots":4.45,"target":"right","response":"left","rt":1222.5999999046,"correct":false,"confidence":3},{"trial_n":23,"n_dots":4.55,"target":"right","response":"left","rt":620.79999995232,"correct":false,"confidence":2},{"trial_n":24,"n_dots":4.65,"target":"left","response":"right","rt":1496.1999998093,"correct":false,"confidence":3},{"trial_n":25,"n_dots":4.75,"target":"left","response":"left","rt":619.29999995232,"correct":true,"confidence":3},{"trial_n":26,"n_dots":4.75,"target":"left","response":"left","rt":563.80000019073,"correct":true,"confidence":4},{"trial_n":27,"n_dots":4.65,"target":"right","response":"right","rt":1054,"correct":true,"confidence":4},{"trial_n":28,"n_dots":4.65,"target":"left","response":"left","rt":595.20000004768,"correct":true,"confidence":4},{"trial_n":29,"n_dots":4.55,"target":"left","response":"left","rt":607.39999985695,"correct":true,"confidence":4},{"trial_n":30,"n_dots":4.55,"target":"right","response":"right","rt":684.80000019073,"correct":true,"confidence":4},{"trial_n":31,"n_dots":4.45,"target":"left","response":"left","rt":575.5,"correct":true,"confidence":4},{"trial_n":32,"n_dots":4.45,"target":"left","response":"left","rt":1230,"correct":true,"confidence":4},{"trial_n":33,"n_dots":4.35,"target":"left","response":"right","rt":731.59999990463,"correct":false,"confidence":4},{"trial_n":34,"n_dots":4.45,"target":"right","response":"right","rt":358.20000004768,"correct":true,"confidence":4},{"trial_n":35,"n_dots":4.45,"target":"right","response":"right","rt":437,"correct":true,"confidence":3},{"trial_n":36,"n_dots":4.35,"target":"right","response":"right","rt":529.09999990463,"correct":true,"confidence":3},{"trial_n":37,"n_dots":4.35,"target":"left","response":"right","rt":762.59999990463,"correct":false,"confidence":2},{"trial_n":38,"n_dots":4.45,"target":"right","response":"right","rt":527.5,"correct":true,"confidence":4},{"trial_n":39,"n_dots":4.45,"target":"right","response":"right","rt":515.09999990463,"correct":true,"confidence":3},{"trial_n":40,"n_dots":4.35,"target":"right","response":"right","rt":519.40000009537,"correct":true,"confidence":4},{"trial_n":41,"n_dots":4.35,"target":"left","response":"left","rt":2299.8999998569,"correct":true,"confidence":3},{"trial_n":42,"n_dots":4.25,"target":"right","response":"right","rt":2303,"correct":true,"confidence":3},{"trial_n":43,"n_dots":4.25,"target":"left","response":"left","rt":1077.0999999046,"correct":true,"confidence":3},{"trial_n":44,"n_dots":4.15,"target":"right","response":"right","rt":945.59999990463,"correct":true,"confidence":4},{"trial_n":45,"n_dots":4.15,"target":"right","response":"right","rt":1544.3999998569,"correct":true,"confidence":3},{"trial_n":46,"n_dots":4.05,"target":"left","response":"right","rt":499.79999995232,"correct":false,"confidence":2},{"trial_n":47,"n_dots":4.15,"target":"right","response":"right","rt":1034.3999998569,"correct":true,"confidence":3},{"trial_n":48,"n_dots":4.15,"target":"left","response":"left","rt":1216.3999998569,"correct":true,"confidence":3},{"trial_n":49,"n_dots":4.05,"target":"left","response":"right","rt":724.80000019073,"correct":false,"confidence":2},{"trial_n":50,"n_dots":4.15,"target":"right","response":"right","rt":546.59999990463,"correct":true,"confidence":3},{"trial_n":51,"n_dots":4.15,"target":"left","response":"right","rt":1043.5,"correct":false,"confidence":3},{"trial_n":52,"n_dots":4.25,"target":"left","response":"left","rt":708.40000009537,"correct":true,"confidence":3},{"trial_n":53,"n_dots":4.25,"target":"right","response":"right","rt":19609.299999952,"correct":true,"confidence":2},{"trial_n":54,"n_dots":4.15,"target":"right","response":"right","rt":34907.700000048,"correct":true,"confidence":3},{"trial_n":55,"n_dots":4.15,"target":"left","response":"left","rt":448.09999990463,"correct":true,"confidence":2},{"trial_n":56,"n_dots":4.05,"target":"left","response":"right","rt":3578.7000000477,"correct":false,"confidence":1},{"trial_n":57,"n_dots":4.15,"target":"left","response":"left","rt":488.90000009537,"correct":true,"confidence":4},{"trial_n":58,"n_dots":4.15,"target":"right","response":"right","rt":698.20000004768,"correct":true,"confidence":4},{"trial_n":59,"n_dots":4.05,"target":"right","response":"right","rt":36953.400000095,"correct":true,"confidence":4},{"trial_n":60,"n_dots":4.05,"target":"left","response":"right","rt":814.10000014305,"correct":false,"confidence":3},{"trial_n":61,"n_dots":4.15,"target":"left","response":"left","rt":681.59999990463,"correct":true,"confidence":4},{"trial_n":62,"n_dots":4.15,"target":"left","response":"left","rt":5502.4000000954,"correct":true,"confidence":4},{"trial_n":63,"n_dots":4.05,"target":"right","response":"right","rt":669,"correct":true,"confidence":4},{"trial_n":64,"n_dots":4.05,"target":"left","response":"left","rt":791.20000004768,"correct":true,"confidence":4},{"trial_n":65,"n_dots":3.95,"target":"right","response":"right","rt":935.5,"correct":true,"confidence":4},{"trial_n":66,"n_dots":3.95,"target":"left","response":"right","rt":969,"correct":false,"confidence":4},{"trial_n":67,"n_dots":4.05,"target":"right","response":"right","rt":849.10000014305,"correct":true,"confidence":4},{"trial_n":68,"n_dots":4.05,"target":"left","response":"right","rt":1501.7000000477,"correct":false,"confidence":2},{"trial_n":69,"n_dots":4.15,"target":"right","response":"right","rt":334.19999980927,"correct":true,"confidence":4},{"trial_n":70,"n_dots":4.15,"target":"left","response":"right","rt":3496,"correct":false,"confidence":3},{"trial_n":71,"n_dots":4.25,"target":"right","response":"right","rt":880.60000014305,"correct":true,"confidence":3},{"trial_n":72,"n_dots":4.25,"target":"right","response":"right","rt":670,"correct":true,"confidence":4},{"trial_n":73,"n_dots":4.15,"target":"left","response":"left","rt":1125.2000000477,"correct":true,"confidence":4},{"trial_n":74,"n_dots":4.15,"target":"left","response":"left","rt":726.20000004768,"correct":true,"confidence":4},{"trial_n":75,"n_dots":4.05,"target":"left","response":"left","rt":597.70000004768,"correct":true,"confidence":4},{"trial_n":76,"n_dots":4.05,"target":"left","response":"left","rt":863.19999980927,"correct":true,"confidence":4},{"trial_n":77,"n_dots":3.95,"target":"right","response":"right","rt":593.20000004768,"correct":true,"confidence":4},{"trial_n":78,"n_dots":3.95,"target":"left","response":"left","rt":878.60000014305,"correct":true,"confidence":4},{"trial_n":79,"n_dots":3.85,"target":"left","response":"right","rt":1471.2999999523,"correct":false,"confidence":3},{"trial_n":80,"n_dots":3.95,"target":"left","response":"left","rt":893,"correct":true,"confidence":3},{"trial_n":81,"n_dots":3.95,"target":"left","response":"right","rt":545.5,"correct":false,"confidence":3},{"trial_n":82,"n_dots":4.05,"target":"right","response":"right","rt":512.90000009537,"correct":true,"confidence":4},{"trial_n":83,"n_dots":4.05,"target":"right","response":"right","rt":567.60000014305,"correct":true,"confidence":3},{"trial_n":84,"n_dots":3.95,"target":"left","response":"right","rt":774.39999985695,"correct":false,"confidence":4},{"trial_n":85,"n_dots":4.05,"target":"left","response":"left","rt":648.89999985695,"correct":true,"confidence":4},{"trial_n":86,"n_dots":4.05,"target":"right","response":"right","rt":467.70000004768,"correct":true,"confidence":3},{"trial_n":87,"n_dots":3.95,"target":"right","response":"right","rt":429.19999980927,"correct":true,"confidence":3},{"trial_n":88,"n_dots":3.95,"target":"left","response":"left","rt":538.20000004768,"correct":true,"confidence":4},{"trial_n":89,"n_dots":3.85,"target":"left","response":"right","rt":627.5,"correct":false,"confidence":4},{"trial_n":90,"n_dots":3.95,"target":"right","response":"right","rt":554.29999995232,"correct":true,"confidence":3},{"trial_n":91,"n_dots":3.95,"target":"right","response":"right","rt":375.40000009537,"correct":true,"confidence":2},{"trial_n":92,"n_dots":3.85,"target":"right","response":"right","rt":291.5,"correct":true,"confidence":3},{"trial_n":93,"n_dots":3.85,"target":"left","response":"left","rt":885,"correct":true,"confidence":3},{"trial_n":94,"n_dots":3.75,"target":"right","response":"right","rt":1518.0999999046,"correct":true,"confidence":3},{"trial_n":95,"n_dots":3.75,"target":"left","response":"left","rt":753.20000004768,"correct":true,"confidence":4},{"trial_n":96,"n_dots":3.65,"target":"right","response":"right","rt":800.40000009537,"correct":true,"confidence":3},{"trial_n":97,"n_dots":3.65,"target":"left","response":"left","rt":1022.7000000477,"correct":true,"confidence":4},{"trial_n":98,"n_dots":3.55,"target":"left","response":"left","rt":921.29999995232,"correct":true,"confidence":3},{"trial_n":99,"n_dots":3.55,"target":"left","response":"right","rt":1028.7999999523,"correct":false,"confidence":4},{"trial_n":100,"n_dots":3.65,"target":"right","response":"right","rt":718.60000014305,"correct":true,"confidence":4},{"trial_n":101,"n_dots":3.65,"target":"right","response":"right","rt":625.39999985695,"correct":true,"confidence":3},{"trial_n":102,"n_dots":3.55,"target":"left","response":"left","rt":703.09999990463,"correct":true,"confidence":4},{"trial_n":103,"n_dots":3.55,"target":"right","response":"right","rt":1104.3999998569,"correct":true,"confidence":4},{"trial_n":104,"n_dots":3.45,"target":"left","response":"right","rt":1187.2000000477,"correct":false,"confidence":3},{"trial_n":105,"n_dots":3.55,"target":"right","response":"left","rt":768.10000014305,"correct":false,"confidence":3},{"trial_n":106,"n_dots":3.65,"target":"left","response":"left","rt":593.70000004768,"correct":true,"confidence":3},{"trial_n":107,"n_dots":3.65,"target":"right","response":"left","rt":589.59999990463,"correct":false,"confidence":4},{"trial_n":108,"n_dots":3.75,"target":"right","response":"right","rt":555.40000009537,"correct":true,"confidence":4},{"trial_n":109,"n_dots":3.75,"target":"right","response":"right","rt":536.90000009537,"correct":true,"confidence":2},{"trial_n":110,"n_dots":3.65,"target":"left","response":"right","rt":671.5,"correct":false,"confidence":3},{"trial_n":111,"n_dots":3.75,"target":"right","response":"left","rt":910.10000014305,"correct":false,"confidence":3},{"trial_n":112,"n_dots":3.85,"target":"right","response":"right","rt":482.40000009537,"correct":true,"confidence":3},{"trial_n":113,"n_dots":3.85,"target":"right","response":"right","rt":1607.8999998569,"correct":true,"confidence":3},{"trial_n":114,"n_dots":3.75,"target":"left","response":"right","rt":2160.1000001431,"correct":false,"confidence":4},{"trial_n":115,"n_dots":3.85,"target":"right","response":"right","rt":501.5,"correct":true,"confidence":3},{"trial_n":116,"n_dots":3.85,"target":"left","response":"right","rt":890.10000014305,"correct":false,"confidence":3},{"trial_n":117,"n_dots":3.95,"target":"right","response":"left","rt":987.60000014305,"correct":false,"confidence":4},{"trial_n":118,"n_dots":4.05,"target":"right","response":"right","rt":587.5,"correct":true,"confidence":2},{"trial_n":119,"n_dots":4.05,"target":"left","response":"left","rt":819.90000009537,"correct":true,"confidence":3},{"trial_n":120,"n_dots":3.95,"target":"right","response":"right","rt":809.29999995232,"correct":true,"confidence":3}]