[{"trial_n":1,"span":8,"encoder":"15023789","distractor":"15023769","target":"present","response":"present","rt":"7365","correct":true,"confidence":-1},{"trial_n":2,"span":8,"encoder":"42217215","distractor":"42217245","target":"present","response":"present","rt":"1382","correct":true,"confidence":-1},{"trial_n":3,"span":10,"encoder":"3884400612","distractor":"3084400612","target":"absent","response":"present","rt":"1339","correct":false,"confidence":-1},{"trial_n":4,"span":8,"encoder":"29181462","distractor":"49181462","target":"absent","response":"present","rt":"1931","correct":false,"confidence":-1},{"trial_n":5,"span":6,"encoder":"262548","distractor":"562548","target":"present","response":"present","rt":"1644","correct":true,"confidence":-1},{"trial_n":6,"span":6,"encoder":"650623","distractor":"650923","target":"present","response":"present","rt":"1341","correct":true,"confidence":-1},{"trial_n":7,"span":8,"encoder":"04230158","distractor":"04030158","target":"absent","response":"absent","rt":"2271","correct":true,"confidence":-1},{"trial_n":8,"span":8,"encoder":"15309033","distractor":"15809033","target":"present","response":"present","rt":"1140","correct":true,"confidence":-1},{"trial_n":9,"span":10,"encoder":"7380763613","distractor":"1380763613","target":"present","response":"present","rt":"1723","correct":true,"confidence":-1},{"trial_n":10,"span":10,"encoder":"6696205611","distractor":"6696205617","target":"absent","response":"absent","rt":"1467","correct":true,"confidence":-1},{"trial_n":11,"span":12,"encoder":"653558505494","distractor":"653558595494","target":"absent","response":"absent","rt":"1725","correct":true,"confidence":-1},{"trial_n":12,"span":12,"encoder":"297989733992","distractor":"797989733992","target":"present","response":"present","rt":"1395","correct":true,"confidence":-1},{"trial_n":13,"span":13,"encoder":"5268056820744","distractor":"5268056820794","target":"present","response":"present","rt":"1537","correct":true,"confidence":-1},{"trial_n":14,"span":13,"encoder":"3001435143167","distractor":"3001435143187","target":"absent","response":"present","rt":"1351","correct":false,"confidence":-1},{"trial_n":15,"span":12,"encoder":"750594525777","distractor":"750599525777","target":"absent","response":"present","rt":"1104","correct":false,"confidence":-1},{"trial_n":16,"span":11,"encoder":"28388111777","distractor":"28388111747","target":"absent","response":"absent","rt":"1248","correct":true,"confidence":-1},{"trial_n":17,"span":11,"encoder":"66263550216","distractor":"66263750216","target":"absent","response":"present","rt":"1369","correct":false,"confidence":-1},{"trial_n":18,"span":10,"encoder":"0366559970","distractor":"0366559470","target":"absent","response":"absent","rt":"1470","correct":true,"confidence":-1},{"trial_n":19,"span":10,"encoder":"4971785621","distractor":"2971785621","target":"present","response":"present","rt":"1446","correct":true,"confidence":-1},{"trial_n":20,"span":11,"encoder":"09212132813","distractor":"09212152813","target":"present","response":"present","rt":"1378","correct":true,"confidence":-1},{"trial_n":21,"span":11,"encoder":"77287065888","distractor":"77287065885","target":"present","response":"present","rt":"1446","correct":true,"confidence":4},{"trial_n":22,"span":12,"encoder":"372741840406","distractor":"372746840406","target":"absent","response":"present","rt":"2484","correct":false,"confidence":4},{"trial_n":23,"span":11,"encoder":"31582876511","distractor":"31582276511","target":"present","response":"present","rt":"4970","correct":true,"confidence":3},{"trial_n":24,"span":11,"encoder":"39672871713","distractor":"33672871713","target":"absent","response":"absent","rt":"2320","correct":true,"confidence":3},{"trial_n":25,"span":12,"encoder":"137026891583","distractor":"137026591583","target":"absent","response":"present","rt":"2358","correct":false,"confidence":5},{"trial_n":26,"span":11,"encoder":"39555563571","distractor":"39555593571","target":"present","response":"present","rt":"2736","correct":true,"confidence":4},{"trial_n":27,"span":11,"encoder":"59396858116","distractor":"59396858176","target":"absent","response":"present","rt":"4424","correct":false,"confidence":4},{"trial_n":28,"span":10,"encoder":"2408178315","distractor":"2408174315","target":"absent","response":"absent","rt":"1765","correct":true,"confidence":5},{"trial_n":29,"span":10,"encoder":"8054504385","distractor":"3054504385","target":"absent","response":"absent","rt":"2522","correct":true,"confidence":5},{"trial_n":30,"span":11,"encoder":"52011757855","distractor":"52011755855","target":"present","response":"present","rt":"2167","correct":true,"confidence":4},{"trial_n":31,"span":11,"encoder":"37096202206","distractor":"37096202806","target":"absent","response":"absent","rt":"2451","correct":true,"confidence":3},{"trial_n":32,"span":12,"encoder":"511521564910","distractor":"511521544910","target":"absent","response":"absent","rt":"2766","correct":true,"confidence":4},{"trial_n":33,"span":12,"encoder":"030217390026","distractor":"030210390026","target":"absent","response":"present","rt":"1800","correct":false,"confidence":5},{"trial_n":34,"span":11,"encoder":"72770720802","distractor":"75770720802","target":"present","response":"absent","rt":"2478","correct":false,"confidence":3},{"trial_n":35,"span":10,"encoder":"1544284678","distractor":"1504284678","target":"absent","response":"absent","rt":"1776.0000000001","correct":true,"confidence":2},{"trial_n":36,"span":10,"encoder":"3087935721","distractor":"3087935821","target":"present","response":"absent","rt":"6067","correct":false,"confidence":1},{"trial_n":37,"span":9,"encoder":"489949617","distractor":"489549617","target":"present","response":"present","rt":"3121","correct":true,"confidence":4},{"trial_n":38,"span":9,"encoder":"776856451","distractor":"776856455","target":"present","response":"present","rt":"2312.9999999999","correct":true,"confidence":4},{"trial_n":39,"span":10,"encoder":"7018117204","distractor":"7018114204","target":"present","response":"present","rt":"3723","correct":true,"confidence":3},{"trial_n":40,"span":10,"encoder":"4917463453","distractor":"4917463493","target":"absent","response":"present","rt":"2864","correct":false,"confidence":4},{"trial_n":41,"span":9,"encoder":"241354949","distractor":"249354949","target":"absent","response":"absent","rt":"2043","correct":true,"confidence":5},{"trial_n":42,"span":9,"encoder":"308860379","distractor":"308830379","target":"absent","response":"absent","rt":"3096","correct":true,"confidence":3},{"trial_n":43,"span":10,"encoder":"5720883630","distractor":"5720833630","target":"present","response":"present","rt":"2857","correct":true,"confidence":4},{"trial_n":44,"span":10,"encoder":"0771456390","distractor":"0771436390","target":"present","response":"absent","rt":"4442.0000000001","correct":false,"confidence":4},{"trial_n":45,"span":9,"encoder":"567888550","distractor":"567887550","target":"absent","response":"present","rt":"7802.9999999999","correct":false,"confidence":4},{"trial_n":46,"span":8,"encoder":"09288946","distractor":"09288966","target":"absent","response":"present","rt":"1951","correct":false,"confidence":4},{"trial_n":47,"span":7,"encoder":"1225111","distractor":"1225131","target":"present","response":"present","rt":"4684.9999999999","correct":true,"confidence":3},{"trial_n":48,"span":7,"encoder":"3132933","distractor":"3133933","target":"absent","response":"absent","rt":"2146","correct":true,"confidence":4},{"trial_n":49,"span":8,"encoder":"29679991","distractor":"29679791","target":"present","response":"present","rt":"2093.0000000001","correct":true,"confidence":4},{"trial_n":50,"span":8,"encoder":"38035011","distractor":"38035015","target":"present","response":"present","rt":"1844","correct":true,"confidence":4},{"trial_n":51,"span":9,"encoder":"542521536","distractor":"549521536","target":"present","response":"absent","rt":"1772","correct":false,"confidence":2},{"trial_n":52,"span":8,"encoder":"26985566","distractor":"26985564","target":"present","response":"absent","rt":"3189","correct":false,"confidence":1},{"trial_n":53,"span":7,"encoder":"7905770","distractor":"7902770","target":"present","response":"present","rt":"2453","correct":true,"confidence":5},{"trial_n":54,"span":7,"encoder":"7677862","distractor":"7677062","target":"present","response":"present","rt":"10848","correct":true,"confidence":1},{"trial_n":55,"span":8,"encoder":"68703728","distractor":"08703728","target":"absent","response":"absent","rt":"3793","correct":true,"confidence":1},{"trial_n":56,"span":8,"encoder":"41529451","distractor":"31529451","target":"present","response":"present","rt":"2163","correct":true,"confidence":4},{"trial_n":57,"span":9,"encoder":"801114922","distractor":"800114922","target":"present","response":"present","rt":"3051","correct":true,"confidence":3},{"trial_n":58,"span":9,"encoder":"615521514","distractor":"615521544","target":"absent","response":"present","rt":"1805","correct":false,"confidence":4},{"trial_n":59,"span":8,"encoder":"58862648","distractor":"58862548","target":"absent","response":"present","rt":"2369","correct":false,"confidence":3},{"trial_n":60,"span":7,"encoder":"7481370","distractor":"6481370","target":"absent","response":"absent","rt":"1947","correct":true,"confidence":5},{"trial_n":61,"span":7,"encoder":"9863723","distractor":"1863723","target":"present","response":"present","rt":"1749","correct":true,"confidence":4},{"trial_n":62,"span":8,"encoder":"15183655","distractor":"15183355","target":"present","response":"present","rt":"2308","correct":true,"confidence":4},{"trial_n":63,"span":8,"encoder":"65149546","distractor":"65189546","target":"present","response":"present","rt":"2546","correct":true,"confidence":4},{"trial_n":64,"span":9,"encoder":"907479638","distractor":"907479038","target":"absent","response":"present","rt":"1790","correct":false,"confidence":4},{"trial_n":65,"span":8,"encoder":"37502095","distractor":"37502295","target":"absent","response":"present","rt":"3464","correct":false,"confidence":2},{"trial_n":66,"span":7,"encoder":"0552418","distractor":"0552416","target":"present","response":"present","rt":"3249","correct":true,"confidence":3},{"trial_n":67,"span":7,"encoder":"7985982","distractor":"7985182","target":"absent","response":"present","rt":"1939","correct":false,"confidence":2},{"trial_n":68,"span":6,"encoder":"957025","distractor":"257025","target":"absent","response":"absent","rt":"1700","correct":true,"confidence":5},{"trial_n":69,"span":6,"encoder":"982185","distractor":"282185","target":"present","response":"present","rt":"1626.9999999999","correct":true,"confidence":4},{"trial_n":70,"span":7,"encoder":"6428672","distractor":"6478672","target":"present","response":"present","rt":"1758","correct":true,"confidence":4},{"trial_n":71,"span":8,"encoder":"80794444","distractor":"80797444","target":"present","response":"present","rt":"3649","correct":true,"confidence":-1},{"trial_n":72,"span":8,"encoder":"32338297","distractor":"32338257","target":"present","response":"present","rt":"2482","correct":true,"confidence":-1},{"trial_n":73,"span":9,"encoder":"822457472","distractor":"822453472","target":"absent","response":"absent","rt":"4381","correct":true,"confidence":-1},{"trial_n":74,"span":9,"encoder":"498399914","distractor":"448399914","target":"absent","response":"absent","rt":"2237","correct":true,"confidence":-1},{"trial_n":75,"span":10,"encoder":"5593611460","distractor":"8593611460","target":"present","response":"absent","rt":"1300.9999999999","correct":false,"confidence":-1},{"trial_n":76,"span":9,"encoder":"144065311","distractor":"164065311","target":"present","response":"present","rt":"2585","correct":true,"confidence":-1},{"trial_n":77,"span":9,"encoder":"607347480","distractor":"607347460","target":"absent","response":"absent","rt":"2312","correct":true,"confidence":-1},{"trial_n":78,"span":10,"encoder":"8269055116","distractor":"8269855116","target":"absent","response":"absent","rt":"2300","correct":true,"confidence":-1},{"trial_n":79,"span":10,"encoder":"4593548170","distractor":"4591548170","target":"absent","response":"absent","rt":"5389","correct":true,"confidence":-1},{"trial_n":80,"span":11,"encoder":"14499820924","distractor":"14469820924","target":"present","response":"absent","rt":"1828","correct":false,"confidence":-1},{"trial_n":81,"span":10,"encoder":"0104881493","distractor":"0804881493","target":"absent","response":"absent","rt":"3713.0000000001","correct":true,"confidence":-1},{"trial_n":82,"span":10,"encoder":"0436288139","distractor":"0436298139","target":"absent","response":"absent","rt":"2123.0000000001","correct":true,"confidence":-1},{"trial_n":83,"span":11,"encoder":"17891856072","distractor":"17091856072","target":"absent","response":"absent","rt":"1901","correct":true,"confidence":-1},{"trial_n":84,"span":11,"encoder":"16891928460","distractor":"16891928860","target":"present","response":"absent","rt":"2838","correct":false,"confidence":-1},{"trial_n":85,"span":10,"encoder":"8700799422","distractor":"8720799422","target":"absent","response":"absent","rt":"986","correct":true,"confidence":-1},{"trial_n":86,"span":10,"encoder":"2579364009","distractor":"0579364009","target":"present","response":"absent","rt":"1675.9999999999","correct":false,"confidence":-1},{"trial_n":87,"span":9,"encoder":"873606595","distractor":"878606595","target":"present","response":"absent","rt":"2317.0000000001","correct":false,"confidence":-1},{"trial_n":88,"span":8,"encoder":"22762353","distractor":"23762353","target":"present","response":"absent","rt":"1784.0000000001","correct":false,"confidence":-1},{"trial_n":89,"span":7,"encoder":"6020001","distractor":"6020301","target":"absent","response":"absent","rt":"1451","correct":true,"confidence":-1},{"trial_n":90,"span":7,"encoder":"9125904","distractor":"9121904","target":"absent","response":"absent","rt":"1265","correct":true,"confidence":-1},{"trial_n":91,"span":8,"encoder":"27966271","distractor":"27666271","target":"absent","response":"absent","rt":"2357","correct":true,"confidence":4},{"trial_n":92,"span":8,"encoder":"83622464","distractor":"83628464","target":"present","response":"present","rt":"2007.0000000001","correct":true,"confidence":5},{"trial_n":93,"span":9,"encoder":"379721784","distractor":"371721784","target":"present","response":"present","rt":"2051","correct":true,"confidence":4},{"trial_n":94,"span":9,"encoder":"311291699","distractor":"321291699","target":"present","response":"absent","rt":"2709.0000000001","correct":false,"confidence":4},{"trial_n":95,"span":8,"encoder":"59345647","distractor":"59345947","target":"absent","response":"present","rt":"2670.0000000001","correct":false,"confidence":2},{"trial_n":96,"span":7,"encoder":"2012141","distractor":"2212141","target":"absent","response":"absent","rt":"1921","correct":true,"confidence":5},{"trial_n":97,"span":7,"encoder":"7589796","distractor":"7584796","target":"present","response":"present","rt":"2762","correct":true,"confidence":4},{"trial_n":98,"span":8,"encoder":"90653815","distractor":"90353815","target":"absent","response":"absent","rt":"2069","correct":true,"confidence":5},{"trial_n":99,"span":8,"encoder":"71768005","distractor":"71768085","target":"present","response":"absent","rt":"4657","correct":false,"confidence":3},{"trial_n":100,"span":7,"encoder":"0234377","distractor":"0234477","target":"absent","response":"absent","rt":"2451","correct":true,"confidence":5},{"trial_n":101,"span":7,"encoder":"9452370","distractor":"9452372","target":"present","response":"present","rt":"5556","correct":true,"confidence":2},{"trial_n":102,"span":8,"encoder":"75344634","distractor":"75346634","target":"present","response":"present","rt":"7583.9999999999","correct":true,"confidence":2},{"trial_n":103,"span":8,"encoder":"69676063","distractor":"69676066","target":"absent","response":"present","rt":"2245","correct":false,"confidence":1},{"trial_n":104,"span":7,"encoder":"1356992","distractor":"1156992","target":"absent","response":"absent","rt":"2253.9999999999","correct":true,"confidence":5},{"trial_n":105,"span":7,"encoder":"4182253","distractor":"4102253","target":"present","response":"present","rt":"1697","correct":true,"confidence":5},{"trial_n":106,"span":8,"encoder":"02560638","distractor":"02560668","target":"present","response":"absent","rt":"3078","correct":false,"confidence":2},{"trial_n":107,"span":7,"encoder":"2908833","distractor":"2808833","target":"present","response":"absent","rt":"4272","correct":false,"confidence":2},{"trial_n":108,"span":6,"encoder":"038122","distractor":"038622","target":"absent","response":"absent","rt":"1996.0000000001","correct":true,"confidence":4},{"trial_n":109,"span":6,"encoder":"345566","distractor":"346566","target":"absent","response":"absent","rt":"1834","correct":true,"confidence":5},{"trial_n":110,"span":7,"encoder":"6976188","distractor":"6976189","target":"absent","response":"absent","rt":"2571.0000000002","correct":true,"confidence":3},{"trial_n":111,"span":7,"encoder":"2049665","distractor":"2047665","target":"present","response":"present","rt":"2289","correct":true,"confidence":5},{"trial_n":112,"span":8,"encoder":"90391966","distractor":"90390966","target":"absent","response":"absent","rt":"3287","correct":true,"confidence":2},{"trial_n":113,"span":8,"encoder":"54726424","distractor":"54726426","target":"absent","response":"present","rt":"6074","correct":false,"confidence":2},{"trial_n":114,"span":7,"encoder":"2246741","distractor":"3246741","target":"present","response":"present","rt":"4815","correct":true,"confidence":3},{"trial_n":115,"span":7,"encoder":"6761614","distractor":"6762614","target":"present","response":"absent","rt":"2927","correct":false,"confidence":1},{"trial_n":116,"span":6,"encoder":"382542","distractor":"382545","target":"absent","response":"absent","rt":"2227","correct":true,"confidence":3},{"trial_n":117,"span":6,"encoder":"432702","distractor":"432102","target":"present","response":"absent","rt":"2635","correct":false,"confidence":3},{"trial_n":118,"span":5,"encoder":"68705","distractor":"48705","target":"absent","response":"present","rt":"2137.9999999998","correct":false,"confidence":3},{"trial_n":119,"span":4,"encoder":"4571","distractor":"8571","target":"present","response":"present","rt":"1563","correct":true,"confidence":5},{"trial_n":120,"span":4,"encoder":"0381","distractor":"0351","target":"absent","response":"absent","rt":"2072","correct":true,"confidence":5},{"trial_n":121,"span":5,"encoder":"93915","distractor":"93985","target":"present","response":"present","rt":"5854.9999999998","correct":true,"confidence":1},{"trial_n":122,"span":5,"encoder":"61552","distractor":"67552","target":"present","response":"present","rt":"2053","correct":true,"confidence":1},{"trial_n":123,"span":6,"encoder":"933239","distractor":"933639","target":"absent","response":"absent","rt":"4693","correct":true,"confidence":1},{"trial_n":124,"span":6,"encoder":"065487","distractor":"067487","target":"present","response":"absent","rt":"2236","correct":false,"confidence":1},{"trial_n":125,"span":5,"encoder":"37931","distractor":"37933","target":"present","response":"absent","rt":"3186.0000000002","correct":false,"confidence":1},{"trial_n":126,"span":4,"encoder":"1130","distractor":"1139","target":"absent","response":"absent","rt":"1602.9999999998","correct":true,"confidence":1},{"trial_n":127,"span":4,"encoder":"8058","distractor":"8008","target":"absent","response":"absent","rt":"1834","correct":true,"confidence":3},{"trial_n":128,"span":5,"encoder":"22889","distractor":"22880","target":"absent","response":"absent","rt":"1572","correct":true,"confidence":5},{"trial_n":129,"span":5,"encoder":"15840","distractor":"85840","target":"present","response":"present","rt":"1960","correct":true,"confidence":5},{"trial_n":130,"span":6,"encoder":"519560","distractor":"519563","target":"present","response":"present","rt":"1858","correct":true,"confidence":4},{"trial_n":131,"span":6,"encoder":"129251","distractor":"129651","target":"absent","response":"present","rt":"2131","correct":false,"confidence":2},{"trial_n":132,"span":5,"encoder":"61578","distractor":"71578","target":"present","response":"absent","rt":"3576.0000000002","correct":false,"confidence":3},{"trial_n":133,"span":4,"encoder":"4265","distractor":"4465","target":"present","response":"present","rt":"2072","correct":true,"confidence":5},{"trial_n":134,"span":4,"encoder":"0283","distractor":"3283","target":"present","response":"present","rt":"1942","correct":true,"confidence":3},{"trial_n":135,"span":5,"encoder":"92330","distractor":"92350","target":"absent","response":"absent","rt":"1945","correct":true,"confidence":4},{"trial_n":136,"span":5,"encoder":"43191","distractor":"45191","target":"absent","response":"absent","rt":"1494","correct":true,"confidence":4},{"trial_n":137,"span":6,"encoder":"320207","distractor":"320217","target":"present","response":"absent","rt":"1767.9999999998","correct":false,"confidence":2},{"trial_n":138,"span":5,"encoder":"63130","distractor":"63131","target":"present","response":"present","rt":"1862.0000000002","correct":true,"confidence":4},{"trial_n":139,"span":5,"encoder":"07413","distractor":"07463","target":"absent","response":"present","rt":"2012.0000000002","correct":false,"confidence":3},{"trial_n":140,"span":4,"encoder":"3988","distractor":"6988","target":"present","response":"present","rt":"1692.9999999998","correct":true,"confidence":4}]