[{"trial_n":1,"min":25,"max":230,"target":"present","response":"absent","rt":4627.8999999762,"correct":false,"confidence":-1},{"trial_n":2,"min":25,"max":230,"target":"present","response":"present","rt":4094.0999999642,"correct":true,"confidence":-1},{"trial_n":3,"min":25,"max":230,"target":"absent","response":"absent","rt":549.80000001192,"correct":true,"confidence":-1},{"trial_n":4,"min":41,"max":214,"target":"absent","response":"absent","rt":423.20000004768,"correct":true,"confidence":-1},{"trial_n":5,"min":41,"max":214,"target":"present","response":"present","rt":260,"correct":true,"confidence":-1},{"trial_n":6,"min":57,"max":198,"target":"present","response":"present","rt":356.59999996424,"correct":true,"confidence":-1},{"trial_n":7,"min":57,"max":198,"target":"present","response":"present","rt":273,"correct":true,"confidence":-1},{"trial_n":8,"min":73,"max":182,"target":"absent","response":"absent","rt":792.39999997616,"correct":true,"confidence":-1},{"trial_n":9,"min":73,"max":182,"target":"present","response":"present","rt":519.09999996424,"correct":true,"confidence":-1},{"trial_n":10,"min":89,"max":166,"target":"present","response":"absent","rt":303.30000001192,"correct":false,"confidence":-1},{"trial_n":11,"min":81,"max":174,"target":"present","response":"present","rt":410.29999995232,"correct":true,"confidence":-1},{"trial_n":12,"min":81,"max":174,"target":"present","response":"present","rt":647.39999997616,"correct":true,"confidence":-1},{"trial_n":13,"min":89,"max":166,"target":"absent","response":"present","rt":815.39999997616,"correct":false,"confidence":-1},{"trial_n":14,"min":81,"max":174,"target":"present","response":"absent","rt":382.20000004768,"correct":false,"confidence":-1},{"trial_n":15,"min":73,"max":182,"target":"absent","response":"absent","rt":432.10000002384,"correct":true,"confidence":-1},{"trial_n":16,"min":73,"max":182,"target":"absent","response":"absent","rt":378.89999997616,"correct":true,"confidence":-1},{"trial_n":17,"min":81,"max":174,"target":"present","response":"present","rt":397.5,"correct":true,"confidence":-1},{"trial_n":18,"min":81,"max":174,"target":"absent","response":"present","rt":743.30000001192,"correct":false,"confidence":-1},{"trial_n":19,"min":73,"max":182,"target":"absent","response":"absent","rt":824.60000002384,"correct":true,"confidence":-1},{"trial_n":20,"min":73,"max":182,"target":"present","response":"present","rt":457.60000002384,"correct":true,"confidence":-1},{"trial_n":21,"min":77,"max":178,"target":"absent","response":"absent","rt":333.09999996424,"correct":true,"confidence":4},{"trial_n":22,"min":77,"max":178,"target":"absent","response":"absent","rt":676.80000001192,"correct":true,"confidence":4},{"trial_n":23,"min":81,"max":174,"target":"absent","response":"absent","rt":556.60000002384,"correct":true,"confidence":1},{"trial_n":24,"min":81,"max":174,"target":"present","response":"present","rt":1354.5,"correct":true,"confidence":3},{"trial_n":25,"min":85,"max":170,"target":"present","response":"present","rt":469,"correct":true,"confidence":5},{"trial_n":26,"min":85,"max":170,"target":"absent","response":"absent","rt":770.39999997616,"correct":true,"confidence":4},{"trial_n":27,"min":89,"max":166,"target":"present","response":"absent","rt":600.19999998808,"correct":false,"confidence":3},{"trial_n":28,"min":85,"max":170,"target":"absent","response":"absent","rt":467.19999998808,"correct":true,"confidence":3},{"trial_n":29,"min":85,"max":170,"target":"present","response":"present","rt":749.39999997616,"correct":true,"confidence":4},{"trial_n":30,"min":89,"max":166,"target":"present","response":"absent","rt":599.59999996424,"correct":false,"confidence":3},{"trial_n":31,"min":87,"max":168,"target":"present","response":"absent","rt":872.19999998808,"correct":false,"confidence":3},{"trial_n":32,"min":85,"max":170,"target":"present","response":"present","rt":255.5,"correct":true,"confidence":2},{"trial_n":33,"min":85,"max":170,"target":"absent","response":"absent","rt":480.89999997616,"correct":true,"confidence":4},{"trial_n":34,"min":87,"max":168,"target":"absent","response":"absent","rt":551.19999998808,"correct":true,"confidence":3},{"trial_n":35,"min":87,"max":168,"target":"present","response":"present","rt":485.69999998808,"correct":true,"confidence":2},{"trial_n":36,"min":89,"max":166,"target":"present","response":"present","rt":734.60000002384,"correct":true,"confidence":3},{"trial_n":37,"min":89,"max":166,"target":"absent","response":"present","rt":880.5,"correct":false,"confidence":3},{"trial_n":38,"min":87,"max":168,"target":"absent","response":"absent","rt":352.70000004768,"correct":true,"confidence":4},{"trial_n":39,"min":87,"max":168,"target":"present","response":"present","rt":973.30000001192,"correct":true,"confidence":5},{"trial_n":40,"min":89,"max":166,"target":"present","response":"absent","rt":675.39999997616,"correct":false,"confidence":3},{"trial_n":41,"min":88,"max":167,"target":"present","response":"absent","rt":511.70000004768,"correct":false,"confidence":3},{"trial_n":42,"min":87,"max":168,"target":"present","response":"present","rt":592.60000002384,"correct":true,"confidence":3},{"trial_n":43,"min":87,"max":168,"target":"present","response":"present","rt":367.69999998808,"correct":true,"confidence":3},{"trial_n":44,"min":88,"max":167,"target":"present","response":"absent","rt":504.5,"correct":false,"confidence":5},{"trial_n":45,"min":87,"max":168,"target":"present","response":"present","rt":468.80000001192,"correct":true,"confidence":4},{"trial_n":46,"min":87,"max":168,"target":"absent","response":"absent","rt":1416.5,"correct":true,"confidence":3},{"trial_n":47,"min":88,"max":167,"target":"absent","response":"present","rt":968.80000001192,"correct":false,"confidence":3},{"trial_n":48,"min":87,"max":168,"target":"present","response":"present","rt":883.5,"correct":true,"confidence":4},{"trial_n":49,"min":87,"max":168,"target":"present","response":"present","rt":789.80000001192,"correct":true,"confidence":3},{"trial_n":50,"min":88,"max":167,"target":"present","response":"absent","rt":415.69999998808,"correct":false,"confidence":4},{"trial_n":51,"min":87,"max":168,"target":"absent","response":"absent","rt":1513.9000000358,"correct":true,"confidence":3},{"trial_n":52,"min":87,"max":168,"target":"present","response":"present","rt":959.19999998808,"correct":true,"confidence":3},{"trial_n":53,"min":88,"max":167,"target":"absent","response":"absent","rt":790.39999997616,"correct":true,"confidence":3},{"trial_n":54,"min":88,"max":167,"target":"absent","response":"absent","rt":908.5,"correct":true,"confidence":2},{"trial_n":55,"min":89,"max":166,"target":"absent","response":"absent","rt":583,"correct":true,"confidence":2},{"trial_n":56,"min":89,"max":166,"target":"present","response":"present","rt":425.10000002384,"correct":true,"confidence":4},{"trial_n":57,"min":90,"max":165,"target":"present","response":"present","rt":407.80000001192,"correct":true,"confidence":4},{"trial_n":58,"min":90,"max":165,"target":"absent","response":"absent","rt":406.10000002384,"correct":true,"confidence":2},{"trial_n":59,"min":91,"max":164,"target":"absent","response":"absent","rt":836.69999998808,"correct":true,"confidence":3},{"trial_n":60,"min":91,"max":164,"target":"absent","response":"absent","rt":343.69999998808,"correct":true,"confidence":4},{"trial_n":61,"min":92,"max":163,"target":"present","response":"absent","rt":524.09999996424,"correct":false,"confidence":2},{"trial_n":62,"min":91,"max":164,"target":"absent","response":"absent","rt":701.60000002384,"correct":true,"confidence":3},{"trial_n":63,"min":91,"max":164,"target":"absent","response":"present","rt":740.10000002384,"correct":false,"confidence":2},{"trial_n":64,"min":90,"max":165,"target":"absent","response":"absent","rt":376.89999997616,"correct":true,"confidence":3},{"trial_n":65,"min":90,"max":165,"target":"absent","response":"absent","rt":675.40000003576,"correct":true,"confidence":2},{"trial_n":66,"min":91,"max":164,"target":"absent","response":"absent","rt":918.19999998808,"correct":true,"confidence":2},{"trial_n":67,"min":91,"max":164,"target":"present","response":"present","rt":774,"correct":true,"confidence":2},{"trial_n":68,"min":92,"max":163,"target":"absent","response":"absent","rt":821.09999996424,"correct":true,"confidence":3},{"trial_n":69,"min":92,"max":163,"target":"absent","response":"absent","rt":775.39999997616,"correct":true,"confidence":2},{"trial_n":70,"min":93,"max":162,"target":"absent","response":"absent","rt":654,"correct":true,"confidence":4},{"trial_n":71,"min":41,"max":214,"target":"present","response":"present","rt":1876.8999999762,"correct":true,"confidence":-1},{"trial_n":72,"min":41,"max":214,"target":"present","response":"present","rt":498.79999995232,"correct":true,"confidence":-1},{"trial_n":73,"min":57,"max":198,"target":"absent","response":"absent","rt":353,"correct":true,"confidence":-1},{"trial_n":74,"min":57,"max":198,"target":"absent","response":"absent","rt":266.69999998808,"correct":true,"confidence":-1},{"trial_n":75,"min":73,"max":182,"target":"present","response":"present","rt":366.39999997616,"correct":true,"confidence":-1},{"trial_n":76,"min":73,"max":182,"target":"present","response":"present","rt":348,"correct":true,"confidence":-1},{"trial_n":77,"min":89,"max":166,"target":"absent","response":"absent","rt":414.09999996424,"correct":true,"confidence":-1},{"trial_n":78,"min":89,"max":166,"target":"absent","response":"present","rt":633.19999998808,"correct":false,"confidence":-1},{"trial_n":79,"min":73,"max":182,"target":"absent","response":"absent","rt":370.70000004768,"correct":true,"confidence":-1},{"trial_n":80,"min":73,"max":182,"target":"present","response":"present","rt":533.69999998808,"correct":true,"confidence":-1},{"trial_n":81,"min":81,"max":174,"target":"absent","response":"absent","rt":411.09999996424,"correct":true,"confidence":-1},{"trial_n":82,"min":81,"max":174,"target":"absent","response":"absent","rt":592.19999998808,"correct":true,"confidence":-1},{"trial_n":83,"min":89,"max":166,"target":"present","response":"present","rt":352.09999996424,"correct":true,"confidence":-1},{"trial_n":84,"min":89,"max":166,"target":"present","response":"present","rt":279.10000002384,"correct":true,"confidence":-1},{"trial_n":85,"min":97,"max":158,"target":"present","response":"present","rt":556,"correct":true,"confidence":-1},{"trial_n":86,"min":97,"max":158,"target":"absent","response":"absent","rt":656.29999995232,"correct":true,"confidence":-1},{"trial_n":87,"min":105,"max":150,"target":"present","response":"present","rt":863.40000003576,"correct":true,"confidence":-1},{"trial_n":88,"min":105,"max":150,"target":"present","response":"present","rt":49.600000023842,"correct":true,"confidence":-1},{"trial_n":89,"min":113,"max":142,"target":"present","response":"present","rt":298.5,"correct":true,"confidence":-1},{"trial_n":90,"min":113,"max":142,"target":"present","response":"present","rt":580.30000001192,"correct":true,"confidence":-1},{"trial_n":91,"min":117,"max":138,"target":"present","response":"present","rt":416.30000001192,"correct":true,"confidence":3},{"trial_n":92,"min":117,"max":138,"target":"present","response":"present","rt":392.39999997616,"correct":true,"confidence":5},{"trial_n":93,"min":121,"max":134,"target":"absent","response":"present","rt":774,"correct":false,"confidence":4},{"trial_n":94,"min":117,"max":138,"target":"present","response":"present","rt":310.69999998808,"correct":true,"confidence":4},{"trial_n":95,"min":117,"max":138,"target":"present","response":"present","rt":400.79999995232,"correct":true,"confidence":4},{"trial_n":96,"min":121,"max":134,"target":"present","response":"present","rt":789.79999995232,"correct":true,"confidence":3},{"trial_n":97,"min":121,"max":134,"target":"absent","response":"present","rt":943.59999996424,"correct":false,"confidence":4},{"trial_n":98,"min":117,"max":138,"target":"absent","response":"present","rt":458.09999996424,"correct":false,"confidence":4},{"trial_n":99,"min":113,"max":142,"target":"present","response":"present","rt":432.69999998808,"correct":true,"confidence":4},{"trial_n":100,"min":113,"max":142,"target":"absent","response":"present","rt":437.5,"correct":false,"confidence":3},{"trial_n":101,"min":111,"max":144,"target":"present","response":"present","rt":452.20000004768,"correct":true,"confidence":2},{"trial_n":102,"min":111,"max":144,"target":"present","response":"present","rt":448.69999998808,"correct":true,"confidence":3},{"trial_n":103,"min":113,"max":142,"target":"absent","response":"present","rt":311.69999998808,"correct":false,"confidence":3},{"trial_n":104,"min":111,"max":144,"target":"present","response":"absent","rt":596.29999995232,"correct":false,"confidence":4},{"trial_n":105,"min":109,"max":146,"target":"absent","response":"present","rt":363.19999998808,"correct":false,"confidence":3},{"trial_n":106,"min":107,"max":148,"target":"absent","response":"present","rt":369.69999998808,"correct":false,"confidence":2},{"trial_n":107,"min":105,"max":150,"target":"absent","response":"present","rt":427.90000003576,"correct":false,"confidence":1},{"trial_n":108,"min":103,"max":152,"target":"present","response":"present","rt":659.89999997616,"correct":true,"confidence":2},{"trial_n":109,"min":103,"max":152,"target":"present","response":"present","rt":824,"correct":true,"confidence":2},{"trial_n":110,"min":105,"max":150,"target":"present","response":"present","rt":1048,"correct":true,"confidence":3},{"trial_n":111,"min":105,"max":150,"target":"absent","response":"absent","rt":397.20000004768,"correct":true,"confidence":3},{"trial_n":112,"min":106,"max":149,"target":"present","response":"present","rt":615.10000002384,"correct":true,"confidence":2},{"trial_n":113,"min":106,"max":149,"target":"absent","response":"present","rt":381.79999995232,"correct":false,"confidence":3},{"trial_n":114,"min":105,"max":150,"target":"absent","response":"present","rt":590.90000003576,"correct":false,"confidence":3},{"trial_n":115,"min":104,"max":151,"target":"present","response":"present","rt":630.39999997616,"correct":true,"confidence":2},{"trial_n":116,"min":104,"max":151,"target":"absent","response":"present","rt":884.79999995232,"correct":false,"confidence":2},{"trial_n":117,"min":103,"max":152,"target":"absent","response":"present","rt":895.09999996424,"correct":false,"confidence":2},{"trial_n":118,"min":102,"max":153,"target":"absent","response":"present","rt":1518.8999999762,"correct":false,"confidence":2},{"trial_n":119,"min":101,"max":154,"target":"present","response":"present","rt":327,"correct":true,"confidence":3},{"trial_n":120,"min":101,"max":154,"target":"present","response":"present","rt":400.80000001192,"correct":true,"confidence":2},{"trial_n":121,"min":102,"max":153,"target":"present","response":"present","rt":557.30000001192,"correct":true,"confidence":3},{"trial_n":122,"min":102,"max":153,"target":"absent","response":"present","rt":161.60000002384,"correct":false,"confidence":2},{"trial_n":123,"min":101,"max":154,"target":"absent","response":"present","rt":140.79999995232,"correct":false,"confidence":1},{"trial_n":124,"min":100,"max":155,"target":"present","response":"present","rt":298.90000003576,"correct":true,"confidence":1},{"trial_n":125,"min":100,"max":155,"target":"absent","response":"absent","rt":164.30000001192,"correct":true,"confidence":1},{"trial_n":126,"min":101,"max":154,"target":"present","response":"present","rt":266.30000001192,"correct":true,"confidence":2},{"trial_n":127,"min":101,"max":154,"target":"absent","response":"present","rt":335.70000004768,"correct":false,"confidence":2},{"trial_n":128,"min":100,"max":155,"target":"present","response":"present","rt":768.69999998808,"correct":true,"confidence":2},{"trial_n":129,"min":100,"max":155,"target":"absent","response":"present","rt":491.59999996424,"correct":false,"confidence":1},{"trial_n":130,"min":99,"max":156,"target":"absent","response":"absent","rt":595.80000001192,"correct":true,"confidence":2},{"trial_n":131,"min":99,"max":156,"target":"present","response":"present","rt":401.39999997616,"correct":true,"confidence":1},{"trial_n":132,"min":100,"max":155,"target":"absent","response":"absent","rt":185,"correct":true,"confidence":1},{"trial_n":133,"min":100,"max":155,"target":"present","response":"present","rt":436.60000002384,"correct":true,"confidence":2},{"trial_n":134,"min":101,"max":154,"target":"absent","response":"absent","rt":926.80000001192,"correct":true,"confidence":2},{"trial_n":135,"min":101,"max":154,"target":"absent","response":"present","rt":286.59999996424,"correct":false,"confidence":2},{"trial_n":136,"min":100,"max":155,"target":"absent","response":"present","rt":159.30000001192,"correct":false,"confidence":2},{"trial_n":137,"min":99,"max":156,"target":"absent","response":"present","rt":237.90000003576,"correct":false,"confidence":1},{"trial_n":138,"min":98,"max":157,"target":"present","response":"absent","rt":294,"correct":false,"confidence":1},{"trial_n":139,"min":97,"max":158,"target":"present","response":"absent","rt":1575.8000000119,"correct":false,"confidence":1},{"trial_n":140,"min":96,"max":159,"target":"absent","response":"present","rt":617.39999997616,"correct":false,"confidence":3}]