[{"trial_n":1,"min":25,"max":230,"target":"present","response":"present","rt":13241,"correct":true,"confidence":-1},{"trial_n":2,"min":25,"max":230,"target":"present","response":"present","rt":2884,"correct":true,"confidence":-1},{"trial_n":3,"min":41,"max":214,"target":"absent","response":"present","rt":1192,"correct":false,"confidence":-1},{"trial_n":4,"min":25,"max":230,"target":"absent","response":"absent","rt":1293,"correct":true,"confidence":-1},{"trial_n":5,"min":25,"max":230,"target":"present","response":"present","rt":1466,"correct":true,"confidence":-1},{"trial_n":6,"min":41,"max":214,"target":"absent","response":"absent","rt":1661,"correct":true,"confidence":-1},{"trial_n":7,"min":41,"max":214,"target":"absent","response":"absent","rt":1288,"correct":true,"confidence":-1},{"trial_n":8,"min":57,"max":198,"target":"present","response":"present","rt":848,"correct":true,"confidence":-1},{"trial_n":9,"min":57,"max":198,"target":"present","response":"present","rt":757,"correct":true,"confidence":-1},{"trial_n":10,"min":73,"max":182,"target":"absent","response":"absent","rt":521,"correct":true,"confidence":-1},{"trial_n":11,"min":73,"max":182,"target":"absent","response":"absent","rt":554,"correct":true,"confidence":-1},{"trial_n":12,"min":81,"max":174,"target":"present","response":"absent","rt":507.00000000001,"correct":false,"confidence":-1},{"trial_n":13,"min":73,"max":182,"target":"absent","response":"absent","rt":798,"correct":true,"confidence":-1},{"trial_n":14,"min":73,"max":182,"target":"present","response":"present","rt":504,"correct":true,"confidence":-1},{"trial_n":15,"min":81,"max":174,"target":"absent","response":"absent","rt":503,"correct":true,"confidence":-1},{"trial_n":16,"min":81,"max":174,"target":"present","response":"present","rt":464,"correct":true,"confidence":-1},{"trial_n":17,"min":89,"max":166,"target":"absent","response":"absent","rt":536,"correct":true,"confidence":-1},{"trial_n":18,"min":89,"max":166,"target":"absent","response":"present","rt":481,"correct":false,"confidence":-1},{"trial_n":19,"min":81,"max":174,"target":"present","response":"absent","rt":369.00000000001,"correct":false,"confidence":-1},{"trial_n":20,"min":73,"max":182,"target":"absent","response":"present","rt":592,"correct":false,"confidence":-1},{"trial_n":21,"min":69,"max":186,"target":"absent","response":"absent","rt":1197,"correct":true,"confidence":4},{"trial_n":22,"min":69,"max":186,"target":"present","response":"present","rt":956,"correct":true,"confidence":3},{"trial_n":23,"min":73,"max":182,"target":"present","response":"present","rt":635,"correct":true,"confidence":4},{"trial_n":24,"min":73,"max":182,"target":"present","response":"present","rt":994,"correct":true,"confidence":3},{"trial_n":25,"min":77,"max":178,"target":"present","response":"present","rt":1037,"correct":true,"confidence":3},{"trial_n":26,"min":77,"max":178,"target":"present","response":"present","rt":609.99999999999,"correct":true,"confidence":3},{"trial_n":27,"min":81,"max":174,"target":"absent","response":"absent","rt":1720,"correct":true,"confidence":3},{"trial_n":28,"min":81,"max":174,"target":"present","response":"present","rt":1185,"correct":true,"confidence":3},{"trial_n":29,"min":85,"max":170,"target":"present","response":"present","rt":1542,"correct":true,"confidence":3},{"trial_n":30,"min":85,"max":170,"target":"absent","response":"absent","rt":1011,"correct":true,"confidence":3},{"trial_n":31,"min":87,"max":168,"target":"present","response":"absent","rt":885,"correct":false,"confidence":3},{"trial_n":32,"min":85,"max":170,"target":"present","response":"present","rt":1200,"correct":true,"confidence":3},{"trial_n":33,"min":85,"max":170,"target":"absent","response":"absent","rt":995,"correct":true,"confidence":3},{"trial_n":34,"min":87,"max":168,"target":"absent","response":"absent","rt":813,"correct":true,"confidence":3},{"trial_n":35,"min":87,"max":168,"target":"absent","response":"absent","rt":776.99999999999,"correct":true,"confidence":4},{"trial_n":36,"min":89,"max":166,"target":"absent","response":"absent","rt":1315,"correct":true,"confidence":3},{"trial_n":37,"min":89,"max":166,"target":"present","response":"absent","rt":1309,"correct":false,"confidence":3},{"trial_n":38,"min":87,"max":168,"target":"present","response":"present","rt":1199,"correct":true,"confidence":4},{"trial_n":39,"min":87,"max":168,"target":"absent","response":"absent","rt":1262,"correct":true,"confidence":2},{"trial_n":40,"min":89,"max":166,"target":"present","response":"present","rt":915,"correct":true,"confidence":3},{"trial_n":41,"min":89,"max":166,"target":"absent","response":"absent","rt":1116,"correct":true,"confidence":1},{"trial_n":42,"min":90,"max":165,"target":"absent","response":"absent","rt":1251,"correct":true,"confidence":1},{"trial_n":43,"min":90,"max":165,"target":"present","response":"present","rt":871,"correct":true,"confidence":3},{"trial_n":44,"min":91,"max":164,"target":"present","response":"present","rt":2091,"correct":true,"confidence":3},{"trial_n":45,"min":91,"max":164,"target":"absent","response":"absent","rt":1005,"correct":true,"confidence":1},{"trial_n":46,"min":92,"max":163,"target":"absent","response":"absent","rt":1055,"correct":true,"confidence":1},{"trial_n":47,"min":92,"max":163,"target":"absent","response":"absent","rt":1634,"correct":true,"confidence":3},{"trial_n":48,"min":93,"max":162,"target":"absent","response":"absent","rt":1386,"correct":true,"confidence":3},{"trial_n":49,"min":93,"max":162,"target":"present","response":"absent","rt":1891,"correct":false,"confidence":1},{"trial_n":50,"min":92,"max":163,"target":"absent","response":"present","rt":1377,"correct":false,"confidence":3},{"trial_n":51,"min":91,"max":164,"target":"present","response":"absent","rt":1222,"correct":false,"confidence":3},{"trial_n":52,"min":90,"max":165,"target":"absent","response":"present","rt":1336,"correct":false,"confidence":2},{"trial_n":53,"min":89,"max":166,"target":"absent","response":"present","rt":1316,"correct":false,"confidence":2},{"trial_n":54,"min":88,"max":167,"target":"present","response":"absent","rt":1958,"correct":false,"confidence":1},{"trial_n":55,"min":87,"max":168,"target":"present","response":"absent","rt":1147,"correct":false,"confidence":1},{"trial_n":56,"min":86,"max":169,"target":"present","response":"absent","rt":1125,"correct":false,"confidence":1},{"trial_n":57,"min":85,"max":170,"target":"absent","response":"absent","rt":1221,"correct":true,"confidence":1},{"trial_n":58,"min":85,"max":170,"target":"present","response":"absent","rt":830,"correct":false,"confidence":1},{"trial_n":59,"min":84,"max":171,"target":"present","response":"absent","rt":666,"correct":false,"confidence":1},{"trial_n":60,"min":83,"max":172,"target":"absent","response":"absent","rt":554,"correct":true,"confidence":1},{"trial_n":61,"min":83,"max":172,"target":"absent","response":"absent","rt":1121,"correct":true,"confidence":1},{"trial_n":62,"min":84,"max":171,"target":"absent","response":"absent","rt":549,"correct":true,"confidence":1},{"trial_n":63,"min":84,"max":171,"target":"absent","response":"absent","rt":416,"correct":true,"confidence":1},{"trial_n":64,"min":85,"max":170,"target":"present","response":"absent","rt":380,"correct":false,"confidence":1},{"trial_n":65,"min":84,"max":171,"target":"present","response":"absent","rt":367.00000000003,"correct":false,"confidence":1},{"trial_n":66,"min":83,"max":172,"target":"present","response":"absent","rt":1097,"correct":false,"confidence":1},{"trial_n":67,"min":82,"max":173,"target":"present","response":"present","rt":1348,"correct":true,"confidence":3},{"trial_n":68,"min":82,"max":173,"target":"absent","response":"absent","rt":1100,"correct":true,"confidence":3},{"trial_n":69,"min":83,"max":172,"target":"present","response":"present","rt":977,"correct":true,"confidence":1},{"trial_n":70,"min":83,"max":172,"target":"present","response":"present","rt":1149,"correct":true,"confidence":1},{"trial_n":71,"min":41,"max":214,"target":"present","response":"present","rt":1996,"correct":true,"confidence":-1},{"trial_n":72,"min":41,"max":214,"target":"present","response":"present","rt":1912,"correct":true,"confidence":-1},{"trial_n":73,"min":57,"max":198,"target":"absent","response":"present","rt":1227,"correct":false,"confidence":-1},{"trial_n":74,"min":41,"max":214,"target":"absent","response":"absent","rt":1299,"correct":true,"confidence":-1},{"trial_n":75,"min":41,"max":214,"target":"present","response":"absent","rt":1643,"correct":false,"confidence":-1},{"trial_n":76,"min":25,"max":230,"target":"present","response":"absent","rt":2762,"correct":false,"confidence":-1},{"trial_n":77,"min":9,"max":246,"target":"absent","response":"absent","rt":1896,"correct":true,"confidence":-1},{"trial_n":78,"min":9,"max":246,"target":"absent","response":"absent","rt":1192,"correct":true,"confidence":-1},{"trial_n":79,"min":25,"max":230,"target":"absent","response":"absent","rt":826,"correct":true,"confidence":-1},{"trial_n":80,"min":25,"max":230,"target":"absent","response":"absent","rt":846,"correct":true,"confidence":-1},{"trial_n":81,"min":33,"max":222,"target":"present","response":"present","rt":848.00000000003,"correct":true,"confidence":-1},{"trial_n":82,"min":33,"max":222,"target":"present","response":"present","rt":829.00000000003,"correct":true,"confidence":-1},{"trial_n":83,"min":41,"max":214,"target":"present","response":"present","rt":725,"correct":true,"confidence":-1},{"trial_n":84,"min":41,"max":214,"target":"present","response":"present","rt":926.00000000003,"correct":true,"confidence":-1},{"trial_n":85,"min":49,"max":206,"target":"present","response":"present","rt":864,"correct":true,"confidence":-1},{"trial_n":86,"min":49,"max":206,"target":"present","response":"present","rt":728.99999999997,"correct":true,"confidence":-1},{"trial_n":87,"min":57,"max":198,"target":"absent","response":"absent","rt":1513,"correct":true,"confidence":-1},{"trial_n":88,"min":57,"max":198,"target":"absent","response":"absent","rt":960,"correct":true,"confidence":-1},{"trial_n":89,"min":65,"max":190,"target":"absent","response":"absent","rt":907,"correct":true,"confidence":-1},{"trial_n":90,"min":65,"max":190,"target":"present","response":"absent","rt":844,"correct":false,"confidence":-1},{"trial_n":91,"min":61,"max":194,"target":"absent","response":"absent","rt":1049,"correct":true,"confidence":3},{"trial_n":92,"min":61,"max":194,"target":"present","response":"present","rt":1632,"correct":true,"confidence":3},{"trial_n":93,"min":65,"max":190,"target":"absent","response":"absent","rt":1002,"correct":true,"confidence":4},{"trial_n":94,"min":65,"max":190,"target":"present","response":"present","rt":1466,"correct":true,"confidence":1},{"trial_n":95,"min":69,"max":186,"target":"present","response":"absent","rt":7064,"correct":false,"confidence":1},{"trial_n":96,"min":65,"max":190,"target":"absent","response":"absent","rt":999,"correct":true,"confidence":1},{"trial_n":97,"min":65,"max":190,"target":"present","response":"present","rt":1599.9999999999,"correct":true,"confidence":3},{"trial_n":98,"min":69,"max":186,"target":"present","response":"absent","rt":1246,"correct":false,"confidence":1},{"trial_n":99,"min":65,"max":190,"target":"absent","response":"absent","rt":1329,"correct":true,"confidence":3},{"trial_n":100,"min":65,"max":190,"target":"present","response":"present","rt":1114,"correct":true,"confidence":3},{"trial_n":101,"min":67,"max":188,"target":"present","response":"absent","rt":1068,"correct":false,"confidence":3},{"trial_n":102,"min":65,"max":190,"target":"absent","response":"present","rt":1052,"correct":false,"confidence":1},{"trial_n":103,"min":63,"max":192,"target":"present","response":"present","rt":1248,"correct":true,"confidence":1},{"trial_n":104,"min":63,"max":192,"target":"absent","response":"absent","rt":1135,"correct":true,"confidence":1},{"trial_n":105,"min":65,"max":190,"target":"absent","response":"absent","rt":1215,"correct":true,"confidence":1},{"trial_n":106,"min":65,"max":190,"target":"absent","response":"present","rt":1366,"correct":false,"confidence":1},{"trial_n":107,"min":63,"max":192,"target":"absent","response":"absent","rt":1466,"correct":true,"confidence":3},{"trial_n":108,"min":63,"max":192,"target":"present","response":"present","rt":1187,"correct":true,"confidence":3},{"trial_n":109,"min":65,"max":190,"target":"present","response":"present","rt":1197,"correct":true,"confidence":3},{"trial_n":110,"min":65,"max":190,"target":"present","response":"present","rt":3332,"correct":true,"confidence":3},{"trial_n":111,"min":66,"max":189,"target":"present","response":"present","rt":853,"correct":true,"confidence":3},{"trial_n":112,"min":66,"max":189,"target":"absent","response":"absent","rt":17754,"correct":true,"confidence":3},{"trial_n":113,"min":67,"max":188,"target":"absent","response":"absent","rt":1103,"correct":true,"confidence":4},{"trial_n":114,"min":67,"max":188,"target":"present","response":"absent","rt":1054,"correct":false,"confidence":3},{"trial_n":115,"min":66,"max":189,"target":"present","response":"present","rt":1020,"correct":true,"confidence":1},{"trial_n":116,"min":66,"max":189,"target":"present","response":"present","rt":1118,"correct":true,"confidence":1},{"trial_n":117,"min":67,"max":188,"target":"present","response":"present","rt":884,"correct":true,"confidence":1},{"trial_n":118,"min":67,"max":188,"target":"present","response":"present","rt":1138,"correct":true,"confidence":1},{"trial_n":119,"min":68,"max":187,"target":"absent","response":"absent","rt":1339,"correct":true,"confidence":1},{"trial_n":120,"min":68,"max":187,"target":"present","response":"present","rt":856,"correct":true,"confidence":1},{"trial_n":121,"min":69,"max":186,"target":"absent","response":"present","rt":1640,"correct":false,"confidence":1},{"trial_n":122,"min":68,"max":187,"target":"present","response":"present","rt":1019,"correct":true,"confidence":1},{"trial_n":123,"min":68,"max":187,"target":"absent","response":"absent","rt":1172,"correct":true,"confidence":1},{"trial_n":124,"min":69,"max":186,"target":"absent","response":"present","rt":1354,"correct":false,"confidence":1},{"trial_n":125,"min":68,"max":187,"target":"present","response":"present","rt":1123,"correct":true,"confidence":1},{"trial_n":126,"min":68,"max":187,"target":"present","response":"present","rt":918,"correct":true,"confidence":3},{"trial_n":127,"min":69,"max":186,"target":"absent","response":"present","rt":1524.9999999999,"correct":false,"confidence":1},{"trial_n":128,"min":68,"max":187,"target":"absent","response":"present","rt":862,"correct":false,"confidence":1},{"trial_n":129,"min":67,"max":188,"target":"absent","response":"present","rt":1522,"correct":false,"confidence":1},{"trial_n":130,"min":66,"max":189,"target":"present","response":"absent","rt":1188.0000000001,"correct":false,"confidence":1},{"trial_n":131,"min":65,"max":190,"target":"absent","response":"absent","rt":1343.0000000001,"correct":true,"confidence":1},{"trial_n":132,"min":65,"max":190,"target":"absent","response":"absent","rt":1121,"correct":true,"confidence":1},{"trial_n":133,"min":66,"max":189,"target":"absent","response":"present","rt":1757.9999999999,"correct":false,"confidence":1},{"trial_n":134,"min":65,"max":190,"target":"absent","response":"absent","rt":1837,"correct":true,"confidence":4},{"trial_n":135,"min":65,"max":190,"target":"absent","response":"absent","rt":2179,"correct":true,"confidence":3},{"trial_n":136,"min":66,"max":189,"target":"present","response":"absent","rt":1327,"correct":false,"confidence":1},{"trial_n":137,"min":65,"max":190,"target":"absent","response":"present","rt":1310,"correct":false,"confidence":1},{"trial_n":138,"min":64,"max":191,"target":"present","response":"present","rt":1093,"correct":true,"confidence":1},{"trial_n":139,"min":64,"max":191,"target":"present","response":"present","rt":1039,"correct":true,"confidence":3},{"trial_n":140,"min":65,"max":190,"target":"absent","response":"present","rt":946,"correct":false,"confidence":1}]