[{"trial_n":1,"min":25,"max":230,"target":"present","response":"present","rt":5471.7000007629,"correct":true,"confidence":-1},{"trial_n":2,"min":25,"max":230,"target":"present","response":"present","rt":805,"correct":true,"confidence":-1},{"trial_n":3,"min":41,"max":214,"target":"absent","response":"absent","rt":325.89999961853,"correct":true,"confidence":-1},{"trial_n":4,"min":41,"max":214,"target":"absent","response":"absent","rt":247.09999847412,"correct":true,"confidence":-1},{"trial_n":5,"min":57,"max":198,"target":"present","response":"present","rt":587.5,"correct":true,"confidence":-1},{"trial_n":6,"min":57,"max":198,"target":"absent","response":"absent","rt":368.70000076294,"correct":true,"confidence":-1},{"trial_n":7,"min":73,"max":182,"target":"present","response":"present","rt":368.30000114441,"correct":true,"confidence":-1},{"trial_n":8,"min":73,"max":182,"target":"absent","response":"absent","rt":173.39999961853,"correct":true,"confidence":-1},{"trial_n":9,"min":89,"max":166,"target":"present","response":"absent","rt":395,"correct":false,"confidence":-1},{"trial_n":10,"min":73,"max":182,"target":"absent","response":"present","rt":549,"correct":false,"confidence":-1},{"trial_n":11,"min":65,"max":190,"target":"present","response":"absent","rt":505.5,"correct":false,"confidence":-1},{"trial_n":12,"min":57,"max":198,"target":"present","response":"present","rt":602.19999885559,"correct":true,"confidence":-1},{"trial_n":13,"min":57,"max":198,"target":"present","response":"present","rt":380.69999885559,"correct":true,"confidence":-1},{"trial_n":14,"min":65,"max":190,"target":"present","response":"present","rt":410.09999847412,"correct":true,"confidence":-1},{"trial_n":15,"min":65,"max":190,"target":"absent","response":"absent","rt":466.59999847412,"correct":true,"confidence":-1},{"trial_n":16,"min":73,"max":182,"target":"present","response":"present","rt":434.30000114441,"correct":true,"confidence":-1},{"trial_n":17,"min":73,"max":182,"target":"present","response":"present","rt":276.60000038147,"correct":true,"confidence":-1},{"trial_n":18,"min":81,"max":174,"target":"present","response":"present","rt":546.5,"correct":true,"confidence":-1},{"trial_n":19,"min":81,"max":174,"target":"present","response":"present","rt":540.89999961853,"correct":true,"confidence":-1},{"trial_n":20,"min":89,"max":166,"target":"absent","response":"absent","rt":1034.6000003815,"correct":true,"confidence":-1},{"trial_n":21,"min":89,"max":166,"target":"absent","response":"absent","rt":2289.2000007629,"correct":true,"confidence":3},{"trial_n":22,"min":93,"max":162,"target":"absent","response":"absent","rt":382.5,"correct":true,"confidence":3},{"trial_n":23,"min":93,"max":162,"target":"present","response":"present","rt":392.20000076294,"correct":true,"confidence":2},{"trial_n":24,"min":97,"max":158,"target":"absent","response":"absent","rt":2151.3000011444,"correct":true,"confidence":2},{"trial_n":25,"min":97,"max":158,"target":"absent","response":"present","rt":1419.8999996185,"correct":false,"confidence":2},{"trial_n":26,"min":93,"max":162,"target":"present","response":"absent","rt":1380.5,"correct":false,"confidence":2},{"trial_n":27,"min":89,"max":166,"target":"absent","response":"absent","rt":716.5,"correct":true,"confidence":1},{"trial_n":28,"min":89,"max":166,"target":"present","response":"present","rt":757.60000038147,"correct":true,"confidence":1},{"trial_n":29,"min":93,"max":162,"target":"present","response":"present","rt":632.60000038147,"correct":true,"confidence":2},{"trial_n":30,"min":93,"max":162,"target":"present","response":"absent","rt":643.60000038147,"correct":false,"confidence":1},{"trial_n":31,"min":91,"max":164,"target":"absent","response":"present","rt":3747.9000015259,"correct":false,"confidence":3},{"trial_n":32,"min":89,"max":166,"target":"present","response":"absent","rt":928.89999961853,"correct":false,"confidence":3},{"trial_n":33,"min":87,"max":168,"target":"absent","response":"present","rt":431.5,"correct":false,"confidence":3},{"trial_n":34,"min":85,"max":170,"target":"absent","response":"present","rt":503.39999961853,"correct":false,"confidence":3},{"trial_n":35,"min":83,"max":172,"target":"present","response":"present","rt":383.10000038147,"correct":true,"confidence":3},{"trial_n":36,"min":83,"max":172,"target":"present","response":"present","rt":386.90000152588,"correct":true,"confidence":3},{"trial_n":37,"min":85,"max":170,"target":"present","response":"present","rt":556.60000038147,"correct":true,"confidence":3},{"trial_n":38,"min":85,"max":170,"target":"present","response":"present","rt":273.89999961853,"correct":true,"confidence":3},{"trial_n":39,"min":87,"max":168,"target":"present","response":"present","rt":293.60000038147,"correct":true,"confidence":3},{"trial_n":40,"min":87,"max":168,"target":"absent","response":"absent","rt":175.5,"correct":true,"confidence":3},{"trial_n":41,"min":88,"max":167,"target":"present","response":"absent","rt":824.70000076294,"correct":false,"confidence":3},{"trial_n":42,"min":87,"max":168,"target":"absent","response":"absent","rt":645.39999961853,"correct":true,"confidence":3},{"trial_n":43,"min":87,"max":168,"target":"present","response":"present","rt":242.10000038147,"correct":true,"confidence":3},{"trial_n":44,"min":88,"max":167,"target":"absent","response":"absent","rt":481.69999885559,"correct":true,"confidence":3},{"trial_n":45,"min":88,"max":167,"target":"present","response":"present","rt":154,"correct":true,"confidence":3},{"trial_n":46,"min":89,"max":166,"target":"present","response":"present","rt":406.39999961853,"correct":true,"confidence":3},{"trial_n":47,"min":89,"max":166,"target":"present","response":"present","rt":427.29999923706,"correct":true,"confidence":1},{"trial_n":48,"min":90,"max":165,"target":"present","response":"present","rt":1220.3999996185,"correct":true,"confidence":3},{"trial_n":49,"min":90,"max":165,"target":"absent","response":"absent","rt":559.70000076294,"correct":true,"confidence":3},{"trial_n":50,"min":91,"max":164,"target":"absent","response":"absent","rt":1850.8000011444,"correct":true,"confidence":1},{"trial_n":51,"min":91,"max":164,"target":"absent","response":"absent","rt":1670.7999992371,"correct":true,"confidence":3},{"trial_n":52,"min":92,"max":163,"target":"present","response":"present","rt":147,"correct":true,"confidence":3},{"trial_n":53,"min":92,"max":163,"target":"absent","response":"absent","rt":540.79999923706,"correct":true,"confidence":3},{"trial_n":54,"min":93,"max":162,"target":"absent","response":"present","rt":479,"correct":false,"confidence":3},{"trial_n":55,"min":92,"max":163,"target":"present","response":"present","rt":447.90000152588,"correct":true,"confidence":3},{"trial_n":56,"min":92,"max":163,"target":"absent","response":"absent","rt":825.89999961853,"correct":true,"confidence":3},{"trial_n":57,"min":93,"max":162,"target":"absent","response":"present","rt":699.29999923706,"correct":false,"confidence":3},{"trial_n":58,"min":92,"max":163,"target":"absent","response":"present","rt":1099.7000007629,"correct":false,"confidence":3},{"trial_n":59,"min":91,"max":164,"target":"absent","response":"absent","rt":793.79999923706,"correct":true,"confidence":3},{"trial_n":60,"min":91,"max":164,"target":"absent","response":"present","rt":1134.9000015259,"correct":false,"confidence":3},{"trial_n":61,"min":90,"max":165,"target":"absent","response":"present","rt":492.39999961853,"correct":false,"confidence":3},{"trial_n":62,"min":89,"max":166,"target":"absent","response":"absent","rt":909.70000076294,"correct":true,"confidence":3},{"trial_n":63,"min":89,"max":166,"target":"absent","response":"present","rt":920.80000114441,"correct":false,"confidence":3},{"trial_n":64,"min":88,"max":167,"target":"present","response":"present","rt":934.70000076294,"correct":true,"confidence":3},{"trial_n":65,"min":88,"max":167,"target":"present","response":"present","rt":871.20000076294,"correct":true,"confidence":3},{"trial_n":66,"min":89,"max":166,"target":"present","response":"present","rt":1057,"correct":true,"confidence":2},{"trial_n":67,"min":89,"max":166,"target":"present","response":"absent","rt":796.79999923706,"correct":false,"confidence":2},{"trial_n":68,"min":88,"max":167,"target":"absent","response":"present","rt":1219.6000003815,"correct":false,"confidence":3},{"trial_n":69,"min":87,"max":168,"target":"absent","response":"absent","rt":653.10000038147,"correct":true,"confidence":3},{"trial_n":70,"min":87,"max":168,"target":"absent","response":"present","rt":702.89999961853,"correct":false,"confidence":2},{"trial_n":71,"min":41,"max":214,"target":"present","response":"present","rt":17270.299999237,"correct":true,"confidence":-1},{"trial_n":72,"min":41,"max":214,"target":"present","response":"present","rt":886.70000076294,"correct":true,"confidence":-1},{"trial_n":73,"min":57,"max":198,"target":"absent","response":"absent","rt":310.89999961853,"correct":true,"confidence":-1},{"trial_n":74,"min":57,"max":198,"target":"absent","response":"absent","rt":401.89999961853,"correct":true,"confidence":-1},{"trial_n":75,"min":73,"max":182,"target":"present","response":"present","rt":365.29999923706,"correct":true,"confidence":-1},{"trial_n":76,"min":73,"max":182,"target":"absent","response":"absent","rt":581.59999847412,"correct":true,"confidence":-1},{"trial_n":77,"min":89,"max":166,"target":"absent","response":"present","rt":518.89999961853,"correct":false,"confidence":-1},{"trial_n":78,"min":73,"max":182,"target":"present","response":"present","rt":501.5,"correct":true,"confidence":-1},{"trial_n":79,"min":73,"max":182,"target":"absent","response":"absent","rt":533.5,"correct":true,"confidence":-1},{"trial_n":80,"min":89,"max":166,"target":"present","response":"present","rt":422.69999885559,"correct":true,"confidence":-1},{"trial_n":81,"min":89,"max":166,"target":"present","response":"present","rt":593.30000114441,"correct":true,"confidence":-1},{"trial_n":82,"min":97,"max":158,"target":"absent","response":"present","rt":845.5,"correct":false,"confidence":-1},{"trial_n":83,"min":89,"max":166,"target":"present","response":"absent","rt":1445,"correct":false,"confidence":-1},{"trial_n":84,"min":81,"max":174,"target":"absent","response":"absent","rt":560,"correct":true,"confidence":-1},{"trial_n":85,"min":81,"max":174,"target":"present","response":"present","rt":531.89999961853,"correct":true,"confidence":-1},{"trial_n":86,"min":89,"max":166,"target":"absent","response":"absent","rt":599.19999885559,"correct":true,"confidence":-1},{"trial_n":87,"min":89,"max":166,"target":"present","response":"present","rt":641.89999961853,"correct":true,"confidence":-1},{"trial_n":88,"min":97,"max":158,"target":"present","response":"present","rt":991.5,"correct":true,"confidence":-1},{"trial_n":89,"min":97,"max":158,"target":"absent","response":"present","rt":735.5,"correct":false,"confidence":-1},{"trial_n":90,"min":89,"max":166,"target":"present","response":"absent","rt":956.80000114441,"correct":false,"confidence":-1},{"trial_n":91,"min":85,"max":170,"target":"absent","response":"absent","rt":613.29999923706,"correct":true,"confidence":3},{"trial_n":92,"min":85,"max":170,"target":"present","response":"present","rt":474.30000114441,"correct":true,"confidence":3},{"trial_n":93,"min":89,"max":166,"target":"present","response":"present","rt":888.30000114441,"correct":true,"confidence":2},{"trial_n":94,"min":89,"max":166,"target":"present","response":"present","rt":453.10000038147,"correct":true,"confidence":3},{"trial_n":95,"min":93,"max":162,"target":"absent","response":"absent","rt":387.10000038147,"correct":true,"confidence":3},{"trial_n":96,"min":93,"max":162,"target":"present","response":"present","rt":366.09999847412,"correct":true,"confidence":3},{"trial_n":97,"min":97,"max":158,"target":"present","response":"present","rt":1069.5,"correct":true,"confidence":1},{"trial_n":98,"min":97,"max":158,"target":"present","response":"present","rt":1190,"correct":true,"confidence":1},{"trial_n":99,"min":101,"max":154,"target":"absent","response":"present","rt":722.30000114441,"correct":false,"confidence":1},{"trial_n":100,"min":97,"max":158,"target":"present","response":"absent","rt":345.89999961853,"correct":false,"confidence":1},{"trial_n":101,"min":95,"max":160,"target":"absent","response":"absent","rt":1598,"correct":true,"confidence":2},{"trial_n":102,"min":95,"max":160,"target":"absent","response":"present","rt":587.69999885559,"correct":false,"confidence":2},{"trial_n":103,"min":93,"max":162,"target":"absent","response":"absent","rt":811.5,"correct":true,"confidence":3},{"trial_n":104,"min":93,"max":162,"target":"present","response":"present","rt":670.79999923706,"correct":true,"confidence":2},{"trial_n":105,"min":95,"max":160,"target":"present","response":"absent","rt":621.10000038147,"correct":false,"confidence":3},{"trial_n":106,"min":93,"max":162,"target":"absent","response":"absent","rt":612,"correct":true,"confidence":3},{"trial_n":107,"min":93,"max":162,"target":"absent","response":"absent","rt":653.10000038147,"correct":true,"confidence":3},{"trial_n":108,"min":95,"max":160,"target":"present","response":"present","rt":305,"correct":true,"confidence":3},{"trial_n":109,"min":95,"max":160,"target":"absent","response":"present","rt":922,"correct":false,"confidence":2},{"trial_n":110,"min":93,"max":162,"target":"present","response":"absent","rt":639.20000076294,"correct":false,"confidence":2},{"trial_n":111,"min":92,"max":163,"target":"present","response":"present","rt":533.60000038147,"correct":true,"confidence":3},{"trial_n":112,"min":92,"max":163,"target":"present","response":"absent","rt":529.30000114441,"correct":false,"confidence":2},{"trial_n":113,"min":91,"max":164,"target":"absent","response":"present","rt":504.10000038147,"correct":false,"confidence":2},{"trial_n":114,"min":90,"max":165,"target":"present","response":"present","rt":692.39999961853,"correct":true,"confidence":3},{"trial_n":115,"min":90,"max":165,"target":"present","response":"present","rt":299.10000038147,"correct":true,"confidence":3},{"trial_n":116,"min":91,"max":164,"target":"present","response":"absent","rt":904.19999885559,"correct":false,"confidence":3},{"trial_n":117,"min":90,"max":165,"target":"absent","response":"present","rt":828.20000076294,"correct":false,"confidence":2},{"trial_n":118,"min":89,"max":166,"target":"present","response":"present","rt":304.30000114441,"correct":true,"confidence":3},{"trial_n":119,"min":89,"max":166,"target":"present","response":"absent","rt":340.10000038147,"correct":false,"confidence":3},{"trial_n":120,"min":88,"max":167,"target":"absent","response":"present","rt":585.5,"correct":false,"confidence":2},{"trial_n":121,"min":87,"max":168,"target":"absent","response":"present","rt":526.5,"correct":false,"confidence":2},{"trial_n":122,"min":86,"max":169,"target":"absent","response":"present","rt":780.5,"correct":false,"confidence":2},{"trial_n":123,"min":85,"max":170,"target":"absent","response":"absent","rt":530.69999885559,"correct":true,"confidence":3},{"trial_n":124,"min":85,"max":170,"target":"absent","response":"present","rt":582.79999923706,"correct":false,"confidence":3},{"trial_n":125,"min":84,"max":171,"target":"absent","response":"absent","rt":1357.2999992371,"correct":true,"confidence":2},{"trial_n":126,"min":84,"max":171,"target":"absent","response":"present","rt":437.20000076294,"correct":false,"confidence":1},{"trial_n":127,"min":83,"max":172,"target":"absent","response":"present","rt":809,"correct":false,"confidence":1},{"trial_n":128,"min":82,"max":173,"target":"present","response":"absent","rt":420,"correct":false,"confidence":1},{"trial_n":129,"min":81,"max":174,"target":"absent","response":"present","rt":567.39999961853,"correct":false,"confidence":2},{"trial_n":130,"min":80,"max":175,"target":"present","response":"present","rt":450.09999847412,"correct":true,"confidence":3},{"trial_n":131,"min":80,"max":175,"target":"present","response":"present","rt":449.60000038147,"correct":true,"confidence":3},{"trial_n":132,"min":81,"max":174,"target":"absent","response":"present","rt":1025.7000007629,"correct":false,"confidence":1},{"trial_n":133,"min":80,"max":175,"target":"present","response":"present","rt":432.29999923706,"correct":true,"confidence":3},{"trial_n":134,"min":80,"max":175,"target":"absent","response":"absent","rt":1179.6000003815,"correct":true,"confidence":3},{"trial_n":135,"min":81,"max":174,"target":"present","response":"absent","rt":1194.8000011444,"correct":false,"confidence":2},{"trial_n":136,"min":80,"max":175,"target":"present","response":"present","rt":364.70000076294,"correct":true,"confidence":2},{"trial_n":137,"min":80,"max":175,"target":"absent","response":"absent","rt":262.39999961853,"correct":true,"confidence":1},{"trial_n":138,"min":81,"max":174,"target":"absent","response":"absent","rt":582.70000076294,"correct":true,"confidence":1},{"trial_n":139,"min":81,"max":174,"target":"present","response":"present","rt":729.10000038147,"correct":true,"confidence":1},{"trial_n":140,"min":82,"max":173,"target":"absent","response":"absent","rt":250.79999923706,"correct":true,"confidence":3}]