[{"trial_n":1,"n_dots":4.25,"target":"right","response":"right","rt":1184,"correct":true,"confidence":-1},{"trial_n":2,"n_dots":4.25,"target":"left","response":"right","rt":712,"correct":false,"confidence":-1},{"trial_n":3,"n_dots":4.65,"target":"left","response":"left","rt":528,"correct":true,"confidence":-1},{"trial_n":4,"n_dots":4.65,"target":"left","response":"left","rt":1045,"correct":true,"confidence":-1},{"trial_n":5,"n_dots":4.25,"target":"right","response":"left","rt":746,"correct":false,"confidence":-1},{"trial_n":6,"n_dots":4.65,"target":"left","response":"left","rt":530,"correct":true,"confidence":-1},{"trial_n":7,"n_dots":4.65,"target":"right","response":"right","rt":578,"correct":true,"confidence":-1},{"trial_n":8,"n_dots":4.45,"target":"left","response":"left","rt":657,"correct":true,"confidence":-1},{"trial_n":9,"n_dots":4.45,"target":"left","response":"left","rt":547,"correct":true,"confidence":-1},{"trial_n":10,"n_dots":4.25,"target":"left","response":"left","rt":945,"correct":true,"confidence":-1},{"trial_n":11,"n_dots":4.25,"target":"left","response":"right","rt":1030,"correct":false,"confidence":-1},{"trial_n":12,"n_dots":4.45,"target":"left","response":"left","rt":577,"correct":true,"confidence":-1},{"trial_n":13,"n_dots":4.45,"target":"right","response":"right","rt":578,"correct":true,"confidence":-1},{"trial_n":14,"n_dots":4.35,"target":"left","response":"left","rt":543,"correct":true,"confidence":-1},{"trial_n":15,"n_dots":4.35,"target":"right","response":"right","rt":463,"correct":true,"confidence":-1},{"trial_n":16,"n_dots":4.25,"target":"right","response":"right","rt":613.00000000001,"correct":true,"confidence":-1},{"trial_n":17,"n_dots":4.25,"target":"left","response":"left","rt":596.00000000001,"correct":true,"confidence":-1},{"trial_n":18,"n_dots":4.15,"target":"left","response":"left","rt":642,"correct":true,"confidence":-1},{"trial_n":19,"n_dots":4.15,"target":"left","response":"left","rt":716,"correct":true,"confidence":-1},{"trial_n":20,"n_dots":4.05,"target":"right","response":"right","rt":780,"correct":true,"confidence":-1},{"trial_n":21,"n_dots":4.05,"target":"left","response":"left","rt":573.00000000001,"correct":true,"confidence":4},{"trial_n":22,"n_dots":3.95,"target":"right","response":"right","rt":945,"correct":true,"confidence":3},{"trial_n":23,"n_dots":3.95,"target":"right","response":"right","rt":933,"correct":true,"confidence":4},{"trial_n":24,"n_dots":3.85,"target":"left","response":"left","rt":1066,"correct":true,"confidence":2},{"trial_n":25,"n_dots":3.85,"target":"left","response":"right","rt":1066,"correct":false,"confidence":2},{"trial_n":26,"n_dots":3.95,"target":"right","response":"right","rt":832,"correct":true,"confidence":3},{"trial_n":27,"n_dots":3.95,"target":"left","response":"left","rt":901,"correct":true,"confidence":3},{"trial_n":28,"n_dots":3.85,"target":"right","response":"right","rt":1229,"correct":true,"confidence":3},{"trial_n":29,"n_dots":3.85,"target":"left","response":"right","rt":930,"correct":false,"confidence":4},{"trial_n":30,"n_dots":3.95,"target":"left","response":"left","rt":584,"correct":true,"confidence":5},{"trial_n":31,"n_dots":3.95,"target":"left","response":"left","rt":818,"correct":true,"confidence":3},{"trial_n":32,"n_dots":3.85,"target":"left","response":"left","rt":582,"correct":true,"confidence":4},{"trial_n":33,"n_dots":3.85,"target":"right","response":"left","rt":481,"correct":false,"confidence":3},{"trial_n":34,"n_dots":3.95,"target":"left","response":"left","rt":818,"correct":true,"confidence":3},{"trial_n":35,"n_dots":3.95,"target":"left","response":"left","rt":548,"correct":true,"confidence":4},{"trial_n":36,"n_dots":3.85,"target":"right","response":"right","rt":753,"correct":true,"confidence":4},{"trial_n":37,"n_dots":3.85,"target":"left","response":"left","rt":667.99999999997,"correct":true,"confidence":3},{"trial_n":38,"n_dots":3.75,"target":"right","response":"right","rt":915.00000000003,"correct":true,"confidence":3},{"trial_n":39,"n_dots":3.75,"target":"left","response":"left","rt":803,"correct":true,"confidence":3},{"trial_n":40,"n_dots":3.65,"target":"right","response":"right","rt":799,"correct":true,"confidence":2},{"trial_n":41,"n_dots":3.65,"target":"right","response":"right","rt":621,"correct":true,"confidence":2},{"trial_n":42,"n_dots":3.55,"target":"left","response":"right","rt":1170,"correct":false,"confidence":2},{"trial_n":43,"n_dots":3.65,"target":"left","response":"left","rt":1087,"correct":true,"confidence":1},{"trial_n":44,"n_dots":3.65,"target":"right","response":"right","rt":902,"correct":true,"confidence":1},{"trial_n":45,"n_dots":3.55,"target":"right","response":"right","rt":987.00000000003,"correct":true,"confidence":1},{"trial_n":46,"n_dots":3.55,"target":"right","response":"right","rt":956,"correct":true,"confidence":1},{"trial_n":47,"n_dots":3.45,"target":"right","response":"left","rt":1521,"correct":false,"confidence":1},{"trial_n":48,"n_dots":3.55,"target":"left","response":"left","rt":855,"correct":true,"confidence":3},{"trial_n":49,"n_dots":3.55,"target":"left","response":"left","rt":401.00000000003,"correct":true,"confidence":3},{"trial_n":50,"n_dots":3.45,"target":"right","response":"left","rt":605,"correct":false,"confidence":3},{"trial_n":51,"n_dots":3.55,"target":"left","response":"right","rt":403,"correct":false,"confidence":4},{"trial_n":52,"n_dots":3.65,"target":"left","response":"left","rt":453,"correct":true,"confidence":3},{"trial_n":53,"n_dots":3.65,"target":"left","response":"left","rt":622,"correct":true,"confidence":3},{"trial_n":54,"n_dots":3.55,"target":"right","response":"right","rt":391,"correct":true,"confidence":3},{"trial_n":55,"n_dots":3.55,"target":"right","response":"right","rt":551.00000000003,"correct":true,"confidence":2},{"trial_n":56,"n_dots":3.45,"target":"left","response":"right","rt":587,"correct":false,"confidence":2},{"trial_n":57,"n_dots":3.55,"target":"right","response":"right","rt":372,"correct":true,"confidence":2},{"trial_n":58,"n_dots":3.55,"target":"left","response":"left","rt":651.00000000006,"correct":true,"confidence":3},{"trial_n":59,"n_dots":3.45,"target":"left","response":"left","rt":1275,"correct":true,"confidence":1},{"trial_n":60,"n_dots":3.45,"target":"left","response":"left","rt":703,"correct":true,"confidence":1},{"trial_n":61,"n_dots":3.35,"target":"right","response":"right","rt":565,"correct":true,"confidence":3},{"trial_n":62,"n_dots":3.35,"target":"left","response":"left","rt":618,"correct":true,"confidence":2},{"trial_n":63,"n_dots":3.25,"target":"right","response":"right","rt":868,"correct":true,"confidence":3},{"trial_n":64,"n_dots":3.25,"target":"right","response":"left","rt":501,"correct":false,"confidence":3},{"trial_n":65,"n_dots":3.35,"target":"left","response":"left","rt":673.99999999994,"correct":true,"confidence":2},{"trial_n":66,"n_dots":3.35,"target":"left","response":"left","rt":536,"correct":true,"confidence":2},{"trial_n":67,"n_dots":3.25,"target":"right","response":"left","rt":654,"correct":false,"confidence":2},{"trial_n":68,"n_dots":3.35,"target":"left","response":"left","rt":739,"correct":true,"confidence":1},{"trial_n":69,"n_dots":3.35,"target":"left","response":"left","rt":577.99999999994,"correct":true,"confidence":3},{"trial_n":70,"n_dots":3.25,"target":"left","response":"right","rt":873,"correct":false,"confidence":2},{"trial_n":71,"n_dots":3.35,"target":"right","response":"right","rt":692,"correct":true,"confidence":3},{"trial_n":72,"n_dots":3.35,"target":"right","response":"right","rt":626.99999999994,"correct":true,"confidence":3},{"trial_n":73,"n_dots":3.25,"target":"right","response":"left","rt":595,"correct":false,"confidence":3},{"trial_n":74,"n_dots":3.35,"target":"right","response":"right","rt":408.00000000006,"correct":true,"confidence":2},{"trial_n":75,"n_dots":3.35,"target":"right","response":"right","rt":689.00000000006,"correct":true,"confidence":1},{"trial_n":76,"n_dots":3.25,"target":"left","response":"left","rt":380,"correct":true,"confidence":3},{"trial_n":77,"n_dots":3.25,"target":"right","response":"left","rt":529,"correct":false,"confidence":3},{"trial_n":78,"n_dots":3.35,"target":"right","response":"left","rt":1041,"correct":false,"confidence":3},{"trial_n":79,"n_dots":3.45,"target":"right","response":"left","rt":895,"correct":false,"confidence":3},{"trial_n":80,"n_dots":3.55,"target":"right","response":"right","rt":691,"correct":true,"confidence":2},{"trial_n":81,"n_dots":3.55,"target":"right","response":"right","rt":929,"correct":true,"confidence":1},{"trial_n":82,"n_dots":3.45,"target":"left","response":"right","rt":1104,"correct":false,"confidence":3},{"trial_n":83,"n_dots":3.55,"target":"right","response":"right","rt":604,"correct":true,"confidence":2},{"trial_n":84,"n_dots":3.55,"target":"right","response":"left","rt":921,"correct":false,"confidence":2},{"trial_n":85,"n_dots":3.65,"target":"left","response":"left","rt":1054.0000000001,"correct":true,"confidence":4},{"trial_n":86,"n_dots":3.65,"target":"left","response":"left","rt":1121,"correct":true,"confidence":3},{"trial_n":87,"n_dots":3.55,"target":"right","response":"left","rt":556,"correct":false,"confidence":2},{"trial_n":88,"n_dots":3.65,"target":"right","response":"left","rt":917,"correct":false,"confidence":2},{"trial_n":89,"n_dots":3.75,"target":"right","response":"right","rt":2907,"correct":true,"confidence":1},{"trial_n":90,"n_dots":3.75,"target":"right","response":"left","rt":1990.0000000001,"correct":false,"confidence":2},{"trial_n":91,"n_dots":3.85,"target":"left","response":"left","rt":785,"correct":true,"confidence":1},{"trial_n":92,"n_dots":3.85,"target":"right","response":"left","rt":1155,"correct":false,"confidence":1},{"trial_n":93,"n_dots":3.95,"target":"right","response":"right","rt":739.99999999988,"correct":true,"confidence":2},{"trial_n":94,"n_dots":3.95,"target":"left","response":"left","rt":520,"correct":true,"confidence":4},{"trial_n":95,"n_dots":3.85,"target":"right","response":"right","rt":819,"correct":true,"confidence":4},{"trial_n":96,"n_dots":3.85,"target":"left","response":"right","rt":973,"correct":false,"confidence":3},{"trial_n":97,"n_dots":3.95,"target":"right","response":"right","rt":574,"correct":true,"confidence":3},{"trial_n":98,"n_dots":3.95,"target":"left","response":"left","rt":606.99999999988,"correct":true,"confidence":3},{"trial_n":99,"n_dots":3.85,"target":"right","response":"left","rt":808.00000000012,"correct":false,"confidence":3},{"trial_n":100,"n_dots":3.95,"target":"right","response":"right","rt":543,"correct":true,"confidence":3},{"trial_n":101,"n_dots":3.95,"target":"right","response":"right","rt":632,"correct":true,"confidence":3},{"trial_n":102,"n_dots":3.85,"target":"right","response":"right","rt":694,"correct":true,"confidence":2},{"trial_n":103,"n_dots":3.85,"target":"left","response":"left","rt":510,"correct":true,"confidence":2},{"trial_n":104,"n_dots":3.75,"target":"left","response":"left","rt":356,"correct":true,"confidence":5},{"trial_n":105,"n_dots":3.75,"target":"left","response":"left","rt":927,"correct":true,"confidence":3},{"trial_n":106,"n_dots":3.65,"target":"right","response":"right","rt":527,"correct":true,"confidence":3},{"trial_n":107,"n_dots":3.65,"target":"right","response":"left","rt":2611,"correct":false,"confidence":1},{"trial_n":108,"n_dots":3.75,"target":"right","response":"right","rt":1129,"correct":true,"confidence":3},{"trial_n":109,"n_dots":3.75,"target":"left","response":"left","rt":711,"correct":true,"confidence":2},{"trial_n":110,"n_dots":3.65,"target":"left","response":"left","rt":793,"correct":true,"confidence":3},{"trial_n":111,"n_dots":3.65,"target":"left","response":"left","rt":760,"correct":true,"confidence":2},{"trial_n":112,"n_dots":3.55,"target":"left","response":"right","rt":744,"correct":false,"confidence":1},{"trial_n":113,"n_dots":3.65,"target":"right","response":"right","rt":495,"correct":true,"confidence":1},{"trial_n":114,"n_dots":3.65,"target":"right","response":"right","rt":529,"correct":true,"confidence":3},{"trial_n":115,"n_dots":3.55,"target":"left","response":"left","rt":613,"correct":true,"confidence":3},{"trial_n":116,"n_dots":3.55,"target":"left","response":"left","rt":512,"correct":true,"confidence":5},{"trial_n":117,"n_dots":3.45,"target":"right","response":"left","rt":575,"correct":false,"confidence":4},{"trial_n":118,"n_dots":3.55,"target":"right","response":"left","rt":460,"correct":false,"confidence":3},{"trial_n":119,"n_dots":3.65,"target":"left","response":"left","rt":564,"correct":true,"confidence":3},{"trial_n":120,"n_dots":3.65,"target":"right","response":"right","rt":496,"correct":true,"confidence":3}]