[{"trial_n":1,"n_dots":4.25,"target":"left","response":"left","rt":10243.5,"correct":true,"confidence":-1},{"trial_n":2,"n_dots":4.25,"target":"right","response":"right","rt":2729.599999994,"correct":true,"confidence":-1},{"trial_n":3,"n_dots":3.85,"target":"right","response":"right","rt":783.30000001192,"correct":true,"confidence":-1},{"trial_n":4,"n_dots":3.85,"target":"right","response":"left","rt":901.69999998808,"correct":false,"confidence":-1},{"trial_n":5,"n_dots":4.25,"target":"left","response":"left","rt":722.59999999404,"correct":true,"confidence":-1},{"trial_n":6,"n_dots":4.25,"target":"right","response":"right","rt":758.90000000596,"correct":true,"confidence":-1},{"trial_n":7,"n_dots":3.85,"target":"left","response":"left","rt":1304.8000000119,"correct":true,"confidence":-1},{"trial_n":8,"n_dots":3.85,"target":"right","response":"right","rt":802.70000001788,"correct":true,"confidence":-1},{"trial_n":9,"n_dots":3.65,"target":"left","response":"left","rt":748.79999998212,"correct":true,"confidence":-1},{"trial_n":10,"n_dots":3.65,"target":"right","response":"right","rt":650.19999998808,"correct":true,"confidence":-1},{"trial_n":11,"n_dots":3.45,"target":"left","response":"left","rt":1544.2000000179,"correct":true,"confidence":-1},{"trial_n":12,"n_dots":3.45,"target":"right","response":"right","rt":815.69999998808,"correct":true,"confidence":-1},{"trial_n":13,"n_dots":3.35,"target":"left","response":"left","rt":605.29999998212,"correct":true,"confidence":-1},{"trial_n":14,"n_dots":3.35,"target":"right","response":"left","rt":1120.7999999821,"correct":false,"confidence":-1},{"trial_n":15,"n_dots":3.45,"target":"right","response":"left","rt":1267.099999994,"correct":false,"confidence":-1},{"trial_n":16,"n_dots":3.55,"target":"right","response":"right","rt":874,"correct":true,"confidence":-1},{"trial_n":17,"n_dots":3.55,"target":"left","response":"left","rt":633.40000000596,"correct":true,"confidence":-1},{"trial_n":18,"n_dots":3.45,"target":"left","response":"right","rt":736.59999999404,"correct":false,"confidence":-1},{"trial_n":19,"n_dots":3.55,"target":"left","response":"left","rt":651.5,"correct":true,"confidence":-1},{"trial_n":20,"n_dots":3.55,"target":"left","response":"left","rt":682.5,"correct":true,"confidence":-1},{"trial_n":21,"n_dots":3.45,"target":"right","response":"left","rt":567.80000001192,"correct":false,"confidence":3},{"trial_n":22,"n_dots":3.55,"target":"left","response":"right","rt":749.5,"correct":false,"confidence":4},{"trial_n":23,"n_dots":3.65,"target":"right","response":"right","rt":685.5,"correct":true,"confidence":5},{"trial_n":24,"n_dots":3.65,"target":"right","response":"right","rt":860,"correct":true,"confidence":5},{"trial_n":25,"n_dots":3.55,"target":"right","response":"left","rt":875,"correct":false,"confidence":3},{"trial_n":26,"n_dots":3.65,"target":"left","response":"left","rt":696.79999998212,"correct":true,"confidence":4},{"trial_n":27,"n_dots":3.65,"target":"left","response":"left","rt":838.19999998808,"correct":true,"confidence":3},{"trial_n":28,"n_dots":3.55,"target":"right","response":"right","rt":658.90000000596,"correct":true,"confidence":3},{"trial_n":29,"n_dots":3.55,"target":"left","response":"left","rt":843.40000000596,"correct":true,"confidence":3},{"trial_n":30,"n_dots":3.45,"target":"left","response":"left","rt":852.80000001192,"correct":true,"confidence":1},{"trial_n":31,"n_dots":3.45,"target":"left","response":"right","rt":1317.6999999881,"correct":false,"confidence":2},{"trial_n":32,"n_dots":3.55,"target":"right","response":"left","rt":575.19999998808,"correct":false,"confidence":1},{"trial_n":33,"n_dots":3.65,"target":"right","response":"right","rt":1634.5,"correct":true,"confidence":2},{"trial_n":34,"n_dots":3.65,"target":"right","response":"right","rt":537,"correct":true,"confidence":4},{"trial_n":35,"n_dots":3.55,"target":"right","response":"left","rt":781.80000001192,"correct":false,"confidence":2},{"trial_n":36,"n_dots":3.65,"target":"left","response":"left","rt":781.70000001788,"correct":true,"confidence":4},{"trial_n":37,"n_dots":3.65,"target":"left","response":"left","rt":349.59999999404,"correct":true,"confidence":4},{"trial_n":38,"n_dots":3.55,"target":"left","response":"left","rt":947.20000001788,"correct":true,"confidence":4},{"trial_n":39,"n_dots":3.55,"target":"right","response":"right","rt":264.80000001192,"correct":true,"confidence":4},{"trial_n":40,"n_dots":3.45,"target":"left","response":"right","rt":748.69999998808,"correct":false,"confidence":5},{"trial_n":41,"n_dots":3.55,"target":"right","response":"right","rt":1081.5,"correct":true,"confidence":3},{"trial_n":42,"n_dots":3.55,"target":"left","response":"left","rt":949.69999998808,"correct":true,"confidence":4},{"trial_n":43,"n_dots":3.45,"target":"left","response":"right","rt":658.59999999404,"correct":false,"confidence":5},{"trial_n":44,"n_dots":3.55,"target":"left","response":"left","rt":378.70000001788,"correct":true,"confidence":3},{"trial_n":45,"n_dots":3.55,"target":"right","response":"left","rt":161.30000001192,"correct":false,"confidence":2},{"trial_n":46,"n_dots":3.65,"target":"left","response":"left","rt":465.29999998212,"correct":true,"confidence":5},{"trial_n":47,"n_dots":3.65,"target":"left","response":"right","rt":429.59999999404,"correct":false,"confidence":3},{"trial_n":48,"n_dots":3.75,"target":"right","response":"left","rt":44.300000011921,"correct":false,"confidence":5},{"trial_n":49,"n_dots":3.85,"target":"left","response":"right","rt":1266.900000006,"correct":false,"confidence":1},{"trial_n":50,"n_dots":3.95,"target":"right","response":"left","rt":667.90000000596,"correct":false,"confidence":1},{"trial_n":51,"n_dots":4.05,"target":"left","response":"right","rt":649.60000002384,"correct":false,"confidence":4},{"trial_n":52,"n_dots":4.15,"target":"right","response":"left","rt":238,"correct":false,"confidence":2},{"trial_n":53,"n_dots":4.25,"target":"right","response":"left","rt":2040.599999994,"correct":false,"confidence":4},{"trial_n":54,"n_dots":4.35,"target":"left","response":"right","rt":336.69999998808,"correct":false,"confidence":2},{"trial_n":55,"n_dots":4.45,"target":"right","response":"left","rt":176.69999998808,"correct":false,"confidence":5},{"trial_n":56,"n_dots":4.55,"target":"left","response":"left","rt":1096.400000006,"correct":true,"confidence":5},{"trial_n":57,"n_dots":4.55,"target":"right","response":"right","rt":723.70000001788,"correct":true,"confidence":5},{"trial_n":58,"n_dots":4.45,"target":"right","response":"right","rt":906.39999997616,"correct":true,"confidence":5},{"trial_n":59,"n_dots":4.45,"target":"right","response":"right","rt":654.20000001788,"correct":true,"confidence":5},{"trial_n":60,"n_dots":4.35,"target":"left","response":"left","rt":621.5,"correct":true,"confidence":2},{"trial_n":61,"n_dots":4.35,"target":"left","response":"left","rt":297,"correct":true,"confidence":2},{"trial_n":62,"n_dots":4.25,"target":"left","response":"right","rt":38.90000000596,"correct":false,"confidence":5},{"trial_n":63,"n_dots":4.35,"target":"right","response":"left","rt":423.40000000596,"correct":false,"confidence":4},{"trial_n":64,"n_dots":4.45,"target":"right","response":"right","rt":126.70000001788,"correct":true,"confidence":5},{"trial_n":65,"n_dots":4.45,"target":"left","response":"left","rt":214.29999998212,"correct":true,"confidence":5},{"trial_n":66,"n_dots":4.35,"target":"right","response":"right","rt":721.70000001788,"correct":true,"confidence":5},{"trial_n":67,"n_dots":4.35,"target":"left","response":"left","rt":838.29999998212,"correct":true,"confidence":4},{"trial_n":68,"n_dots":4.25,"target":"left","response":"left","rt":837.59999999404,"correct":true,"confidence":4},{"trial_n":69,"n_dots":4.25,"target":"right","response":"left","rt":1236,"correct":false,"confidence":4},{"trial_n":70,"n_dots":4.35,"target":"right","response":"right","rt":637.70000001788,"correct":true,"confidence":4},{"trial_n":71,"n_dots":4.35,"target":"left","response":"left","rt":699.59999999404,"correct":true,"confidence":5},{"trial_n":72,"n_dots":4.25,"target":"right","response":"left","rt":426.70000001788,"correct":false,"confidence":2},{"trial_n":73,"n_dots":4.35,"target":"right","response":"right","rt":28.299999982119,"correct":true,"confidence":3},{"trial_n":74,"n_dots":4.35,"target":"left","response":"right","rt":452.29999998212,"correct":false,"confidence":2},{"trial_n":75,"n_dots":4.45,"target":"left","response":"left","rt":483.90000000596,"correct":true,"confidence":5},{"trial_n":76,"n_dots":4.45,"target":"left","response":"left","rt":361.89999997616,"correct":true,"confidence":5},{"trial_n":77,"n_dots":4.35,"target":"left","response":"left","rt":466.5,"correct":true,"confidence":5},{"trial_n":78,"n_dots":4.35,"target":"left","response":"left","rt":509.89999997616,"correct":true,"confidence":5},{"trial_n":79,"n_dots":4.25,"target":"right","response":"right","rt":482.70000001788,"correct":true,"confidence":5},{"trial_n":80,"n_dots":4.25,"target":"left","response":"left","rt":861.69999998808,"correct":true,"confidence":3},{"trial_n":81,"n_dots":4.15,"target":"right","response":"right","rt":861.40000000596,"correct":true,"confidence":5},{"trial_n":82,"n_dots":4.15,"target":"right","response":"left","rt":790.19999998808,"correct":false,"confidence":1},{"trial_n":83,"n_dots":4.25,"target":"left","response":"left","rt":284.89999997616,"correct":true,"confidence":4},{"trial_n":84,"n_dots":4.25,"target":"left","response":"left","rt":30.40000000596,"correct":true,"confidence":4},{"trial_n":85,"n_dots":4.15,"target":"right","response":"right","rt":1300.599999994,"correct":true,"confidence":5},{"trial_n":86,"n_dots":4.15,"target":"right","response":"right","rt":2183.400000006,"correct":true,"confidence":3},{"trial_n":87,"n_dots":4.05,"target":"right","response":"right","rt":998.20000001788,"correct":true,"confidence":5},{"trial_n":88,"n_dots":4.05,"target":"left","response":"left","rt":723.59999999404,"correct":true,"confidence":5},{"trial_n":89,"n_dots":3.95,"target":"left","response":"left","rt":843.09999999404,"correct":true,"confidence":5},{"trial_n":90,"n_dots":3.95,"target":"right","response":"right","rt":827.19999998808,"correct":true,"confidence":5},{"trial_n":91,"n_dots":3.85,"target":"right","response":"right","rt":1464.5,"correct":true,"confidence":5},{"trial_n":92,"n_dots":3.85,"target":"right","response":"right","rt":655.5,"correct":true,"confidence":5},{"trial_n":93,"n_dots":3.75,"target":"left","response":"left","rt":1572,"correct":true,"confidence":2},{"trial_n":94,"n_dots":3.75,"target":"right","response":"right","rt":1609.3999999762,"correct":true,"confidence":3},{"trial_n":95,"n_dots":3.65,"target":"left","response":"left","rt":674,"correct":true,"confidence":1},{"trial_n":96,"n_dots":3.65,"target":"left","response":"left","rt":921.79999998212,"correct":true,"confidence":4},{"trial_n":97,"n_dots":3.55,"target":"left","response":"left","rt":414.69999998808,"correct":true,"confidence":4},{"trial_n":98,"n_dots":3.55,"target":"left","response":"left","rt":358,"correct":true,"confidence":4},{"trial_n":99,"n_dots":3.45,"target":"right","response":"right","rt":666.09999999404,"correct":true,"confidence":4},{"trial_n":100,"n_dots":3.45,"target":"left","response":"right","rt":1102.400000006,"correct":false,"confidence":2},{"trial_n":101,"n_dots":3.55,"target":"right","response":"left","rt":2319.6000000238,"correct":false,"confidence":4},{"trial_n":102,"n_dots":3.65,"target":"right","response":"right","rt":385.5,"correct":true,"confidence":3},{"trial_n":103,"n_dots":3.65,"target":"right","response":"right","rt":627.69999998808,"correct":true,"confidence":5},{"trial_n":104,"n_dots":3.55,"target":"left","response":"right","rt":489.70000001788,"correct":false,"confidence":4},{"trial_n":105,"n_dots":3.65,"target":"right","response":"right","rt":3286.8000000119,"correct":true,"confidence":1},{"trial_n":106,"n_dots":3.65,"target":"right","response":"right","rt":381.5,"correct":true,"confidence":4},{"trial_n":107,"n_dots":3.55,"target":"left","response":"left","rt":1226.599999994,"correct":true,"confidence":5},{"trial_n":108,"n_dots":3.55,"target":"left","response":"right","rt":564.09999999404,"correct":false,"confidence":4},{"trial_n":109,"n_dots":3.65,"target":"right","response":"right","rt":839.5,"correct":true,"confidence":4},{"trial_n":110,"n_dots":3.65,"target":"right","response":"left","rt":327.89999997616,"correct":false,"confidence":2},{"trial_n":111,"n_dots":3.75,"target":"right","response":"right","rt":663.79999998212,"correct":true,"confidence":4},{"trial_n":112,"n_dots":3.75,"target":"left","response":"right","rt":717.89999997616,"correct":false,"confidence":2},{"trial_n":113,"n_dots":3.85,"target":"right","response":"right","rt":421.59999999404,"correct":true,"confidence":2},{"trial_n":114,"n_dots":3.85,"target":"left","response":"left","rt":699.29999998212,"correct":true,"confidence":3},{"trial_n":115,"n_dots":3.75,"target":"left","response":"left","rt":839.30000001192,"correct":true,"confidence":3},{"trial_n":116,"n_dots":3.75,"target":"right","response":"right","rt":509.5,"correct":true,"confidence":3},{"trial_n":117,"n_dots":3.65,"target":"left","response":"right","rt":1415.900000006,"correct":false,"confidence":3},{"trial_n":118,"n_dots":3.75,"target":"left","response":"left","rt":597.40000000596,"correct":true,"confidence":4},{"trial_n":119,"n_dots":3.75,"target":"right","response":"right","rt":1820.2000000179,"correct":true,"confidence":3},{"trial_n":120,"n_dots":3.65,"target":"right","response":"left","rt":1252.5,"correct":false,"confidence":3}]