[{"trial_n":1,"span":8,"encoder":"53630256","distractor":"53630556","target":"present","response":"present","rt":"3722.8","correct":true,"confidence":-1},{"trial_n":2,"span":8,"encoder":"83179003","distractor":"83879003","target":"present","response":"present","rt":"2235.3","correct":true,"confidence":-1},{"trial_n":3,"span":10,"encoder":"7373264639","distractor":"3373264639","target":"absent","response":"absent","rt":"2047.3","correct":true,"confidence":-1},{"trial_n":4,"span":10,"encoder":"7422270348","distractor":"7422270328","target":"absent","response":"present","rt":"3118.5","correct":false,"confidence":-1},{"trial_n":5,"span":8,"encoder":"47326411","distractor":"37326411","target":"present","response":"present","rt":"2081.5","correct":true,"confidence":-1},{"trial_n":6,"span":8,"encoder":"23543818","distractor":"23548818","target":"absent","response":"present","rt":"1466.6999999997","correct":false,"confidence":-1},{"trial_n":7,"span":6,"encoder":"509140","distractor":"569140","target":"absent","response":"absent","rt":"1994.3999999999","correct":true,"confidence":-1},{"trial_n":8,"span":6,"encoder":"091594","distractor":"791594","target":"absent","response":"absent","rt":"1327.7000000002","correct":true,"confidence":-1},{"trial_n":9,"span":8,"encoder":"09689983","distractor":"09689483","target":"present","response":"present","rt":"2501.8999999999","correct":true,"confidence":-1},{"trial_n":10,"span":8,"encoder":"45606333","distractor":"45806333","target":"absent","response":"present","rt":"866.90000000037","correct":false,"confidence":-1},{"trial_n":11,"span":6,"encoder":"239877","distractor":"239874","target":"absent","response":"absent","rt":"1103.3999999999","correct":true,"confidence":-1},{"trial_n":12,"span":6,"encoder":"146425","distractor":"146025","target":"present","response":"present","rt":"1603.9000000004","correct":true,"confidence":-1},{"trial_n":13,"span":7,"encoder":"4941236","distractor":"4931236","target":"present","response":"present","rt":"936.5","correct":true,"confidence":-1},{"trial_n":14,"span":7,"encoder":"8897721","distractor":"8897722","target":"absent","response":"present","rt":"2313.2000000002","correct":false,"confidence":-1},{"trial_n":15,"span":6,"encoder":"732919","distractor":"731919","target":"absent","response":"present","rt":"621.39999999991","correct":false,"confidence":-1},{"trial_n":16,"span":5,"encoder":"58052","distractor":"38052","target":"present","response":"absent","rt":"956.80000000028","correct":false,"confidence":-1},{"trial_n":17,"span":4,"encoder":"3559","distractor":"3589","target":"present","response":"present","rt":"532.29999999981","correct":true,"confidence":-1},{"trial_n":18,"span":4,"encoder":"3347","distractor":"3387","target":"present","response":"present","rt":"1151.6999999997","correct":true,"confidence":-1},{"trial_n":19,"span":5,"encoder":"86116","distractor":"86416","target":"absent","response":"absent","rt":"1308.0999999996","correct":true,"confidence":-1},{"trial_n":20,"span":5,"encoder":"80251","distractor":"80151","target":"absent","response":"absent","rt":"1450.2000000002","correct":true,"confidence":-1},{"trial_n":21,"span":6,"encoder":"234082","distractor":"254082","target":"absent","response":"absent","rt":"1390.2000000002","correct":true,"confidence":4},{"trial_n":22,"span":6,"encoder":"012151","distractor":"012451","target":"present","response":"present","rt":"1914.7999999998","correct":true,"confidence":5},{"trial_n":23,"span":7,"encoder":"0274679","distractor":"0274629","target":"present","response":"present","rt":"3727.2000000002","correct":true,"confidence":4},{"trial_n":24,"span":7,"encoder":"9802711","distractor":"9892711","target":"absent","response":"absent","rt":"1708.7999999998","correct":true,"confidence":5},{"trial_n":25,"span":8,"encoder":"30934563","distractor":"30934963","target":"present","response":"present","rt":"3558.7999999998","correct":true,"confidence":3},{"trial_n":26,"span":8,"encoder":"75952395","distractor":"75955395","target":"absent","response":"absent","rt":"2433.5","correct":true,"confidence":5},{"trial_n":27,"span":9,"encoder":"081129409","distractor":"281129409","target":"present","response":"present","rt":"5075.8999999999","correct":true,"confidence":3},{"trial_n":28,"span":9,"encoder":"982450826","distractor":"982450326","target":"absent","response":"absent","rt":"2819.9000000004","correct":true,"confidence":4},{"trial_n":29,"span":10,"encoder":"2477306040","distractor":"2477006040","target":"present","response":"present","rt":"2311.6999999997","correct":true,"confidence":5},{"trial_n":30,"span":10,"encoder":"2439452038","distractor":"2439452033","target":"present","response":"present","rt":"3533.5","correct":true,"confidence":3},{"trial_n":31,"span":11,"encoder":"09313512645","distractor":"09313512644","target":"absent","response":"absent","rt":"3007.8999999999","correct":true,"confidence":5},{"trial_n":32,"span":11,"encoder":"04327808663","distractor":"04627808663","target":"present","response":"present","rt":"2322.8000000003","correct":true,"confidence":4},{"trial_n":33,"span":12,"encoder":"859129325953","distractor":"859629325953","target":"absent","response":"present","rt":"2760.2999999998","correct":false,"confidence":2},{"trial_n":34,"span":11,"encoder":"44854983323","distractor":"42854983323","target":"present","response":"present","rt":"3498.6999999997","correct":true,"confidence":4},{"trial_n":35,"span":11,"encoder":"08751449808","distractor":"08751449878","target":"absent","response":"absent","rt":"4478.6000000001","correct":true,"confidence":5},{"trial_n":36,"span":12,"encoder":"528215726026","distractor":"828215726026","target":"present","response":"present","rt":"5289","correct":true,"confidence":3},{"trial_n":37,"span":12,"encoder":"130637503780","distractor":"130637533780","target":"absent","response":"present","rt":"3425.7999999998","correct":false,"confidence":2},{"trial_n":38,"span":11,"encoder":"27992519884","distractor":"27992511884","target":"present","response":"present","rt":"4157.3999999999","correct":true,"confidence":4},{"trial_n":39,"span":11,"encoder":"02349329031","distractor":"08349329031","target":"absent","response":"present","rt":"4994","correct":false,"confidence":4},{"trial_n":40,"span":10,"encoder":"5355406750","distractor":"5315406750","target":"present","response":"present","rt":"1893.5","correct":true,"confidence":3},{"trial_n":41,"span":10,"encoder":"2894462864","distractor":"2894462861","target":"present","response":"present","rt":"1766.9000000004","correct":true,"confidence":4},{"trial_n":42,"span":11,"encoder":"26350304064","distractor":"26357304064","target":"present","response":"present","rt":"1846.1999999997","correct":true,"confidence":2},{"trial_n":43,"span":11,"encoder":"51113562062","distractor":"51117562062","target":"present","response":"present","rt":"2386.3999999999","correct":true,"confidence":3},{"trial_n":44,"span":12,"encoder":"502106857088","distractor":"502006857088","target":"present","response":"present","rt":"4295.1000000001","correct":true,"confidence":4},{"trial_n":45,"span":12,"encoder":"620984159580","distractor":"620994159580","target":"present","response":"present","rt":"4206.0999999996","correct":true,"confidence":4},{"trial_n":46,"span":13,"encoder":"2903654150322","distractor":"2903634150322","target":"present","response":"absent","rt":"5874","correct":false,"confidence":2},{"trial_n":47,"span":12,"encoder":"721821250419","distractor":"721821230419","target":"absent","response":"present","rt":"2088.9000000004","correct":false,"confidence":3},{"trial_n":48,"span":11,"encoder":"88963367169","distractor":"83963367169","target":"absent","response":"present","rt":"4503.1999999997","correct":false,"confidence":3},{"trial_n":49,"span":10,"encoder":"7938559866","distractor":"7938259866","target":"present","response":"absent","rt":"6890.7000000002","correct":false,"confidence":2},{"trial_n":50,"span":9,"encoder":"428511162","distractor":"428551162","target":"absent","response":"absent","rt":"2972","correct":true,"confidence":5},{"trial_n":51,"span":9,"encoder":"263479982","distractor":"243479982","target":"present","response":"absent","rt":"2360.3999999999","correct":false,"confidence":2},{"trial_n":52,"span":8,"encoder":"37661796","distractor":"37061796","target":"present","response":"present","rt":"2641.9000000004","correct":true,"confidence":5},{"trial_n":53,"span":8,"encoder":"54482258","distractor":"54582258","target":"absent","response":"present","rt":"2863.3000000003","correct":false,"confidence":3},{"trial_n":54,"span":7,"encoder":"9292101","distractor":"9292108","target":"present","response":"present","rt":"2738.1999999997","correct":true,"confidence":5},{"trial_n":55,"span":7,"encoder":"3201147","distractor":"8201147","target":"absent","response":"absent","rt":"1908.1000000001","correct":true,"confidence":5},{"trial_n":56,"span":8,"encoder":"11323892","distractor":"11325892","target":"absent","response":"absent","rt":"2642.1000000001","correct":true,"confidence":5},{"trial_n":57,"span":8,"encoder":"56670799","distractor":"56670793","target":"absent","response":"absent","rt":"3795.3999999999","correct":true,"confidence":5},{"trial_n":58,"span":9,"encoder":"778274130","distractor":"778274100","target":"absent","response":"absent","rt":"3556.1000000001","correct":true,"confidence":5},{"trial_n":59,"span":9,"encoder":"175053286","distractor":"175053296","target":"present","response":"absent","rt":"2828.8999999999","correct":false,"confidence":4},{"trial_n":60,"span":8,"encoder":"90399120","distractor":"90399160","target":"present","response":"present","rt":"3025.2999999998","correct":true,"confidence":5},{"trial_n":61,"span":8,"encoder":"54509677","distractor":"54509637","target":"present","response":"absent","rt":"3921.0999999996","correct":false,"confidence":5},{"trial_n":62,"span":7,"encoder":"5905539","distractor":"5905579","target":"absent","response":"absent","rt":"2270.6999999997","correct":true,"confidence":5},{"trial_n":63,"span":7,"encoder":"4240463","distractor":"4290463","target":"absent","response":"absent","rt":"1727.2000000002","correct":true,"confidence":5},{"trial_n":64,"span":8,"encoder":"96030824","distractor":"96030825","target":"absent","response":"absent","rt":"3089.7999999998","correct":true,"confidence":5},{"trial_n":65,"span":8,"encoder":"58476683","distractor":"58476643","target":"absent","response":"present","rt":"4414.1000000001","correct":false,"confidence":4},{"trial_n":66,"span":7,"encoder":"9282031","distractor":"9282531","target":"absent","response":"absent","rt":"4242.8999999999","correct":true,"confidence":3},{"trial_n":67,"span":7,"encoder":"4952396","distractor":"4956396","target":"present","response":"present","rt":"2333.8000000003","correct":true,"confidence":5},{"trial_n":68,"span":8,"encoder":"80254102","distractor":"80254101","target":"present","response":"present","rt":"3273.7999999998","correct":true,"confidence":4},{"trial_n":69,"span":8,"encoder":"31903065","distractor":"31983065","target":"present","response":"present","rt":"2730.0999999996","correct":true,"confidence":5},{"trial_n":70,"span":9,"encoder":"983982522","distractor":"683982522","target":"absent","response":"absent","rt":"2380.7000000002","correct":true,"confidence":5},{"trial_n":71,"span":8,"encoder":"33008042","distractor":"33008342","target":"present","response":"present","rt":"4289.5","correct":true,"confidence":-1},{"trial_n":72,"span":8,"encoder":"32090668","distractor":"32090664","target":"present","response":"present","rt":"1538.6999999997","correct":true,"confidence":-1},{"trial_n":73,"span":9,"encoder":"067060759","distractor":"067360759","target":"absent","response":"absent","rt":"3010.4000000004","correct":true,"confidence":-1},{"trial_n":74,"span":9,"encoder":"005918717","distractor":"005918710","target":"absent","response":"absent","rt":"3980.1000000001","correct":true,"confidence":-1},{"trial_n":75,"span":10,"encoder":"0278381726","distractor":"0278381720","target":"present","response":"present","rt":"1402.3999999999","correct":true,"confidence":-1},{"trial_n":76,"span":10,"encoder":"9497385303","distractor":"9497385300","target":"absent","response":"absent","rt":"1971.6000000001","correct":true,"confidence":-1},{"trial_n":77,"span":11,"encoder":"03094256821","distractor":"03094256831","target":"present","response":"absent","rt":"3207.1000000001","correct":false,"confidence":-1},{"trial_n":78,"span":10,"encoder":"5538696340","distractor":"5528696340","target":"absent","response":"absent","rt":"5643.3000000003","correct":true,"confidence":-1},{"trial_n":79,"span":10,"encoder":"8634477722","distractor":"8634437722","target":"absent","response":"absent","rt":"2874.6999999997","correct":true,"confidence":-1},{"trial_n":80,"span":11,"encoder":"47223216609","distractor":"47823216609","target":"present","response":"present","rt":"4419.7000000002","correct":true,"confidence":-1},{"trial_n":81,"span":11,"encoder":"57147880302","distractor":"57147880312","target":"present","response":"absent","rt":"1448.8000000003","correct":false,"confidence":-1},{"trial_n":82,"span":10,"encoder":"6786683465","distractor":"6786623465","target":"present","response":"present","rt":"417.60000000009","correct":true,"confidence":-1},{"trial_n":83,"span":10,"encoder":"7354833951","distractor":"7359833951","target":"absent","response":"present","rt":"1371.6999999997","correct":false,"confidence":-1},{"trial_n":84,"span":9,"encoder":"931119590","distractor":"931179590","target":"present","response":"absent","rt":"1400.7999999998","correct":false,"confidence":-1},{"trial_n":85,"span":8,"encoder":"95015168","distractor":"95115168","target":"present","response":"present","rt":"898.70000000019","correct":true,"confidence":-1},{"trial_n":86,"span":8,"encoder":"09029047","distractor":"09027047","target":"absent","response":"absent","rt":"943.69999999972","correct":true,"confidence":-1},{"trial_n":87,"span":9,"encoder":"949982899","distractor":"349982899","target":"absent","response":"present","rt":"505.5","correct":false,"confidence":-1},{"trial_n":88,"span":8,"encoder":"21805144","distractor":"26805144","target":"present","response":"absent","rt":"284","correct":false,"confidence":-1},{"trial_n":89,"span":7,"encoder":"5314885","distractor":"1314885","target":"present","response":"present","rt":"345.89999999991","correct":true,"confidence":-1},{"trial_n":90,"span":7,"encoder":"0924603","distractor":"0923603","target":"present","response":"present","rt":"373.60000000009","correct":true,"confidence":-1},{"trial_n":91,"span":8,"encoder":"37738976","distractor":"37738971","target":"present","response":"present","rt":"2087.6999999997","correct":true,"confidence":5},{"trial_n":92,"span":8,"encoder":"67573368","distractor":"67573369","target":"absent","response":"absent","rt":"1453.3999999999","correct":true,"confidence":5},{"trial_n":93,"span":9,"encoder":"835290916","distractor":"835298916","target":"present","response":"absent","rt":"4532","correct":false,"confidence":2},{"trial_n":94,"span":8,"encoder":"74434575","distractor":"74434545","target":"absent","response":"absent","rt":"2532.7999999998","correct":true,"confidence":5},{"trial_n":95,"span":8,"encoder":"37379238","distractor":"87379238","target":"absent","response":"absent","rt":"4408.5","correct":true,"confidence":2},{"trial_n":96,"span":9,"encoder":"197022485","distractor":"197022085","target":"present","response":"present","rt":"5292","correct":true,"confidence":3},{"trial_n":97,"span":9,"encoder":"870022114","distractor":"870022116","target":"absent","response":"absent","rt":"2547.6000000001","correct":true,"confidence":4},{"trial_n":98,"span":10,"encoder":"1188047109","distractor":"1488047109","target":"present","response":"present","rt":"4699.6999999997","correct":true,"confidence":4},{"trial_n":99,"span":10,"encoder":"3472009252","distractor":"3442009252","target":"present","response":"absent","rt":"708.20000000019","correct":false,"confidence":2},{"trial_n":100,"span":9,"encoder":"574383762","distractor":"774383762","target":"present","response":"present","rt":"2708.7000000002","correct":true,"confidence":2},{"trial_n":101,"span":9,"encoder":"612949119","distractor":"612949519","target":"absent","response":"absent","rt":"3925.3999999999","correct":true,"confidence":4},{"trial_n":102,"span":10,"encoder":"2203374695","distractor":"2203378695","target":"absent","response":"absent","rt":"9184.1999999997","correct":true,"confidence":3},{"trial_n":103,"span":10,"encoder":"7762250181","distractor":"7762750181","target":"absent","response":"absent","rt":"4832","correct":true,"confidence":2},{"trial_n":104,"span":11,"encoder":"04169791975","distractor":"04161791975","target":"absent","response":"present","rt":"1751.6999999997","correct":false,"confidence":2},{"trial_n":105,"span":10,"encoder":"3282383748","distractor":"5282383748","target":"present","response":"absent","rt":"478.39999999991","correct":false,"confidence":1},{"trial_n":106,"span":9,"encoder":"835646458","distractor":"835846458","target":"present","response":"absent","rt":"3185","correct":false,"confidence":2},{"trial_n":107,"span":8,"encoder":"11605832","distractor":"11705832","target":"present","response":"present","rt":"4456.2999999998","correct":true,"confidence":5},{"trial_n":108,"span":8,"encoder":"62214494","distractor":"62214474","target":"absent","response":"absent","rt":"3430.5999999996","correct":true,"confidence":5},{"trial_n":109,"span":9,"encoder":"475978786","distractor":"435978786","target":"absent","response":"absent","rt":"1862.2000000002","correct":true,"confidence":2},{"trial_n":110,"span":9,"encoder":"278679077","distractor":"278579077","target":"absent","response":"present","rt":"301.39999999991","correct":false,"confidence":2},{"trial_n":111,"span":8,"encoder":"37007920","distractor":"37007930","target":"present","response":"present","rt":"2829.3000000003","correct":true,"confidence":4},{"trial_n":112,"span":8,"encoder":"74637792","distractor":"74657792","target":"absent","response":"absent","rt":"598.60000000009","correct":true,"confidence":1},{"trial_n":113,"span":9,"encoder":"960992747","distractor":"960992247","target":"present","response":"absent","rt":"3934.2999999998","correct":false,"confidence":3},{"trial_n":114,"span":8,"encoder":"11857230","distractor":"11807230","target":"present","response":"absent","rt":"4273","correct":false,"confidence":3},{"trial_n":115,"span":7,"encoder":"0990716","distractor":"0490716","target":"present","response":"present","rt":"1794.8000000003","correct":true,"confidence":5},{"trial_n":116,"span":7,"encoder":"2619265","distractor":"2616265","target":"present","response":"present","rt":"3743.3000000003","correct":true,"confidence":2},{"trial_n":117,"span":8,"encoder":"94300094","distractor":"94350094","target":"present","response":"absent","rt":"5975.1000000001","correct":false,"confidence":5},{"trial_n":118,"span":7,"encoder":"2244014","distractor":"5244014","target":"present","response":"present","rt":"2321.1000000001","correct":true,"confidence":5},{"trial_n":119,"span":7,"encoder":"4829087","distractor":"4829487","target":"absent","response":"absent","rt":"3071","correct":true,"confidence":5},{"trial_n":120,"span":8,"encoder":"38216228","distractor":"38212228","target":"present","response":"present","rt":"2662.7000000002","correct":true,"confidence":5},{"trial_n":121,"span":8,"encoder":"52972493","distractor":"52979493","target":"absent","response":"absent","rt":"6507.5","correct":true,"confidence":3},{"trial_n":122,"span":9,"encoder":"100138715","distractor":"100638715","target":"absent","response":"absent","rt":"5764","correct":true,"confidence":4},{"trial_n":123,"span":9,"encoder":"540603351","distractor":"543603351","target":"present","response":"present","rt":"3964.3999999999","correct":true,"confidence":4},{"trial_n":124,"span":10,"encoder":"1201407259","distractor":"1241407259","target":"absent","response":"absent","rt":"5258.8000000003","correct":true,"confidence":4},{"trial_n":125,"span":10,"encoder":"2050863156","distractor":"2050963156","target":"present","response":"absent","rt":"1116.2999999998","correct":false,"confidence":1},{"trial_n":126,"span":9,"encoder":"336051906","distractor":"337051906","target":"absent","response":"absent","rt":"3839.1000000001","correct":true,"confidence":3},{"trial_n":127,"span":9,"encoder":"949385751","distractor":"949385711","target":"present","response":"present","rt":"2269.6999999997","correct":true,"confidence":5},{"trial_n":128,"span":10,"encoder":"8539001245","distractor":"8559001245","target":"present","response":"present","rt":"7940.1000000001","correct":true,"confidence":4},{"trial_n":129,"span":10,"encoder":"7557154679","distractor":"7557154379","target":"absent","response":"absent","rt":"2759.9000000004","correct":true,"confidence":5},{"trial_n":130,"span":11,"encoder":"99382572067","distractor":"99382572068","target":"absent","response":"absent","rt":"2713.6000000001","correct":true,"confidence":5},{"trial_n":131,"span":11,"encoder":"70486931210","distractor":"70486981210","target":"present","response":"present","rt":"4573.1999999997","correct":true,"confidence":4},{"trial_n":132,"span":12,"encoder":"808275496036","distractor":"868275496036","target":"absent","response":"absent","rt":"5112.6000000001","correct":true,"confidence":3},{"trial_n":133,"span":12,"encoder":"652026073708","distractor":"652026043708","target":"absent","response":"present","rt":"2216.6000000001","correct":false,"confidence":1},{"trial_n":134,"span":11,"encoder":"22558469032","distractor":"22558469030","target":"absent","response":"absent","rt":"4526.1000000001","correct":true,"confidence":2},{"trial_n":135,"span":11,"encoder":"75054656647","distractor":"85054656647","target":"absent","response":"absent","rt":"5581.1000000001","correct":true,"confidence":3},{"trial_n":136,"span":12,"encoder":"495165422204","distractor":"495165426204","target":"absent","response":"absent","rt":"3148","correct":true,"confidence":5},{"trial_n":137,"span":12,"encoder":"471709768061","distractor":"471704768061","target":"absent","response":"present","rt":"3804","correct":false,"confidence":1},{"trial_n":138,"span":11,"encoder":"19427406286","distractor":"19407406286","target":"absent","response":"absent","rt":"7153.0999999996","correct":true,"confidence":2},{"trial_n":139,"span":11,"encoder":"68933677327","distractor":"68993677327","target":"present","response":"present","rt":"5367.1000000001","correct":true,"confidence":1},{"trial_n":140,"span":12,"encoder":"990165761375","distractor":"990165761379","target":"present","response":"present","rt":"9640.9000000004","correct":true,"confidence":5}]