[{"trial_n":1,"n_dots":4.25,"target":"right","response":"right","rt":5401.2999992371,"correct":true,"confidence":-1},{"trial_n":2,"n_dots":4.25,"target":"right","response":"right","rt":831,"correct":true,"confidence":-1},{"trial_n":3,"n_dots":3.85,"target":"left","response":"left","rt":344.89999961853,"correct":true,"confidence":-1},{"trial_n":4,"n_dots":3.85,"target":"left","response":"left","rt":338.5,"correct":true,"confidence":-1},{"trial_n":5,"n_dots":3.45,"target":"left","response":"left","rt":301.79999923706,"correct":true,"confidence":-1},{"trial_n":6,"n_dots":3.45,"target":"right","response":"right","rt":287.5,"correct":true,"confidence":-1},{"trial_n":7,"n_dots":3.05,"target":"right","response":"left","rt":1040.1999998093,"correct":false,"confidence":-1},{"trial_n":8,"n_dots":3.25,"target":"right","response":"right","rt":666.10000038147,"correct":true,"confidence":-1},{"trial_n":9,"n_dots":3.25,"target":"right","response":"right","rt":350,"correct":true,"confidence":-1},{"trial_n":10,"n_dots":3.05,"target":"right","response":"right","rt":209.5999994278,"correct":true,"confidence":-1},{"trial_n":11,"n_dots":3.05,"target":"left","response":"left","rt":452.5,"correct":true,"confidence":-1},{"trial_n":12,"n_dots":2.85,"target":"left","response":"right","rt":264.30000019073,"correct":false,"confidence":-1},{"trial_n":13,"n_dots":2.95,"target":"left","response":"left","rt":440,"correct":true,"confidence":-1},{"trial_n":14,"n_dots":2.95,"target":"left","response":"left","rt":1230.7999992371,"correct":true,"confidence":-1},{"trial_n":15,"n_dots":2.85,"target":"right","response":"left","rt":709.30000019073,"correct":false,"confidence":-1},{"trial_n":16,"n_dots":2.95,"target":"right","response":"right","rt":542.39999961853,"correct":true,"confidence":-1},{"trial_n":17,"n_dots":2.95,"target":"right","response":"right","rt":293.60000038147,"correct":true,"confidence":-1},{"trial_n":18,"n_dots":2.85,"target":"right","response":"right","rt":454.80000019073,"correct":true,"confidence":-1},{"trial_n":19,"n_dots":2.85,"target":"right","response":"left","rt":204.0999994278,"correct":false,"confidence":-1},{"trial_n":20,"n_dots":2.95,"target":"left","response":"right","rt":324.89999961853,"correct":false,"confidence":-1},{"trial_n":21,"n_dots":3.05,"target":"left","response":"left","rt":524.60000038147,"correct":true,"confidence":2},{"trial_n":22,"n_dots":3.05,"target":"left","response":"left","rt":891.30000019073,"correct":true,"confidence":4},{"trial_n":23,"n_dots":2.95,"target":"left","response":"left","rt":358.9000005722,"correct":true,"confidence":5},{"trial_n":24,"n_dots":2.95,"target":"right","response":"right","rt":809.19999980927,"correct":true,"confidence":4},{"trial_n":25,"n_dots":2.85,"target":"left","response":"left","rt":1372.6999998093,"correct":true,"confidence":3},{"trial_n":26,"n_dots":2.85,"target":"left","response":"left","rt":1033.5,"correct":true,"confidence":5},{"trial_n":27,"n_dots":2.75,"target":"right","response":"left","rt":555.29999923706,"correct":false,"confidence":5},{"trial_n":28,"n_dots":2.85,"target":"left","response":"left","rt":2093.8000001907,"correct":true,"confidence":3},{"trial_n":29,"n_dots":2.85,"target":"right","response":"right","rt":2683.0999994278,"correct":true,"confidence":3},{"trial_n":30,"n_dots":2.75,"target":"right","response":"right","rt":735.4000005722,"correct":true,"confidence":2},{"trial_n":31,"n_dots":2.75,"target":"right","response":"right","rt":495,"correct":true,"confidence":4},{"trial_n":32,"n_dots":2.65,"target":"left","response":"left","rt":1406.2999992371,"correct":true,"confidence":1},{"trial_n":33,"n_dots":2.65,"target":"left","response":"left","rt":2324.1999998093,"correct":true,"confidence":3},{"trial_n":34,"n_dots":2.55,"target":"right","response":"right","rt":1774.8000001907,"correct":true,"confidence":4},{"trial_n":35,"n_dots":2.55,"target":"left","response":"right","rt":1549.4000005722,"correct":false,"confidence":1},{"trial_n":36,"n_dots":2.65,"target":"left","response":"right","rt":728.79999923706,"correct":false,"confidence":3},{"trial_n":37,"n_dots":2.75,"target":"left","response":"right","rt":2321.5,"correct":false,"confidence":3},{"trial_n":38,"n_dots":2.85,"target":"right","response":"right","rt":1663.3999996185,"correct":true,"confidence":3},{"trial_n":39,"n_dots":2.85,"target":"right","response":"right","rt":1733.6999998093,"correct":true,"confidence":4},{"trial_n":40,"n_dots":2.75,"target":"left","response":"left","rt":635.39999961853,"correct":true,"confidence":4},{"trial_n":41,"n_dots":2.75,"target":"left","response":"left","rt":1524.1999998093,"correct":true,"confidence":4},{"trial_n":42,"n_dots":2.65,"target":"right","response":"left","rt":1028.6999998093,"correct":false,"confidence":3},{"trial_n":43,"n_dots":2.75,"target":"left","response":"left","rt":945.80000019073,"correct":true,"confidence":5},{"trial_n":44,"n_dots":2.75,"target":"right","response":"right","rt":1077.3000001907,"correct":true,"confidence":4},{"trial_n":45,"n_dots":2.65,"target":"right","response":"left","rt":1402.6999998093,"correct":false,"confidence":4},{"trial_n":46,"n_dots":2.75,"target":"right","response":"left","rt":1752.8999996185,"correct":false,"confidence":4},{"trial_n":47,"n_dots":2.85,"target":"left","response":"left","rt":2074.8999996185,"correct":true,"confidence":4},{"trial_n":48,"n_dots":2.85,"target":"right","response":"left","rt":860.5999994278,"correct":false,"confidence":5},{"trial_n":49,"n_dots":2.95,"target":"right","response":"left","rt":806.60000038147,"correct":false,"confidence":5},{"trial_n":50,"n_dots":3.05,"target":"right","response":"left","rt":974.10000038147,"correct":false,"confidence":2},{"trial_n":51,"n_dots":3.15,"target":"right","response":"left","rt":2603.3000001907,"correct":false,"confidence":2},{"trial_n":52,"n_dots":3.25,"target":"left","response":"left","rt":965.19999980927,"correct":true,"confidence":4},{"trial_n":53,"n_dots":3.25,"target":"left","response":"left","rt":757.30000019073,"correct":true,"confidence":5},{"trial_n":54,"n_dots":3.15,"target":"right","response":"left","rt":849.5,"correct":false,"confidence":4},{"trial_n":55,"n_dots":3.25,"target":"right","response":"left","rt":1185,"correct":false,"confidence":3},{"trial_n":56,"n_dots":3.35,"target":"right","response":"right","rt":789.80000019073,"correct":true,"confidence":1},{"trial_n":57,"n_dots":3.35,"target":"left","response":"left","rt":559,"correct":true,"confidence":4},{"trial_n":58,"n_dots":3.25,"target":"right","response":"left","rt":895.80000019073,"correct":false,"confidence":4},{"trial_n":59,"n_dots":3.35,"target":"left","response":"left","rt":817.89999961853,"correct":true,"confidence":5},{"trial_n":60,"n_dots":3.35,"target":"right","response":"left","rt":662.5,"correct":false,"confidence":5},{"trial_n":61,"n_dots":3.45,"target":"left","response":"left","rt":553.69999980927,"correct":true,"confidence":5},{"trial_n":62,"n_dots":3.45,"target":"left","response":"left","rt":898.80000019073,"correct":true,"confidence":1},{"trial_n":63,"n_dots":3.35,"target":"left","response":"left","rt":768,"correct":true,"confidence":4},{"trial_n":64,"n_dots":3.35,"target":"left","response":"left","rt":698.5,"correct":true,"confidence":4},{"trial_n":65,"n_dots":3.25,"target":"left","response":"left","rt":673,"correct":true,"confidence":4},{"trial_n":66,"n_dots":3.25,"target":"left","response":"left","rt":1041.8000001907,"correct":true,"confidence":1},{"trial_n":67,"n_dots":3.15,"target":"left","response":"left","rt":862,"correct":true,"confidence":4},{"trial_n":68,"n_dots":3.15,"target":"left","response":"left","rt":633.70000076294,"correct":true,"confidence":4},{"trial_n":69,"n_dots":3.05,"target":"left","response":"left","rt":1053.1999998093,"correct":true,"confidence":3},{"trial_n":70,"n_dots":3.05,"target":"right","response":"right","rt":1223.3000001907,"correct":true,"confidence":1},{"trial_n":71,"n_dots":2.95,"target":"left","response":"left","rt":665,"correct":true,"confidence":1},{"trial_n":72,"n_dots":2.95,"target":"right","response":"left","rt":951.10000038147,"correct":false,"confidence":3},{"trial_n":73,"n_dots":3.05,"target":"left","response":"left","rt":1370.6999998093,"correct":true,"confidence":1},{"trial_n":74,"n_dots":3.05,"target":"right","response":"right","rt":1174.6000003815,"correct":true,"confidence":1},{"trial_n":75,"n_dots":2.95,"target":"right","response":"right","rt":1085,"correct":true,"confidence":1},{"trial_n":76,"n_dots":2.95,"target":"left","response":"left","rt":1424.8000001907,"correct":true,"confidence":5},{"trial_n":77,"n_dots":2.85,"target":"left","response":"left","rt":971.0999994278,"correct":true,"confidence":2},{"trial_n":78,"n_dots":2.85,"target":"left","response":"left","rt":899.69999980927,"correct":true,"confidence":1},{"trial_n":79,"n_dots":2.75,"target":"right","response":"left","rt":957.9000005722,"correct":false,"confidence":4},{"trial_n":80,"n_dots":2.85,"target":"right","response":"left","rt":1050.6999998093,"correct":false,"confidence":1},{"trial_n":81,"n_dots":2.95,"target":"left","response":"right","rt":904.79999923706,"correct":false,"confidence":3},{"trial_n":82,"n_dots":3.05,"target":"left","response":"left","rt":621,"correct":true,"confidence":5},{"trial_n":83,"n_dots":3.05,"target":"left","response":"left","rt":732.89999961853,"correct":true,"confidence":1},{"trial_n":84,"n_dots":2.95,"target":"right","response":"left","rt":901,"correct":false,"confidence":2},{"trial_n":85,"n_dots":3.05,"target":"left","response":"left","rt":621.70000076294,"correct":true,"confidence":3},{"trial_n":86,"n_dots":3.05,"target":"right","response":"right","rt":997.5999994278,"correct":true,"confidence":4},{"trial_n":87,"n_dots":2.95,"target":"left","response":"left","rt":637.9000005722,"correct":true,"confidence":4},{"trial_n":88,"n_dots":2.95,"target":"right","response":"left","rt":830.70000076294,"correct":false,"confidence":3},{"trial_n":89,"n_dots":3.05,"target":"left","response":"left","rt":951.5,"correct":true,"confidence":2},{"trial_n":90,"n_dots":3.05,"target":"right","response":"right","rt":831,"correct":true,"confidence":5},{"trial_n":91,"n_dots":2.95,"target":"right","response":"right","rt":813.89999961853,"correct":true,"confidence":4},{"trial_n":92,"n_dots":2.95,"target":"left","response":"right","rt":677.19999980927,"correct":false,"confidence":4},{"trial_n":93,"n_dots":3.05,"target":"left","response":"left","rt":631.20000076294,"correct":true,"confidence":5},{"trial_n":94,"n_dots":3.05,"target":"right","response":"right","rt":784.60000038147,"correct":true,"confidence":1},{"trial_n":95,"n_dots":2.95,"target":"left","response":"left","rt":680,"correct":true,"confidence":4},{"trial_n":96,"n_dots":2.95,"target":"right","response":"right","rt":669.30000019073,"correct":true,"confidence":4},{"trial_n":97,"n_dots":2.85,"target":"left","response":"right","rt":941.4000005722,"correct":false,"confidence":1},{"trial_n":98,"n_dots":2.95,"target":"right","response":"left","rt":697.9000005722,"correct":false,"confidence":1},{"trial_n":99,"n_dots":3.05,"target":"left","response":"right","rt":716.4000005722,"correct":false,"confidence":4},{"trial_n":100,"n_dots":3.15,"target":"left","response":"left","rt":913.80000019073,"correct":true,"confidence":1},{"trial_n":101,"n_dots":3.15,"target":"left","response":"right","rt":604.5,"correct":false,"confidence":3},{"trial_n":102,"n_dots":3.25,"target":"right","response":"left","rt":1163.0999994278,"correct":false,"confidence":2},{"trial_n":103,"n_dots":3.35,"target":"right","response":"right","rt":704.5,"correct":true,"confidence":2},{"trial_n":104,"n_dots":3.35,"target":"right","response":"left","rt":981.5,"correct":false,"confidence":2},{"trial_n":105,"n_dots":3.45,"target":"right","response":"left","rt":1026.6000003815,"correct":false,"confidence":2},{"trial_n":106,"n_dots":3.55,"target":"right","response":"right","rt":697.5,"correct":true,"confidence":1},{"trial_n":107,"n_dots":3.55,"target":"right","response":"right","rt":1964.4000005722,"correct":true,"confidence":4},{"trial_n":108,"n_dots":3.45,"target":"left","response":"left","rt":646.5999994278,"correct":true,"confidence":3},{"trial_n":109,"n_dots":3.45,"target":"right","response":"right","rt":897,"correct":true,"confidence":2},{"trial_n":110,"n_dots":3.35,"target":"right","response":"left","rt":759,"correct":false,"confidence":1},{"trial_n":111,"n_dots":3.45,"target":"right","response":"left","rt":541,"correct":false,"confidence":1},{"trial_n":112,"n_dots":3.55,"target":"left","response":"left","rt":424.30000019073,"correct":true,"confidence":1},{"trial_n":113,"n_dots":3.55,"target":"left","response":"left","rt":1164.8999996185,"correct":true,"confidence":1},{"trial_n":114,"n_dots":3.45,"target":"left","response":"left","rt":279.60000038147,"correct":true,"confidence":3},{"trial_n":115,"n_dots":3.45,"target":"right","response":"right","rt":1522.0999994278,"correct":true,"confidence":3},{"trial_n":116,"n_dots":3.35,"target":"right","response":"right","rt":688.60000038147,"correct":true,"confidence":1},{"trial_n":117,"n_dots":3.35,"target":"right","response":"right","rt":1165.3000001907,"correct":true,"confidence":2},{"trial_n":118,"n_dots":3.25,"target":"right","response":"right","rt":568.69999980927,"correct":true,"confidence":4},{"trial_n":119,"n_dots":3.25,"target":"left","response":"left","rt":529.39999961853,"correct":true,"confidence":5},{"trial_n":120,"n_dots":3.15,"target":"left","response":"left","rt":386.30000019073,"correct":true,"confidence":4}]