[{"trial_n":1,"span":8,"encoder":"51165780","distractor":"51165730","target":"present","response":"present","rt":"2672.2000000477","correct":true,"confidence":-1},{"trial_n":2,"span":8,"encoder":"24041060","distractor":"24541060","target":"present","response":"present","rt":"1447.6000001431","correct":true,"confidence":-1},{"trial_n":3,"span":10,"encoder":"6359835486","distractor":"6359135486","target":"absent","response":"absent","rt":"2790.1999998093","correct":true,"confidence":-1},{"trial_n":4,"span":10,"encoder":"6012791868","distractor":"6012791168","target":"absent","response":"present","rt":"1146.4000000954","correct":false,"confidence":-1},{"trial_n":5,"span":8,"encoder":"85239368","distractor":"85239068","target":"present","response":"present","rt":"2825.9000000954","correct":true,"confidence":-1},{"trial_n":6,"span":8,"encoder":"67644364","distractor":"67643364","target":"present","response":"present","rt":"1483.0999999046","correct":true,"confidence":-1},{"trial_n":7,"span":10,"encoder":"5837928824","distractor":"5837926824","target":"present","response":"present","rt":"9349.2999999523","correct":true,"confidence":-1},{"trial_n":8,"span":10,"encoder":"8249457950","distractor":"8249457650","target":"present","response":"present","rt":"1145.1000001431","correct":true,"confidence":-1},{"trial_n":9,"span":12,"encoder":"814355263559","distractor":"824355263559","target":"present","response":"present","rt":"1221","correct":true,"confidence":-1},{"trial_n":10,"span":12,"encoder":"021074175988","distractor":"021073175988","target":"absent","response":"present","rt":"1421.5","correct":false,"confidence":-1},{"trial_n":11,"span":10,"encoder":"2797662324","distractor":"4797662324","target":"absent","response":"present","rt":"2944.2000000477","correct":false,"confidence":-1},{"trial_n":12,"span":9,"encoder":"676361665","distractor":"076361665","target":"present","response":"present","rt":"1273.2999999523","correct":true,"confidence":-1},{"trial_n":13,"span":9,"encoder":"820332495","distractor":"822332495","target":"present","response":"present","rt":"1711.7999999523","correct":true,"confidence":-1},{"trial_n":14,"span":10,"encoder":"0148090812","distractor":"0148090712","target":"present","response":"present","rt":"1279.2999999523","correct":true,"confidence":-1},{"trial_n":15,"span":10,"encoder":"0527917021","distractor":"0527915021","target":"absent","response":"absent","rt":"2354","correct":true,"confidence":-1},{"trial_n":16,"span":11,"encoder":"97206810219","distractor":"97206810229","target":"absent","response":"present","rt":"774.20000004768","correct":false,"confidence":-1},{"trial_n":17,"span":10,"encoder":"9797801397","distractor":"9797805397","target":"present","response":"present","rt":"943","correct":true,"confidence":-1},{"trial_n":18,"span":10,"encoder":"3538133325","distractor":"3538133365","target":"absent","response":"present","rt":"2101.5","correct":false,"confidence":-1},{"trial_n":19,"span":9,"encoder":"508991238","distractor":"508991938","target":"absent","response":"absent","rt":"1894.2000000477","correct":true,"confidence":-1},{"trial_n":20,"span":9,"encoder":"295087765","distractor":"295087745","target":"absent","response":"present","rt":"922.20000004768","correct":false,"confidence":-1},{"trial_n":21,"span":8,"encoder":"84740998","distractor":"84746998","target":"absent","response":"present","rt":"1235.7000000477","correct":false,"confidence":3},{"trial_n":22,"span":7,"encoder":"9912400","distractor":"9942400","target":"present","response":"present","rt":"1551.5999999046","correct":true,"confidence":4},{"trial_n":23,"span":7,"encoder":"9518080","distractor":"9510080","target":"absent","response":"present","rt":"2805","correct":false,"confidence":3},{"trial_n":24,"span":6,"encoder":"759215","distractor":"752215","target":"absent","response":"absent","rt":"2390.1999998093","correct":true,"confidence":3},{"trial_n":25,"span":6,"encoder":"341290","distractor":"341294","target":"absent","response":"absent","rt":"2308.0999999046","correct":true,"confidence":4},{"trial_n":26,"span":7,"encoder":"7813147","distractor":"7873147","target":"present","response":"present","rt":"3170.6000001431","correct":true,"confidence":4},{"trial_n":27,"span":7,"encoder":"2845022","distractor":"2845029","target":"absent","response":"absent","rt":"1877.0999999046","correct":true,"confidence":3},{"trial_n":28,"span":8,"encoder":"92846781","distractor":"92846381","target":"present","response":"present","rt":"1380","correct":true,"confidence":3},{"trial_n":29,"span":8,"encoder":"10002871","distractor":"10002891","target":"present","response":"present","rt":"2785.0999999046","correct":true,"confidence":3},{"trial_n":30,"span":9,"encoder":"324870841","distractor":"324875841","target":"present","response":"present","rt":"2813.2999999523","correct":true,"confidence":2},{"trial_n":31,"span":9,"encoder":"521440709","distractor":"521440609","target":"present","response":"present","rt":"1740.1999998093","correct":true,"confidence":3},{"trial_n":32,"span":10,"encoder":"8440412642","distractor":"8440412644","target":"present","response":"present","rt":"2100.1999998093","correct":true,"confidence":3},{"trial_n":33,"span":10,"encoder":"8642923615","distractor":"8602923615","target":"absent","response":"present","rt":"2356.5","correct":false,"confidence":1},{"trial_n":34,"span":9,"encoder":"704584725","distractor":"704284725","target":"present","response":"present","rt":"2118.5999999046","correct":true,"confidence":2},{"trial_n":35,"span":9,"encoder":"917929735","distractor":"917929705","target":"absent","response":"present","rt":"1212.5999999046","correct":false,"confidence":1},{"trial_n":36,"span":8,"encoder":"06138954","distractor":"06136954","target":"present","response":"absent","rt":"2041.7000000477","correct":false,"confidence":3},{"trial_n":37,"span":7,"encoder":"9029904","distractor":"9029984","target":"absent","response":"present","rt":"1969.2000000477","correct":false,"confidence":3},{"trial_n":38,"span":6,"encoder":"587984","distractor":"587985","target":"absent","response":"absent","rt":"2282","correct":true,"confidence":2},{"trial_n":39,"span":6,"encoder":"387726","distractor":"307726","target":"present","response":"present","rt":"1998.3999998569","correct":true,"confidence":3},{"trial_n":40,"span":7,"encoder":"1996186","distractor":"1996286","target":"absent","response":"absent","rt":"4555.8999998569","correct":true,"confidence":3},{"trial_n":41,"span":7,"encoder":"8262695","distractor":"8260695","target":"present","response":"present","rt":"2191.4000000954","correct":true,"confidence":4},{"trial_n":42,"span":8,"encoder":"66795404","distractor":"67795404","target":"present","response":"present","rt":"2917.2000000477","correct":true,"confidence":4},{"trial_n":43,"span":8,"encoder":"66998200","distractor":"66098200","target":"absent","response":"absent","rt":"2465.2999999523","correct":true,"confidence":3},{"trial_n":44,"span":9,"encoder":"617909716","distractor":"677909716","target":"absent","response":"present","rt":"6360.9000000954","correct":false,"confidence":3},{"trial_n":45,"span":8,"encoder":"21309052","distractor":"21309062","target":"absent","response":"present","rt":"1533.4000000954","correct":false,"confidence":4},{"trial_n":46,"span":7,"encoder":"6754186","distractor":"6744186","target":"present","response":"present","rt":"1263.7000000477","correct":true,"confidence":4},{"trial_n":47,"span":7,"encoder":"3366593","distractor":"3366583","target":"absent","response":"absent","rt":"6534.0999999046","correct":true,"confidence":4},{"trial_n":48,"span":8,"encoder":"79409771","distractor":"79409770","target":"absent","response":"absent","rt":"2250.1000001431","correct":true,"confidence":1},{"trial_n":49,"span":8,"encoder":"54716303","distractor":"54716333","target":"present","response":"present","rt":"1812.7999999523","correct":true,"confidence":4},{"trial_n":50,"span":9,"encoder":"625038999","distractor":"625028999","target":"absent","response":"present","rt":"2195","correct":false,"confidence":3},{"trial_n":51,"span":8,"encoder":"37164143","distractor":"37164133","target":"present","response":"present","rt":"1542.4000000954","correct":true,"confidence":4},{"trial_n":52,"span":8,"encoder":"09668351","distractor":"06668351","target":"present","response":"present","rt":"1983.0999999046","correct":true,"confidence":4},{"trial_n":53,"span":9,"encoder":"574028197","distractor":"574028195","target":"absent","response":"absent","rt":"2428.2000000477","correct":true,"confidence":5},{"trial_n":54,"span":9,"encoder":"406428211","distractor":"406428511","target":"present","response":"present","rt":"2256.0999999046","correct":true,"confidence":2},{"trial_n":55,"span":10,"encoder":"6704969624","distractor":"6704966624","target":"absent","response":"present","rt":"3221.1000001431","correct":false,"confidence":2},{"trial_n":56,"span":9,"encoder":"180925975","distractor":"110925975","target":"absent","response":"present","rt":"2489","correct":false,"confidence":2},{"trial_n":57,"span":8,"encoder":"76978496","distractor":"76078496","target":"absent","response":"present","rt":"1323.7999999523","correct":false,"confidence":3},{"trial_n":58,"span":7,"encoder":"2691283","distractor":"2691233","target":"present","response":"present","rt":"1744.7999999523","correct":true,"confidence":1},{"trial_n":59,"span":7,"encoder":"1418586","distractor":"1418587","target":"present","response":"absent","rt":"1913","correct":false,"confidence":2},{"trial_n":60,"span":6,"encoder":"935755","distractor":"935754","target":"present","response":"present","rt":"1235.0999999046","correct":true,"confidence":3},{"trial_n":61,"span":6,"encoder":"679551","distractor":"579551","target":"present","response":"present","rt":"1666","correct":true,"confidence":1},{"trial_n":62,"span":7,"encoder":"4310100","distractor":"4310102","target":"absent","response":"absent","rt":"1385.7999999523","correct":true,"confidence":5},{"trial_n":63,"span":7,"encoder":"1338230","distractor":"1338239","target":"present","response":"present","rt":"2117.7999999523","correct":true,"confidence":4},{"trial_n":64,"span":8,"encoder":"71752697","distractor":"71752797","target":"absent","response":"present","rt":"2807.8999998569","correct":false,"confidence":3},{"trial_n":65,"span":7,"encoder":"1114992","distractor":"1144992","target":"present","response":"present","rt":"1907.8999998569","correct":true,"confidence":4},{"trial_n":66,"span":7,"encoder":"0669513","distractor":"0669553","target":"absent","response":"absent","rt":"3740.7999999523","correct":true,"confidence":3},{"trial_n":67,"span":8,"encoder":"14451470","distractor":"34451470","target":"present","response":"present","rt":"2787","correct":true,"confidence":3},{"trial_n":68,"span":8,"encoder":"24262182","distractor":"24202182","target":"absent","response":"absent","rt":"1886.7000000477","correct":true,"confidence":1},{"trial_n":69,"span":9,"encoder":"592426209","distractor":"592421209","target":"absent","response":"present","rt":"1234.5","correct":false,"confidence":1},{"trial_n":70,"span":8,"encoder":"99068826","distractor":"98068826","target":"present","response":"absent","rt":"1731.0999999046","correct":false,"confidence":2},{"trial_n":71,"span":8,"encoder":"08170357","distractor":"08170057","target":"present","response":"absent","rt":"3774","correct":false,"confidence":-1},{"trial_n":72,"span":7,"encoder":"4776393","distractor":"4776993","target":"present","response":"present","rt":"4870.5999999046","correct":true,"confidence":-1},{"trial_n":73,"span":7,"encoder":"2053549","distractor":"2353549","target":"absent","response":"absent","rt":"508.69999980927","correct":true,"confidence":-1},{"trial_n":74,"span":8,"encoder":"02360254","distractor":"02360354","target":"absent","response":"present","rt":"545.90000009537","correct":false,"confidence":-1},{"trial_n":75,"span":7,"encoder":"9507917","distractor":"9507987","target":"present","response":"absent","rt":"982.60000014305","correct":false,"confidence":-1},{"trial_n":76,"span":6,"encoder":"423811","distractor":"421811","target":"absent","response":"present","rt":"3300.3999998569","correct":false,"confidence":-1},{"trial_n":77,"span":5,"encoder":"32638","distractor":"32632","target":"absent","response":"absent","rt":"1211.4000000954","correct":true,"confidence":-1},{"trial_n":78,"span":5,"encoder":"93652","distractor":"43652","target":"absent","response":"absent","rt":"600","correct":true,"confidence":-1},{"trial_n":79,"span":6,"encoder":"240785","distractor":"240715","target":"present","response":"present","rt":"3081.0999999046","correct":true,"confidence":-1},{"trial_n":80,"span":6,"encoder":"863386","distractor":"873386","target":"absent","response":"absent","rt":"1438","correct":true,"confidence":-1},{"trial_n":81,"span":7,"encoder":"3662862","distractor":"3622862","target":"present","response":"absent","rt":"623.90000009537","correct":false,"confidence":-1},{"trial_n":82,"span":6,"encoder":"415776","distractor":"715776","target":"absent","response":"present","rt":"502.5","correct":false,"confidence":-1},{"trial_n":83,"span":5,"encoder":"27474","distractor":"27774","target":"present","response":"absent","rt":"676.5","correct":false,"confidence":-1},{"trial_n":84,"span":4,"encoder":"7569","distractor":"7589","target":"absent","response":"present","rt":"567.20000004768","correct":false,"confidence":-1},{"trial_n":85,"span":3,"encoder":"692","distractor":"592","target":"present","response":"absent","rt":"2764.7000000477","correct":false,"confidence":-1},{"trial_n":86,"span":2,"encoder":"71","distractor":"81","target":"present","response":"present","rt":"812","correct":true,"confidence":-1},{"trial_n":87,"span":2,"encoder":"88","distractor":"58","target":"present","response":"present","rt":"737","correct":true,"confidence":-1},{"trial_n":88,"span":3,"encoder":"500","distractor":"506","target":"absent","response":"absent","rt":"842.40000009537","correct":true,"confidence":-1},{"trial_n":89,"span":3,"encoder":"901","distractor":"701","target":"absent","response":"absent","rt":"1546.3999998569","correct":true,"confidence":-1},{"trial_n":90,"span":4,"encoder":"9362","distractor":"9062","target":"present","response":"present","rt":"1144.6999998093","correct":true,"confidence":-1},{"trial_n":91,"span":4,"encoder":"2682","distractor":"2182","target":"present","response":"present","rt":"2206","correct":true,"confidence":4},{"trial_n":92,"span":5,"encoder":"13252","distractor":"23252","target":"absent","response":"absent","rt":"1744.9000000954","correct":true,"confidence":5},{"trial_n":93,"span":5,"encoder":"38802","distractor":"38812","target":"absent","response":"absent","rt":"2676","correct":true,"confidence":3},{"trial_n":94,"span":6,"encoder":"974620","distractor":"974623","target":"present","response":"present","rt":"3888","correct":true,"confidence":5},{"trial_n":95,"span":6,"encoder":"113161","distractor":"313161","target":"present","response":"present","rt":"1910.9000000954","correct":true,"confidence":4},{"trial_n":96,"span":7,"encoder":"1544901","distractor":"1444901","target":"present","response":"present","rt":"2079.9000000954","correct":true,"confidence":4},{"trial_n":97,"span":7,"encoder":"5767586","distractor":"5707586","target":"present","response":"present","rt":"1588.8000001907","correct":true,"confidence":2},{"trial_n":98,"span":8,"encoder":"65199760","distractor":"85199760","target":"absent","response":"absent","rt":"5805.4000000954","correct":true,"confidence":4},{"trial_n":99,"span":8,"encoder":"82682423","distractor":"82652423","target":"present","response":"present","rt":"2255.8999998569","correct":true,"confidence":2},{"trial_n":100,"span":9,"encoder":"936875482","distractor":"936875982","target":"absent","response":"absent","rt":"2944.5","correct":true,"confidence":2},{"trial_n":101,"span":9,"encoder":"415479629","distractor":"435479629","target":"absent","response":"absent","rt":"4457","correct":true,"confidence":4},{"trial_n":102,"span":10,"encoder":"6958515739","distractor":"6978515739","target":"absent","response":"absent","rt":"4723.5","correct":true,"confidence":3},{"trial_n":103,"span":10,"encoder":"6562448213","distractor":"6592448213","target":"present","response":"absent","rt":"3675.7999999523","correct":false,"confidence":4},{"trial_n":104,"span":9,"encoder":"675694665","distractor":"675694265","target":"absent","response":"present","rt":"6485.6000001431","correct":false,"confidence":3},{"trial_n":105,"span":8,"encoder":"85610443","distractor":"85510443","target":"absent","response":"absent","rt":"5672.5999999046","correct":true,"confidence":2},{"trial_n":106,"span":8,"encoder":"45977984","distractor":"45977982","target":"absent","response":"absent","rt":"4742.7999999523","correct":true,"confidence":4},{"trial_n":107,"span":9,"encoder":"261704057","distractor":"261704757","target":"absent","response":"absent","rt":"4076.7999999523","correct":true,"confidence":2},{"trial_n":108,"span":9,"encoder":"380019415","distractor":"180019415","target":"absent","response":"absent","rt":"2473.7999999523","correct":true,"confidence":5},{"trial_n":109,"span":10,"encoder":"0320190159","distractor":"0360190159","target":"present","response":"absent","rt":"8124.0999999046","correct":false,"confidence":2},{"trial_n":110,"span":9,"encoder":"217920600","distractor":"217920300","target":"present","response":"absent","rt":"2872.3999998569","correct":false,"confidence":3},{"trial_n":111,"span":8,"encoder":"48136702","distractor":"48136703","target":"present","response":"absent","rt":"4901.2999999523","correct":false,"confidence":2},{"trial_n":112,"span":7,"encoder":"3492469","distractor":"3492569","target":"absent","response":"absent","rt":"4828.3999998569","correct":true,"confidence":3},{"trial_n":113,"span":7,"encoder":"1541194","distractor":"1541164","target":"absent","response":"absent","rt":"4843.5999999046","correct":true,"confidence":4},{"trial_n":114,"span":8,"encoder":"63819017","distractor":"63812017","target":"present","response":"present","rt":"3379.6999998093","correct":true,"confidence":4},{"trial_n":115,"span":8,"encoder":"99166206","distractor":"96166206","target":"present","response":"present","rt":"6708","correct":true,"confidence":3},{"trial_n":116,"span":9,"encoder":"301866052","distractor":"301866059","target":"absent","response":"absent","rt":"2922.1000001431","correct":true,"confidence":2},{"trial_n":117,"span":9,"encoder":"099959382","distractor":"299959382","target":"absent","response":"absent","rt":"3400","correct":true,"confidence":3},{"trial_n":118,"span":10,"encoder":"8013610477","distractor":"8013615477","target":"absent","response":"absent","rt":"3075.5","correct":true,"confidence":2},{"trial_n":119,"span":10,"encoder":"1083820622","distractor":"1083120622","target":"present","response":"absent","rt":"5875.6999998093","correct":false,"confidence":1},{"trial_n":120,"span":9,"encoder":"384654372","distractor":"364654372","target":"absent","response":"absent","rt":"5734.0999999046","correct":true,"confidence":1},{"trial_n":121,"span":9,"encoder":"396385226","distractor":"096385226","target":"absent","response":"absent","rt":"2162","correct":true,"confidence":4},{"trial_n":122,"span":10,"encoder":"2096642274","distractor":"2095642274","target":"present","response":"present","rt":"3618.6999998093","correct":true,"confidence":1},{"trial_n":123,"span":10,"encoder":"9675356734","distractor":"9665356734","target":"absent","response":"absent","rt":"1408.7999999523","correct":true,"confidence":1},{"trial_n":124,"span":11,"encoder":"11861425654","distractor":"11761425654","target":"present","response":"absent","rt":"5662.5999999046","correct":false,"confidence":3},{"trial_n":125,"span":10,"encoder":"5862068253","distractor":"5882068253","target":"present","response":"absent","rt":"2088.0999999046","correct":false,"confidence":2},{"trial_n":126,"span":9,"encoder":"386549734","distractor":"385549734","target":"absent","response":"absent","rt":"1150.5","correct":true,"confidence":3},{"trial_n":127,"span":9,"encoder":"214884288","distractor":"214884285","target":"present","response":"present","rt":"1971.9000000954","correct":true,"confidence":4},{"trial_n":128,"span":10,"encoder":"3245356134","distractor":"3243356134","target":"absent","response":"absent","rt":"1313.2000000477","correct":true,"confidence":1},{"trial_n":129,"span":10,"encoder":"2004233552","distractor":"9004233552","target":"present","response":"absent","rt":"1428.7999999523","correct":false,"confidence":1},{"trial_n":130,"span":9,"encoder":"096250303","distractor":"096850303","target":"absent","response":"present","rt":"4917.2000000477","correct":false,"confidence":1},{"trial_n":131,"span":8,"encoder":"58926886","distractor":"38926886","target":"present","response":"present","rt":"4833.5999999046","correct":true,"confidence":4},{"trial_n":132,"span":8,"encoder":"72147241","distractor":"72847241","target":"absent","response":"absent","rt":"1509.5999999046","correct":true,"confidence":1},{"trial_n":133,"span":9,"encoder":"240175699","distractor":"210175699","target":"present","response":"absent","rt":"3567.1999998093","correct":false,"confidence":4},{"trial_n":134,"span":8,"encoder":"72750485","distractor":"72750495","target":"present","response":"present","rt":"4139","correct":true,"confidence":3},{"trial_n":135,"span":8,"encoder":"26576276","distractor":"26376276","target":"absent","response":"present","rt":"1912.5","correct":false,"confidence":1},{"trial_n":136,"span":7,"encoder":"8812665","distractor":"8812666","target":"present","response":"present","rt":"2626","correct":true,"confidence":4},{"trial_n":137,"span":7,"encoder":"4744113","distractor":"4144113","target":"present","response":"present","rt":"3252.2999999523","correct":true,"confidence":3},{"trial_n":138,"span":8,"encoder":"72648922","distractor":"72648222","target":"present","response":"present","rt":"761.29999995232","correct":true,"confidence":1},{"trial_n":139,"span":8,"encoder":"45543443","distractor":"45545443","target":"present","response":"present","rt":"2788.7999999523","correct":true,"confidence":2},{"trial_n":140,"span":9,"encoder":"707380619","distractor":"707384619","target":"present","response":"present","rt":"908.5","correct":true,"confidence":2}]