[{"trial_n":1,"n_dots":4.25,"target":"left","response":"right","rt":3834.7999999523,"correct":false,"confidence":-1},{"trial_n":2,"n_dots":4.25,"target":"right","response":"right","rt":808,"correct":true,"confidence":-1},{"trial_n":3,"n_dots":4.25,"target":"left","response":"left","rt":505.30000007153,"correct":true,"confidence":-1},{"trial_n":4,"n_dots":3.85,"target":"right","response":"right","rt":775.29999995232,"correct":true,"confidence":-1},{"trial_n":5,"n_dots":3.85,"target":"right","response":"right","rt":478.10000002384,"correct":true,"confidence":-1},{"trial_n":6,"n_dots":3.45,"target":"right","response":"right","rt":507.59999990463,"correct":true,"confidence":-1},{"trial_n":7,"n_dots":3.45,"target":"right","response":"right","rt":362.5,"correct":true,"confidence":-1},{"trial_n":8,"n_dots":3.25,"target":"right","response":"left","rt":365.29999995232,"correct":false,"confidence":-1},{"trial_n":9,"n_dots":3.45,"target":"right","response":"right","rt":435.70000004768,"correct":true,"confidence":-1},{"trial_n":10,"n_dots":3.45,"target":"left","response":"right","rt":398,"correct":false,"confidence":-1},{"trial_n":11,"n_dots":3.65,"target":"right","response":"left","rt":359.5,"correct":false,"confidence":-1},{"trial_n":12,"n_dots":3.85,"target":"right","response":"right","rt":315.89999997616,"correct":true,"confidence":-1},{"trial_n":13,"n_dots":3.85,"target":"left","response":"left","rt":431,"correct":true,"confidence":-1},{"trial_n":14,"n_dots":3.75,"target":"left","response":"left","rt":436.70000004768,"correct":true,"confidence":-1},{"trial_n":15,"n_dots":3.75,"target":"left","response":"left","rt":290.20000004768,"correct":true,"confidence":-1},{"trial_n":16,"n_dots":3.65,"target":"right","response":"right","rt":382.79999995232,"correct":true,"confidence":-1},{"trial_n":17,"n_dots":3.65,"target":"right","response":"left","rt":339.60000002384,"correct":false,"confidence":-1},{"trial_n":18,"n_dots":3.75,"target":"left","response":"left","rt":76.400000095367,"correct":true,"confidence":-1},{"trial_n":19,"n_dots":3.75,"target":"left","response":"left","rt":178.5,"correct":true,"confidence":-1},{"trial_n":20,"n_dots":3.65,"target":"left","response":"left","rt":258.10000002384,"correct":true,"confidence":-1},{"trial_n":21,"n_dots":3.65,"target":"left","response":"right","rt":4247.6000000238,"correct":false,"confidence":2},{"trial_n":22,"n_dots":3.75,"target":"right","response":"left","rt":1495.6000000238,"correct":false,"confidence":3},{"trial_n":23,"n_dots":3.85,"target":"right","response":"right","rt":1294.1000000238,"correct":true,"confidence":3},{"trial_n":24,"n_dots":3.85,"target":"left","response":"left","rt":620.29999995232,"correct":true,"confidence":4},{"trial_n":25,"n_dots":3.75,"target":"right","response":"right","rt":504.20000004768,"correct":true,"confidence":5},{"trial_n":26,"n_dots":3.75,"target":"right","response":"right","rt":525.79999995232,"correct":true,"confidence":4},{"trial_n":27,"n_dots":3.65,"target":"right","response":"left","rt":2012.5,"correct":false,"confidence":3},{"trial_n":28,"n_dots":3.75,"target":"left","response":"left","rt":408.70000004768,"correct":true,"confidence":5},{"trial_n":29,"n_dots":3.75,"target":"right","response":"right","rt":555.79999995232,"correct":true,"confidence":4},{"trial_n":30,"n_dots":3.65,"target":"left","response":"left","rt":325.5,"correct":true,"confidence":5},{"trial_n":31,"n_dots":3.65,"target":"left","response":"left","rt":287.70000004768,"correct":true,"confidence":5},{"trial_n":32,"n_dots":3.55,"target":"right","response":"right","rt":408.10000002384,"correct":true,"confidence":4},{"trial_n":33,"n_dots":3.55,"target":"left","response":"left","rt":319.10000002384,"correct":true,"confidence":4},{"trial_n":34,"n_dots":3.45,"target":"left","response":"left","rt":357.20000004768,"correct":true,"confidence":4},{"trial_n":35,"n_dots":3.45,"target":"left","response":"left","rt":534.59999990463,"correct":true,"confidence":4},{"trial_n":36,"n_dots":3.35,"target":"left","response":"left","rt":337.20000004768,"correct":true,"confidence":4},{"trial_n":37,"n_dots":3.35,"target":"right","response":"right","rt":360.79999995232,"correct":true,"confidence":3},{"trial_n":38,"n_dots":3.25,"target":"right","response":"left","rt":1162.2000000477,"correct":false,"confidence":2},{"trial_n":39,"n_dots":3.35,"target":"right","response":"right","rt":495.39999997616,"correct":true,"confidence":3},{"trial_n":40,"n_dots":3.35,"target":"left","response":"left","rt":298.70000004768,"correct":true,"confidence":4},{"trial_n":41,"n_dots":3.25,"target":"left","response":"left","rt":325.20000004768,"correct":true,"confidence":4},{"trial_n":42,"n_dots":3.25,"target":"right","response":"right","rt":443.60000002384,"correct":true,"confidence":4},{"trial_n":43,"n_dots":3.15,"target":"right","response":"left","rt":389.79999995232,"correct":false,"confidence":4},{"trial_n":44,"n_dots":3.25,"target":"left","response":"left","rt":215.80000007153,"correct":true,"confidence":5},{"trial_n":45,"n_dots":3.25,"target":"right","response":"right","rt":331,"correct":true,"confidence":4},{"trial_n":46,"n_dots":3.15,"target":"right","response":"right","rt":704,"correct":true,"confidence":3},{"trial_n":47,"n_dots":3.15,"target":"left","response":"left","rt":388,"correct":true,"confidence":5},{"trial_n":48,"n_dots":3.05,"target":"left","response":"left","rt":338.80000007153,"correct":true,"confidence":5},{"trial_n":49,"n_dots":3.05,"target":"right","response":"left","rt":407.19999992847,"correct":false,"confidence":4},{"trial_n":50,"n_dots":3.15,"target":"left","response":"left","rt":229.59999990463,"correct":true,"confidence":5},{"trial_n":51,"n_dots":3.15,"target":"left","response":"left","rt":285.60000002384,"correct":true,"confidence":4},{"trial_n":52,"n_dots":3.05,"target":"left","response":"left","rt":345.89999997616,"correct":true,"confidence":4},{"trial_n":53,"n_dots":3.05,"target":"right","response":"right","rt":744,"correct":true,"confidence":2},{"trial_n":54,"n_dots":2.95,"target":"right","response":"right","rt":983.10000002384,"correct":true,"confidence":2},{"trial_n":55,"n_dots":2.95,"target":"left","response":"left","rt":333.20000004768,"correct":true,"confidence":3},{"trial_n":56,"n_dots":2.85,"target":"left","response":"left","rt":224.20000004768,"correct":true,"confidence":4},{"trial_n":57,"n_dots":2.85,"target":"right","response":"right","rt":773.89999997616,"correct":true,"confidence":3},{"trial_n":58,"n_dots":2.75,"target":"right","response":"left","rt":1031.6000000238,"correct":false,"confidence":3},{"trial_n":59,"n_dots":2.85,"target":"right","response":"left","rt":320.60000002384,"correct":false,"confidence":4},{"trial_n":60,"n_dots":2.95,"target":"right","response":"left","rt":468.69999992847,"correct":false,"confidence":4},{"trial_n":61,"n_dots":3.05,"target":"left","response":"left","rt":446.39999997616,"correct":true,"confidence":3},{"trial_n":62,"n_dots":3.05,"target":"left","response":"left","rt":194.89999997616,"correct":true,"confidence":5},{"trial_n":63,"n_dots":2.95,"target":"left","response":"left","rt":66.199999928474,"correct":true,"confidence":4},{"trial_n":64,"n_dots":2.95,"target":"right","response":"right","rt":673.70000004768,"correct":true,"confidence":3},{"trial_n":65,"n_dots":2.85,"target":"right","response":"left","rt":46.5,"correct":false,"confidence":4},{"trial_n":66,"n_dots":2.95,"target":"left","response":"left","rt":123.20000004768,"correct":true,"confidence":4},{"trial_n":67,"n_dots":2.95,"target":"right","response":"right","rt":994.70000004768,"correct":true,"confidence":2},{"trial_n":68,"n_dots":2.85,"target":"left","response":"left","rt":199.10000002384,"correct":true,"confidence":5},{"trial_n":69,"n_dots":2.85,"target":"right","response":"right","rt":323,"correct":true,"confidence":3},{"trial_n":70,"n_dots":2.75,"target":"right","response":"right","rt":482.10000002384,"correct":true,"confidence":3},{"trial_n":71,"n_dots":2.75,"target":"right","response":"left","rt":231.60000002384,"correct":false,"confidence":3},{"trial_n":72,"n_dots":2.85,"target":"left","response":"left","rt":298.69999992847,"correct":true,"confidence":2},{"trial_n":73,"n_dots":2.85,"target":"left","response":"left","rt":193.5,"correct":true,"confidence":3},{"trial_n":74,"n_dots":2.75,"target":"left","response":"right","rt":306.39999997616,"correct":false,"confidence":4},{"trial_n":75,"n_dots":2.85,"target":"left","response":"left","rt":231.19999992847,"correct":true,"confidence":3},{"trial_n":76,"n_dots":2.85,"target":"left","response":"right","rt":419.10000002384,"correct":false,"confidence":2},{"trial_n":77,"n_dots":2.95,"target":"right","response":"left","rt":1003,"correct":false,"confidence":2},{"trial_n":78,"n_dots":3.05,"target":"left","response":"left","rt":313.10000002384,"correct":true,"confidence":4},{"trial_n":79,"n_dots":3.05,"target":"right","response":"right","rt":278.5,"correct":true,"confidence":4},{"trial_n":80,"n_dots":2.95,"target":"left","response":"left","rt":244.10000002384,"correct":true,"confidence":4},{"trial_n":81,"n_dots":2.95,"target":"left","response":"left","rt":596.09999990463,"correct":true,"confidence":4},{"trial_n":82,"n_dots":2.85,"target":"left","response":"left","rt":319.10000002384,"correct":true,"confidence":3},{"trial_n":83,"n_dots":2.85,"target":"right","response":"left","rt":356.70000004768,"correct":false,"confidence":3},{"trial_n":84,"n_dots":2.95,"target":"right","response":"right","rt":220,"correct":true,"confidence":3},{"trial_n":85,"n_dots":2.95,"target":"left","response":"left","rt":210.70000004768,"correct":true,"confidence":4},{"trial_n":86,"n_dots":2.85,"target":"right","response":"left","rt":92.300000071526,"correct":false,"confidence":4},{"trial_n":87,"n_dots":2.95,"target":"right","response":"right","rt":210.59999990463,"correct":true,"confidence":4},{"trial_n":88,"n_dots":2.95,"target":"left","response":"left","rt":134,"correct":true,"confidence":5},{"trial_n":89,"n_dots":2.85,"target":"left","response":"left","rt":559.29999995232,"correct":true,"confidence":5},{"trial_n":90,"n_dots":2.85,"target":"right","response":"right","rt":255.60000002384,"correct":true,"confidence":4},{"trial_n":91,"n_dots":2.75,"target":"right","response":"left","rt":367.5,"correct":false,"confidence":3},{"trial_n":92,"n_dots":2.85,"target":"left","response":"left","rt":268.60000002384,"correct":true,"confidence":4},{"trial_n":93,"n_dots":2.85,"target":"right","response":"right","rt":489.70000004768,"correct":true,"confidence":2},{"trial_n":94,"n_dots":2.75,"target":"left","response":"left","rt":706.89999997616,"correct":true,"confidence":2},{"trial_n":95,"n_dots":2.75,"target":"left","response":"left","rt":211.89999997616,"correct":true,"confidence":4},{"trial_n":96,"n_dots":2.65,"target":"left","response":"right","rt":982.10000002384,"correct":false,"confidence":2},{"trial_n":97,"n_dots":2.75,"target":"right","response":"left","rt":375.29999995232,"correct":false,"confidence":3},{"trial_n":98,"n_dots":2.85,"target":"right","response":"right","rt":349.60000002384,"correct":true,"confidence":4},{"trial_n":99,"n_dots":2.85,"target":"right","response":"right","rt":273.39999997616,"correct":true,"confidence":4},{"trial_n":100,"n_dots":2.75,"target":"left","response":"left","rt":336,"correct":true,"confidence":4},{"trial_n":101,"n_dots":2.75,"target":"left","response":"left","rt":269.79999995232,"correct":true,"confidence":3},{"trial_n":102,"n_dots":2.65,"target":"right","response":"right","rt":347.20000004768,"correct":true,"confidence":3},{"trial_n":103,"n_dots":2.65,"target":"left","response":"left","rt":365.20000004768,"correct":true,"confidence":4},{"trial_n":104,"n_dots":2.55,"target":"right","response":"right","rt":237.89999997616,"correct":true,"confidence":4},{"trial_n":105,"n_dots":2.55,"target":"left","response":"left","rt":273.79999995232,"correct":true,"confidence":4},{"trial_n":106,"n_dots":2.45,"target":"right","response":"right","rt":359.40000009537,"correct":true,"confidence":4},{"trial_n":107,"n_dots":2.45,"target":"right","response":"right","rt":294.20000004768,"correct":true,"confidence":4},{"trial_n":108,"n_dots":2.35,"target":"left","response":"left","rt":226.70000004768,"correct":true,"confidence":5},{"trial_n":109,"n_dots":2.35,"target":"right","response":"right","rt":368.69999992847,"correct":true,"confidence":4},{"trial_n":110,"n_dots":2.25,"target":"right","response":"left","rt":593,"correct":false,"confidence":4},{"trial_n":111,"n_dots":2.35,"target":"left","response":"left","rt":103.10000002384,"correct":true,"confidence":4},{"trial_n":112,"n_dots":2.35,"target":"left","response":"left","rt":214.79999995232,"correct":true,"confidence":5},{"trial_n":113,"n_dots":2.25,"target":"left","response":"right","rt":380.89999997616,"correct":false,"confidence":4},{"trial_n":114,"n_dots":2.35,"target":"right","response":"right","rt":62.399999976158,"correct":true,"confidence":5},{"trial_n":115,"n_dots":2.35,"target":"left","response":"right","rt":161.30000007153,"correct":false,"confidence":4},{"trial_n":116,"n_dots":2.45,"target":"left","response":"left","rt":959.39999997616,"correct":true,"confidence":2},{"trial_n":117,"n_dots":2.45,"target":"right","response":"right","rt":587.5,"correct":true,"confidence":2},{"trial_n":118,"n_dots":2.35,"target":"right","response":"right","rt":322.19999992847,"correct":true,"confidence":3},{"trial_n":119,"n_dots":2.35,"target":"right","response":"right","rt":90.399999976158,"correct":true,"confidence":3},{"trial_n":120,"n_dots":2.25,"target":"left","response":"right","rt":311.60000002384,"correct":false,"confidence":2}]