[{"trial_n":1,"n_dots":4.25,"target":"right","response":"left","rt":2653.6000000015,"correct":false,"confidence":-1},{"trial_n":2,"n_dots":4.25,"target":"right","response":"left","rt":2115.6000000015,"correct":false,"confidence":-1},{"trial_n":3,"n_dots":4.65,"target":"right","response":"right","rt":2081.8999999985,"correct":true,"confidence":-1},{"trial_n":4,"n_dots":4.65,"target":"right","response":"right","rt":735.60000000149,"correct":true,"confidence":-1},{"trial_n":5,"n_dots":4.25,"target":"left","response":"left","rt":672.10000000149,"correct":true,"confidence":-1},{"trial_n":6,"n_dots":4.25,"target":"right","response":"right","rt":844.69999999925,"correct":true,"confidence":-1},{"trial_n":7,"n_dots":3.85,"target":"left","response":"left","rt":517,"correct":true,"confidence":-1},{"trial_n":8,"n_dots":3.85,"target":"left","response":"left","rt":342.60000000149,"correct":true,"confidence":-1},{"trial_n":9,"n_dots":3.65,"target":"right","response":"right","rt":226.60000000149,"correct":true,"confidence":-1},{"trial_n":10,"n_dots":3.65,"target":"left","response":"left","rt":255.5,"correct":true,"confidence":-1},{"trial_n":11,"n_dots":3.45,"target":"left","response":"left","rt":698,"correct":true,"confidence":-1},{"trial_n":12,"n_dots":3.45,"target":"left","response":"left","rt":55.89999999851,"correct":true,"confidence":-1},{"trial_n":13,"n_dots":3.35,"target":"left","response":"right","rt":141.30000000075,"correct":false,"confidence":-1},{"trial_n":14,"n_dots":3.45,"target":"right","response":"left","rt":268.40000000224,"correct":false,"confidence":-1},{"trial_n":15,"n_dots":3.55,"target":"right","response":"right","rt":2481.1000000015,"correct":true,"confidence":-1},{"trial_n":16,"n_dots":3.55,"target":"right","response":"right","rt":293.30000000075,"correct":true,"confidence":-1},{"trial_n":17,"n_dots":3.45,"target":"left","response":"left","rt":0.80000000074506,"correct":true,"confidence":-1},{"trial_n":18,"n_dots":3.45,"target":"left","response":"left","rt":449.29999999702,"correct":true,"confidence":-1},{"trial_n":19,"n_dots":3.35,"target":"right","response":"left","rt":803.90000000224,"correct":false,"confidence":-1},{"trial_n":20,"n_dots":3.45,"target":"right","response":"right","rt":88.699999999255,"correct":true,"confidence":-1},{"trial_n":21,"n_dots":3.45,"target":"right","response":"right","rt":437.30000000075,"correct":true,"confidence":4},{"trial_n":22,"n_dots":3.35,"target":"right","response":"left","rt":1141.299999997,"correct":false,"confidence":2},{"trial_n":23,"n_dots":3.45,"target":"right","response":"right","rt":432.69999999925,"correct":true,"confidence":3},{"trial_n":24,"n_dots":3.45,"target":"left","response":"right","rt":498.69999999925,"correct":false,"confidence":3},{"trial_n":25,"n_dots":3.55,"target":"right","response":"left","rt":768.79999999702,"correct":false,"confidence":3},{"trial_n":26,"n_dots":3.65,"target":"right","response":"right","rt":738.60000000149,"correct":true,"confidence":4},{"trial_n":27,"n_dots":3.65,"target":"left","response":"left","rt":383.60000000149,"correct":true,"confidence":4},{"trial_n":28,"n_dots":3.55,"target":"right","response":"right","rt":434.60000000149,"correct":true,"confidence":3},{"trial_n":29,"n_dots":3.55,"target":"left","response":"left","rt":619,"correct":true,"confidence":3},{"trial_n":30,"n_dots":3.45,"target":"right","response":"right","rt":286.80000000075,"correct":true,"confidence":4},{"trial_n":31,"n_dots":3.45,"target":"right","response":"left","rt":373.30000000075,"correct":false,"confidence":3},{"trial_n":32,"n_dots":3.55,"target":"left","response":"left","rt":966.70000000298,"correct":true,"confidence":4},{"trial_n":33,"n_dots":3.55,"target":"right","response":"left","rt":927.5,"correct":false,"confidence":3},{"trial_n":34,"n_dots":3.65,"target":"left","response":"left","rt":790.5,"correct":true,"confidence":2},{"trial_n":35,"n_dots":3.65,"target":"right","response":"right","rt":512.69999999925,"correct":true,"confidence":3},{"trial_n":36,"n_dots":3.55,"target":"right","response":"left","rt":441.69999999925,"correct":false,"confidence":4},{"trial_n":37,"n_dots":3.65,"target":"right","response":"right","rt":295.69999999925,"correct":true,"confidence":3},{"trial_n":38,"n_dots":3.65,"target":"left","response":"left","rt":123.90000000224,"correct":true,"confidence":4},{"trial_n":39,"n_dots":3.55,"target":"left","response":"right","rt":35.5,"correct":false,"confidence":2},{"trial_n":40,"n_dots":3.65,"target":"left","response":"left","rt":1058,"correct":true,"confidence":4},{"trial_n":41,"n_dots":3.65,"target":"left","response":"left","rt":2831,"correct":true,"confidence":1},{"trial_n":42,"n_dots":3.55,"target":"left","response":"left","rt":383.30000000075,"correct":true,"confidence":4},{"trial_n":43,"n_dots":3.55,"target":"left","response":"left","rt":712.89999999851,"correct":true,"confidence":2},{"trial_n":44,"n_dots":3.45,"target":"left","response":"left","rt":428,"correct":true,"confidence":4},{"trial_n":45,"n_dots":3.45,"target":"right","response":"left","rt":576.69999999925,"correct":false,"confidence":2},{"trial_n":46,"n_dots":3.55,"target":"left","response":"left","rt":275.60000000149,"correct":true,"confidence":4},{"trial_n":47,"n_dots":3.55,"target":"left","response":"left","rt":395.59999999776,"correct":true,"confidence":3},{"trial_n":48,"n_dots":3.45,"target":"right","response":"right","rt":854.5,"correct":true,"confidence":4},{"trial_n":49,"n_dots":3.45,"target":"left","response":"left","rt":499.59999999776,"correct":true,"confidence":3},{"trial_n":50,"n_dots":3.35,"target":"right","response":"left","rt":1079.299999997,"correct":false,"confidence":2},{"trial_n":51,"n_dots":3.45,"target":"left","response":"left","rt":446.30000000075,"correct":true,"confidence":2},{"trial_n":52,"n_dots":3.45,"target":"right","response":"right","rt":420.5,"correct":true,"confidence":3},{"trial_n":53,"n_dots":3.35,"target":"left","response":"left","rt":451.69999999925,"correct":true,"confidence":2},{"trial_n":54,"n_dots":3.35,"target":"right","response":"right","rt":635.79999999702,"correct":true,"confidence":4},{"trial_n":55,"n_dots":3.25,"target":"left","response":"left","rt":653.5,"correct":true,"confidence":2},{"trial_n":56,"n_dots":3.25,"target":"left","response":"left","rt":476.79999999702,"correct":true,"confidence":3},{"trial_n":57,"n_dots":3.15,"target":"left","response":"left","rt":481.79999999702,"correct":true,"confidence":2},{"trial_n":58,"n_dots":3.15,"target":"right","response":"right","rt":405.10000000149,"correct":true,"confidence":4},{"trial_n":59,"n_dots":3.05,"target":"right","response":"right","rt":763.19999999925,"correct":true,"confidence":3},{"trial_n":60,"n_dots":3.05,"target":"right","response":"right","rt":500.30000000075,"correct":true,"confidence":3},{"trial_n":61,"n_dots":2.95,"target":"left","response":"left","rt":785.30000000075,"correct":true,"confidence":3},{"trial_n":62,"n_dots":2.95,"target":"left","response":"left","rt":256.30000000075,"correct":true,"confidence":3},{"trial_n":63,"n_dots":2.85,"target":"left","response":"left","rt":380.30000000075,"correct":true,"confidence":3},{"trial_n":64,"n_dots":2.85,"target":"right","response":"right","rt":1681.6999999993,"correct":true,"confidence":2},{"trial_n":65,"n_dots":2.75,"target":"left","response":"left","rt":409.10000000149,"correct":true,"confidence":3},{"trial_n":66,"n_dots":2.75,"target":"left","response":"left","rt":663.10000000149,"correct":true,"confidence":2},{"trial_n":67,"n_dots":2.65,"target":"right","response":"right","rt":468.39999999851,"correct":true,"confidence":3},{"trial_n":68,"n_dots":2.65,"target":"left","response":"left","rt":537,"correct":true,"confidence":3},{"trial_n":69,"n_dots":2.55,"target":"right","response":"right","rt":363.19999999925,"correct":true,"confidence":2},{"trial_n":70,"n_dots":2.55,"target":"left","response":"left","rt":750.79999999702,"correct":true,"confidence":2},{"trial_n":71,"n_dots":2.45,"target":"right","response":"left","rt":450.29999999702,"correct":false,"confidence":3},{"trial_n":72,"n_dots":2.55,"target":"right","response":"right","rt":337.60000000149,"correct":true,"confidence":3},{"trial_n":73,"n_dots":2.55,"target":"left","response":"left","rt":374.5,"correct":true,"confidence":4},{"trial_n":74,"n_dots":2.45,"target":"left","response":"right","rt":1244.6999999993,"correct":false,"confidence":3},{"trial_n":75,"n_dots":2.55,"target":"left","response":"left","rt":586.69999999925,"correct":true,"confidence":3},{"trial_n":76,"n_dots":2.55,"target":"right","response":"right","rt":244.5,"correct":true,"confidence":4},{"trial_n":77,"n_dots":2.45,"target":"left","response":"left","rt":179.80000000075,"correct":true,"confidence":3},{"trial_n":78,"n_dots":2.45,"target":"left","response":"right","rt":234.5,"correct":false,"confidence":3},{"trial_n":79,"n_dots":2.55,"target":"right","response":"left","rt":96,"correct":false,"confidence":4},{"trial_n":80,"n_dots":2.65,"target":"left","response":"left","rt":855.39999999851,"correct":true,"confidence":3},{"trial_n":81,"n_dots":2.65,"target":"left","response":"left","rt":429.30000000075,"correct":true,"confidence":3},{"trial_n":82,"n_dots":2.55,"target":"right","response":"right","rt":358.19999999925,"correct":true,"confidence":4},{"trial_n":83,"n_dots":2.55,"target":"right","response":"left","rt":403.90000000224,"correct":false,"confidence":3},{"trial_n":84,"n_dots":2.65,"target":"right","response":"right","rt":56.5,"correct":true,"confidence":2},{"trial_n":85,"n_dots":2.65,"target":"left","response":"left","rt":1029.8000000007,"correct":true,"confidence":3},{"trial_n":86,"n_dots":2.55,"target":"left","response":"left","rt":175.20000000298,"correct":true,"confidence":3},{"trial_n":87,"n_dots":2.55,"target":"right","response":"right","rt":1105.5,"correct":true,"confidence":4},{"trial_n":88,"n_dots":2.45,"target":"left","response":"left","rt":697.89999999851,"correct":true,"confidence":3},{"trial_n":89,"n_dots":2.45,"target":"left","response":"right","rt":51.89999999851,"correct":false,"confidence":3},{"trial_n":90,"n_dots":2.55,"target":"right","response":"left","rt":7,"correct":false,"confidence":3},{"trial_n":91,"n_dots":2.65,"target":"left","response":"left","rt":495.90000000224,"correct":true,"confidence":4},{"trial_n":92,"n_dots":2.65,"target":"left","response":"left","rt":545,"correct":true,"confidence":3},{"trial_n":93,"n_dots":2.55,"target":"right","response":"right","rt":174.39999999851,"correct":true,"confidence":4},{"trial_n":94,"n_dots":2.55,"target":"right","response":"right","rt":69.89999999851,"correct":true,"confidence":3},{"trial_n":95,"n_dots":2.45,"target":"left","response":"right","rt":127.29999999702,"correct":false,"confidence":3},{"trial_n":96,"n_dots":2.55,"target":"right","response":"left","rt":59.300000000745,"correct":false,"confidence":1},{"trial_n":97,"n_dots":2.65,"target":"left","response":"left","rt":500.89999999851,"correct":true,"confidence":4},{"trial_n":98,"n_dots":2.65,"target":"right","response":"right","rt":326.19999999925,"correct":true,"confidence":3},{"trial_n":99,"n_dots":2.55,"target":"left","response":"left","rt":970.69999999925,"correct":true,"confidence":3},{"trial_n":100,"n_dots":2.55,"target":"right","response":"left","rt":378.89999999851,"correct":false,"confidence":3},{"trial_n":101,"n_dots":2.65,"target":"left","response":"left","rt":1133.6000000015,"correct":true,"confidence":3},{"trial_n":102,"n_dots":2.65,"target":"right","response":"right","rt":47.89999999851,"correct":true,"confidence":3},{"trial_n":103,"n_dots":2.55,"target":"right","response":"left","rt":1236.0999999978,"correct":false,"confidence":1},{"trial_n":104,"n_dots":2.65,"target":"left","response":"right","rt":607.59999999776,"correct":false,"confidence":3},{"trial_n":105,"n_dots":2.75,"target":"right","response":"right","rt":528.69999999925,"correct":true,"confidence":4},{"trial_n":106,"n_dots":2.75,"target":"right","response":"right","rt":682.80000000075,"correct":true,"confidence":3},{"trial_n":107,"n_dots":2.65,"target":"right","response":"right","rt":547.10000000149,"correct":true,"confidence":3},{"trial_n":108,"n_dots":2.65,"target":"right","response":"right","rt":1121.6000000015,"correct":true,"confidence":3},{"trial_n":109,"n_dots":2.55,"target":"right","response":"left","rt":481.70000000298,"correct":false,"confidence":2},{"trial_n":110,"n_dots":2.65,"target":"left","response":"right","rt":236.79999999702,"correct":false,"confidence":3},{"trial_n":111,"n_dots":2.75,"target":"right","response":"right","rt":29.699999999255,"correct":true,"confidence":3},{"trial_n":112,"n_dots":2.75,"target":"left","response":"right","rt":411.29999999702,"correct":false,"confidence":3},{"trial_n":113,"n_dots":2.85,"target":"left","response":"left","rt":2533.1999999993,"correct":true,"confidence":2},{"trial_n":114,"n_dots":2.85,"target":"left","response":"left","rt":660.60000000149,"correct":true,"confidence":4},{"trial_n":115,"n_dots":2.75,"target":"right","response":"right","rt":1034.5,"correct":true,"confidence":3},{"trial_n":116,"n_dots":2.75,"target":"left","response":"left","rt":872,"correct":true,"confidence":4},{"trial_n":117,"n_dots":2.65,"target":"right","response":"right","rt":953.69999999925,"correct":true,"confidence":3},{"trial_n":118,"n_dots":2.65,"target":"left","response":"left","rt":846,"correct":true,"confidence":4},{"trial_n":119,"n_dots":2.55,"target":"right","response":"right","rt":593.80000000075,"correct":true,"confidence":3},{"trial_n":120,"n_dots":2.55,"target":"right","response":"left","rt":1141.4000000022,"correct":false,"confidence":2}]