[{"trial_n":1,"n_dots":4.25,"target":"right","response":"left","rt":6071,"correct":false,"confidence":-1},{"trial_n":2,"n_dots":4.25,"target":"right","response":"right","rt":978.70000004768,"correct":true,"confidence":-1},{"trial_n":3,"n_dots":4.25,"target":"left","response":"left","rt":951.5,"correct":true,"confidence":-1},{"trial_n":4,"n_dots":3.85,"target":"right","response":"right","rt":756.80000001192,"correct":true,"confidence":-1},{"trial_n":5,"n_dots":3.85,"target":"left","response":"left","rt":667.60000002384,"correct":true,"confidence":-1},{"trial_n":6,"n_dots":3.45,"target":"left","response":"left","rt":729.19999998808,"correct":true,"confidence":-1},{"trial_n":7,"n_dots":3.45,"target":"left","response":"left","rt":732.90000003576,"correct":true,"confidence":-1},{"trial_n":8,"n_dots":3.25,"target":"right","response":"right","rt":646.90000003576,"correct":true,"confidence":-1},{"trial_n":9,"n_dots":3.25,"target":"right","response":"right","rt":611.19999998808,"correct":true,"confidence":-1},{"trial_n":10,"n_dots":3.05,"target":"right","response":"left","rt":597.79999995232,"correct":false,"confidence":-1},{"trial_n":11,"n_dots":3.25,"target":"right","response":"right","rt":22978.300000012,"correct":true,"confidence":-1},{"trial_n":12,"n_dots":3.25,"target":"right","response":"right","rt":1139.6999999881,"correct":true,"confidence":-1},{"trial_n":13,"n_dots":3.15,"target":"left","response":"left","rt":845.40000003576,"correct":true,"confidence":-1},{"trial_n":14,"n_dots":3.15,"target":"right","response":"right","rt":758.5,"correct":true,"confidence":-1},{"trial_n":15,"n_dots":3.05,"target":"left","response":"left","rt":827,"correct":true,"confidence":-1},{"trial_n":16,"n_dots":3.05,"target":"left","response":"left","rt":916.40000003576,"correct":true,"confidence":-1},{"trial_n":17,"n_dots":2.95,"target":"left","response":"left","rt":829.90000003576,"correct":true,"confidence":-1},{"trial_n":18,"n_dots":2.95,"target":"left","response":"left","rt":539,"correct":true,"confidence":-1},{"trial_n":19,"n_dots":2.85,"target":"right","response":"left","rt":19819.600000024,"correct":false,"confidence":-1},{"trial_n":20,"n_dots":2.95,"target":"left","response":"right","rt":742.09999996424,"correct":false,"confidence":-1},{"trial_n":21,"n_dots":3.05,"target":"right","response":"left","rt":408.69999998808,"correct":false,"confidence":3},{"trial_n":22,"n_dots":3.15,"target":"left","response":"left","rt":709.5,"correct":true,"confidence":4},{"trial_n":23,"n_dots":3.15,"target":"right","response":"right","rt":994.89999997616,"correct":true,"confidence":4},{"trial_n":24,"n_dots":3.05,"target":"left","response":"right","rt":879.60000002384,"correct":false,"confidence":4},{"trial_n":25,"n_dots":3.15,"target":"left","response":"right","rt":906.90000003576,"correct":false,"confidence":3},{"trial_n":26,"n_dots":3.25,"target":"left","response":"left","rt":1141.5,"correct":true,"confidence":5},{"trial_n":27,"n_dots":3.25,"target":"right","response":"right","rt":681.30000001192,"correct":true,"confidence":5},{"trial_n":28,"n_dots":3.15,"target":"left","response":"right","rt":806.10000002384,"correct":false,"confidence":3},{"trial_n":29,"n_dots":3.25,"target":"left","response":"left","rt":870.5,"correct":true,"confidence":4},{"trial_n":30,"n_dots":3.25,"target":"left","response":"right","rt":667,"correct":false,"confidence":3},{"trial_n":31,"n_dots":3.35,"target":"right","response":"right","rt":803.79999995232,"correct":true,"confidence":3},{"trial_n":32,"n_dots":3.35,"target":"left","response":"left","rt":719.40000003576,"correct":true,"confidence":3},{"trial_n":33,"n_dots":3.25,"target":"right","response":"right","rt":621.60000002384,"correct":true,"confidence":3},{"trial_n":34,"n_dots":3.25,"target":"left","response":"left","rt":967.10000002384,"correct":true,"confidence":3},{"trial_n":35,"n_dots":3.15,"target":"right","response":"left","rt":813.90000003576,"correct":false,"confidence":3},{"trial_n":36,"n_dots":3.25,"target":"left","response":"left","rt":785.40000003576,"correct":true,"confidence":4},{"trial_n":37,"n_dots":3.25,"target":"left","response":"left","rt":795.09999996424,"correct":true,"confidence":4},{"trial_n":38,"n_dots":3.15,"target":"right","response":"left","rt":914.5,"correct":false,"confidence":3},{"trial_n":39,"n_dots":3.25,"target":"right","response":"right","rt":790.80000001192,"correct":true,"confidence":3},{"trial_n":40,"n_dots":3.25,"target":"right","response":"left","rt":828.80000001192,"correct":false,"confidence":3},{"trial_n":41,"n_dots":3.35,"target":"left","response":"left","rt":577.80000001192,"correct":true,"confidence":3},{"trial_n":42,"n_dots":3.35,"target":"left","response":"right","rt":631.40000003576,"correct":false,"confidence":3},{"trial_n":43,"n_dots":3.45,"target":"left","response":"left","rt":646.69999998808,"correct":true,"confidence":3},{"trial_n":44,"n_dots":3.45,"target":"right","response":"left","rt":740.10000002384,"correct":false,"confidence":3},{"trial_n":45,"n_dots":3.55,"target":"left","response":"right","rt":763.60000002384,"correct":false,"confidence":3},{"trial_n":46,"n_dots":3.65,"target":"right","response":"right","rt":781.30000001192,"correct":true,"confidence":3},{"trial_n":47,"n_dots":3.65,"target":"left","response":"left","rt":745.5,"correct":true,"confidence":3},{"trial_n":48,"n_dots":3.55,"target":"right","response":"right","rt":709.5,"correct":true,"confidence":3},{"trial_n":49,"n_dots":3.55,"target":"right","response":"left","rt":795.90000003576,"correct":false,"confidence":3},{"trial_n":50,"n_dots":3.65,"target":"right","response":"left","rt":637.10000002384,"correct":false,"confidence":4},{"trial_n":51,"n_dots":3.75,"target":"right","response":"right","rt":706.30000001192,"correct":true,"confidence":3},{"trial_n":52,"n_dots":3.75,"target":"left","response":"left","rt":722.10000002384,"correct":true,"confidence":3},{"trial_n":53,"n_dots":3.65,"target":"right","response":"right","rt":745.60000002384,"correct":true,"confidence":3},{"trial_n":54,"n_dots":3.65,"target":"right","response":"right","rt":825,"correct":true,"confidence":3},{"trial_n":55,"n_dots":3.55,"target":"right","response":"left","rt":725.89999997616,"correct":false,"confidence":3},{"trial_n":56,"n_dots":3.65,"target":"right","response":"right","rt":730.39999997616,"correct":true,"confidence":3},{"trial_n":57,"n_dots":3.65,"target":"left","response":"left","rt":701.10000002384,"correct":true,"confidence":3},{"trial_n":58,"n_dots":3.55,"target":"left","response":"right","rt":713.59999996424,"correct":false,"confidence":3},{"trial_n":59,"n_dots":3.65,"target":"right","response":"left","rt":749,"correct":false,"confidence":3},{"trial_n":60,"n_dots":3.75,"target":"right","response":"right","rt":582.19999998808,"correct":true,"confidence":3},{"trial_n":61,"n_dots":3.75,"target":"left","response":"left","rt":642,"correct":true,"confidence":5},{"trial_n":62,"n_dots":3.65,"target":"right","response":"right","rt":562.40000003576,"correct":true,"confidence":3},{"trial_n":63,"n_dots":3.65,"target":"left","response":"left","rt":685.89999997616,"correct":true,"confidence":3},{"trial_n":64,"n_dots":3.55,"target":"right","response":"left","rt":697.90000003576,"correct":false,"confidence":3},{"trial_n":65,"n_dots":3.65,"target":"right","response":"left","rt":561.19999998808,"correct":false,"confidence":4},{"trial_n":66,"n_dots":3.75,"target":"right","response":"left","rt":711.60000002384,"correct":false,"confidence":3},{"trial_n":67,"n_dots":3.85,"target":"right","response":"right","rt":575.09999996424,"correct":true,"confidence":3},{"trial_n":68,"n_dots":3.85,"target":"left","response":"left","rt":642.60000002384,"correct":true,"confidence":3},{"trial_n":69,"n_dots":3.75,"target":"left","response":"left","rt":841.29999995232,"correct":true,"confidence":3},{"trial_n":70,"n_dots":3.75,"target":"right","response":"right","rt":753.39999997616,"correct":true,"confidence":3},{"trial_n":71,"n_dots":3.65,"target":"left","response":"left","rt":745,"correct":true,"confidence":3},{"trial_n":72,"n_dots":3.65,"target":"right","response":"right","rt":537.89999997616,"correct":true,"confidence":3},{"trial_n":73,"n_dots":3.55,"target":"left","response":"left","rt":708.89999997616,"correct":true,"confidence":4},{"trial_n":74,"n_dots":3.55,"target":"right","response":"right","rt":758.69999998808,"correct":true,"confidence":3},{"trial_n":75,"n_dots":3.45,"target":"left","response":"left","rt":666.10000002384,"correct":true,"confidence":4},{"trial_n":76,"n_dots":3.45,"target":"right","response":"left","rt":798.89999997616,"correct":false,"confidence":3},{"trial_n":77,"n_dots":3.55,"target":"left","response":"left","rt":902.29999995232,"correct":true,"confidence":4},{"trial_n":78,"n_dots":3.55,"target":"left","response":"left","rt":657,"correct":true,"confidence":3},{"trial_n":79,"n_dots":3.45,"target":"left","response":"left","rt":791.60000002384,"correct":true,"confidence":3},{"trial_n":80,"n_dots":3.45,"target":"right","response":"right","rt":777.5,"correct":true,"confidence":3},{"trial_n":81,"n_dots":3.35,"target":"left","response":"left","rt":590.89999997616,"correct":true,"confidence":5},{"trial_n":82,"n_dots":3.35,"target":"right","response":"right","rt":478.69999998808,"correct":true,"confidence":4},{"trial_n":83,"n_dots":3.25,"target":"left","response":"left","rt":698.69999998808,"correct":true,"confidence":3},{"trial_n":84,"n_dots":3.25,"target":"right","response":"right","rt":769.30000001192,"correct":true,"confidence":3},{"trial_n":85,"n_dots":3.15,"target":"left","response":"left","rt":657.40000003576,"correct":true,"confidence":3},{"trial_n":86,"n_dots":3.15,"target":"left","response":"left","rt":549.19999998808,"correct":true,"confidence":3},{"trial_n":87,"n_dots":3.05,"target":"left","response":"left","rt":615.10000002384,"correct":true,"confidence":3},{"trial_n":88,"n_dots":3.05,"target":"left","response":"left","rt":614.69999998808,"correct":true,"confidence":3},{"trial_n":89,"n_dots":2.95,"target":"right","response":"right","rt":585,"correct":true,"confidence":3},{"trial_n":90,"n_dots":2.95,"target":"right","response":"right","rt":712.5,"correct":true,"confidence":3},{"trial_n":91,"n_dots":2.85,"target":"right","response":"right","rt":762.39999997616,"correct":true,"confidence":3},{"trial_n":92,"n_dots":2.85,"target":"left","response":"left","rt":601.89999997616,"correct":true,"confidence":3},{"trial_n":93,"n_dots":2.75,"target":"left","response":"left","rt":635.79999995232,"correct":true,"confidence":3},{"trial_n":94,"n_dots":2.75,"target":"right","response":"left","rt":749.40000003576,"correct":false,"confidence":3},{"trial_n":95,"n_dots":2.85,"target":"left","response":"left","rt":632.19999998808,"correct":true,"confidence":3},{"trial_n":96,"n_dots":2.85,"target":"left","response":"left","rt":675.19999998808,"correct":true,"confidence":3},{"trial_n":97,"n_dots":2.75,"target":"right","response":"left","rt":581.30000001192,"correct":false,"confidence":3},{"trial_n":98,"n_dots":2.85,"target":"right","response":"left","rt":600.5,"correct":false,"confidence":3},{"trial_n":99,"n_dots":2.95,"target":"left","response":"left","rt":661.69999998808,"correct":true,"confidence":3},{"trial_n":100,"n_dots":2.95,"target":"left","response":"left","rt":596.09999996424,"correct":true,"confidence":3},{"trial_n":101,"n_dots":2.85,"target":"left","response":"left","rt":656.39999997616,"correct":true,"confidence":3},{"trial_n":102,"n_dots":2.85,"target":"right","response":"right","rt":489.60000002384,"correct":true,"confidence":3},{"trial_n":103,"n_dots":2.75,"target":"left","response":"left","rt":599.19999998808,"correct":true,"confidence":3},{"trial_n":104,"n_dots":2.75,"target":"right","response":"right","rt":595.09999996424,"correct":true,"confidence":3},{"trial_n":105,"n_dots":2.65,"target":"right","response":"right","rt":690.09999996424,"correct":true,"confidence":3},{"trial_n":106,"n_dots":2.65,"target":"right","response":"left","rt":747.89999997616,"correct":false,"confidence":3},{"trial_n":107,"n_dots":2.75,"target":"left","response":"left","rt":609.30000001192,"correct":true,"confidence":3},{"trial_n":108,"n_dots":2.75,"target":"right","response":"left","rt":607.09999996424,"correct":false,"confidence":2},{"trial_n":109,"n_dots":2.85,"target":"left","response":"left","rt":501.59999996424,"correct":true,"confidence":3},{"trial_n":110,"n_dots":2.85,"target":"right","response":"right","rt":586.5,"correct":true,"confidence":3},{"trial_n":111,"n_dots":2.75,"target":"right","response":"right","rt":617.60000002384,"correct":true,"confidence":3},{"trial_n":112,"n_dots":2.75,"target":"right","response":"right","rt":725.19999998808,"correct":true,"confidence":3},{"trial_n":113,"n_dots":2.65,"target":"right","response":"left","rt":471,"correct":false,"confidence":3},{"trial_n":114,"n_dots":2.75,"target":"right","response":"right","rt":608.39999997616,"correct":true,"confidence":3},{"trial_n":115,"n_dots":2.75,"target":"left","response":"left","rt":1062.3999999762,"correct":true,"confidence":3},{"trial_n":116,"n_dots":2.65,"target":"left","response":"left","rt":1274.7000000477,"correct":true,"confidence":3},{"trial_n":117,"n_dots":2.65,"target":"left","response":"right","rt":2067.3000000119,"correct":false,"confidence":3},{"trial_n":118,"n_dots":2.75,"target":"left","response":"left","rt":971.09999996424,"correct":true,"confidence":3},{"trial_n":119,"n_dots":2.75,"target":"right","response":"right","rt":575.19999998808,"correct":true,"confidence":3},{"trial_n":120,"n_dots":2.65,"target":"left","response":"right","rt":693.70000004768,"correct":false,"confidence":3}]