[{"trial_n":1,"span":8,"encoder":"51982360","distractor":"51987360","target":"present","response":"present","rt":"10948.299999952","correct":true,"confidence":-1},{"trial_n":2,"span":8,"encoder":"49895611","distractor":"49895621","target":"present","response":"present","rt":"1420.7000000477","correct":true,"confidence":-1},{"trial_n":3,"span":10,"encoder":"7615739030","distractor":"7655739030","target":"absent","response":"absent","rt":"1850","correct":true,"confidence":-1},{"trial_n":4,"span":10,"encoder":"2800643996","distractor":"2800543996","target":"absent","response":"present","rt":"1968.3999999762","correct":false,"confidence":-1},{"trial_n":5,"span":8,"encoder":"94211808","distractor":"94211848","target":"present","response":"present","rt":"1707.1000000238","correct":true,"confidence":-1},{"trial_n":6,"span":8,"encoder":"39741864","distractor":"39741868","target":"present","response":"present","rt":"1923.2000000477","correct":true,"confidence":-1},{"trial_n":7,"span":10,"encoder":"3391037514","distractor":"3391037517","target":"absent","response":"absent","rt":"1313.5","correct":true,"confidence":-1},{"trial_n":8,"span":10,"encoder":"4349669335","distractor":"4349668335","target":"absent","response":"present","rt":"1650.8999999762","correct":false,"confidence":-1},{"trial_n":9,"span":8,"encoder":"76191093","distractor":"76191090","target":"present","response":"absent","rt":"1433.8999999762","correct":false,"confidence":-1},{"trial_n":10,"span":6,"encoder":"735943","distractor":"735953","target":"present","response":"absent","rt":"1596.2000000477","correct":false,"confidence":-1},{"trial_n":11,"span":4,"encoder":"5355","distractor":"5356","target":"present","response":"absent","rt":"2662.5","correct":false,"confidence":-1},{"trial_n":12,"span":3,"encoder":"661","distractor":"761","target":"present","response":"present","rt":"1307.1000000238","correct":true,"confidence":-1},{"trial_n":13,"span":3,"encoder":"384","distractor":"184","target":"absent","response":"present","rt":"3314.6000000238","correct":false,"confidence":-1},{"trial_n":14,"span":2,"encoder":"75","distractor":"95","target":"present","response":"present","rt":"937.70000004768","correct":true,"confidence":-1},{"trial_n":15,"span":2,"encoder":"13","distractor":"33","target":"absent","response":"absent","rt":"1053.2000000477","correct":true,"confidence":-1},{"trial_n":16,"span":3,"encoder":"562","distractor":"563","target":"present","response":"present","rt":"1453.7999999523","correct":true,"confidence":-1},{"trial_n":17,"span":3,"encoder":"534","distractor":"544","target":"present","response":"absent","rt":"1409.2000000477","correct":false,"confidence":-1},{"trial_n":18,"span":2,"encoder":"64","distractor":"67","target":"absent","response":"present","rt":"1210.9000000954","correct":false,"confidence":-1},{"trial_n":19,"span":2,"encoder":"19","distractor":"18","target":"present","response":"present","rt":"687.79999995232","correct":true,"confidence":-1},{"trial_n":20,"span":2,"encoder":"65","distractor":"05","target":"present","response":"present","rt":"666.19999992847","correct":true,"confidence":-1},{"trial_n":21,"span":3,"encoder":"380","distractor":"385","target":"absent","response":"absent","rt":"1612.3999999762","correct":true,"confidence":4},{"trial_n":22,"span":3,"encoder":"740","distractor":"742","target":"present","response":"present","rt":"908.60000002384","correct":true,"confidence":4},{"trial_n":23,"span":4,"encoder":"7015","distractor":"7415","target":"absent","response":"absent","rt":"1457.5","correct":true,"confidence":5},{"trial_n":24,"span":4,"encoder":"0599","distractor":"0899","target":"absent","response":"present","rt":"1057.5","correct":false,"confidence":5},{"trial_n":25,"span":3,"encoder":"802","distractor":"882","target":"absent","response":"absent","rt":"1845.7999999523","correct":true,"confidence":4},{"trial_n":26,"span":3,"encoder":"231","distractor":"232","target":"present","response":"present","rt":"1038.3999999762","correct":true,"confidence":5},{"trial_n":27,"span":4,"encoder":"3069","distractor":"3569","target":"present","response":"present","rt":"1187.2999999523","correct":true,"confidence":5},{"trial_n":28,"span":4,"encoder":"6506","distractor":"6596","target":"present","response":"present","rt":"1515.2999999523","correct":true,"confidence":5},{"trial_n":29,"span":5,"encoder":"55537","distractor":"55547","target":"absent","response":"absent","rt":"1901.7999999523","correct":true,"confidence":5},{"trial_n":30,"span":5,"encoder":"62495","distractor":"62497","target":"present","response":"absent","rt":"4156.8000000715","correct":false,"confidence":3},{"trial_n":31,"span":4,"encoder":"1301","distractor":"1351","target":"present","response":"present","rt":"2058.9000000954","correct":true,"confidence":5},{"trial_n":32,"span":4,"encoder":"1145","distractor":"1146","target":"absent","response":"absent","rt":"1240.7999999523","correct":true,"confidence":5},{"trial_n":33,"span":5,"encoder":"64366","distractor":"94366","target":"present","response":"present","rt":"2382.5","correct":true,"confidence":5},{"trial_n":34,"span":5,"encoder":"18263","distractor":"18163","target":"absent","response":"absent","rt":"2115.3000000715","correct":true,"confidence":5},{"trial_n":35,"span":6,"encoder":"197104","distractor":"192104","target":"absent","response":"absent","rt":"1675.6000000238","correct":true,"confidence":4},{"trial_n":36,"span":6,"encoder":"460809","distractor":"460829","target":"present","response":"present","rt":"2653","correct":true,"confidence":3},{"trial_n":37,"span":7,"encoder":"1912188","distractor":"1913188","target":"present","response":"present","rt":"6780","correct":true,"confidence":3},{"trial_n":38,"span":7,"encoder":"0294773","distractor":"2294773","target":"absent","response":"present","rt":"1906.2999999523","correct":false,"confidence":3},{"trial_n":39,"span":6,"encoder":"079788","distractor":"379788","target":"absent","response":"present","rt":"1221.7999999523","correct":false,"confidence":4},{"trial_n":40,"span":5,"encoder":"18799","distractor":"18791","target":"present","response":"present","rt":"4232.2999999523","correct":true,"confidence":4},{"trial_n":41,"span":5,"encoder":"64531","distractor":"64534","target":"absent","response":"absent","rt":"1187.5","correct":true,"confidence":4},{"trial_n":42,"span":6,"encoder":"421628","distractor":"421028","target":"present","response":"present","rt":"2262.1000000238","correct":true,"confidence":5},{"trial_n":43,"span":6,"encoder":"684809","distractor":"684309","target":"absent","response":"absent","rt":"3227.1000000238","correct":true,"confidence":3},{"trial_n":44,"span":7,"encoder":"1239485","distractor":"6239485","target":"present","response":"present","rt":"1410.5","correct":true,"confidence":4},{"trial_n":45,"span":7,"encoder":"0303361","distractor":"0303391","target":"absent","response":"absent","rt":"1836","correct":true,"confidence":4},{"trial_n":46,"span":8,"encoder":"55761235","distractor":"55761295","target":"present","response":"present","rt":"4099.3000000715","correct":true,"confidence":3},{"trial_n":47,"span":8,"encoder":"81666352","distractor":"81616352","target":"present","response":"present","rt":"16861","correct":true,"confidence":3},{"trial_n":48,"span":9,"encoder":"301838665","distractor":"301338665","target":"present","response":"present","rt":"7270.6000000238","correct":true,"confidence":2},{"trial_n":49,"span":9,"encoder":"287159024","distractor":"287259024","target":"present","response":"absent","rt":"3713.6000000238","correct":false,"confidence":3},{"trial_n":50,"span":8,"encoder":"69503789","distractor":"69103789","target":"absent","response":"present","rt":"2348.6000000238","correct":false,"confidence":3},{"trial_n":51,"span":7,"encoder":"7120174","distractor":"7120474","target":"absent","response":"present","rt":"2001.3000000715","correct":false,"confidence":3},{"trial_n":52,"span":6,"encoder":"165823","distractor":"168823","target":"absent","response":"absent","rt":"2416.2999999523","correct":true,"confidence":2},{"trial_n":53,"span":6,"encoder":"959558","distractor":"959552","target":"present","response":"present","rt":"2552.8000000715","correct":true,"confidence":3},{"trial_n":54,"span":7,"encoder":"1390820","distractor":"1398820","target":"present","response":"absent","rt":"5250.1000000238","correct":false,"confidence":3},{"trial_n":55,"span":6,"encoder":"215755","distractor":"245755","target":"present","response":"present","rt":"1229.5","correct":true,"confidence":3},{"trial_n":56,"span":6,"encoder":"436784","distractor":"336784","target":"absent","response":"absent","rt":"1751.8999999762","correct":true,"confidence":2},{"trial_n":57,"span":7,"encoder":"5440048","distractor":"5440047","target":"present","response":"present","rt":"2583.2999999523","correct":true,"confidence":2},{"trial_n":58,"span":7,"encoder":"7635382","distractor":"7635389","target":"absent","response":"absent","rt":"1491.6999999285","correct":true,"confidence":4},{"trial_n":59,"span":8,"encoder":"66634091","distractor":"66234091","target":"present","response":"absent","rt":"45130.5","correct":false,"confidence":3},{"trial_n":60,"span":7,"encoder":"2388952","distractor":"2388957","target":"absent","response":"absent","rt":"1578.7000000477","correct":true,"confidence":4},{"trial_n":61,"span":7,"encoder":"0331898","distractor":"7331898","target":"absent","response":"absent","rt":"1284.2999999523","correct":true,"confidence":4},{"trial_n":62,"span":8,"encoder":"58716702","distractor":"54716702","target":"absent","response":"present","rt":"2117.5","correct":false,"confidence":3},{"trial_n":63,"span":7,"encoder":"8160048","distractor":"8160948","target":"absent","response":"absent","rt":"2229.5","correct":true,"confidence":2},{"trial_n":64,"span":7,"encoder":"5796470","distractor":"5796471","target":"absent","response":"absent","rt":"1333.1999999285","correct":true,"confidence":4},{"trial_n":65,"span":8,"encoder":"82904900","distractor":"82974900","target":"present","response":"absent","rt":"2547.7000000477","correct":false,"confidence":3},{"trial_n":66,"span":7,"encoder":"0804023","distractor":"0804013","target":"absent","response":"absent","rt":"2507.6999999285","correct":true,"confidence":4},{"trial_n":67,"span":7,"encoder":"2852172","distractor":"2852179","target":"absent","response":"absent","rt":"3831.6000000238","correct":true,"confidence":2},{"trial_n":68,"span":8,"encoder":"10301202","distractor":"10321202","target":"absent","response":"absent","rt":"2706.5999999046","correct":true,"confidence":3},{"trial_n":69,"span":8,"encoder":"05351033","distractor":"05321033","target":"absent","response":"present","rt":"1645.5","correct":false,"confidence":4},{"trial_n":70,"span":7,"encoder":"5685076","distractor":"5285076","target":"present","response":"present","rt":"2484","correct":true,"confidence":4},{"trial_n":71,"span":8,"encoder":"42131583","distractor":"42131523","target":"present","response":"present","rt":"4902.8999999762","correct":true,"confidence":-1},{"trial_n":72,"span":8,"encoder":"71725061","distractor":"71715061","target":"present","response":"present","rt":"4681.7999999523","correct":true,"confidence":-1},{"trial_n":73,"span":9,"encoder":"506336182","distractor":"106336182","target":"absent","response":"present","rt":"4361.7999999523","correct":false,"confidence":-1},{"trial_n":74,"span":8,"encoder":"69297095","distractor":"79297095","target":"absent","response":"present","rt":"2233.3999999762","correct":false,"confidence":-1},{"trial_n":75,"span":7,"encoder":"1010231","distractor":"1610231","target":"present","response":"present","rt":"1599.5","correct":true,"confidence":-1},{"trial_n":76,"span":7,"encoder":"2060596","distractor":"2060796","target":"absent","response":"absent","rt":"2582.1000000238","correct":true,"confidence":-1},{"trial_n":77,"span":8,"encoder":"65425168","distractor":"65425668","target":"present","response":"absent","rt":"2716.6000000238","correct":false,"confidence":-1},{"trial_n":78,"span":7,"encoder":"6194776","distractor":"6194746","target":"absent","response":"absent","rt":"1524.8999999762","correct":true,"confidence":-1},{"trial_n":79,"span":7,"encoder":"8029721","distractor":"8059721","target":"present","response":"present","rt":"5978.5","correct":true,"confidence":-1},{"trial_n":80,"span":8,"encoder":"77901235","distractor":"79901235","target":"absent","response":"present","rt":"2537.7999999523","correct":false,"confidence":-1},{"trial_n":81,"span":7,"encoder":"9582989","distractor":"9582289","target":"absent","response":"absent","rt":"1102.5","correct":true,"confidence":-1},{"trial_n":82,"span":7,"encoder":"8715709","distractor":"8715739","target":"absent","response":"absent","rt":"1600.2999999523","correct":true,"confidence":-1},{"trial_n":83,"span":8,"encoder":"46468703","distractor":"46468783","target":"present","response":"present","rt":"1559.1000000238","correct":true,"confidence":-1},{"trial_n":84,"span":8,"encoder":"54210824","distractor":"54510824","target":"present","response":"present","rt":"5948.1999999285","correct":true,"confidence":-1},{"trial_n":85,"span":9,"encoder":"087416597","distractor":"087416598","target":"absent","response":"absent","rt":"2800.8999999762","correct":true,"confidence":-1},{"trial_n":86,"span":9,"encoder":"170541924","distractor":"170041924","target":"present","response":"present","rt":"3053.1999999285","correct":true,"confidence":-1},{"trial_n":87,"span":10,"encoder":"7280935986","distractor":"7280435986","target":"absent","response":"present","rt":"16149.399999976","correct":false,"confidence":-1},{"trial_n":88,"span":9,"encoder":"258897186","distractor":"258897185","target":"absent","response":"absent","rt":"1028.3999999762","correct":true,"confidence":-1},{"trial_n":89,"span":9,"encoder":"607450728","distractor":"607450721","target":"present","response":"present","rt":"1545.5","correct":true,"confidence":-1},{"trial_n":90,"span":10,"encoder":"2820821082","distractor":"2890821082","target":"present","response":"absent","rt":"1480.5","correct":false,"confidence":-1},{"trial_n":91,"span":9,"encoder":"166971290","distractor":"165971290","target":"present","response":"present","rt":"2533.5","correct":true,"confidence":4},{"trial_n":92,"span":9,"encoder":"744368533","distractor":"744398533","target":"present","response":"absent","rt":"4976.7999999523","correct":false,"confidence":3},{"trial_n":93,"span":8,"encoder":"03792284","distractor":"43792284","target":"present","response":"absent","rt":"5762.1000000238","correct":false,"confidence":2},{"trial_n":94,"span":7,"encoder":"9712473","distractor":"4712473","target":"absent","response":"present","rt":"1695.2000000477","correct":false,"confidence":3},{"trial_n":95,"span":6,"encoder":"495090","distractor":"995090","target":"present","response":"present","rt":"1338.1999999285","correct":true,"confidence":4},{"trial_n":96,"span":6,"encoder":"123237","distractor":"103237","target":"absent","response":"present","rt":"3611.5","correct":false,"confidence":2},{"trial_n":97,"span":5,"encoder":"69479","distractor":"69079","target":"absent","response":"absent","rt":"4844.3999999762","correct":true,"confidence":4},{"trial_n":98,"span":5,"encoder":"28836","distractor":"28856","target":"absent","response":"absent","rt":"1913.1000000238","correct":true,"confidence":5},{"trial_n":99,"span":6,"encoder":"891797","distractor":"890797","target":"present","response":"absent","rt":"2659.1000000238","correct":false,"confidence":3},{"trial_n":100,"span":5,"encoder":"10337","distractor":"12337","target":"present","response":"present","rt":"3337.8999999762","correct":true,"confidence":3},{"trial_n":101,"span":5,"encoder":"90694","distractor":"96694","target":"absent","response":"absent","rt":"2493.8000000715","correct":true,"confidence":4},{"trial_n":102,"span":6,"encoder":"346993","distractor":"386993","target":"absent","response":"present","rt":"5348.5","correct":false,"confidence":3},{"trial_n":103,"span":5,"encoder":"48729","distractor":"48727","target":"present","response":"present","rt":"2238.3999999762","correct":true,"confidence":5},{"trial_n":104,"span":5,"encoder":"33001","distractor":"33101","target":"absent","response":"absent","rt":"2183.8000000715","correct":true,"confidence":5},{"trial_n":105,"span":6,"encoder":"344053","distractor":"344059","target":"absent","response":"absent","rt":"2068","correct":true,"confidence":5},{"trial_n":106,"span":6,"encoder":"510054","distractor":"510034","target":"absent","response":"absent","rt":"2855.2000000477","correct":true,"confidence":4},{"trial_n":107,"span":7,"encoder":"1908503","distractor":"1902503","target":"absent","response":"absent","rt":"3839.1999999285","correct":true,"confidence":5},{"trial_n":108,"span":7,"encoder":"9537658","distractor":"6537658","target":"present","response":"present","rt":"3900.7000000477","correct":true,"confidence":4},{"trial_n":109,"span":8,"encoder":"10895007","distractor":"18895007","target":"present","response":"present","rt":"3084.7000000477","correct":true,"confidence":3},{"trial_n":110,"span":8,"encoder":"94997763","distractor":"94947763","target":"absent","response":"present","rt":"3003.8999999762","correct":false,"confidence":3},{"trial_n":111,"span":7,"encoder":"6835778","distractor":"6835771","target":"present","response":"present","rt":"2930.4000000954","correct":true,"confidence":3},{"trial_n":112,"span":7,"encoder":"1220910","distractor":"0220910","target":"absent","response":"present","rt":"1681.5","correct":false,"confidence":3},{"trial_n":113,"span":6,"encoder":"106928","distractor":"406928","target":"present","response":"present","rt":"1761.1000000238","correct":true,"confidence":2},{"trial_n":114,"span":6,"encoder":"374871","distractor":"372871","target":"present","response":"present","rt":"4148.2999999523","correct":true,"confidence":4},{"trial_n":115,"span":7,"encoder":"7952328","distractor":"7956328","target":"present","response":"present","rt":"6109.2000000477","correct":true,"confidence":3},{"trial_n":116,"span":7,"encoder":"8438802","distractor":"8418802","target":"present","response":"absent","rt":"8068.6000000238","correct":false,"confidence":2},{"trial_n":117,"span":6,"encoder":"774112","distractor":"774116","target":"present","response":"present","rt":"3848.6999999285","correct":true,"confidence":4},{"trial_n":118,"span":6,"encoder":"572017","distractor":"572217","target":"absent","response":"absent","rt":"1820.1000000238","correct":true,"confidence":5},{"trial_n":119,"span":7,"encoder":"9110656","distractor":"9110556","target":"present","response":"present","rt":"4169.1000000238","correct":true,"confidence":4},{"trial_n":120,"span":7,"encoder":"9410257","distractor":"9419257","target":"present","response":"present","rt":"4543.1000000238","correct":true,"confidence":5},{"trial_n":121,"span":8,"encoder":"85393172","distractor":"85343172","target":"present","response":"present","rt":"3299","correct":true,"confidence":3},{"trial_n":122,"span":8,"encoder":"44825990","distractor":"44825994","target":"present","response":"present","rt":"1708.3999999762","correct":true,"confidence":4},{"trial_n":123,"span":9,"encoder":"811913086","distractor":"811953086","target":"absent","response":"present","rt":"3692.7000000477","correct":false,"confidence":2},{"trial_n":124,"span":8,"encoder":"32469086","distractor":"32489086","target":"absent","response":"present","rt":"4985.1999999285","correct":false,"confidence":4},{"trial_n":125,"span":7,"encoder":"0387315","distractor":"0387375","target":"present","response":"absent","rt":"6805.5999999046","correct":false,"confidence":3},{"trial_n":126,"span":6,"encoder":"608915","distractor":"608919","target":"absent","response":"absent","rt":"2526.4000000954","correct":true,"confidence":4},{"trial_n":127,"span":6,"encoder":"727815","distractor":"757815","target":"absent","response":"present","rt":"8095.9000000954","correct":false,"confidence":3},{"trial_n":128,"span":5,"encoder":"57174","distractor":"57874","target":"present","response":"present","rt":"4049.6999999285","correct":true,"confidence":4},{"trial_n":129,"span":5,"encoder":"33979","distractor":"34979","target":"absent","response":"absent","rt":"1406.7999999523","correct":true,"confidence":5},{"trial_n":130,"span":6,"encoder":"279522","distractor":"279528","target":"absent","response":"absent","rt":"1147.3000000715","correct":true,"confidence":5},{"trial_n":131,"span":6,"encoder":"938203","distractor":"938253","target":"present","response":"present","rt":"3076.6000000238","correct":true,"confidence":5},{"trial_n":132,"span":7,"encoder":"0245085","distractor":"0245065","target":"present","response":"absent","rt":"3602.5","correct":false,"confidence":2},{"trial_n":133,"span":6,"encoder":"303660","distractor":"308660","target":"present","response":"absent","rt":"3838.1999999285","correct":false,"confidence":2},{"trial_n":134,"span":5,"encoder":"34327","distractor":"34387","target":"absent","response":"absent","rt":"2569.3999999762","correct":true,"confidence":5},{"trial_n":135,"span":5,"encoder":"03341","distractor":"03841","target":"absent","response":"absent","rt":"1298.6000000238","correct":true,"confidence":5},{"trial_n":136,"span":6,"encoder":"577265","distractor":"527265","target":"absent","response":"absent","rt":"4345.7999999523","correct":true,"confidence":4},{"trial_n":137,"span":6,"encoder":"517086","distractor":"513086","target":"absent","response":"absent","rt":"4037.5","correct":true,"confidence":4},{"trial_n":138,"span":7,"encoder":"9731928","distractor":"9931928","target":"present","response":"present","rt":"3191.8000000715","correct":true,"confidence":5},{"trial_n":139,"span":7,"encoder":"5153140","distractor":"5152140","target":"present","response":"present","rt":"3770.5","correct":true,"confidence":4},{"trial_n":140,"span":8,"encoder":"38556428","distractor":"48556428","target":"absent","response":"present","rt":"2181.1000000238","correct":false,"confidence":4}]