[{"trial_n":1,"span":8,"encoder":"62160169","distractor":"62260169","target":"present","response":"present","rt":"6667.1000003815","correct":true,"confidence":-1},{"trial_n":2,"span":8,"encoder":"55520118","distractor":"55500118","target":"present","response":"absent","rt":"1646.6000003815","correct":false,"confidence":-1},{"trial_n":3,"span":6,"encoder":"971574","distractor":"971573","target":"absent","response":"absent","rt":"1465.9000005722","correct":true,"confidence":-1},{"trial_n":4,"span":6,"encoder":"185060","distractor":"115060","target":"absent","response":"absent","rt":"1487.8000001907","correct":true,"confidence":-1},{"trial_n":5,"span":8,"encoder":"49769338","distractor":"99769338","target":"present","response":"present","rt":"1895.6999998093","correct":true,"confidence":-1},{"trial_n":6,"span":8,"encoder":"06780251","distractor":"06180251","target":"present","response":"present","rt":"1206.5","correct":true,"confidence":-1},{"trial_n":7,"span":10,"encoder":"4673913603","distractor":"4673713603","target":"present","response":"present","rt":"1138.5999994278","correct":true,"confidence":-1},{"trial_n":8,"span":10,"encoder":"6262606442","distractor":"6262606449","target":"present","response":"present","rt":"1529.3000001907","correct":true,"confidence":-1},{"trial_n":9,"span":12,"encoder":"265044422269","distractor":"265044412269","target":"present","response":"absent","rt":"1307.6999998093","correct":false,"confidence":-1},{"trial_n":10,"span":10,"encoder":"6707238117","distractor":"6707238187","target":"absent","response":"absent","rt":"1605.9000005722","correct":true,"confidence":-1},{"trial_n":11,"span":10,"encoder":"3605219149","distractor":"3625219149","target":"absent","response":"present","rt":"2783.3000001907","correct":false,"confidence":-1},{"trial_n":12,"span":9,"encoder":"032781238","distractor":"022781238","target":"absent","response":"present","rt":"1159.6000003815","correct":false,"confidence":-1},{"trial_n":13,"span":8,"encoder":"96207786","distractor":"96207776","target":"present","response":"present","rt":"1082.4000005722","correct":true,"confidence":-1},{"trial_n":14,"span":8,"encoder":"55173558","distractor":"65173558","target":"absent","response":"absent","rt":"1201.2000007629","correct":true,"confidence":-1},{"trial_n":15,"span":9,"encoder":"622014987","distractor":"622014983","target":"absent","response":"absent","rt":"849.80000019073","correct":true,"confidence":-1},{"trial_n":16,"span":9,"encoder":"206170045","distractor":"206160045","target":"present","response":"present","rt":"992","correct":true,"confidence":-1},{"trial_n":17,"span":10,"encoder":"2750766286","distractor":"2754766286","target":"present","response":"present","rt":"868.69999980927","correct":true,"confidence":-1},{"trial_n":18,"span":10,"encoder":"6055572616","distractor":"6055572816","target":"present","response":"present","rt":"1220.3999996185","correct":true,"confidence":-1},{"trial_n":19,"span":11,"encoder":"60187792774","distractor":"60107792774","target":"present","response":"present","rt":"1223","correct":true,"confidence":-1},{"trial_n":20,"span":11,"encoder":"05930632336","distractor":"01930632336","target":"absent","response":"present","rt":"772.39999961853","correct":false,"confidence":-1},{"trial_n":21,"span":10,"encoder":"8260990447","distractor":"8260995447","target":"present","response":"present","rt":"1495","correct":true,"confidence":3},{"trial_n":22,"span":10,"encoder":"5274416862","distractor":"5274416462","target":"absent","response":"present","rt":"2542.6000003815","correct":false,"confidence":3},{"trial_n":23,"span":9,"encoder":"844336676","distractor":"846336676","target":"absent","response":"absent","rt":"1880.2999992371","correct":true,"confidence":1},{"trial_n":24,"span":9,"encoder":"764069884","distractor":"764269884","target":"absent","response":"present","rt":"1601.3000001907","correct":false,"confidence":2},{"trial_n":25,"span":8,"encoder":"87288339","distractor":"17288339","target":"absent","response":"absent","rt":"3940.8000001907","correct":true,"confidence":5},{"trial_n":26,"span":8,"encoder":"91260898","distractor":"91260895","target":"absent","response":"present","rt":"2156.5","correct":false,"confidence":4},{"trial_n":27,"span":7,"encoder":"7491915","distractor":"7491415","target":"present","response":"present","rt":"2653.8000001907","correct":true,"confidence":3},{"trial_n":28,"span":7,"encoder":"2292063","distractor":"2292863","target":"present","response":"present","rt":"2887.6000003815","correct":true,"confidence":4},{"trial_n":29,"span":8,"encoder":"79484656","distractor":"79784656","target":"absent","response":"absent","rt":"2087.1999998093","correct":true,"confidence":1},{"trial_n":30,"span":8,"encoder":"71884620","distractor":"71184620","target":"absent","response":"absent","rt":"2468.6999998093","correct":true,"confidence":1},{"trial_n":31,"span":9,"encoder":"686584802","distractor":"686588802","target":"present","response":"present","rt":"2978.4000005722","correct":true,"confidence":3},{"trial_n":32,"span":9,"encoder":"235879956","distractor":"235979956","target":"present","response":"present","rt":"4617.3999996185","correct":true,"confidence":3},{"trial_n":33,"span":10,"encoder":"1702135185","distractor":"3702135185","target":"absent","response":"present","rt":"3965.1999998093","correct":false,"confidence":2},{"trial_n":34,"span":9,"encoder":"286465124","distractor":"216465124","target":"absent","response":"present","rt":"1867.0999994278","correct":false,"confidence":2},{"trial_n":35,"span":8,"encoder":"99624813","distractor":"99624818","target":"present","response":"absent","rt":"1969.2999992371","correct":false,"confidence":3},{"trial_n":36,"span":7,"encoder":"8935229","distractor":"4935229","target":"absent","response":"absent","rt":"1705.3999996185","correct":true,"confidence":4},{"trial_n":37,"span":7,"encoder":"9863708","distractor":"9863758","target":"absent","response":"present","rt":"2344.8000001907","correct":false,"confidence":3},{"trial_n":38,"span":6,"encoder":"329876","distractor":"369876","target":"present","response":"present","rt":"2386.5","correct":true,"confidence":5},{"trial_n":39,"span":6,"encoder":"023371","distractor":"023671","target":"absent","response":"absent","rt":"2995.0999994278","correct":true,"confidence":4},{"trial_n":40,"span":7,"encoder":"4991263","distractor":"4931263","target":"absent","response":"absent","rt":"2475.1000003815","correct":true,"confidence":3},{"trial_n":41,"span":7,"encoder":"8318632","distractor":"9318632","target":"absent","response":"present","rt":"2336.0999994278","correct":false,"confidence":4},{"trial_n":42,"span":6,"encoder":"033149","distractor":"032149","target":"present","response":"present","rt":"1833.8000001907","correct":true,"confidence":5},{"trial_n":43,"span":6,"encoder":"107161","distractor":"107181","target":"absent","response":"absent","rt":"2622.5","correct":true,"confidence":3},{"trial_n":44,"span":7,"encoder":"6182444","distractor":"2182444","target":"absent","response":"absent","rt":"1792.1000003815","correct":true,"confidence":5},{"trial_n":45,"span":7,"encoder":"2346140","distractor":"2345140","target":"absent","response":"absent","rt":"2557.0999994278","correct":true,"confidence":4},{"trial_n":46,"span":8,"encoder":"08597834","distractor":"78597834","target":"present","response":"absent","rt":"3387.9000005722","correct":false,"confidence":1},{"trial_n":47,"span":7,"encoder":"4795070","distractor":"4795170","target":"present","response":"present","rt":"2926.8000001907","correct":true,"confidence":3},{"trial_n":48,"span":7,"encoder":"5103512","distractor":"5103562","target":"absent","response":"absent","rt":"3335.6999998093","correct":true,"confidence":3},{"trial_n":49,"span":8,"encoder":"44894969","distractor":"42894969","target":"absent","response":"absent","rt":"2857.3999996185","correct":true,"confidence":3},{"trial_n":50,"span":8,"encoder":"98776601","distractor":"93776601","target":"present","response":"present","rt":"4133.2999992371","correct":true,"confidence":3},{"trial_n":51,"span":9,"encoder":"229410852","distractor":"229410853","target":"present","response":"present","rt":"3419","correct":true,"confidence":4},{"trial_n":52,"span":9,"encoder":"976380834","distractor":"976385834","target":"present","response":"present","rt":"3061","correct":true,"confidence":3},{"trial_n":53,"span":10,"encoder":"9093220432","distractor":"9293220432","target":"present","response":"present","rt":"4564.6000003815","correct":true,"confidence":3},{"trial_n":54,"span":10,"encoder":"2626294192","distractor":"2666294192","target":"present","response":"present","rt":"2571.8000001907","correct":true,"confidence":4},{"trial_n":55,"span":11,"encoder":"45453711327","distractor":"45853711327","target":"absent","response":"absent","rt":"2200.0999994278","correct":true,"confidence":2},{"trial_n":56,"span":11,"encoder":"29758013980","distractor":"29738013980","target":"present","response":"absent","rt":"1818.8999996185","correct":false,"confidence":2},{"trial_n":57,"span":10,"encoder":"6717113841","distractor":"6787113841","target":"absent","response":"absent","rt":"2047.5","correct":true,"confidence":2},{"trial_n":58,"span":10,"encoder":"4895924142","distractor":"4895724142","target":"present","response":"present","rt":"1951.1000003815","correct":true,"confidence":3},{"trial_n":59,"span":11,"encoder":"54603395693","distractor":"54403395693","target":"present","response":"absent","rt":"3216.5","correct":false,"confidence":1},{"trial_n":60,"span":10,"encoder":"7387933180","distractor":"7387933380","target":"present","response":"present","rt":"2106","correct":true,"confidence":3},{"trial_n":61,"span":10,"encoder":"7283197083","distractor":"7283197023","target":"absent","response":"present","rt":"2681.2999992371","correct":false,"confidence":3},{"trial_n":62,"span":9,"encoder":"766148353","distractor":"766148653","target":"present","response":"present","rt":"1951.8000001907","correct":true,"confidence":3},{"trial_n":63,"span":9,"encoder":"039739900","distractor":"039739908","target":"absent","response":"present","rt":"1477.3000001907","correct":false,"confidence":2},{"trial_n":64,"span":8,"encoder":"97245630","distractor":"97241630","target":"present","response":"present","rt":"2676.6999998093","correct":true,"confidence":4},{"trial_n":65,"span":8,"encoder":"97609021","distractor":"97609001","target":"present","response":"present","rt":"2310.3000001907","correct":true,"confidence":4},{"trial_n":66,"span":9,"encoder":"094734675","distractor":"094734575","target":"absent","response":"absent","rt":"3002.8999996185","correct":true,"confidence":1},{"trial_n":67,"span":9,"encoder":"547255052","distractor":"547355052","target":"present","response":"present","rt":"3152.5","correct":true,"confidence":2},{"trial_n":68,"span":10,"encoder":"8545396792","distractor":"9545396792","target":"absent","response":"absent","rt":"5824.9000005722","correct":true,"confidence":2},{"trial_n":69,"span":10,"encoder":"6652885574","distractor":"6652985574","target":"absent","response":"present","rt":"2593.8999996185","correct":false,"confidence":2},{"trial_n":70,"span":9,"encoder":"612878689","distractor":"612878609","target":"present","response":"present","rt":"2029.7000007629","correct":true,"confidence":3},{"trial_n":71,"span":8,"encoder":"15965396","distractor":"15965306","target":"present","response":"present","rt":"5900.1999998093","correct":true,"confidence":-1},{"trial_n":72,"span":8,"encoder":"38036997","distractor":"38236997","target":"present","response":"absent","rt":"4471.5999994278","correct":false,"confidence":-1},{"trial_n":73,"span":7,"encoder":"0551819","distractor":"0559819","target":"absent","response":"present","rt":"1834.6999998093","correct":false,"confidence":-1},{"trial_n":74,"span":6,"encoder":"440382","distractor":"540382","target":"absent","response":"absent","rt":"2422.3999996185","correct":true,"confidence":-1},{"trial_n":75,"span":6,"encoder":"945137","distractor":"955137","target":"present","response":"present","rt":"2116.3000001907","correct":true,"confidence":-1},{"trial_n":76,"span":7,"encoder":"1980425","distractor":"1980025","target":"present","response":"present","rt":"2724.4000005722","correct":true,"confidence":-1},{"trial_n":77,"span":7,"encoder":"8789716","distractor":"6789716","target":"absent","response":"absent","rt":"1953.7000007629","correct":true,"confidence":-1},{"trial_n":78,"span":8,"encoder":"72083965","distractor":"72483965","target":"absent","response":"absent","rt":"1385.8000001907","correct":true,"confidence":-1},{"trial_n":79,"span":8,"encoder":"06763204","distractor":"06753204","target":"absent","response":"absent","rt":"3739.3999996185","correct":true,"confidence":-1},{"trial_n":80,"span":9,"encoder":"853797044","distractor":"853794044","target":"absent","response":"present","rt":"3021.6999998093","correct":false,"confidence":-1},{"trial_n":81,"span":8,"encoder":"23389967","distractor":"23389067","target":"absent","response":"present","rt":"4001","correct":false,"confidence":-1},{"trial_n":82,"span":7,"encoder":"1481529","distractor":"1482529","target":"present","response":"present","rt":"2091.5999994278","correct":true,"confidence":-1},{"trial_n":83,"span":7,"encoder":"2134375","distractor":"2136375","target":"present","response":"present","rt":"2356.8000001907","correct":true,"confidence":-1},{"trial_n":84,"span":8,"encoder":"04128560","distractor":"04428560","target":"absent","response":"absent","rt":"2135.8000001907","correct":true,"confidence":-1},{"trial_n":85,"span":8,"encoder":"38851334","distractor":"38851364","target":"absent","response":"absent","rt":"1585.6999998093","correct":true,"confidence":-1},{"trial_n":86,"span":9,"encoder":"083445822","distractor":"183445822","target":"absent","response":"absent","rt":"652.30000019073","correct":true,"confidence":-1},{"trial_n":87,"span":9,"encoder":"569079544","distractor":"568079544","target":"present","response":"absent","rt":"815.80000019073","correct":false,"confidence":-1},{"trial_n":88,"span":8,"encoder":"46165334","distractor":"46165337","target":"absent","response":"present","rt":"2484.1999998093","correct":false,"confidence":-1},{"trial_n":89,"span":7,"encoder":"4750846","distractor":"1750846","target":"present","response":"absent","rt":"1083.7000007629","correct":false,"confidence":-1},{"trial_n":90,"span":6,"encoder":"909134","distractor":"909734","target":"present","response":"present","rt":"1298","correct":true,"confidence":-1},{"trial_n":91,"span":6,"encoder":"755431","distractor":"055431","target":"present","response":"present","rt":"3230.6000003815","correct":true,"confidence":5},{"trial_n":92,"span":7,"encoder":"4071609","distractor":"4071601","target":"present","response":"present","rt":"3392.5","correct":true,"confidence":4},{"trial_n":93,"span":7,"encoder":"0491494","distractor":"0791494","target":"absent","response":"absent","rt":"6859.6000003815","correct":true,"confidence":1},{"trial_n":94,"span":8,"encoder":"72123907","distractor":"73123907","target":"absent","response":"present","rt":"2120.1000003815","correct":false,"confidence":3},{"trial_n":95,"span":7,"encoder":"8269409","distractor":"8279409","target":"absent","response":"absent","rt":"1966.3000001907","correct":true,"confidence":5},{"trial_n":96,"span":7,"encoder":"4817182","distractor":"4827182","target":"present","response":"present","rt":"3091.1999998093","correct":true,"confidence":3},{"trial_n":97,"span":8,"encoder":"27405660","distractor":"27005660","target":"absent","response":"absent","rt":"1915.6000003815","correct":true,"confidence":3},{"trial_n":98,"span":8,"encoder":"82101521","distractor":"82701521","target":"present","response":"absent","rt":"4157.5","correct":false,"confidence":2},{"trial_n":99,"span":7,"encoder":"8615229","distractor":"8615249","target":"present","response":"absent","rt":"6370.5999994278","correct":false,"confidence":1},{"trial_n":100,"span":6,"encoder":"078418","distractor":"378418","target":"absent","response":"absent","rt":"2013.2999992371","correct":true,"confidence":2},{"trial_n":101,"span":6,"encoder":"484018","distractor":"484028","target":"absent","response":"absent","rt":"2695.3999996185","correct":true,"confidence":3},{"trial_n":102,"span":7,"encoder":"1555675","distractor":"1555672","target":"present","response":"present","rt":"4066.5","correct":true,"confidence":3},{"trial_n":103,"span":7,"encoder":"6297629","distractor":"6297649","target":"absent","response":"absent","rt":"3362.3999996185","correct":true,"confidence":4},{"trial_n":104,"span":8,"encoder":"45306809","distractor":"43306809","target":"absent","response":"absent","rt":"2680.3000001907","correct":true,"confidence":2},{"trial_n":105,"span":8,"encoder":"34926581","distractor":"14926581","target":"present","response":"present","rt":"2355.1999998093","correct":true,"confidence":2},{"trial_n":106,"span":9,"encoder":"178719390","distractor":"178719350","target":"present","response":"present","rt":"3606.7000007629","correct":true,"confidence":2},{"trial_n":107,"span":9,"encoder":"282428734","distractor":"282418734","target":"absent","response":"absent","rt":"2733.3999996185","correct":true,"confidence":3},{"trial_n":108,"span":10,"encoder":"4306567197","distractor":"4301567197","target":"present","response":"present","rt":"2434.8000001907","correct":true,"confidence":4},{"trial_n":109,"span":10,"encoder":"7961430448","distractor":"7961430948","target":"present","response":"present","rt":"3273.1000003815","correct":true,"confidence":2},{"trial_n":110,"span":11,"encoder":"70135646970","distractor":"70135666970","target":"present","response":"absent","rt":"2911.5999994278","correct":false,"confidence":1},{"trial_n":111,"span":10,"encoder":"9270836541","distractor":"9270886541","target":"absent","response":"present","rt":"2064.1999998093","correct":false,"confidence":1},{"trial_n":112,"span":9,"encoder":"426569850","distractor":"926569850","target":"present","response":"absent","rt":"9135.3999996185","correct":false,"confidence":1},{"trial_n":113,"span":8,"encoder":"33356983","distractor":"33356985","target":"present","response":"absent","rt":"3573.3000001907","correct":false,"confidence":2},{"trial_n":114,"span":7,"encoder":"2447985","distractor":"2447585","target":"absent","response":"absent","rt":"3076.7000007629","correct":true,"confidence":3},{"trial_n":115,"span":7,"encoder":"3527610","distractor":"3427610","target":"absent","response":"absent","rt":"2234.8999996185","correct":true,"confidence":3},{"trial_n":116,"span":8,"encoder":"08929081","distractor":"08989081","target":"absent","response":"absent","rt":"3524.0999994278","correct":true,"confidence":2},{"trial_n":117,"span":8,"encoder":"02067234","distractor":"02067233","target":"present","response":"absent","rt":"1766","correct":false,"confidence":1},{"trial_n":118,"span":7,"encoder":"3506683","distractor":"3506633","target":"present","response":"present","rt":"1926.4000005722","correct":true,"confidence":4},{"trial_n":119,"span":7,"encoder":"7703202","distractor":"7773202","target":"absent","response":"absent","rt":"3560.6999998093","correct":true,"confidence":2},{"trial_n":120,"span":8,"encoder":"91081699","distractor":"31081699","target":"present","response":"present","rt":"2081.5","correct":true,"confidence":5},{"trial_n":121,"span":8,"encoder":"30320785","distractor":"70320785","target":"present","response":"present","rt":"7022.5","correct":true,"confidence":5},{"trial_n":122,"span":9,"encoder":"845950036","distractor":"885950036","target":"present","response":"present","rt":"2449","correct":true,"confidence":5},{"trial_n":123,"span":9,"encoder":"293405538","distractor":"297405538","target":"absent","response":"present","rt":"3594.8999996185","correct":false,"confidence":4},{"trial_n":124,"span":8,"encoder":"37865117","distractor":"27865117","target":"present","response":"present","rt":"2172.5999994278","correct":true,"confidence":5},{"trial_n":125,"span":8,"encoder":"01230292","distractor":"01233292","target":"present","response":"present","rt":"3779.5","correct":true,"confidence":3},{"trial_n":126,"span":9,"encoder":"518854627","distractor":"518804627","target":"absent","response":"present","rt":"5322.1000003815","correct":false,"confidence":1},{"trial_n":127,"span":8,"encoder":"50298052","distractor":"50290052","target":"absent","response":"present","rt":"3174.3000001907","correct":false,"confidence":1},{"trial_n":128,"span":7,"encoder":"2194655","distractor":"2194685","target":"present","response":"present","rt":"3526.5","correct":true,"confidence":1},{"trial_n":129,"span":7,"encoder":"6528891","distractor":"6828891","target":"present","response":"present","rt":"6943.8999996185","correct":true,"confidence":3},{"trial_n":130,"span":8,"encoder":"60894292","distractor":"60494292","target":"absent","response":"absent","rt":"3751.5","correct":true,"confidence":4},{"trial_n":131,"span":8,"encoder":"51441979","distractor":"51441279","target":"present","response":"present","rt":"3799.6999998093","correct":true,"confidence":3},{"trial_n":132,"span":9,"encoder":"417158668","distractor":"412158668","target":"absent","response":"present","rt":"1753.1000003815","correct":false,"confidence":4},{"trial_n":133,"span":8,"encoder":"54202380","distractor":"54212380","target":"present","response":"present","rt":"1648.8000001907","correct":true,"confidence":5},{"trial_n":134,"span":8,"encoder":"54664334","distractor":"55664334","target":"present","response":"present","rt":"3029.3999996185","correct":true,"confidence":3},{"trial_n":135,"span":9,"encoder":"786038951","distractor":"786038971","target":"present","response":"present","rt":"3321.6999998093","correct":true,"confidence":1},{"trial_n":136,"span":9,"encoder":"464838888","distractor":"464138888","target":"absent","response":"absent","rt":"4567.5999994278","correct":true,"confidence":2},{"trial_n":137,"span":10,"encoder":"4607330015","distractor":"4607330035","target":"absent","response":"absent","rt":"2134.8999996185","correct":true,"confidence":3},{"trial_n":138,"span":10,"encoder":"1997391517","distractor":"1997391817","target":"present","response":"absent","rt":"1844.1999998093","correct":false,"confidence":1},{"trial_n":139,"span":9,"encoder":"793275023","distractor":"763275023","target":"absent","response":"present","rt":"1713.9000005722","correct":false,"confidence":1},{"trial_n":140,"span":8,"encoder":"43352963","distractor":"43352463","target":"absent","response":"absent","rt":"2904.8000001907","correct":true,"confidence":2}]