[{"trial_n":1,"span":8,"encoder":"60085560","distractor":"80085560","target":"present","response":"present","rt":"6098.5","correct":true,"confidence":-1},{"trial_n":2,"span":8,"encoder":"18368744","distractor":"18360744","target":"present","response":"present","rt":"5059.3000000119","correct":true,"confidence":-1},{"trial_n":3,"span":10,"encoder":"2046799190","distractor":"2046729190","target":"absent","response":"absent","rt":"6071.1000000238","correct":true,"confidence":-1},{"trial_n":4,"span":10,"encoder":"2340543815","distractor":"2340543818","target":"absent","response":"absent","rt":"3899.6000000238","correct":true,"confidence":-1},{"trial_n":5,"span":12,"encoder":"256397708565","distractor":"256397701565","target":"present","response":"present","rt":"5131.5","correct":true,"confidence":-1},{"trial_n":6,"span":12,"encoder":"969688130727","distractor":"964688130727","target":"present","response":"present","rt":"6598.2999999523","correct":true,"confidence":-1},{"trial_n":7,"span":14,"encoder":"70371114597533","distractor":"70376114597533","target":"absent","response":"present","rt":"6481.3000000119","correct":false,"confidence":-1},{"trial_n":8,"span":12,"encoder":"147513320686","distractor":"147513320687","target":"present","response":"present","rt":"5391.6999999881","correct":true,"confidence":-1},{"trial_n":9,"span":12,"encoder":"062421378201","distractor":"062421978201","target":"absent","response":"present","rt":"3566.5","correct":false,"confidence":-1},{"trial_n":10,"span":10,"encoder":"7404968316","distractor":"7404968216","target":"present","response":"present","rt":"4075.3000000119","correct":true,"confidence":-1},{"trial_n":11,"span":10,"encoder":"8566381503","distractor":"8566381502","target":"absent","response":"absent","rt":"3847.1999999881","correct":true,"confidence":-1},{"trial_n":12,"span":11,"encoder":"60399993312","distractor":"60399994312","target":"absent","response":"absent","rt":"2797.6000000238","correct":true,"confidence":-1},{"trial_n":13,"span":11,"encoder":"02521104049","distractor":"08521104049","target":"absent","response":"present","rt":"3915.8000000119","correct":false,"confidence":-1},{"trial_n":14,"span":10,"encoder":"4877369334","distractor":"4877339334","target":"absent","response":"absent","rt":"4712.8999999762","correct":true,"confidence":-1},{"trial_n":15,"span":10,"encoder":"2869975556","distractor":"2864975556","target":"absent","response":"present","rt":"4130","correct":false,"confidence":-1},{"trial_n":16,"span":9,"encoder":"146780557","distractor":"846780557","target":"present","response":"present","rt":"3231.6999999881","correct":true,"confidence":-1},{"trial_n":17,"span":9,"encoder":"141158969","distractor":"141159969","target":"present","response":"present","rt":"4422.1000000238","correct":true,"confidence":-1},{"trial_n":18,"span":10,"encoder":"8363237333","distractor":"8365237333","target":"present","response":"absent","rt":"4034.1000000238","correct":false,"confidence":-1},{"trial_n":19,"span":9,"encoder":"212438475","distractor":"212428475","target":"absent","response":"present","rt":"4013.7999999523","correct":false,"confidence":-1},{"trial_n":20,"span":8,"encoder":"73317533","distractor":"73317433","target":"present","response":"present","rt":"3132.1000000238","correct":true,"confidence":-1},{"trial_n":21,"span":8,"encoder":"46604618","distractor":"46609618","target":"present","response":"present","rt":"2847.6000000238","correct":true,"confidence":5},{"trial_n":22,"span":9,"encoder":"038522822","distractor":"038522821","target":"present","response":"present","rt":"5453","correct":true,"confidence":4},{"trial_n":23,"span":9,"encoder":"481285416","distractor":"401285416","target":"present","response":"present","rt":"4162.7999999523","correct":true,"confidence":4},{"trial_n":24,"span":10,"encoder":"8108430765","distractor":"8208430765","target":"present","response":"absent","rt":"6153.1000000238","correct":false,"confidence":3},{"trial_n":25,"span":9,"encoder":"901375908","distractor":"401375908","target":"present","response":"absent","rt":"6891.7000000477","correct":false,"confidence":4},{"trial_n":26,"span":8,"encoder":"30571362","distractor":"30571462","target":"present","response":"absent","rt":"6563.8999999762","correct":false,"confidence":4},{"trial_n":27,"span":7,"encoder":"6143241","distractor":"6143041","target":"present","response":"present","rt":"5086.3999999762","correct":true,"confidence":3},{"trial_n":28,"span":7,"encoder":"7470730","distractor":"7070730","target":"present","response":"present","rt":"4927.2000000477","correct":true,"confidence":5},{"trial_n":29,"span":8,"encoder":"71177022","distractor":"79177022","target":"absent","response":"absent","rt":"3318.3999999762","correct":true,"confidence":5},{"trial_n":30,"span":8,"encoder":"46267365","distractor":"46277365","target":"absent","response":"present","rt":"4274.3000000119","correct":false,"confidence":4},{"trial_n":31,"span":7,"encoder":"5392636","distractor":"5392626","target":"present","response":"present","rt":"2440.5","correct":true,"confidence":5},{"trial_n":32,"span":7,"encoder":"6690298","distractor":"6690288","target":"present","response":"present","rt":"2989.7000000477","correct":true,"confidence":5},{"trial_n":33,"span":8,"encoder":"97886396","distractor":"97886356","target":"absent","response":"absent","rt":"3565.0999999642","correct":true,"confidence":3},{"trial_n":34,"span":8,"encoder":"17139146","distractor":"17135146","target":"absent","response":"absent","rt":"3860.6000000238","correct":true,"confidence":4},{"trial_n":35,"span":9,"encoder":"173771457","distractor":"163771457","target":"present","response":"present","rt":"3154.1999999881","correct":true,"confidence":3},{"trial_n":36,"span":9,"encoder":"326967113","distractor":"326907113","target":"present","response":"absent","rt":"3908.9000000358","correct":false,"confidence":3},{"trial_n":37,"span":8,"encoder":"36217194","distractor":"36217154","target":"present","response":"present","rt":"5201.9000000358","correct":true,"confidence":3},{"trial_n":38,"span":8,"encoder":"16833093","distractor":"10833093","target":"absent","response":"absent","rt":"3716.4000000358","correct":true,"confidence":5},{"trial_n":39,"span":9,"encoder":"308606490","distractor":"308606496","target":"absent","response":"absent","rt":"8524.6000000238","correct":true,"confidence":5},{"trial_n":40,"span":9,"encoder":"021468422","distractor":"021468421","target":"absent","response":"absent","rt":"5063","correct":true,"confidence":5},{"trial_n":41,"span":10,"encoder":"3086137365","distractor":"3086137364","target":"absent","response":"absent","rt":"2833","correct":true,"confidence":5},{"trial_n":42,"span":10,"encoder":"4599902555","distractor":"4589902555","target":"absent","response":"absent","rt":"4861.6000000238","correct":true,"confidence":5},{"trial_n":43,"span":11,"encoder":"79585092055","distractor":"79515092055","target":"absent","response":"present","rt":"6348.1999999881","correct":false,"confidence":3},{"trial_n":44,"span":10,"encoder":"1348139670","distractor":"1338139670","target":"present","response":"present","rt":"6608.4000000358","correct":true,"confidence":4},{"trial_n":45,"span":10,"encoder":"4142268238","distractor":"4142268248","target":"present","response":"present","rt":"4323.1000000238","correct":true,"confidence":5},{"trial_n":46,"span":11,"encoder":"40727785687","distractor":"40727785686","target":"present","response":"absent","rt":"5371.6999999881","correct":false,"confidence":3},{"trial_n":47,"span":10,"encoder":"1939590607","distractor":"1939590907","target":"present","response":"present","rt":"4122","correct":true,"confidence":5},{"trial_n":48,"span":10,"encoder":"3373699893","distractor":"3373699193","target":"present","response":"present","rt":"4316.5999999642","correct":true,"confidence":5},{"trial_n":49,"span":11,"encoder":"85381623573","distractor":"85381623572","target":"present","response":"present","rt":"6082.6999999881","correct":true,"confidence":3},{"trial_n":50,"span":11,"encoder":"56671928867","distractor":"56671128867","target":"absent","response":"absent","rt":"3848.1999999881","correct":true,"confidence":4},{"trial_n":51,"span":12,"encoder":"803812861945","distractor":"803512861945","target":"absent","response":"absent","rt":"7865.1999999881","correct":true,"confidence":4},{"trial_n":52,"span":12,"encoder":"560570298986","distractor":"563570298986","target":"present","response":"absent","rt":"8425.6999999881","correct":false,"confidence":3},{"trial_n":53,"span":11,"encoder":"37624799088","distractor":"37622799088","target":"absent","response":"present","rt":"2314.3000000119","correct":false,"confidence":4},{"trial_n":54,"span":10,"encoder":"3037057715","distractor":"1037057715","target":"absent","response":"present","rt":"4475","correct":false,"confidence":4},{"trial_n":55,"span":9,"encoder":"246483427","distractor":"246483428","target":"absent","response":"absent","rt":"1453","correct":true,"confidence":5},{"trial_n":56,"span":9,"encoder":"363275746","distractor":"363675746","target":"absent","response":"present","rt":"4709.5","correct":false,"confidence":3},{"trial_n":57,"span":8,"encoder":"83500028","distractor":"93500028","target":"absent","response":"absent","rt":"3684","correct":true,"confidence":5},{"trial_n":58,"span":8,"encoder":"11386832","distractor":"11386872","target":"absent","response":"absent","rt":"3951.0999999642","correct":true,"confidence":5},{"trial_n":59,"span":9,"encoder":"258932161","distractor":"258931161","target":"absent","response":"absent","rt":"3531.6000000238","correct":true,"confidence":5},{"trial_n":60,"span":9,"encoder":"566596370","distractor":"566592370","target":"present","response":"absent","rt":"6311.3999999762","correct":false,"confidence":3},{"trial_n":61,"span":8,"encoder":"66398946","distractor":"66398943","target":"present","response":"absent","rt":"4563.5","correct":false,"confidence":3},{"trial_n":62,"span":7,"encoder":"2924193","distractor":"2924190","target":"absent","response":"absent","rt":"2981.5","correct":true,"confidence":5},{"trial_n":63,"span":7,"encoder":"3068701","distractor":"3060701","target":"present","response":"absent","rt":"6804.1000000238","correct":false,"confidence":4},{"trial_n":64,"span":6,"encoder":"344283","distractor":"384283","target":"present","response":"present","rt":"2884","correct":true,"confidence":5},{"trial_n":65,"span":6,"encoder":"517904","distractor":"577904","target":"present","response":"present","rt":"16128.599999964","correct":true,"confidence":5},{"trial_n":66,"span":7,"encoder":"2963393","distractor":"2953393","target":"absent","response":"absent","rt":"2239.3000000119","correct":true,"confidence":5},{"trial_n":67,"span":7,"encoder":"6052519","distractor":"6052619","target":"present","response":"absent","rt":"5537.1000000238","correct":false,"confidence":4},{"trial_n":68,"span":6,"encoder":"276807","distractor":"276607","target":"absent","response":"absent","rt":"3599.3000000119","correct":true,"confidence":5},{"trial_n":69,"span":6,"encoder":"749951","distractor":"749051","target":"absent","response":"absent","rt":"1523.8000000119","correct":true,"confidence":5},{"trial_n":70,"span":7,"encoder":"2518400","distractor":"2518420","target":"absent","response":"absent","rt":"4071","correct":true,"confidence":5},{"trial_n":71,"span":8,"encoder":"79031933","distractor":"79031953","target":"present","response":"present","rt":"2291.1999999881","correct":true,"confidence":-1},{"trial_n":72,"span":8,"encoder":"76152505","distractor":"72152505","target":"present","response":"absent","rt":"7714.3000000119","correct":false,"confidence":-1},{"trial_n":73,"span":7,"encoder":"2438551","distractor":"2488551","target":"absent","response":"absent","rt":"2752.1000000238","correct":true,"confidence":-1},{"trial_n":74,"span":7,"encoder":"4046621","distractor":"4046622","target":"absent","response":"absent","rt":"30006.300000012","correct":true,"confidence":-1},{"trial_n":75,"span":8,"encoder":"55614314","distractor":"55614714","target":"present","response":"present","rt":"3751.3000000119","correct":true,"confidence":-1},{"trial_n":76,"span":8,"encoder":"72644057","distractor":"72641057","target":"absent","response":"absent","rt":"5542.2999999523","correct":true,"confidence":-1},{"trial_n":77,"span":9,"encoder":"520735147","distractor":"520745147","target":"absent","response":"present","rt":"4639.1000000238","correct":false,"confidence":-1},{"trial_n":78,"span":8,"encoder":"87353056","distractor":"87353051","target":"present","response":"present","rt":"1687.1999999881","correct":true,"confidence":-1},{"trial_n":79,"span":8,"encoder":"32899880","distractor":"32889880","target":"absent","response":"absent","rt":"9813.7999999523","correct":true,"confidence":-1},{"trial_n":80,"span":9,"encoder":"798148646","distractor":"728148646","target":"absent","response":"absent","rt":"3685","correct":true,"confidence":-1},{"trial_n":81,"span":9,"encoder":"747610069","distractor":"757610069","target":"absent","response":"absent","rt":"13189.5","correct":true,"confidence":-1},{"trial_n":82,"span":10,"encoder":"9497962018","distractor":"9467962018","target":"present","response":"absent","rt":"6023.2999999523","correct":false,"confidence":-1},{"trial_n":83,"span":9,"encoder":"518269534","distractor":"518260534","target":"present","response":"absent","rt":"3326.6999999881","correct":false,"confidence":-1},{"trial_n":84,"span":8,"encoder":"84728272","distractor":"84727272","target":"present","response":"present","rt":"2857.4000000358","correct":true,"confidence":-1},{"trial_n":85,"span":8,"encoder":"19391139","distractor":"18391139","target":"absent","response":"present","rt":"4741.5","correct":false,"confidence":-1},{"trial_n":86,"span":7,"encoder":"0053233","distractor":"0053238","target":"present","response":"absent","rt":"4337.3000000119","correct":false,"confidence":-1},{"trial_n":87,"span":6,"encoder":"621433","distractor":"620433","target":"present","response":"present","rt":"4872.6000000238","correct":true,"confidence":-1},{"trial_n":88,"span":6,"encoder":"079456","distractor":"079756","target":"present","response":"present","rt":"3647","correct":true,"confidence":-1},{"trial_n":89,"span":7,"encoder":"1572241","distractor":"2572241","target":"absent","response":"present","rt":"2051.6999999881","correct":false,"confidence":-1},{"trial_n":90,"span":6,"encoder":"189070","distractor":"289070","target":"present","response":"present","rt":"2331.8000000119","correct":true,"confidence":-1},{"trial_n":91,"span":6,"encoder":"373464","distractor":"371464","target":"present","response":"present","rt":"6850.5","correct":true,"confidence":5},{"trial_n":92,"span":7,"encoder":"1742086","distractor":"1752086","target":"absent","response":"absent","rt":"2314.1999999881","correct":true,"confidence":5},{"trial_n":93,"span":7,"encoder":"3044862","distractor":"3044162","target":"present","response":"present","rt":"4061.3999999762","correct":true,"confidence":4},{"trial_n":94,"span":8,"encoder":"71854375","distractor":"74854375","target":"present","response":"present","rt":"2708.1000000238","correct":true,"confidence":4},{"trial_n":95,"span":8,"encoder":"85964522","distractor":"85964526","target":"present","response":"present","rt":"2321.1000000238","correct":true,"confidence":5},{"trial_n":96,"span":9,"encoder":"581318088","distractor":"582318088","target":"present","response":"present","rt":"4037.8999999762","correct":true,"confidence":5},{"trial_n":97,"span":9,"encoder":"430372236","distractor":"430382236","target":"present","response":"present","rt":"2968.2999999523","correct":true,"confidence":5},{"trial_n":98,"span":10,"encoder":"5408734204","distractor":"5408738204","target":"absent","response":"present","rt":"8156.1000000238","correct":false,"confidence":5},{"trial_n":99,"span":9,"encoder":"260331347","distractor":"260337347","target":"absent","response":"absent","rt":"5223.5","correct":true,"confidence":4},{"trial_n":100,"span":9,"encoder":"587441986","distractor":"587440986","target":"absent","response":"absent","rt":"4727.8000000119","correct":true,"confidence":4},{"trial_n":101,"span":10,"encoder":"1762963763","distractor":"1762963769","target":"present","response":"present","rt":"1963.5","correct":true,"confidence":5},{"trial_n":102,"span":10,"encoder":"3142426339","distractor":"3142426639","target":"present","response":"present","rt":"2404","correct":true,"confidence":5},{"trial_n":103,"span":11,"encoder":"55366228152","distractor":"55466228152","target":"absent","response":"absent","rt":"8154.5","correct":true,"confidence":5},{"trial_n":104,"span":11,"encoder":"58240895883","distractor":"48240895883","target":"absent","response":"absent","rt":"6343.3999999762","correct":true,"confidence":4},{"trial_n":105,"span":12,"encoder":"325354289640","distractor":"325354289610","target":"absent","response":"absent","rt":"1781.8000000119","correct":true,"confidence":5},{"trial_n":106,"span":12,"encoder":"739221606250","distractor":"739221606259","target":"absent","response":"absent","rt":"1470.8999999762","correct":true,"confidence":5},{"trial_n":107,"span":13,"encoder":"5394107335886","distractor":"5394307335886","target":"present","response":"absent","rt":"7961.4000000358","correct":false,"confidence":2},{"trial_n":108,"span":12,"encoder":"141249858614","distractor":"141249853614","target":"absent","response":"present","rt":"10331.099999964","correct":false,"confidence":3},{"trial_n":109,"span":11,"encoder":"35097260097","distractor":"35097266097","target":"absent","response":"absent","rt":"1866.6000000238","correct":true,"confidence":5},{"trial_n":110,"span":11,"encoder":"94868493039","distractor":"94858493039","target":"present","response":"present","rt":"4402.1999999881","correct":true,"confidence":4},{"trial_n":111,"span":12,"encoder":"590793372665","distractor":"592793372665","target":"absent","response":"absent","rt":"8885.9000000358","correct":true,"confidence":3},{"trial_n":112,"span":12,"encoder":"087742500255","distractor":"087742500254","target":"present","response":"present","rt":"1751.4000000358","correct":true,"confidence":5},{"trial_n":113,"span":13,"encoder":"8567690812407","distractor":"8567696812407","target":"present","response":"present","rt":"6678.5999999642","correct":true,"confidence":3},{"trial_n":114,"span":13,"encoder":"7342994143144","distractor":"1342994143144","target":"absent","response":"absent","rt":"5917.6999999881","correct":true,"confidence":4},{"trial_n":115,"span":14,"encoder":"68071410563883","distractor":"68071310563883","target":"absent","response":"absent","rt":"4006.8999999762","correct":true,"confidence":4},{"trial_n":116,"span":14,"encoder":"76499884155680","distractor":"76459884155680","target":"present","response":"present","rt":"6177.7999999523","correct":true,"confidence":4},{"trial_n":117,"span":15,"encoder":"988319627357195","distractor":"988349627357195","target":"present","response":"present","rt":"9462.8000000119","correct":true,"confidence":2},{"trial_n":118,"span":15,"encoder":"210676092629512","distractor":"210876092629512","target":"absent","response":"absent","rt":"4990.3000000119","correct":true,"confidence":4},{"trial_n":119,"span":16,"encoder":"1327100053004595","distractor":"1367100053004595","target":"absent","response":"present","rt":"8655","correct":false,"confidence":3},{"trial_n":120,"span":15,"encoder":"674171517818008","distractor":"675171517818008","target":"present","response":"present","rt":"4637.1999999881","correct":true,"confidence":4},{"trial_n":121,"span":15,"encoder":"491013244995376","distractor":"491063244995376","target":"present","response":"present","rt":"6062.1000000238","correct":true,"confidence":3},{"trial_n":122,"span":16,"encoder":"7853712250828599","distractor":"7853712254828599","target":"absent","response":"present","rt":"7503.8000000119","correct":false,"confidence":2},{"trial_n":123,"span":15,"encoder":"479684733023906","distractor":"479684736023906","target":"present","response":"present","rt":"3001.8999999762","correct":true,"confidence":5},{"trial_n":124,"span":15,"encoder":"542493339509811","distractor":"542493334509811","target":"absent","response":"present","rt":"12170.800000012","correct":false,"confidence":3},{"trial_n":125,"span":14,"encoder":"50702561672712","distractor":"50902561672712","target":"present","response":"present","rt":"6256.2000000477","correct":true,"confidence":4},{"trial_n":126,"span":14,"encoder":"01552879245432","distractor":"01552873245432","target":"present","response":"present","rt":"9105.8999999762","correct":true,"confidence":3},{"trial_n":127,"span":15,"encoder":"429859286841994","distractor":"429859266841994","target":"absent","response":"absent","rt":"5472","correct":true,"confidence":4},{"trial_n":128,"span":15,"encoder":"640753354376231","distractor":"640753354377231","target":"absent","response":"absent","rt":"6861.8000000119","correct":true,"confidence":4},{"trial_n":129,"span":16,"encoder":"2606877843247986","distractor":"2506877843247986","target":"present","response":"present","rt":"6636.1000000238","correct":true,"confidence":3},{"trial_n":130,"span":16,"encoder":"7506322881761921","distractor":"7506322871761921","target":"present","response":"present","rt":"9343.3000000119","correct":true,"confidence":3},{"trial_n":131,"span":17,"encoder":"07033958829395906","distractor":"05033958829395906","target":"absent","response":"absent","rt":"4247.1999999881","correct":true,"confidence":3},{"trial_n":132,"span":17,"encoder":"13077749127893174","distractor":"13075749127893174","target":"present","response":"present","rt":"2886.5","correct":true,"confidence":4},{"trial_n":133,"span":18,"encoder":"051892935783127354","distractor":"851892935783127354","target":"present","response":"absent","rt":"5013.6000000238","correct":false,"confidence":3},{"trial_n":134,"span":17,"encoder":"64298490614782525","distractor":"64298430614782525","target":"present","response":"present","rt":"6625.1999999881","correct":true,"confidence":3},{"trial_n":135,"span":17,"encoder":"48861436125116848","distractor":"49861436125116848","target":"present","response":"absent","rt":"7955.8000000119","correct":false,"confidence":4},{"trial_n":136,"span":16,"encoder":"0052126007250683","distractor":"0052126005250683","target":"absent","response":"absent","rt":"8458.3000000119","correct":true,"confidence":3},{"trial_n":137,"span":16,"encoder":"0788073035028935","distractor":"0788033035028935","target":"absent","response":"absent","rt":"5606.5999999642","correct":true,"confidence":4},{"trial_n":138,"span":17,"encoder":"54270187378934061","distractor":"54270187378994061","target":"absent","response":"present","rt":"5832.0999999642","correct":false,"confidence":3},{"trial_n":139,"span":16,"encoder":"6381665917916587","distractor":"6381465917916587","target":"absent","response":"absent","rt":"2348.8999999762","correct":true,"confidence":5},{"trial_n":140,"span":16,"encoder":"8848827321285706","distractor":"8848827328285706","target":"absent","response":"absent","rt":"7064.0999999642","correct":true,"confidence":3}]