[{"trial_n":1,"n_dots":4.25,"target":"left","response":"left","rt":4112.2000000477,"correct":true,"confidence":-1},{"trial_n":2,"n_dots":4.25,"target":"right","response":"right","rt":2940.5999999046,"correct":true,"confidence":-1},{"trial_n":3,"n_dots":3.85,"target":"right","response":"left","rt":2457.3999998569,"correct":false,"confidence":-1},{"trial_n":4,"n_dots":4.25,"target":"left","response":"left","rt":1109.0999999046,"correct":true,"confidence":-1},{"trial_n":5,"n_dots":4.25,"target":"left","response":"left","rt":833.20000004768,"correct":true,"confidence":-1},{"trial_n":6,"n_dots":3.85,"target":"left","response":"left","rt":946.29999995232,"correct":true,"confidence":-1},{"trial_n":7,"n_dots":3.85,"target":"left","response":"left","rt":847.5,"correct":true,"confidence":-1},{"trial_n":8,"n_dots":3.65,"target":"left","response":"left","rt":972.29999995232,"correct":true,"confidence":-1},{"trial_n":9,"n_dots":3.65,"target":"right","response":"right","rt":881.09999990463,"correct":true,"confidence":-1},{"trial_n":10,"n_dots":3.45,"target":"right","response":"right","rt":1047.6000001431,"correct":true,"confidence":-1},{"trial_n":11,"n_dots":3.45,"target":"left","response":"right","rt":1255.5,"correct":false,"confidence":-1},{"trial_n":12,"n_dots":3.65,"target":"right","response":"right","rt":810.5,"correct":true,"confidence":-1},{"trial_n":13,"n_dots":3.65,"target":"right","response":"right","rt":887.90000009537,"correct":true,"confidence":-1},{"trial_n":14,"n_dots":3.55,"target":"left","response":"right","rt":892.20000004768,"correct":false,"confidence":-1},{"trial_n":15,"n_dots":3.65,"target":"right","response":"right","rt":796.10000014305,"correct":true,"confidence":-1},{"trial_n":16,"n_dots":3.65,"target":"right","response":"right","rt":768.39999985695,"correct":true,"confidence":-1},{"trial_n":17,"n_dots":3.55,"target":"left","response":"left","rt":1646.5,"correct":true,"confidence":-1},{"trial_n":18,"n_dots":3.55,"target":"right","response":"right","rt":609.89999985695,"correct":true,"confidence":-1},{"trial_n":19,"n_dots":3.45,"target":"right","response":"right","rt":885.20000004768,"correct":true,"confidence":-1},{"trial_n":20,"n_dots":3.45,"target":"left","response":"right","rt":784.79999995232,"correct":false,"confidence":-1},{"trial_n":21,"n_dots":3.55,"target":"left","response":"right","rt":954.70000004768,"correct":false,"confidence":1},{"trial_n":22,"n_dots":3.65,"target":"right","response":"right","rt":834.79999995232,"correct":true,"confidence":3},{"trial_n":23,"n_dots":3.65,"target":"right","response":"left","rt":1166,"correct":false,"confidence":2},{"trial_n":24,"n_dots":3.75,"target":"left","response":"left","rt":2800.4000000954,"correct":true,"confidence":1},{"trial_n":25,"n_dots":3.75,"target":"left","response":"left","rt":1528.4000000954,"correct":true,"confidence":4},{"trial_n":26,"n_dots":3.65,"target":"right","response":"right","rt":1728.6000001431,"correct":true,"confidence":3},{"trial_n":27,"n_dots":3.65,"target":"right","response":"left","rt":1792.5999999046,"correct":false,"confidence":1},{"trial_n":28,"n_dots":3.75,"target":"left","response":"left","rt":1181.8999998569,"correct":true,"confidence":3},{"trial_n":29,"n_dots":3.75,"target":"right","response":"right","rt":1438.4000000954,"correct":true,"confidence":2},{"trial_n":30,"n_dots":3.65,"target":"right","response":"left","rt":1325.5,"correct":false,"confidence":1},{"trial_n":31,"n_dots":3.75,"target":"left","response":"left","rt":1043.3000001907,"correct":true,"confidence":2},{"trial_n":32,"n_dots":3.75,"target":"left","response":"left","rt":854.39999985695,"correct":true,"confidence":3},{"trial_n":33,"n_dots":3.65,"target":"right","response":"right","rt":1301.4000000954,"correct":true,"confidence":2},{"trial_n":34,"n_dots":3.65,"target":"right","response":"right","rt":2482.9000000954,"correct":true,"confidence":3},{"trial_n":35,"n_dots":3.55,"target":"right","response":"right","rt":1316.8999998569,"correct":true,"confidence":2},{"trial_n":36,"n_dots":3.55,"target":"left","response":"left","rt":1168.3999998569,"correct":true,"confidence":3},{"trial_n":37,"n_dots":3.45,"target":"right","response":"left","rt":1527.2999999523,"correct":false,"confidence":1},{"trial_n":38,"n_dots":3.55,"target":"right","response":"right","rt":923.60000014305,"correct":true,"confidence":1},{"trial_n":39,"n_dots":3.55,"target":"left","response":"left","rt":774.20000004768,"correct":true,"confidence":3},{"trial_n":40,"n_dots":3.45,"target":"left","response":"right","rt":2173.5,"correct":false,"confidence":1},{"trial_n":41,"n_dots":3.55,"target":"left","response":"left","rt":1437.7999999523,"correct":true,"confidence":2},{"trial_n":42,"n_dots":3.55,"target":"right","response":"right","rt":1173.7000000477,"correct":true,"confidence":2},{"trial_n":43,"n_dots":3.45,"target":"right","response":"right","rt":1902.5,"correct":true,"confidence":2},{"trial_n":44,"n_dots":3.45,"target":"left","response":"left","rt":1317.3000001907,"correct":true,"confidence":3},{"trial_n":45,"n_dots":3.35,"target":"right","response":"right","rt":1814.0999999046,"correct":true,"confidence":2},{"trial_n":46,"n_dots":3.35,"target":"left","response":"left","rt":1345,"correct":true,"confidence":3},{"trial_n":47,"n_dots":3.25,"target":"left","response":"left","rt":1075.4000000954,"correct":true,"confidence":3},{"trial_n":48,"n_dots":3.25,"target":"right","response":"right","rt":1097,"correct":true,"confidence":2},{"trial_n":49,"n_dots":3.15,"target":"left","response":"left","rt":801,"correct":true,"confidence":4},{"trial_n":50,"n_dots":3.15,"target":"left","response":"left","rt":1002.5,"correct":true,"confidence":3},{"trial_n":51,"n_dots":3.05,"target":"left","response":"left","rt":488.70000004768,"correct":true,"confidence":3},{"trial_n":52,"n_dots":3.05,"target":"left","response":"left","rt":1292.4000000954,"correct":true,"confidence":3},{"trial_n":53,"n_dots":2.95,"target":"left","response":"left","rt":759.80000019073,"correct":true,"confidence":3},{"trial_n":54,"n_dots":2.95,"target":"left","response":"left","rt":761.39999985695,"correct":true,"confidence":3},{"trial_n":55,"n_dots":2.85,"target":"left","response":"left","rt":718.39999985695,"correct":true,"confidence":3},{"trial_n":56,"n_dots":2.85,"target":"right","response":"right","rt":1770.2000000477,"correct":true,"confidence":1},{"trial_n":57,"n_dots":2.75,"target":"right","response":"left","rt":1079.9000000954,"correct":false,"confidence":2},{"trial_n":58,"n_dots":2.85,"target":"right","response":"left","rt":1983.2999999523,"correct":false,"confidence":1},{"trial_n":59,"n_dots":2.95,"target":"left","response":"left","rt":805.89999985695,"correct":true,"confidence":3},{"trial_n":60,"n_dots":2.95,"target":"left","response":"left","rt":1074.5,"correct":true,"confidence":2},{"trial_n":61,"n_dots":2.85,"target":"right","response":"left","rt":688,"correct":false,"confidence":2},{"trial_n":62,"n_dots":2.95,"target":"left","response":"left","rt":864,"correct":true,"confidence":2},{"trial_n":63,"n_dots":2.95,"target":"left","response":"left","rt":729.5,"correct":true,"confidence":2},{"trial_n":64,"n_dots":2.85,"target":"left","response":"left","rt":750.20000004768,"correct":true,"confidence":2},{"trial_n":65,"n_dots":2.85,"target":"right","response":"left","rt":2103.3000001907,"correct":false,"confidence":1},{"trial_n":66,"n_dots":2.95,"target":"left","response":"left","rt":907.39999985695,"correct":true,"confidence":2},{"trial_n":67,"n_dots":2.95,"target":"left","response":"left","rt":1025.5999999046,"correct":true,"confidence":2},{"trial_n":68,"n_dots":2.85,"target":"right","response":"left","rt":486.69999980927,"correct":false,"confidence":3},{"trial_n":69,"n_dots":2.95,"target":"right","response":"left","rt":2502.7999999523,"correct":false,"confidence":1},{"trial_n":70,"n_dots":3.05,"target":"left","response":"left","rt":1352.3999998569,"correct":true,"confidence":2},{"trial_n":71,"n_dots":3.05,"target":"right","response":"left","rt":848.39999985695,"correct":false,"confidence":1},{"trial_n":72,"n_dots":3.15,"target":"right","response":"left","rt":827.70000004768,"correct":false,"confidence":2},{"trial_n":73,"n_dots":3.25,"target":"right","response":"right","rt":2179.6999998093,"correct":true,"confidence":1},{"trial_n":74,"n_dots":3.25,"target":"right","response":"left","rt":1549.1000001431,"correct":false,"confidence":1},{"trial_n":75,"n_dots":3.35,"target":"right","response":"left","rt":1534.9000000954,"correct":false,"confidence":1},{"trial_n":76,"n_dots":3.45,"target":"right","response":"left","rt":1508.6999998093,"correct":false,"confidence":1},{"trial_n":77,"n_dots":3.55,"target":"right","response":"left","rt":1538.7000000477,"correct":false,"confidence":1},{"trial_n":78,"n_dots":3.65,"target":"right","response":"left","rt":1515.6999998093,"correct":false,"confidence":1},{"trial_n":79,"n_dots":3.75,"target":"right","response":"left","rt":1462.7999999523,"correct":false,"confidence":1},{"trial_n":80,"n_dots":3.85,"target":"left","response":"left","rt":753.30000019073,"correct":true,"confidence":3},{"trial_n":81,"n_dots":3.85,"target":"right","response":"right","rt":1307.8999998569,"correct":true,"confidence":1},{"trial_n":82,"n_dots":3.75,"target":"left","response":"left","rt":811.5,"correct":true,"confidence":3},{"trial_n":83,"n_dots":3.75,"target":"left","response":"left","rt":838.5,"correct":true,"confidence":3},{"trial_n":84,"n_dots":3.65,"target":"right","response":"left","rt":691.69999980927,"correct":false,"confidence":2},{"trial_n":85,"n_dots":3.75,"target":"right","response":"left","rt":1362.1999998093,"correct":false,"confidence":1},{"trial_n":86,"n_dots":3.85,"target":"left","response":"left","rt":549.89999985695,"correct":true,"confidence":2},{"trial_n":87,"n_dots":3.85,"target":"right","response":"right","rt":1285.2999999523,"correct":true,"confidence":2},{"trial_n":88,"n_dots":3.75,"target":"right","response":"left","rt":1220.7000000477,"correct":false,"confidence":1},{"trial_n":89,"n_dots":3.85,"target":"left","response":"left","rt":1262.1999998093,"correct":true,"confidence":3},{"trial_n":90,"n_dots":3.85,"target":"left","response":"left","rt":829.69999980927,"correct":true,"confidence":3},{"trial_n":91,"n_dots":3.75,"target":"right","response":"right","rt":1390.9000000954,"correct":true,"confidence":2},{"trial_n":92,"n_dots":3.75,"target":"right","response":"right","rt":2228.8999998569,"correct":true,"confidence":1},{"trial_n":93,"n_dots":3.65,"target":"left","response":"left","rt":1006.7999999523,"correct":true,"confidence":2},{"trial_n":94,"n_dots":3.65,"target":"right","response":"left","rt":1028.5,"correct":false,"confidence":1},{"trial_n":95,"n_dots":3.75,"target":"left","response":"left","rt":524.59999990463,"correct":true,"confidence":3},{"trial_n":96,"n_dots":3.75,"target":"right","response":"right","rt":1249.0999999046,"correct":true,"confidence":1},{"trial_n":97,"n_dots":3.65,"target":"right","response":"right","rt":858.20000004768,"correct":true,"confidence":1},{"trial_n":98,"n_dots":3.65,"target":"right","response":"left","rt":1060.3999998569,"correct":false,"confidence":1},{"trial_n":99,"n_dots":3.75,"target":"left","response":"left","rt":1155.7999999523,"correct":true,"confidence":3},{"trial_n":100,"n_dots":3.75,"target":"right","response":"right","rt":982.5,"correct":true,"confidence":3},{"trial_n":101,"n_dots":3.65,"target":"right","response":"left","rt":1097.7999999523,"correct":false,"confidence":2},{"trial_n":102,"n_dots":3.75,"target":"left","response":"left","rt":898.20000004768,"correct":true,"confidence":3},{"trial_n":103,"n_dots":3.75,"target":"right","response":"left","rt":1386.2999999523,"correct":false,"confidence":2},{"trial_n":104,"n_dots":3.85,"target":"left","response":"left","rt":675.29999995232,"correct":true,"confidence":2},{"trial_n":105,"n_dots":3.85,"target":"left","response":"left","rt":576.10000014305,"correct":true,"confidence":3},{"trial_n":106,"n_dots":3.75,"target":"right","response":"left","rt":1251,"correct":false,"confidence":3},{"trial_n":107,"n_dots":3.85,"target":"left","response":"left","rt":872.5,"correct":true,"confidence":3},{"trial_n":108,"n_dots":3.85,"target":"left","response":"left","rt":586.20000004768,"correct":true,"confidence":3},{"trial_n":109,"n_dots":3.75,"target":"right","response":"left","rt":2060.2999999523,"correct":false,"confidence":1},{"trial_n":110,"n_dots":3.85,"target":"left","response":"left","rt":598.80000019073,"correct":true,"confidence":2},{"trial_n":111,"n_dots":3.85,"target":"left","response":"left","rt":1113.2000000477,"correct":true,"confidence":3},{"trial_n":112,"n_dots":3.75,"target":"left","response":"left","rt":545,"correct":true,"confidence":2},{"trial_n":113,"n_dots":3.75,"target":"left","response":"left","rt":707.40000009537,"correct":true,"confidence":2},{"trial_n":114,"n_dots":3.65,"target":"left","response":"left","rt":950,"correct":true,"confidence":2},{"trial_n":115,"n_dots":3.65,"target":"right","response":"left","rt":845.5,"correct":false,"confidence":2},{"trial_n":116,"n_dots":3.75,"target":"left","response":"left","rt":718.20000004768,"correct":true,"confidence":2},{"trial_n":117,"n_dots":3.75,"target":"right","response":"left","rt":742.89999985695,"correct":false,"confidence":2},{"trial_n":118,"n_dots":3.85,"target":"right","response":"right","rt":800.60000014305,"correct":true,"confidence":2},{"trial_n":119,"n_dots":3.85,"target":"left","response":"left","rt":1115.5,"correct":true,"confidence":1},{"trial_n":120,"n_dots":3.75,"target":"left","response":"left","rt":756.10000014305,"correct":true,"confidence":1}]