[{"trial_n":1,"span":8,"encoder":"72228250","distractor":"72828250","target":"present","response":"absent","rt":"3165.5","correct":false,"confidence":-1},{"trial_n":2,"span":6,"encoder":"007903","distractor":"007913","target":"present","response":"present","rt":"2387.1999999993","correct":true,"confidence":-1},{"trial_n":3,"span":6,"encoder":"514795","distractor":"524795","target":"absent","response":"absent","rt":"2193.4000000022","correct":true,"confidence":-1},{"trial_n":4,"span":8,"encoder":"28775949","distractor":"28745949","target":"absent","response":"absent","rt":"2787.8000000007","correct":true,"confidence":-1},{"trial_n":5,"span":8,"encoder":"43070300","distractor":"43071300","target":"present","response":"present","rt":"1769.5999999978","correct":true,"confidence":-1},{"trial_n":6,"span":10,"encoder":"9990236672","distractor":"9998236672","target":"present","response":"present","rt":"1957","correct":true,"confidence":-1},{"trial_n":7,"span":10,"encoder":"0316461073","distractor":"0318461073","target":"present","response":"present","rt":"1800","correct":true,"confidence":-1},{"trial_n":8,"span":12,"encoder":"886609310116","distractor":"886659310116","target":"absent","response":"absent","rt":"2801.9000000022","correct":true,"confidence":-1},{"trial_n":9,"span":12,"encoder":"368257120278","distractor":"368257220278","target":"present","response":"present","rt":"2408.8000000007","correct":true,"confidence":-1},{"trial_n":10,"span":14,"encoder":"88714425399666","distractor":"88714425399866","target":"absent","response":"present","rt":"1820.5","correct":false,"confidence":-1},{"trial_n":11,"span":12,"encoder":"912265416911","distractor":"912265426911","target":"present","response":"present","rt":"1089.0999999978","correct":true,"confidence":-1},{"trial_n":12,"span":12,"encoder":"896798961659","distractor":"896798661659","target":"absent","response":"present","rt":"1001.5","correct":false,"confidence":-1},{"trial_n":13,"span":11,"encoder":"52667865774","distractor":"58667865774","target":"present","response":"present","rt":"1500.3000000007","correct":true,"confidence":-1},{"trial_n":14,"span":11,"encoder":"44015593427","distractor":"44095593427","target":"present","response":"present","rt":"3075.299999997","correct":true,"confidence":-1},{"trial_n":15,"span":12,"encoder":"525148439875","distractor":"525148449875","target":"absent","response":"present","rt":"1509.5","correct":false,"confidence":-1},{"trial_n":16,"span":11,"encoder":"60176665192","distractor":"40176665192","target":"present","response":"present","rt":"18686.900000002","correct":true,"confidence":-1},{"trial_n":17,"span":11,"encoder":"31978164699","distractor":"36978164699","target":"absent","response":"present","rt":"1033.1999999993","correct":false,"confidence":-1},{"trial_n":18,"span":10,"encoder":"8234576447","distractor":"8234546447","target":"present","response":"present","rt":"994.69999999925","correct":true,"confidence":-1},{"trial_n":19,"span":10,"encoder":"6218518706","distractor":"6218518736","target":"absent","response":"present","rt":"1075.8999999985","correct":false,"confidence":-1},{"trial_n":20,"span":9,"encoder":"232112779","distractor":"232192779","target":"present","response":"present","rt":"737.5","correct":true,"confidence":-1},{"trial_n":21,"span":9,"encoder":"307086130","distractor":"307066130","target":"present","response":"present","rt":"1539","correct":true,"confidence":4},{"trial_n":22,"span":10,"encoder":"5250480008","distractor":"5250480058","target":"absent","response":"present","rt":"3039","correct":false,"confidence":4},{"trial_n":23,"span":9,"encoder":"241606874","distractor":"241608874","target":"present","response":"present","rt":"1464.1999999993","correct":true,"confidence":3},{"trial_n":24,"span":9,"encoder":"365403543","distractor":"362403543","target":"present","response":"present","rt":"1261.6999999993","correct":true,"confidence":3},{"trial_n":25,"span":10,"encoder":"7333123597","distractor":"7333123593","target":"present","response":"present","rt":"4038","correct":true,"confidence":3},{"trial_n":26,"span":10,"encoder":"1891943757","distractor":"4891943757","target":"absent","response":"present","rt":"1776.3000000007","correct":false,"confidence":2},{"trial_n":27,"span":9,"encoder":"956726500","distractor":"956726505","target":"absent","response":"present","rt":"2476.6000000015","correct":false,"confidence":4},{"trial_n":28,"span":8,"encoder":"69270204","distractor":"69270201","target":"present","response":"present","rt":"1364","correct":true,"confidence":4},{"trial_n":29,"span":8,"encoder":"68782589","distractor":"64782589","target":"present","response":"present","rt":"2464.6000000015","correct":true,"confidence":5},{"trial_n":30,"span":9,"encoder":"142930699","distractor":"142938699","target":"present","response":"present","rt":"1466.3999999985","correct":true,"confidence":4},{"trial_n":31,"span":9,"encoder":"096436973","distractor":"097436973","target":"present","response":"absent","rt":"6757","correct":false,"confidence":2},{"trial_n":32,"span":8,"encoder":"66855884","distractor":"66855824","target":"absent","response":"present","rt":"2539.3999999985","correct":false,"confidence":3},{"trial_n":33,"span":7,"encoder":"6918676","distractor":"6918677","target":"absent","response":"present","rt":"1522.6000000015","correct":false,"confidence":4},{"trial_n":34,"span":6,"encoder":"863232","distractor":"763232","target":"present","response":"present","rt":"2318","correct":true,"confidence":4},{"trial_n":35,"span":6,"encoder":"081367","distractor":"082367","target":"present","response":"present","rt":"1212.0999999978","correct":true,"confidence":3},{"trial_n":36,"span":7,"encoder":"9095818","distractor":"9090818","target":"absent","response":"absent","rt":"1680.8000000007","correct":true,"confidence":3},{"trial_n":37,"span":7,"encoder":"8620986","distractor":"8660986","target":"present","response":"present","rt":"2035.1000000015","correct":true,"confidence":4},{"trial_n":38,"span":8,"encoder":"77757351","distractor":"77757357","target":"present","response":"present","rt":"3256.3999999985","correct":true,"confidence":4},{"trial_n":39,"span":8,"encoder":"68651203","distractor":"60651203","target":"absent","response":"present","rt":"1418.5999999978","correct":false,"confidence":3},{"trial_n":40,"span":7,"encoder":"7670565","distractor":"7620565","target":"absent","response":"present","rt":"1615.1999999993","correct":false,"confidence":2},{"trial_n":41,"span":6,"encoder":"863126","distractor":"863106","target":"absent","response":"present","rt":"1212.799999997","correct":false,"confidence":3},{"trial_n":42,"span":5,"encoder":"43475","distractor":"43405","target":"absent","response":"absent","rt":"1651.5","correct":true,"confidence":5},{"trial_n":43,"span":5,"encoder":"70409","distractor":"76409","target":"present","response":"present","rt":"1278.3999999985","correct":true,"confidence":4},{"trial_n":44,"span":6,"encoder":"579244","distractor":"579444","target":"present","response":"present","rt":"1873.3000000007","correct":true,"confidence":3},{"trial_n":45,"span":6,"encoder":"450268","distractor":"450298","target":"present","response":"present","rt":"1162","correct":true,"confidence":4},{"trial_n":46,"span":7,"encoder":"2383733","distractor":"2383763","target":"present","response":"present","rt":"1707.6999999993","correct":true,"confidence":4},{"trial_n":47,"span":7,"encoder":"2199673","distractor":"2199623","target":"absent","response":"present","rt":"2924.3000000007","correct":false,"confidence":4},{"trial_n":48,"span":6,"encoder":"202376","distractor":"202876","target":"absent","response":"present","rt":"1276.9000000022","correct":false,"confidence":4},{"trial_n":49,"span":5,"encoder":"56192","distractor":"56492","target":"absent","response":"absent","rt":"1613.8000000007","correct":true,"confidence":3},{"trial_n":50,"span":5,"encoder":"64503","distractor":"64513","target":"absent","response":"absent","rt":"1624.5","correct":true,"confidence":3},{"trial_n":51,"span":6,"encoder":"515863","distractor":"515893","target":"absent","response":"absent","rt":"1743.700000003","correct":true,"confidence":2},{"trial_n":52,"span":6,"encoder":"391275","distractor":"391255","target":"absent","response":"present","rt":"1608.200000003","correct":false,"confidence":3},{"trial_n":53,"span":5,"encoder":"38379","distractor":"38879","target":"present","response":"present","rt":"1849.8999999985","correct":true,"confidence":5},{"trial_n":54,"span":5,"encoder":"87480","distractor":"37480","target":"present","response":"present","rt":"2425.5","correct":true,"confidence":5},{"trial_n":55,"span":6,"encoder":"049157","distractor":"049187","target":"absent","response":"absent","rt":"1810.9000000022","correct":true,"confidence":3},{"trial_n":56,"span":6,"encoder":"533030","distractor":"733030","target":"absent","response":"absent","rt":"1661.0999999978","correct":true,"confidence":3},{"trial_n":57,"span":7,"encoder":"8447941","distractor":"8442941","target":"absent","response":"present","rt":"2295.1000000015","correct":false,"confidence":4},{"trial_n":58,"span":6,"encoder":"656846","distractor":"556846","target":"present","response":"present","rt":"2612.5","correct":true,"confidence":4},{"trial_n":59,"span":6,"encoder":"163064","distractor":"173064","target":"absent","response":"absent","rt":"2194.700000003","correct":true,"confidence":5},{"trial_n":60,"span":7,"encoder":"0657069","distractor":"0657469","target":"absent","response":"absent","rt":"3485","correct":true,"confidence":3},{"trial_n":61,"span":7,"encoder":"9518357","distractor":"9578357","target":"absent","response":"absent","rt":"2805.6000000015","correct":true,"confidence":3},{"trial_n":62,"span":8,"encoder":"61308161","distractor":"61398161","target":"present","response":"present","rt":"1408.1000000015","correct":true,"confidence":3},{"trial_n":63,"span":8,"encoder":"59605169","distractor":"50605169","target":"present","response":"present","rt":"1349.5999999978","correct":true,"confidence":3},{"trial_n":64,"span":9,"encoder":"376641723","distractor":"376641523","target":"absent","response":"present","rt":"1277.5","correct":false,"confidence":2},{"trial_n":65,"span":8,"encoder":"87989334","distractor":"88989334","target":"absent","response":"present","rt":"1875.5","correct":false,"confidence":4},{"trial_n":66,"span":7,"encoder":"1013342","distractor":"1913342","target":"present","response":"present","rt":"1586.8999999985","correct":true,"confidence":4},{"trial_n":67,"span":7,"encoder":"7183896","distractor":"7188896","target":"absent","response":"present","rt":"1301.5","correct":false,"confidence":3},{"trial_n":68,"span":6,"encoder":"865936","distractor":"165936","target":"absent","response":"present","rt":"1199.5999999978","correct":false,"confidence":3},{"trial_n":69,"span":5,"encoder":"95178","distractor":"95578","target":"present","response":"present","rt":"1204.8000000007","correct":true,"confidence":4},{"trial_n":70,"span":5,"encoder":"40230","distractor":"44230","target":"present","response":"absent","rt":"2682.200000003","correct":false,"confidence":2},{"trial_n":71,"span":8,"encoder":"07757013","distractor":"07757113","target":"present","response":"present","rt":"3781.5999999978","correct":true,"confidence":-1},{"trial_n":72,"span":8,"encoder":"54158400","distractor":"64158400","target":"present","response":"present","rt":"2942.1000000015","correct":true,"confidence":-1},{"trial_n":73,"span":9,"encoder":"370958480","distractor":"350958480","target":"absent","response":"present","rt":"4374.6999999993","correct":false,"confidence":-1},{"trial_n":74,"span":8,"encoder":"48456657","distractor":"48456651","target":"absent","response":"absent","rt":"5291.6999999993","correct":true,"confidence":-1},{"trial_n":75,"span":8,"encoder":"34623724","distractor":"34653724","target":"present","response":"absent","rt":"3626.1999999993","correct":false,"confidence":-1},{"trial_n":76,"span":7,"encoder":"0183122","distractor":"9183122","target":"present","response":"present","rt":"1850.4000000022","correct":true,"confidence":-1},{"trial_n":77,"span":7,"encoder":"1483439","distractor":"1483499","target":"present","response":"present","rt":"5633.3000000007","correct":true,"confidence":-1},{"trial_n":78,"span":8,"encoder":"68645725","distractor":"68641725","target":"absent","response":"present","rt":"1882.5","correct":false,"confidence":-1},{"trial_n":79,"span":7,"encoder":"4659140","distractor":"4659180","target":"absent","response":"absent","rt":"745.79999999702","correct":true,"confidence":-1},{"trial_n":80,"span":7,"encoder":"6910716","distractor":"6910616","target":"absent","response":"absent","rt":"640.19999999925","correct":true,"confidence":-1},{"trial_n":81,"span":8,"encoder":"06827198","distractor":"06227198","target":"absent","response":"absent","rt":"426.80000000075","correct":true,"confidence":-1},{"trial_n":82,"span":8,"encoder":"12702805","distractor":"19702805","target":"present","response":"present","rt":"958.59999999776","correct":true,"confidence":-1},{"trial_n":83,"span":9,"encoder":"292334940","distractor":"282334940","target":"absent","response":"absent","rt":"1030.1000000015","correct":true,"confidence":-1},{"trial_n":84,"span":9,"encoder":"066226106","distractor":"069226106","target":"absent","response":"absent","rt":"603.20000000298","correct":true,"confidence":-1},{"trial_n":85,"span":10,"encoder":"5269125048","distractor":"5209125048","target":"present","response":"present","rt":"1300","correct":true,"confidence":-1},{"trial_n":86,"span":10,"encoder":"8162642198","distractor":"8162642098","target":"absent","response":"absent","rt":"6353","correct":true,"confidence":-1},{"trial_n":87,"span":11,"encoder":"76276448275","distractor":"76276443275","target":"absent","response":"present","rt":"1432.799999997","correct":false,"confidence":-1},{"trial_n":88,"span":10,"encoder":"1835945963","distractor":"1831945963","target":"absent","response":"present","rt":"11865.899999999","correct":false,"confidence":-1},{"trial_n":89,"span":9,"encoder":"123399165","distractor":"123399145","target":"absent","response":"absent","rt":"6037.5","correct":true,"confidence":-1},{"trial_n":90,"span":9,"encoder":"605964239","distractor":"605904239","target":"present","response":"present","rt":"9192.299999997","correct":true,"confidence":-1},{"trial_n":91,"span":10,"encoder":"4662731277","distractor":"4662771277","target":"absent","response":"present","rt":"2733.3000000007","correct":false,"confidence":2},{"trial_n":92,"span":9,"encoder":"895736362","distractor":"895736382","target":"absent","response":"present","rt":"10258.5","correct":false,"confidence":3},{"trial_n":93,"span":8,"encoder":"30261770","distractor":"80261770","target":"present","response":"present","rt":"3946.3000000007","correct":true,"confidence":3},{"trial_n":94,"span":8,"encoder":"20935581","distractor":"60935581","target":"absent","response":"present","rt":"73090.300000001","correct":false,"confidence":1},{"trial_n":95,"span":7,"encoder":"2021078","distractor":"2021978","target":"present","response":"present","rt":"2768.3999999985","correct":true,"confidence":3},{"trial_n":96,"span":7,"encoder":"8502227","distractor":"8502222","target":"absent","response":"absent","rt":"4452.5","correct":true,"confidence":3},{"trial_n":97,"span":8,"encoder":"68828162","distractor":"68828165","target":"absent","response":"absent","rt":"7295.6000000015","correct":true,"confidence":3},{"trial_n":98,"span":8,"encoder":"88367967","distractor":"88767967","target":"present","response":"present","rt":"2881.0999999978","correct":true,"confidence":3},{"trial_n":99,"span":9,"encoder":"723101522","distractor":"123101522","target":"present","response":"absent","rt":"3802.1999999993","correct":false,"confidence":3},{"trial_n":100,"span":8,"encoder":"86995984","distractor":"86995284","target":"present","response":"absent","rt":"6492.3000000007","correct":false,"confidence":3},{"trial_n":101,"span":7,"encoder":"2067680","distractor":"2067880","target":"absent","response":"present","rt":"3077.6000000015","correct":false,"confidence":3},{"trial_n":102,"span":6,"encoder":"763039","distractor":"763089","target":"present","response":"present","rt":"2903.4000000022","correct":true,"confidence":3},{"trial_n":103,"span":6,"encoder":"421551","distractor":"421501","target":"present","response":"absent","rt":"4993.5999999978","correct":false,"confidence":2},{"trial_n":104,"span":5,"encoder":"78709","distractor":"78759","target":"absent","response":"absent","rt":"3366.3000000007","correct":true,"confidence":4},{"trial_n":105,"span":5,"encoder":"56074","distractor":"55074","target":"absent","response":"absent","rt":"3605.5","correct":true,"confidence":4},{"trial_n":106,"span":6,"encoder":"801632","distractor":"801682","target":"absent","response":"absent","rt":"4314.1999999993","correct":true,"confidence":3},{"trial_n":107,"span":6,"encoder":"393688","distractor":"393687","target":"present","response":"present","rt":"3210.6999999993","correct":true,"confidence":3},{"trial_n":108,"span":7,"encoder":"1993694","distractor":"8993694","target":"present","response":"present","rt":"1838","correct":true,"confidence":4},{"trial_n":109,"span":7,"encoder":"9018586","distractor":"9018584","target":"absent","response":"absent","rt":"2074.3999999985","correct":true,"confidence":3},{"trial_n":110,"span":8,"encoder":"58325038","distractor":"58325028","target":"present","response":"present","rt":"2478","correct":true,"confidence":4},{"trial_n":111,"span":8,"encoder":"42473247","distractor":"41473247","target":"absent","response":"present","rt":"11075.399999999","correct":false,"confidence":3},{"trial_n":112,"span":7,"encoder":"6834799","distractor":"6824799","target":"present","response":"present","rt":"2206.3999999985","correct":true,"confidence":3},{"trial_n":113,"span":7,"encoder":"1472166","distractor":"1462166","target":"absent","response":"absent","rt":"1550.1999999993","correct":true,"confidence":4},{"trial_n":114,"span":8,"encoder":"86376963","distractor":"86676963","target":"present","response":"present","rt":"3876.1999999993","correct":true,"confidence":2},{"trial_n":115,"span":8,"encoder":"44846367","distractor":"44446367","target":"absent","response":"absent","rt":"2589.0999999978","correct":true,"confidence":3},{"trial_n":116,"span":9,"encoder":"764268789","distractor":"764268289","target":"absent","response":"absent","rt":"3132.5999999978","correct":true,"confidence":3},{"trial_n":117,"span":9,"encoder":"102787459","distractor":"102787959","target":"present","response":"absent","rt":"5706.5999999978","correct":false,"confidence":2},{"trial_n":118,"span":8,"encoder":"57101543","distractor":"57101743","target":"present","response":"present","rt":"1123.6999999993","correct":true,"confidence":3},{"trial_n":119,"span":8,"encoder":"54529118","distractor":"54599118","target":"absent","response":"absent","rt":"1768.1000000015","correct":true,"confidence":3},{"trial_n":120,"span":9,"encoder":"424943106","distractor":"424943104","target":"present","response":"present","rt":"1436.8000000007","correct":true,"confidence":4},{"trial_n":121,"span":9,"encoder":"391272499","distractor":"391275499","target":"present","response":"present","rt":"2218.8999999985","correct":true,"confidence":2},{"trial_n":122,"span":10,"encoder":"6333008481","distractor":"6333008491","target":"present","response":"present","rt":"2837.1999999993","correct":true,"confidence":2},{"trial_n":123,"span":10,"encoder":"1166092486","distractor":"1146092486","target":"absent","response":"absent","rt":"3010.8000000007","correct":true,"confidence":3},{"trial_n":124,"span":11,"encoder":"65619545182","distractor":"65519545182","target":"present","response":"present","rt":"4754.700000003","correct":true,"confidence":3},{"trial_n":125,"span":11,"encoder":"77944984212","distractor":"77944384212","target":"absent","response":"absent","rt":"5559.1000000015","correct":true,"confidence":2},{"trial_n":126,"span":12,"encoder":"978910692862","distractor":"978930692862","target":"absent","response":"absent","rt":"46468.300000001","correct":true,"confidence":2},{"trial_n":127,"span":12,"encoder":"789240986018","distractor":"789240986218","target":"present","response":"present","rt":"2222.5","correct":true,"confidence":3},{"trial_n":128,"span":13,"encoder":"6150705475027","distractor":"6150715475027","target":"absent","response":"absent","rt":"7341.1999999993","correct":true,"confidence":3},{"trial_n":129,"span":13,"encoder":"1732405401944","distractor":"1932405401944","target":"absent","response":"present","rt":"6391.3999999985","correct":false,"confidence":2},{"trial_n":130,"span":12,"encoder":"476593300996","distractor":"476593300997","target":"present","response":"present","rt":"1824.1000000015","correct":true,"confidence":4},{"trial_n":131,"span":12,"encoder":"819808484700","distractor":"819808484300","target":"present","response":"absent","rt":"5601.1999999993","correct":false,"confidence":3},{"trial_n":132,"span":11,"encoder":"88656621739","distractor":"88656628739","target":"absent","response":"absent","rt":"5981.1999999993","correct":true,"confidence":4},{"trial_n":133,"span":11,"encoder":"58742302164","distractor":"58742322164","target":"present","response":"present","rt":"2240.1000000015","correct":true,"confidence":4},{"trial_n":134,"span":12,"encoder":"186304405263","distractor":"186304505263","target":"present","response":"absent","rt":"5559.3000000007","correct":false,"confidence":2},{"trial_n":135,"span":11,"encoder":"35505403446","distractor":"35575403446","target":"present","response":"present","rt":"3172.9000000022","correct":true,"confidence":3},{"trial_n":136,"span":11,"encoder":"02895877194","distractor":"02895874194","target":"present","response":"present","rt":"6783.700000003","correct":true,"confidence":3},{"trial_n":137,"span":12,"encoder":"447140081027","distractor":"447140781027","target":"present","response":"absent","rt":"2940.5999999978","correct":false,"confidence":3},{"trial_n":138,"span":11,"encoder":"99336421560","distractor":"99336421569","target":"present","response":"present","rt":"5256.6999999993","correct":true,"confidence":3},{"trial_n":139,"span":11,"encoder":"01206558123","distractor":"01206556123","target":"present","response":"present","rt":"6204.4000000022","correct":true,"confidence":4},{"trial_n":140,"span":12,"encoder":"605332068016","distractor":"605332067016","target":"absent","response":"absent","rt":"2204.0999999978","correct":true,"confidence":4}]