[{"trial_n":1,"span":8,"encoder":"59479718","distractor":"57479718","target":"present","response":"present","rt":"5128.5999999046","correct":true,"confidence":-1},{"trial_n":2,"span":8,"encoder":"81076493","distractor":"81086493","target":"present","response":"present","rt":"3977.8999998569","correct":true,"confidence":-1},{"trial_n":3,"span":10,"encoder":"0489465749","distractor":"0489465049","target":"absent","response":"absent","rt":"5997.0999999046","correct":true,"confidence":-1},{"trial_n":4,"span":10,"encoder":"5852284942","distractor":"5852884942","target":"absent","response":"absent","rt":"3321.7999999523","correct":true,"confidence":-1},{"trial_n":5,"span":12,"encoder":"706248457867","distractor":"706248557867","target":"present","response":"present","rt":"4789.2000000477","correct":true,"confidence":-1},{"trial_n":6,"span":12,"encoder":"382768705601","distractor":"382763705601","target":"present","response":"present","rt":"2564.0999999046","correct":true,"confidence":-1},{"trial_n":7,"span":14,"encoder":"77239234759832","distractor":"77239244759832","target":"absent","response":"absent","rt":"5330.7000000477","correct":true,"confidence":-1},{"trial_n":8,"span":14,"encoder":"81016190040818","distractor":"81016190240818","target":"absent","response":"absent","rt":"4099.3999998569","correct":true,"confidence":-1},{"trial_n":9,"span":16,"encoder":"7265206100855741","distractor":"7265206100855748","target":"absent","response":"absent","rt":"4678","correct":true,"confidence":-1},{"trial_n":10,"span":16,"encoder":"6013245607694107","distractor":"6013245687694107","target":"absent","response":"absent","rt":"6229.7000000477","correct":true,"confidence":-1},{"trial_n":11,"span":18,"encoder":"943852541031292053","distractor":"943852641031292053","target":"absent","response":"present","rt":"2614.2999999523","correct":false,"confidence":-1},{"trial_n":12,"span":17,"encoder":"07741696452835641","distractor":"07743696452835641","target":"absent","response":"present","rt":"3194.2999999523","correct":false,"confidence":-1},{"trial_n":13,"span":16,"encoder":"3434767056800411","distractor":"3434767056800511","target":"absent","response":"absent","rt":"3182.8999998569","correct":true,"confidence":-1},{"trial_n":14,"span":16,"encoder":"0123694500637559","distractor":"0123644500637559","target":"present","response":"absent","rt":"3571","correct":false,"confidence":-1},{"trial_n":15,"span":15,"encoder":"364928311929393","distractor":"364528311929393","target":"absent","response":"present","rt":"3492.7000000477","correct":false,"confidence":-1},{"trial_n":16,"span":14,"encoder":"95655665027142","distractor":"95655665027442","target":"absent","response":"absent","rt":"4126.4000000954","correct":true,"confidence":-1},{"trial_n":17,"span":14,"encoder":"51445723296566","distractor":"51445723296526","target":"present","response":"present","rt":"2807.2999999523","correct":true,"confidence":-1},{"trial_n":18,"span":15,"encoder":"815919496469580","distractor":"815919493469580","target":"absent","response":"present","rt":"4845.5","correct":false,"confidence":-1},{"trial_n":19,"span":14,"encoder":"47327530244196","distractor":"47427530244196","target":"present","response":"absent","rt":"6582.8999998569","correct":false,"confidence":-1},{"trial_n":20,"span":13,"encoder":"1493695218912","distractor":"1493695218312","target":"absent","response":"absent","rt":"4709.0999999046","correct":true,"confidence":-1},{"trial_n":21,"span":13,"encoder":"4735911344275","distractor":"4735971344275","target":"absent","response":"present","rt":"5981.3000001907","correct":false,"confidence":2},{"trial_n":22,"span":12,"encoder":"045271279743","distractor":"045201279743","target":"absent","response":"present","rt":"3616.8999998569","correct":false,"confidence":1},{"trial_n":23,"span":11,"encoder":"82914357970","distractor":"82314357970","target":"present","response":"present","rt":"3575.5","correct":true,"confidence":2},{"trial_n":24,"span":11,"encoder":"07022851796","distractor":"07022850796","target":"present","response":"present","rt":"3529.2000000477","correct":true,"confidence":1},{"trial_n":25,"span":12,"encoder":"408390701112","distractor":"408390501112","target":"present","response":"present","rt":"3713.2000000477","correct":true,"confidence":1},{"trial_n":26,"span":12,"encoder":"705669336500","distractor":"705666336500","target":"present","response":"present","rt":"3897.1000001431","correct":true,"confidence":2},{"trial_n":27,"span":13,"encoder":"5695578269754","distractor":"5685578269754","target":"present","response":"present","rt":"2796.7999999523","correct":true,"confidence":1},{"trial_n":28,"span":13,"encoder":"8029063903106","distractor":"8029063900106","target":"absent","response":"present","rt":"2583.7999999523","correct":false,"confidence":1},{"trial_n":29,"span":12,"encoder":"078838900524","distractor":"078838900521","target":"present","response":"present","rt":"3477.5","correct":true,"confidence":1},{"trial_n":30,"span":12,"encoder":"385898893671","distractor":"385898893871","target":"absent","response":"absent","rt":"4560.4000000954","correct":true,"confidence":2},{"trial_n":31,"span":13,"encoder":"6428892128563","distractor":"6428802128563","target":"present","response":"absent","rt":"3594","correct":false,"confidence":1},{"trial_n":32,"span":12,"encoder":"806720932714","distractor":"806720932710","target":"present","response":"present","rt":"5259","correct":true,"confidence":1},{"trial_n":33,"span":12,"encoder":"965528546567","distractor":"945528546567","target":"present","response":"present","rt":"6710.8999998569","correct":true,"confidence":1},{"trial_n":34,"span":13,"encoder":"0519304550088","distractor":"0519304550068","target":"absent","response":"present","rt":"3743","correct":false,"confidence":2},{"trial_n":35,"span":12,"encoder":"196616307893","distractor":"196666307893","target":"present","response":"present","rt":"3879.4000000954","correct":true,"confidence":1},{"trial_n":36,"span":12,"encoder":"365642829657","distractor":"365242829657","target":"present","response":"present","rt":"6695.0999999046","correct":true,"confidence":2},{"trial_n":37,"span":13,"encoder":"6175523000526","distractor":"6175583000526","target":"absent","response":"absent","rt":"6464.8999998569","correct":true,"confidence":2},{"trial_n":38,"span":13,"encoder":"0488641755193","distractor":"0488641155193","target":"absent","response":"absent","rt":"4437.9000000954","correct":true,"confidence":1},{"trial_n":39,"span":14,"encoder":"74774755531939","distractor":"74774755531439","target":"present","response":"present","rt":"5120.0999999046","correct":true,"confidence":1},{"trial_n":40,"span":14,"encoder":"12641389323022","distractor":"12641359323022","target":"present","response":"present","rt":"2576.9000000954","correct":true,"confidence":1},{"trial_n":41,"span":15,"encoder":"023874764411988","distractor":"023874765411988","target":"present","response":"absent","rt":"6774.9000000954","correct":false,"confidence":2},{"trial_n":42,"span":14,"encoder":"72171301822053","distractor":"72171301821053","target":"absent","response":"absent","rt":"3027","correct":true,"confidence":3},{"trial_n":43,"span":14,"encoder":"01400784892419","distractor":"01400774892419","target":"present","response":"present","rt":"4173.2000000477","correct":true,"confidence":2},{"trial_n":44,"span":15,"encoder":"302896374382335","distractor":"302896374582335","target":"present","response":"present","rt":"6445.7999999523","correct":true,"confidence":1},{"trial_n":45,"span":15,"encoder":"772851506151613","distractor":"772851507151613","target":"absent","response":"absent","rt":"4192.5999999046","correct":true,"confidence":1},{"trial_n":46,"span":16,"encoder":"1976343722300268","distractor":"1976343722300265","target":"present","response":"present","rt":"2929.6000001431","correct":true,"confidence":1},{"trial_n":47,"span":16,"encoder":"2050982678831684","distractor":"2020982678831684","target":"absent","response":"present","rt":"5932.2000000477","correct":false,"confidence":2},{"trial_n":48,"span":15,"encoder":"943615730493656","distractor":"943615730492656","target":"present","response":"absent","rt":"4597.2000000477","correct":false,"confidence":1},{"trial_n":49,"span":14,"encoder":"52920963847703","distractor":"52120963847703","target":"present","response":"present","rt":"3406.4000000954","correct":true,"confidence":1},{"trial_n":50,"span":14,"encoder":"19236894911755","distractor":"19236894915755","target":"present","response":"present","rt":"4362.2000000477","correct":true,"confidence":2},{"trial_n":51,"span":15,"encoder":"407230221121465","distractor":"407230221121445","target":"absent","response":"absent","rt":"4231.5","correct":true,"confidence":3},{"trial_n":52,"span":15,"encoder":"796494155815174","distractor":"796494185815174","target":"present","response":"present","rt":"4620.9000000954","correct":true,"confidence":1},{"trial_n":53,"span":16,"encoder":"3762672471476937","distractor":"3662672471476937","target":"absent","response":"absent","rt":"13363.100000143","correct":true,"confidence":1},{"trial_n":54,"span":16,"encoder":"7230979372082584","distractor":"7230979372081584","target":"absent","response":"absent","rt":"6955","correct":true,"confidence":2},{"trial_n":55,"span":17,"encoder":"40980824748983946","distractor":"40980324748983946","target":"absent","response":"present","rt":"6169.6000001431","correct":false,"confidence":1},{"trial_n":56,"span":16,"encoder":"5314821722295949","distractor":"5314861722295949","target":"absent","response":"present","rt":"4592.6000001431","correct":false,"confidence":1},{"trial_n":57,"span":15,"encoder":"972057052900679","distractor":"972057052400679","target":"absent","response":"present","rt":"2741.8999998569","correct":false,"confidence":1},{"trial_n":58,"span":14,"encoder":"47318735595158","distractor":"40318735595158","target":"present","response":"present","rt":"3291.2000000477","correct":true,"confidence":1},{"trial_n":59,"span":14,"encoder":"32390264734158","distractor":"32390264734168","target":"absent","response":"absent","rt":"3874.2000000477","correct":true,"confidence":2},{"trial_n":60,"span":15,"encoder":"599512679915526","distractor":"599512679910526","target":"present","response":"present","rt":"3032.3999998569","correct":true,"confidence":1},{"trial_n":61,"span":15,"encoder":"086710317186340","distractor":"086710317186840","target":"absent","response":"present","rt":"4847","correct":false,"confidence":1},{"trial_n":62,"span":14,"encoder":"99708225719731","distractor":"99708225719231","target":"absent","response":"absent","rt":"3801.5999999046","correct":true,"confidence":2},{"trial_n":63,"span":14,"encoder":"58680515302090","distractor":"58681515302090","target":"present","response":"present","rt":"2790.5","correct":true,"confidence":1},{"trial_n":64,"span":15,"encoder":"741001873789452","distractor":"241001873789452","target":"present","response":"present","rt":"5287.2999999523","correct":true,"confidence":1},{"trial_n":65,"span":15,"encoder":"610561928676832","distractor":"910561928676832","target":"present","response":"present","rt":"4262.1000001431","correct":true,"confidence":1},{"trial_n":66,"span":16,"encoder":"4892061343681061","distractor":"4892061343681071","target":"absent","response":"present","rt":"3704.5","correct":false,"confidence":1},{"trial_n":67,"span":15,"encoder":"343669714963976","distractor":"343669714663976","target":"present","response":"present","rt":"4877.7999999523","correct":true,"confidence":2},{"trial_n":68,"span":15,"encoder":"486740355777830","distractor":"406740355777830","target":"present","response":"present","rt":"10119","correct":true,"confidence":2},{"trial_n":69,"span":16,"encoder":"6160809434064223","distractor":"6160809434064213","target":"absent","response":"absent","rt":"4270.5","correct":true,"confidence":4},{"trial_n":70,"span":16,"encoder":"7159104324438638","distractor":"7156104324438638","target":"present","response":"present","rt":"5780.2999999523","correct":true,"confidence":2},{"trial_n":71,"span":8,"encoder":"73578988","distractor":"73578928","target":"present","response":"present","rt":"5361.7000000477","correct":true,"confidence":-1},{"trial_n":72,"span":8,"encoder":"39428296","distractor":"39428276","target":"present","response":"present","rt":"2405","correct":true,"confidence":-1},{"trial_n":73,"span":9,"encoder":"860578493","distractor":"860578497","target":"absent","response":"absent","rt":"2124.8999998569","correct":true,"confidence":-1},{"trial_n":74,"span":9,"encoder":"119475422","distractor":"119475442","target":"absent","response":"absent","rt":"2660.7999999523","correct":true,"confidence":-1},{"trial_n":75,"span":10,"encoder":"9310658266","distractor":"9380658266","target":"present","response":"absent","rt":"10108.5","correct":false,"confidence":-1},{"trial_n":76,"span":9,"encoder":"435823177","distractor":"425823177","target":"present","response":"present","rt":"5721.4000000954","correct":true,"confidence":-1},{"trial_n":77,"span":9,"encoder":"751722853","distractor":"751722843","target":"present","response":"absent","rt":"3705.2000000477","correct":false,"confidence":-1},{"trial_n":78,"span":8,"encoder":"42878025","distractor":"42578025","target":"present","response":"present","rt":"5130.6000001431","correct":true,"confidence":-1},{"trial_n":79,"span":8,"encoder":"37449765","distractor":"37449764","target":"absent","response":"present","rt":"5140.6000001431","correct":false,"confidence":-1},{"trial_n":80,"span":7,"encoder":"1325680","distractor":"1325689","target":"absent","response":"absent","rt":"6024.2999999523","correct":true,"confidence":-1},{"trial_n":81,"span":7,"encoder":"9395690","distractor":"9395290","target":"present","response":"present","rt":"7753.3999998569","correct":true,"confidence":-1},{"trial_n":82,"span":8,"encoder":"22406338","distractor":"22400338","target":"absent","response":"absent","rt":"7082.9000000954","correct":true,"confidence":-1},{"trial_n":83,"span":8,"encoder":"35959401","distractor":"35859401","target":"absent","response":"absent","rt":"3724.5","correct":true,"confidence":-1},{"trial_n":84,"span":9,"encoder":"300936210","distractor":"300934210","target":"absent","response":"absent","rt":"2995.6999998093","correct":true,"confidence":-1},{"trial_n":85,"span":9,"encoder":"531543832","distractor":"531563832","target":"absent","response":"absent","rt":"12614.899999857","correct":true,"confidence":-1},{"trial_n":86,"span":10,"encoder":"5659940176","distractor":"5559940176","target":"present","response":"present","rt":"5301.1000001431","correct":true,"confidence":-1},{"trial_n":87,"span":10,"encoder":"9193331856","distractor":"9193331056","target":"present","response":"absent","rt":"6319.7999999523","correct":false,"confidence":-1},{"trial_n":88,"span":9,"encoder":"326335189","distractor":"026335189","target":"present","response":"present","rt":"5390.7999999523","correct":true,"confidence":-1},{"trial_n":89,"span":9,"encoder":"371974231","distractor":"351974231","target":"present","response":"absent","rt":"5320.7999999523","correct":false,"confidence":-1},{"trial_n":90,"span":8,"encoder":"78965041","distractor":"78965741","target":"absent","response":"absent","rt":"1829.0999999046","correct":true,"confidence":-1},{"trial_n":91,"span":8,"encoder":"06602118","distractor":"06602198","target":"present","response":"present","rt":"3876.2999999523","correct":true,"confidence":3},{"trial_n":92,"span":9,"encoder":"955129331","distractor":"955929331","target":"present","response":"present","rt":"3775.3999998569","correct":true,"confidence":3},{"trial_n":93,"span":9,"encoder":"656425210","distractor":"656425230","target":"absent","response":"absent","rt":"8802.2999999523","correct":true,"confidence":2},{"trial_n":94,"span":10,"encoder":"1080116495","distractor":"1080116425","target":"absent","response":"absent","rt":"6640.4000000954","correct":true,"confidence":2},{"trial_n":95,"span":10,"encoder":"5908676903","distractor":"5408676903","target":"present","response":"present","rt":"4126.4000000954","correct":true,"confidence":3},{"trial_n":96,"span":11,"encoder":"87193997607","distractor":"85193997607","target":"absent","response":"present","rt":"5602.0999999046","correct":false,"confidence":2},{"trial_n":97,"span":10,"encoder":"0640344112","distractor":"0640844112","target":"present","response":"present","rt":"8192","correct":true,"confidence":2},{"trial_n":98,"span":10,"encoder":"1031308091","distractor":"1030308091","target":"absent","response":"absent","rt":"5797.5","correct":true,"confidence":2},{"trial_n":99,"span":11,"encoder":"55688429644","distractor":"55688429344","target":"absent","response":"absent","rt":"12959.799999952","correct":true,"confidence":2},{"trial_n":100,"span":11,"encoder":"71971221715","distractor":"71971221717","target":"present","response":"present","rt":"6088.2999999523","correct":true,"confidence":2},{"trial_n":101,"span":12,"encoder":"242106128671","distractor":"242106123671","target":"absent","response":"absent","rt":"4414.5","correct":true,"confidence":4},{"trial_n":102,"span":12,"encoder":"099690913797","distractor":"094690913797","target":"present","response":"absent","rt":"10553.200000048","correct":false,"confidence":2},{"trial_n":103,"span":11,"encoder":"86688675940","distractor":"86188675940","target":"present","response":"absent","rt":"7937.5","correct":false,"confidence":2},{"trial_n":104,"span":10,"encoder":"0393429105","distractor":"0393129105","target":"present","response":"present","rt":"2908.1000001431","correct":true,"confidence":5},{"trial_n":105,"span":10,"encoder":"1377105976","distractor":"1377105076","target":"absent","response":"absent","rt":"4863.5999999046","correct":true,"confidence":4},{"trial_n":106,"span":11,"encoder":"56545884452","distractor":"54545884452","target":"present","response":"present","rt":"3879.7000000477","correct":true,"confidence":5},{"trial_n":107,"span":11,"encoder":"31432935960","distractor":"31432935990","target":"present","response":"present","rt":"4798.4000000954","correct":true,"confidence":4},{"trial_n":108,"span":12,"encoder":"686242321045","distractor":"686282321045","target":"present","response":"present","rt":"17215.5","correct":true,"confidence":2},{"trial_n":109,"span":12,"encoder":"807145467457","distractor":"807148467457","target":"present","response":"present","rt":"8500","correct":true,"confidence":1},{"trial_n":110,"span":13,"encoder":"0814416453664","distractor":"0814416453264","target":"absent","response":"absent","rt":"3517.5","correct":true,"confidence":5},{"trial_n":111,"span":13,"encoder":"3571851055723","distractor":"3571851055729","target":"absent","response":"absent","rt":"3284.2000000477","correct":true,"confidence":5},{"trial_n":112,"span":14,"encoder":"37269115261224","distractor":"37269195261224","target":"absent","response":"absent","rt":"12636.399999857","correct":true,"confidence":1},{"trial_n":113,"span":14,"encoder":"41498809606953","distractor":"41428809606953","target":"absent","response":"absent","rt":"7609.3000001907","correct":true,"confidence":1},{"trial_n":114,"span":15,"encoder":"685118551953215","distractor":"685118551983215","target":"absent","response":"present","rt":"13573.099999905","correct":false,"confidence":2},{"trial_n":115,"span":14,"encoder":"32495272545210","distractor":"32495272505210","target":"absent","response":"absent","rt":"11625.199999809","correct":true,"confidence":2},{"trial_n":116,"span":14,"encoder":"37544678685362","distractor":"37541678685362","target":"present","response":"absent","rt":"4954.6000001431","correct":false,"confidence":2},{"trial_n":117,"span":13,"encoder":"8400549021435","distractor":"8400549021430","target":"present","response":"present","rt":"4855.2999999523","correct":true,"confidence":4},{"trial_n":118,"span":13,"encoder":"4928295685095","distractor":"4978295685095","target":"present","response":"absent","rt":"13551.800000191","correct":false,"confidence":1},{"trial_n":119,"span":12,"encoder":"511567553358","distractor":"511567593358","target":"present","response":"present","rt":"12899.799999952","correct":true,"confidence":2},{"trial_n":120,"span":12,"encoder":"980039954712","distractor":"920039954712","target":"absent","response":"absent","rt":"8236.2000000477","correct":true,"confidence":3},{"trial_n":121,"span":13,"encoder":"8773087819308","distractor":"8773081819308","target":"absent","response":"absent","rt":"6794.8999998569","correct":true,"confidence":3},{"trial_n":122,"span":13,"encoder":"5835544076431","distractor":"5835514076431","target":"present","response":"present","rt":"3333.7999999523","correct":true,"confidence":4},{"trial_n":123,"span":14,"encoder":"05745154363517","distractor":"05742154363517","target":"absent","response":"absent","rt":"10682","correct":true,"confidence":2},{"trial_n":124,"span":14,"encoder":"61765989994698","distractor":"61765989974698","target":"absent","response":"absent","rt":"16493.100000143","correct":true,"confidence":2},{"trial_n":125,"span":15,"encoder":"895223418182449","distractor":"895223418183449","target":"present","response":"present","rt":"4579.6999998093","correct":true,"confidence":2},{"trial_n":126,"span":15,"encoder":"380903777307796","distractor":"380901777307796","target":"absent","response":"present","rt":"14451.400000095","correct":false,"confidence":1},{"trial_n":127,"span":14,"encoder":"27332903338443","distractor":"27322903338443","target":"absent","response":"present","rt":"10831.799999952","correct":false,"confidence":1},{"trial_n":128,"span":13,"encoder":"0751116067817","distractor":"0751126067817","target":"present","response":"present","rt":"3223.9000000954","correct":true,"confidence":3},{"trial_n":129,"span":13,"encoder":"3083726889906","distractor":"5083726889906","target":"absent","response":"absent","rt":"5004.5","correct":true,"confidence":3},{"trial_n":130,"span":14,"encoder":"14448771310458","distractor":"14448771370458","target":"present","response":"absent","rt":"9356.0999999046","correct":false,"confidence":4},{"trial_n":131,"span":13,"encoder":"7779349608006","distractor":"7779349608606","target":"absent","response":"absent","rt":"3677.7999999523","correct":true,"confidence":4},{"trial_n":132,"span":13,"encoder":"9515179987710","distractor":"9015179987710","target":"absent","response":"absent","rt":"5253.7000000477","correct":true,"confidence":2},{"trial_n":133,"span":14,"encoder":"64150151522199","distractor":"64150151522169","target":"absent","response":"absent","rt":"4075.7999999523","correct":true,"confidence":2},{"trial_n":134,"span":14,"encoder":"27882128764817","distractor":"27882128164817","target":"absent","response":"absent","rt":"10627","correct":true,"confidence":1},{"trial_n":135,"span":15,"encoder":"882346568634109","distractor":"882346568634107","target":"present","response":"present","rt":"16677.800000191","correct":true,"confidence":2},{"trial_n":136,"span":15,"encoder":"164644405663793","distractor":"164640405663793","target":"present","response":"present","rt":"5045.7999999523","correct":true,"confidence":3},{"trial_n":137,"span":16,"encoder":"0714933260055882","distractor":"0414933260055882","target":"absent","response":"absent","rt":"7934.5999999046","correct":true,"confidence":1},{"trial_n":138,"span":16,"encoder":"5926454586519695","distractor":"5926454586513695","target":"present","response":"present","rt":"14146.5","correct":true,"confidence":1},{"trial_n":139,"span":17,"encoder":"34438894939450682","distractor":"34438894939400682","target":"present","response":"present","rt":"9561.4000000954","correct":true,"confidence":2},{"trial_n":140,"span":17,"encoder":"86756359194162675","distractor":"86756359194162075","target":"present","response":"present","rt":"5507.5","correct":true,"confidence":2}]