[{"trial_n":1,"min":25,"max":230,"target":"present","response":"present","rt":12988.800000072,"correct":true,"confidence":-1},{"trial_n":2,"min":25,"max":230,"target":"present","response":"present","rt":785.5,"correct":true,"confidence":-1},{"trial_n":3,"min":41,"max":214,"target":"absent","response":"absent","rt":634.5,"correct":true,"confidence":-1},{"trial_n":4,"min":41,"max":214,"target":"absent","response":"absent","rt":329.79999995232,"correct":true,"confidence":-1},{"trial_n":5,"min":57,"max":198,"target":"present","response":"present","rt":313.80000007153,"correct":true,"confidence":-1},{"trial_n":6,"min":57,"max":198,"target":"present","response":"present","rt":269.79999995232,"correct":true,"confidence":-1},{"trial_n":7,"min":73,"max":182,"target":"present","response":"present","rt":275.19999992847,"correct":true,"confidence":-1},{"trial_n":8,"min":73,"max":182,"target":"absent","response":"absent","rt":290.39999997616,"correct":true,"confidence":-1},{"trial_n":9,"min":89,"max":166,"target":"present","response":"absent","rt":328.80000007153,"correct":false,"confidence":-1},{"trial_n":10,"min":73,"max":182,"target":"present","response":"present","rt":357.79999995232,"correct":true,"confidence":-1},{"trial_n":11,"min":73,"max":182,"target":"present","response":"present","rt":316.79999995232,"correct":true,"confidence":-1},{"trial_n":12,"min":81,"max":174,"target":"absent","response":"absent","rt":221,"correct":true,"confidence":-1},{"trial_n":13,"min":81,"max":174,"target":"present","response":"present","rt":407.80000007153,"correct":true,"confidence":-1},{"trial_n":14,"min":89,"max":166,"target":"present","response":"present","rt":778.70000004768,"correct":true,"confidence":-1},{"trial_n":15,"min":89,"max":166,"target":"present","response":"absent","rt":611.39999997616,"correct":false,"confidence":-1},{"trial_n":16,"min":81,"max":174,"target":"present","response":"present","rt":472,"correct":true,"confidence":-1},{"trial_n":17,"min":81,"max":174,"target":"present","response":"present","rt":371.10000002384,"correct":true,"confidence":-1},{"trial_n":18,"min":89,"max":166,"target":"absent","response":"absent","rt":335.10000002384,"correct":true,"confidence":-1},{"trial_n":19,"min":89,"max":166,"target":"absent","response":"absent","rt":181.39999997616,"correct":true,"confidence":-1},{"trial_n":20,"min":97,"max":158,"target":"absent","response":"absent","rt":210.5,"correct":true,"confidence":-1},{"trial_n":21,"min":97,"max":158,"target":"absent","response":"absent","rt":523.19999992847,"correct":true,"confidence":4},{"trial_n":22,"min":101,"max":154,"target":"absent","response":"absent","rt":516.29999995232,"correct":true,"confidence":4},{"trial_n":23,"min":101,"max":154,"target":"absent","response":"present","rt":560.79999995232,"correct":false,"confidence":4},{"trial_n":24,"min":97,"max":158,"target":"absent","response":"absent","rt":328.70000004768,"correct":true,"confidence":5},{"trial_n":25,"min":97,"max":158,"target":"present","response":"absent","rt":269.5,"correct":false,"confidence":4},{"trial_n":26,"min":93,"max":162,"target":"absent","response":"absent","rt":341.5,"correct":true,"confidence":4},{"trial_n":27,"min":93,"max":162,"target":"present","response":"absent","rt":266.79999995232,"correct":false,"confidence":4},{"trial_n":28,"min":89,"max":166,"target":"present","response":"present","rt":732.39999997616,"correct":true,"confidence":3},{"trial_n":29,"min":89,"max":166,"target":"absent","response":"absent","rt":826.5,"correct":true,"confidence":3},{"trial_n":30,"min":93,"max":162,"target":"present","response":"absent","rt":292.29999995232,"correct":false,"confidence":5},{"trial_n":31,"min":91,"max":164,"target":"absent","response":"present","rt":1429.8000000715,"correct":false,"confidence":3},{"trial_n":32,"min":89,"max":166,"target":"present","response":"absent","rt":362,"correct":false,"confidence":3},{"trial_n":33,"min":87,"max":168,"target":"present","response":"present","rt":431.70000004768,"correct":true,"confidence":4},{"trial_n":34,"min":87,"max":168,"target":"absent","response":"absent","rt":334,"correct":true,"confidence":4},{"trial_n":35,"min":89,"max":166,"target":"present","response":"present","rt":520.60000002384,"correct":true,"confidence":4},{"trial_n":36,"min":89,"max":166,"target":"present","response":"present","rt":503.80000007153,"correct":true,"confidence":4},{"trial_n":37,"min":91,"max":164,"target":"absent","response":"absent","rt":403.10000002384,"correct":true,"confidence":4},{"trial_n":38,"min":91,"max":164,"target":"absent","response":"absent","rt":727.60000002384,"correct":true,"confidence":4},{"trial_n":39,"min":93,"max":162,"target":"absent","response":"absent","rt":649.10000002384,"correct":true,"confidence":2},{"trial_n":40,"min":93,"max":162,"target":"absent","response":"absent","rt":352.30000007153,"correct":true,"confidence":4},{"trial_n":41,"min":94,"max":161,"target":"present","response":"present","rt":544.10000002384,"correct":true,"confidence":5},{"trial_n":42,"min":94,"max":161,"target":"absent","response":"absent","rt":517.10000002384,"correct":true,"confidence":3},{"trial_n":43,"min":95,"max":160,"target":"absent","response":"absent","rt":421.60000002384,"correct":true,"confidence":4},{"trial_n":44,"min":95,"max":160,"target":"present","response":"present","rt":845.19999992847,"correct":true,"confidence":2},{"trial_n":45,"min":96,"max":159,"target":"absent","response":"absent","rt":941.80000007153,"correct":true,"confidence":4},{"trial_n":46,"min":96,"max":159,"target":"absent","response":"absent","rt":728.5,"correct":true,"confidence":3},{"trial_n":47,"min":97,"max":158,"target":"absent","response":"absent","rt":339.5,"correct":true,"confidence":4},{"trial_n":48,"min":97,"max":158,"target":"absent","response":"absent","rt":474.29999995232,"correct":true,"confidence":4},{"trial_n":49,"min":98,"max":157,"target":"absent","response":"absent","rt":656.29999995232,"correct":true,"confidence":4},{"trial_n":50,"min":98,"max":157,"target":"present","response":"present","rt":427.5,"correct":true,"confidence":4},{"trial_n":51,"min":99,"max":156,"target":"absent","response":"absent","rt":578.89999997616,"correct":true,"confidence":4},{"trial_n":52,"min":99,"max":156,"target":"present","response":"absent","rt":255.89999997616,"correct":false,"confidence":3},{"trial_n":53,"min":98,"max":157,"target":"absent","response":"absent","rt":214.5,"correct":true,"confidence":3},{"trial_n":54,"min":98,"max":157,"target":"present","response":"absent","rt":196.60000002384,"correct":false,"confidence":4},{"trial_n":55,"min":97,"max":158,"target":"present","response":"absent","rt":303.09999990463,"correct":false,"confidence":4},{"trial_n":56,"min":96,"max":159,"target":"present","response":"absent","rt":401.40000009537,"correct":false,"confidence":4},{"trial_n":57,"min":95,"max":160,"target":"absent","response":"absent","rt":258.39999997616,"correct":true,"confidence":5},{"trial_n":58,"min":95,"max":160,"target":"present","response":"present","rt":862.40000009537,"correct":true,"confidence":4},{"trial_n":59,"min":96,"max":159,"target":"present","response":"present","rt":635.20000004768,"correct":true,"confidence":3},{"trial_n":60,"min":96,"max":159,"target":"absent","response":"absent","rt":276.60000002384,"correct":true,"confidence":4},{"trial_n":61,"min":97,"max":158,"target":"present","response":"absent","rt":741.59999990463,"correct":false,"confidence":4},{"trial_n":62,"min":96,"max":159,"target":"absent","response":"absent","rt":466.29999995232,"correct":true,"confidence":4},{"trial_n":63,"min":96,"max":159,"target":"absent","response":"absent","rt":452.09999990463,"correct":true,"confidence":4},{"trial_n":64,"min":97,"max":158,"target":"absent","response":"absent","rt":395.80000007153,"correct":true,"confidence":5},{"trial_n":65,"min":97,"max":158,"target":"present","response":"present","rt":550.90000009537,"correct":true,"confidence":4},{"trial_n":66,"min":98,"max":157,"target":"present","response":"present","rt":731.39999997616,"correct":true,"confidence":5},{"trial_n":67,"min":98,"max":157,"target":"present","response":"present","rt":1016.6999999285,"correct":true,"confidence":3},{"trial_n":68,"min":99,"max":156,"target":"present","response":"present","rt":599,"correct":true,"confidence":3},{"trial_n":69,"min":99,"max":156,"target":"present","response":"absent","rt":698.20000004768,"correct":false,"confidence":2},{"trial_n":70,"min":98,"max":157,"target":"absent","response":"present","rt":1042.2000000477,"correct":false,"confidence":4},{"trial_n":71,"min":41,"max":214,"target":"present","response":"present","rt":2543.7000000477,"correct":true,"confidence":-1},{"trial_n":72,"min":41,"max":214,"target":"present","response":"present","rt":147.20000004768,"correct":true,"confidence":-1},{"trial_n":73,"min":57,"max":198,"target":"absent","response":"absent","rt":951.10000002384,"correct":true,"confidence":-1},{"trial_n":74,"min":57,"max":198,"target":"absent","response":"absent","rt":423.90000009537,"correct":true,"confidence":-1},{"trial_n":75,"min":73,"max":182,"target":"present","response":"present","rt":389.39999997616,"correct":true,"confidence":-1},{"trial_n":76,"min":73,"max":182,"target":"absent","response":"present","rt":400.70000004768,"correct":false,"confidence":-1},{"trial_n":77,"min":57,"max":198,"target":"present","response":"absent","rt":388.5,"correct":false,"confidence":-1},{"trial_n":78,"min":41,"max":214,"target":"absent","response":"absent","rt":604.39999997616,"correct":true,"confidence":-1},{"trial_n":79,"min":41,"max":214,"target":"absent","response":"absent","rt":403.79999995232,"correct":true,"confidence":-1},{"trial_n":80,"min":57,"max":198,"target":"present","response":"present","rt":361.5,"correct":true,"confidence":-1},{"trial_n":81,"min":57,"max":198,"target":"present","response":"present","rt":375.60000002384,"correct":true,"confidence":-1},{"trial_n":82,"min":65,"max":190,"target":"absent","response":"present","rt":418.70000004768,"correct":false,"confidence":-1},{"trial_n":83,"min":57,"max":198,"target":"absent","response":"present","rt":698.89999997616,"correct":false,"confidence":-1},{"trial_n":84,"min":49,"max":206,"target":"present","response":"present","rt":1076.6000000238,"correct":true,"confidence":-1},{"trial_n":85,"min":49,"max":206,"target":"absent","response":"absent","rt":450.60000002384,"correct":true,"confidence":-1},{"trial_n":86,"min":57,"max":198,"target":"present","response":"present","rt":376.5,"correct":true,"confidence":-1},{"trial_n":87,"min":57,"max":198,"target":"absent","response":"present","rt":438.60000002384,"correct":false,"confidence":-1},{"trial_n":88,"min":49,"max":206,"target":"present","response":"present","rt":560.80000007153,"correct":true,"confidence":-1},{"trial_n":89,"min":49,"max":206,"target":"present","response":"present","rt":786,"correct":true,"confidence":-1},{"trial_n":90,"min":57,"max":198,"target":"absent","response":"absent","rt":416,"correct":true,"confidence":-1},{"trial_n":91,"min":57,"max":198,"target":"absent","response":"absent","rt":540.40000009537,"correct":true,"confidence":5},{"trial_n":92,"min":61,"max":194,"target":"absent","response":"absent","rt":539.5,"correct":true,"confidence":4},{"trial_n":93,"min":61,"max":194,"target":"present","response":"present","rt":426.29999995232,"correct":true,"confidence":4},{"trial_n":94,"min":65,"max":190,"target":"present","response":"present","rt":865.79999995232,"correct":true,"confidence":4},{"trial_n":95,"min":65,"max":190,"target":"present","response":"present","rt":449.39999997616,"correct":true,"confidence":5},{"trial_n":96,"min":69,"max":186,"target":"absent","response":"absent","rt":511.29999995232,"correct":true,"confidence":4},{"trial_n":97,"min":69,"max":186,"target":"absent","response":"absent","rt":635,"correct":true,"confidence":4},{"trial_n":98,"min":73,"max":182,"target":"present","response":"present","rt":857,"correct":true,"confidence":4},{"trial_n":99,"min":73,"max":182,"target":"absent","response":"absent","rt":853.39999997616,"correct":true,"confidence":4},{"trial_n":100,"min":77,"max":178,"target":"present","response":"present","rt":386.79999995232,"correct":true,"confidence":5},{"trial_n":101,"min":77,"max":178,"target":"absent","response":"absent","rt":1464.8999999762,"correct":true,"confidence":4},{"trial_n":102,"min":79,"max":176,"target":"absent","response":"present","rt":583.70000004768,"correct":false,"confidence":4},{"trial_n":103,"min":77,"max":178,"target":"absent","response":"present","rt":601.5,"correct":false,"confidence":2},{"trial_n":104,"min":75,"max":180,"target":"absent","response":"absent","rt":914.39999997616,"correct":true,"confidence":4},{"trial_n":105,"min":75,"max":180,"target":"present","response":"present","rt":270.5,"correct":true,"confidence":4},{"trial_n":106,"min":77,"max":178,"target":"present","response":"absent","rt":4814.2999999523,"correct":false,"confidence":1},{"trial_n":107,"min":75,"max":180,"target":"absent","response":"absent","rt":542.19999992847,"correct":true,"confidence":4},{"trial_n":108,"min":75,"max":180,"target":"present","response":"present","rt":214.20000004768,"correct":true,"confidence":5},{"trial_n":109,"min":77,"max":178,"target":"absent","response":"absent","rt":518.80000007153,"correct":true,"confidence":5},{"trial_n":110,"min":77,"max":178,"target":"present","response":"present","rt":232.79999995232,"correct":true,"confidence":5},{"trial_n":111,"min":78,"max":177,"target":"present","response":"present","rt":444.19999992847,"correct":true,"confidence":4},{"trial_n":112,"min":78,"max":177,"target":"present","response":"absent","rt":492.70000004768,"correct":false,"confidence":4},{"trial_n":113,"min":77,"max":178,"target":"absent","response":"absent","rt":911.20000004768,"correct":true,"confidence":3},{"trial_n":114,"min":77,"max":178,"target":"present","response":"present","rt":181.5,"correct":true,"confidence":5},{"trial_n":115,"min":78,"max":177,"target":"present","response":"present","rt":359,"correct":true,"confidence":5},{"trial_n":116,"min":78,"max":177,"target":"absent","response":"absent","rt":657.89999997616,"correct":true,"confidence":5},{"trial_n":117,"min":79,"max":176,"target":"present","response":"present","rt":490.79999995232,"correct":true,"confidence":4},{"trial_n":118,"min":79,"max":176,"target":"absent","response":"absent","rt":992.30000007153,"correct":true,"confidence":2},{"trial_n":119,"min":80,"max":175,"target":"present","response":"present","rt":349.20000004768,"correct":true,"confidence":4},{"trial_n":120,"min":80,"max":175,"target":"present","response":"present","rt":390.29999995232,"correct":true,"confidence":5},{"trial_n":121,"min":81,"max":174,"target":"absent","response":"absent","rt":1219.2000000477,"correct":true,"confidence":2},{"trial_n":122,"min":81,"max":174,"target":"present","response":"present","rt":430.70000004768,"correct":true,"confidence":5},{"trial_n":123,"min":82,"max":173,"target":"absent","response":"absent","rt":499.20000004768,"correct":true,"confidence":3},{"trial_n":124,"min":82,"max":173,"target":"present","response":"present","rt":188.5,"correct":true,"confidence":5},{"trial_n":125,"min":83,"max":172,"target":"absent","response":"absent","rt":1967.1000000238,"correct":true,"confidence":1},{"trial_n":126,"min":83,"max":172,"target":"present","response":"present","rt":316.10000002384,"correct":true,"confidence":5},{"trial_n":127,"min":84,"max":171,"target":"present","response":"present","rt":1807.5,"correct":true,"confidence":4},{"trial_n":128,"min":84,"max":171,"target":"present","response":"present","rt":904.70000004768,"correct":true,"confidence":3},{"trial_n":129,"min":85,"max":170,"target":"absent","response":"absent","rt":972.89999997616,"correct":true,"confidence":3},{"trial_n":130,"min":85,"max":170,"target":"absent","response":"absent","rt":786.39999997616,"correct":true,"confidence":4},{"trial_n":131,"min":86,"max":169,"target":"present","response":"present","rt":460.29999995232,"correct":true,"confidence":5},{"trial_n":132,"min":86,"max":169,"target":"absent","response":"absent","rt":901.89999997616,"correct":true,"confidence":4},{"trial_n":133,"min":87,"max":168,"target":"absent","response":"present","rt":1063.8999999762,"correct":false,"confidence":1},{"trial_n":134,"min":86,"max":169,"target":"present","response":"present","rt":442.40000009537,"correct":true,"confidence":4},{"trial_n":135,"min":86,"max":169,"target":"present","response":"present","rt":361.60000002384,"correct":true,"confidence":4},{"trial_n":136,"min":87,"max":168,"target":"absent","response":"absent","rt":612.69999992847,"correct":true,"confidence":5},{"trial_n":137,"min":87,"max":168,"target":"absent","response":"absent","rt":1732.2000000477,"correct":true,"confidence":2},{"trial_n":138,"min":88,"max":167,"target":"present","response":"absent","rt":1093,"correct":false,"confidence":1},{"trial_n":139,"min":87,"max":168,"target":"absent","response":"absent","rt":473.70000004768,"correct":true,"confidence":3},{"trial_n":140,"min":87,"max":168,"target":"present","response":"present","rt":411,"correct":true,"confidence":5}]