[{"trial_n":1,"n_dots":4.25,"target":"right","response":"left","rt":3317.6000000238,"correct":false,"confidence":-1},{"trial_n":2,"n_dots":4.25,"target":"right","response":"right","rt":813.5,"correct":true,"confidence":-1},{"trial_n":3,"n_dots":4.25,"target":"left","response":"left","rt":509.39999997616,"correct":true,"confidence":-1},{"trial_n":4,"n_dots":3.85,"target":"left","response":"left","rt":122.79999995232,"correct":true,"confidence":-1},{"trial_n":5,"n_dots":3.85,"target":"right","response":"left","rt":343.30000007153,"correct":false,"confidence":-1},{"trial_n":6,"n_dots":4.25,"target":"left","response":"left","rt":220.20000004768,"correct":true,"confidence":-1},{"trial_n":7,"n_dots":4.25,"target":"left","response":"left","rt":146.60000002384,"correct":true,"confidence":-1},{"trial_n":8,"n_dots":4.05,"target":"left","response":"left","rt":352.20000004768,"correct":true,"confidence":-1},{"trial_n":9,"n_dots":4.05,"target":"right","response":"left","rt":56.5,"correct":false,"confidence":-1},{"trial_n":10,"n_dots":4.25,"target":"right","response":"left","rt":3213,"correct":false,"confidence":-1},{"trial_n":11,"n_dots":4.45,"target":"left","response":"left","rt":635.10000002384,"correct":true,"confidence":-1},{"trial_n":12,"n_dots":4.45,"target":"left","response":"left","rt":442.30000007153,"correct":true,"confidence":-1},{"trial_n":13,"n_dots":4.35,"target":"left","response":"left","rt":122,"correct":true,"confidence":-1},{"trial_n":14,"n_dots":4.35,"target":"right","response":"left","rt":321.30000007153,"correct":false,"confidence":-1},{"trial_n":15,"n_dots":4.45,"target":"right","response":"left","rt":440.10000002384,"correct":false,"confidence":-1},{"trial_n":16,"n_dots":4.55,"target":"left","response":"left","rt":635.10000002384,"correct":true,"confidence":-1},{"trial_n":17,"n_dots":4.55,"target":"left","response":"left","rt":142,"correct":true,"confidence":-1},{"trial_n":18,"n_dots":4.45,"target":"left","response":"left","rt":127.29999995232,"correct":true,"confidence":-1},{"trial_n":19,"n_dots":4.45,"target":"right","response":"right","rt":813.40000009537,"correct":true,"confidence":-1},{"trial_n":20,"n_dots":4.35,"target":"left","response":"left","rt":14.5,"correct":true,"confidence":-1},{"trial_n":21,"n_dots":4.35,"target":"left","response":"left","rt":403.29999995232,"correct":true,"confidence":3},{"trial_n":22,"n_dots":4.25,"target":"right","response":"left","rt":107.89999997616,"correct":false,"confidence":3},{"trial_n":23,"n_dots":4.35,"target":"left","response":"left","rt":105.60000002384,"correct":true,"confidence":4},{"trial_n":24,"n_dots":4.35,"target":"right","response":"left","rt":195.20000004768,"correct":false,"confidence":3},{"trial_n":25,"n_dots":4.45,"target":"right","response":"left","rt":106.60000002384,"correct":false,"confidence":3},{"trial_n":26,"n_dots":4.55,"target":"left","response":"left","rt":69.099999904633,"correct":true,"confidence":4},{"trial_n":27,"n_dots":4.55,"target":"left","response":"left","rt":139.10000002384,"correct":true,"confidence":5},{"trial_n":28,"n_dots":4.45,"target":"right","response":"left","rt":198.5,"correct":false,"confidence":2},{"trial_n":29,"n_dots":4.55,"target":"left","response":"left","rt":65.100000023842,"correct":true,"confidence":3},{"trial_n":30,"n_dots":4.55,"target":"left","response":"left","rt":220,"correct":true,"confidence":4},{"trial_n":31,"n_dots":4.45,"target":"left","response":"left","rt":64.5,"correct":true,"confidence":4},{"trial_n":32,"n_dots":4.45,"target":"right","response":"right","rt":964.79999995232,"correct":true,"confidence":2},{"trial_n":33,"n_dots":4.35,"target":"right","response":"right","rt":607.70000004768,"correct":true,"confidence":3},{"trial_n":34,"n_dots":4.35,"target":"right","response":"right","rt":545.5,"correct":true,"confidence":2},{"trial_n":35,"n_dots":4.25,"target":"right","response":"right","rt":1213.8000000715,"correct":true,"confidence":1},{"trial_n":36,"n_dots":4.25,"target":"left","response":"left","rt":438.60000002384,"correct":true,"confidence":3},{"trial_n":37,"n_dots":4.15,"target":"left","response":"left","rt":407.5,"correct":true,"confidence":3},{"trial_n":38,"n_dots":4.15,"target":"left","response":"left","rt":273.89999997616,"correct":true,"confidence":2},{"trial_n":39,"n_dots":4.05,"target":"right","response":"right","rt":829,"correct":true,"confidence":4},{"trial_n":40,"n_dots":4.05,"target":"right","response":"right","rt":428.30000007153,"correct":true,"confidence":3},{"trial_n":41,"n_dots":3.95,"target":"right","response":"right","rt":348.29999995232,"correct":true,"confidence":4},{"trial_n":42,"n_dots":3.95,"target":"left","response":"left","rt":218.89999997616,"correct":true,"confidence":2},{"trial_n":43,"n_dots":3.85,"target":"right","response":"right","rt":420.10000002384,"correct":true,"confidence":1},{"trial_n":44,"n_dots":3.85,"target":"right","response":"right","rt":337.70000004768,"correct":true,"confidence":1},{"trial_n":45,"n_dots":3.75,"target":"right","response":"right","rt":410.10000002384,"correct":true,"confidence":2},{"trial_n":46,"n_dots":3.75,"target":"right","response":"right","rt":591.90000009537,"correct":true,"confidence":1},{"trial_n":47,"n_dots":3.65,"target":"right","response":"right","rt":652,"correct":true,"confidence":3},{"trial_n":48,"n_dots":3.65,"target":"right","response":"right","rt":1384.5,"correct":true,"confidence":2},{"trial_n":49,"n_dots":3.55,"target":"left","response":"left","rt":218.39999997616,"correct":true,"confidence":4},{"trial_n":50,"n_dots":3.55,"target":"left","response":"left","rt":79.399999976158,"correct":true,"confidence":3},{"trial_n":51,"n_dots":3.45,"target":"left","response":"left","rt":377.19999992847,"correct":true,"confidence":4},{"trial_n":52,"n_dots":3.45,"target":"left","response":"left","rt":288.89999997616,"correct":true,"confidence":2},{"trial_n":53,"n_dots":3.35,"target":"right","response":"left","rt":294,"correct":false,"confidence":3},{"trial_n":54,"n_dots":3.45,"target":"right","response":"right","rt":508.89999997616,"correct":true,"confidence":3},{"trial_n":55,"n_dots":3.45,"target":"right","response":"left","rt":629.5,"correct":false,"confidence":1},{"trial_n":56,"n_dots":3.55,"target":"right","response":"right","rt":159.89999997616,"correct":true,"confidence":2},{"trial_n":57,"n_dots":3.55,"target":"left","response":"left","rt":151.19999992847,"correct":true,"confidence":2},{"trial_n":58,"n_dots":3.45,"target":"left","response":"left","rt":522.5,"correct":true,"confidence":3},{"trial_n":59,"n_dots":3.45,"target":"left","response":"left","rt":197.60000002384,"correct":true,"confidence":2},{"trial_n":60,"n_dots":3.35,"target":"left","response":"left","rt":298,"correct":true,"confidence":3},{"trial_n":61,"n_dots":3.35,"target":"right","response":"left","rt":321.10000002384,"correct":false,"confidence":3},{"trial_n":62,"n_dots":3.45,"target":"left","response":"left","rt":98.399999976158,"correct":true,"confidence":3},{"trial_n":63,"n_dots":3.45,"target":"left","response":"left","rt":72.100000023842,"correct":true,"confidence":4},{"trial_n":64,"n_dots":3.35,"target":"left","response":"left","rt":233.60000002384,"correct":true,"confidence":5},{"trial_n":65,"n_dots":3.35,"target":"right","response":"left","rt":785,"correct":false,"confidence":4},{"trial_n":66,"n_dots":3.45,"target":"right","response":"left","rt":276.70000004768,"correct":false,"confidence":3},{"trial_n":67,"n_dots":3.55,"target":"right","response":"left","rt":411.5,"correct":false,"confidence":2},{"trial_n":68,"n_dots":3.65,"target":"left","response":"left","rt":193.69999992847,"correct":true,"confidence":3},{"trial_n":69,"n_dots":3.65,"target":"left","response":"left","rt":442.30000007153,"correct":true,"confidence":2},{"trial_n":70,"n_dots":3.55,"target":"right","response":"left","rt":176.39999997616,"correct":false,"confidence":3},{"trial_n":71,"n_dots":3.65,"target":"right","response":"left","rt":71.600000023842,"correct":false,"confidence":3},{"trial_n":72,"n_dots":3.75,"target":"right","response":"left","rt":132.89999997616,"correct":false,"confidence":2},{"trial_n":73,"n_dots":3.85,"target":"right","response":"right","rt":443.60000002384,"correct":true,"confidence":1},{"trial_n":74,"n_dots":3.85,"target":"left","response":"left","rt":288.70000004768,"correct":true,"confidence":2},{"trial_n":75,"n_dots":3.75,"target":"left","response":"left","rt":2053.6999999285,"correct":true,"confidence":1},{"trial_n":76,"n_dots":3.75,"target":"left","response":"left","rt":1351.3999999762,"correct":true,"confidence":4},{"trial_n":77,"n_dots":3.65,"target":"right","response":"right","rt":588.60000002384,"correct":true,"confidence":1},{"trial_n":78,"n_dots":3.65,"target":"right","response":"right","rt":736.20000004768,"correct":true,"confidence":1},{"trial_n":79,"n_dots":3.55,"target":"left","response":"left","rt":383.69999992847,"correct":true,"confidence":3},{"trial_n":80,"n_dots":3.55,"target":"left","response":"left","rt":111.89999997616,"correct":true,"confidence":3},{"trial_n":81,"n_dots":3.45,"target":"right","response":"right","rt":390.10000002384,"correct":true,"confidence":2},{"trial_n":82,"n_dots":3.45,"target":"right","response":"left","rt":484.90000009537,"correct":false,"confidence":3},{"trial_n":83,"n_dots":3.55,"target":"right","response":"right","rt":245.10000002384,"correct":true,"confidence":1},{"trial_n":84,"n_dots":3.55,"target":"right","response":"left","rt":365.80000007153,"correct":false,"confidence":3},{"trial_n":85,"n_dots":3.65,"target":"left","response":"left","rt":9626.5,"correct":true,"confidence":1},{"trial_n":86,"n_dots":3.65,"target":"left","response":"left","rt":349.39999997616,"correct":true,"confidence":4},{"trial_n":87,"n_dots":3.55,"target":"left","response":"left","rt":258.39999997616,"correct":true,"confidence":4},{"trial_n":88,"n_dots":3.55,"target":"right","response":"left","rt":163.39999997616,"correct":false,"confidence":4},{"trial_n":89,"n_dots":3.65,"target":"right","response":"left","rt":120.70000004768,"correct":false,"confidence":2},{"trial_n":90,"n_dots":3.75,"target":"left","response":"left","rt":314.39999997616,"correct":true,"confidence":3},{"trial_n":91,"n_dots":3.75,"target":"right","response":"left","rt":32039.100000024,"correct":false,"confidence":1},{"trial_n":92,"n_dots":3.85,"target":"left","response":"left","rt":386.30000007153,"correct":true,"confidence":4},{"trial_n":93,"n_dots":3.85,"target":"right","response":"left","rt":137,"correct":false,"confidence":3},{"trial_n":94,"n_dots":3.95,"target":"right","response":"left","rt":1070.7999999523,"correct":false,"confidence":1},{"trial_n":95,"n_dots":4.05,"target":"left","response":"left","rt":47.699999928474,"correct":true,"confidence":4},{"trial_n":96,"n_dots":4.05,"target":"left","response":"left","rt":630.89999997616,"correct":true,"confidence":4},{"trial_n":97,"n_dots":3.95,"target":"left","response":"left","rt":1473.3000000715,"correct":true,"confidence":3},{"trial_n":98,"n_dots":3.95,"target":"left","response":"left","rt":210.10000002384,"correct":true,"confidence":3},{"trial_n":99,"n_dots":3.85,"target":"right","response":"left","rt":4746.8000000715,"correct":false,"confidence":3},{"trial_n":100,"n_dots":3.95,"target":"left","response":"left","rt":162,"correct":true,"confidence":2},{"trial_n":101,"n_dots":3.95,"target":"right","response":"right","rt":466.69999992847,"correct":true,"confidence":4},{"trial_n":102,"n_dots":3.85,"target":"left","response":"left","rt":157.5,"correct":true,"confidence":3},{"trial_n":103,"n_dots":3.85,"target":"left","response":"left","rt":181.39999997616,"correct":true,"confidence":2},{"trial_n":104,"n_dots":3.75,"target":"right","response":"right","rt":653.60000002384,"correct":true,"confidence":3},{"trial_n":105,"n_dots":3.75,"target":"right","response":"right","rt":210.80000007153,"correct":true,"confidence":2},{"trial_n":106,"n_dots":3.65,"target":"left","response":"left","rt":282.10000002384,"correct":true,"confidence":2},{"trial_n":107,"n_dots":3.65,"target":"right","response":"left","rt":238.20000004768,"correct":false,"confidence":3},{"trial_n":108,"n_dots":3.75,"target":"left","response":"left","rt":232.19999992847,"correct":true,"confidence":4},{"trial_n":109,"n_dots":3.75,"target":"right","response":"right","rt":218.39999997616,"correct":true,"confidence":2},{"trial_n":110,"n_dots":3.65,"target":"right","response":"right","rt":181.39999997616,"correct":true,"confidence":3},{"trial_n":111,"n_dots":3.65,"target":"left","response":"right","rt":251.89999997616,"correct":false,"confidence":1},{"trial_n":112,"n_dots":3.75,"target":"right","response":"right","rt":573.89999997616,"correct":true,"confidence":4},{"trial_n":113,"n_dots":3.75,"target":"left","response":"left","rt":906.29999995232,"correct":true,"confidence":5},{"trial_n":114,"n_dots":3.65,"target":"left","response":"left","rt":311.30000007153,"correct":true,"confidence":4},{"trial_n":115,"n_dots":3.65,"target":"right","response":"right","rt":561.70000004768,"correct":true,"confidence":3},{"trial_n":116,"n_dots":3.55,"target":"right","response":"right","rt":1481.7000000477,"correct":true,"confidence":4},{"trial_n":117,"n_dots":3.55,"target":"right","response":"right","rt":1230.8999999762,"correct":true,"confidence":2},{"trial_n":118,"n_dots":3.45,"target":"left","response":"left","rt":1076.5999999046,"correct":true,"confidence":1},{"trial_n":119,"n_dots":3.45,"target":"left","response":"left","rt":1196.7000000477,"correct":true,"confidence":1},{"trial_n":120,"n_dots":3.35,"target":"right","response":"right","rt":1423.7000000477,"correct":true,"confidence":3}]