[{"trial_n":1,"min":25,"max":230,"target":"present","response":"present","rt":14026.200000048,"correct":true,"confidence":-1},{"trial_n":2,"min":25,"max":230,"target":"present","response":"present","rt":5995.6000001431,"correct":true,"confidence":-1},{"trial_n":3,"min":41,"max":214,"target":"absent","response":"absent","rt":2011.7000000477,"correct":true,"confidence":-1},{"trial_n":4,"min":41,"max":214,"target":"absent","response":"absent","rt":1045.4000000954,"correct":true,"confidence":-1},{"trial_n":5,"min":57,"max":198,"target":"present","response":"present","rt":1638.8999998569,"correct":true,"confidence":-1},{"trial_n":6,"min":57,"max":198,"target":"present","response":"present","rt":1667.4000000954,"correct":true,"confidence":-1},{"trial_n":7,"min":73,"max":182,"target":"absent","response":"absent","rt":1918.5,"correct":true,"confidence":-1},{"trial_n":8,"min":73,"max":182,"target":"absent","response":"absent","rt":1516.5999999046,"correct":true,"confidence":-1},{"trial_n":9,"min":89,"max":166,"target":"present","response":"absent","rt":1165.9000000954,"correct":false,"confidence":-1},{"trial_n":10,"min":73,"max":182,"target":"present","response":"present","rt":1588.1000001431,"correct":true,"confidence":-1},{"trial_n":11,"min":73,"max":182,"target":"present","response":"present","rt":1449.1000001431,"correct":true,"confidence":-1},{"trial_n":12,"min":81,"max":174,"target":"present","response":"present","rt":887.40000009537,"correct":true,"confidence":-1},{"trial_n":13,"min":81,"max":174,"target":"absent","response":"absent","rt":2146.2000000477,"correct":true,"confidence":-1},{"trial_n":14,"min":89,"max":166,"target":"absent","response":"absent","rt":1072.7999999523,"correct":true,"confidence":-1},{"trial_n":15,"min":89,"max":166,"target":"absent","response":"absent","rt":738,"correct":true,"confidence":-1},{"trial_n":16,"min":97,"max":158,"target":"absent","response":"absent","rt":705.29999995232,"correct":true,"confidence":-1},{"trial_n":17,"min":97,"max":158,"target":"present","response":"absent","rt":845.5,"correct":false,"confidence":-1},{"trial_n":18,"min":89,"max":166,"target":"present","response":"absent","rt":915.09999990463,"correct":false,"confidence":-1},{"trial_n":19,"min":81,"max":174,"target":"absent","response":"absent","rt":900.90000009537,"correct":true,"confidence":-1},{"trial_n":20,"min":81,"max":174,"target":"absent","response":"absent","rt":833,"correct":true,"confidence":-1},{"trial_n":21,"min":85,"max":170,"target":"present","response":"absent","rt":2161.1000001431,"correct":false,"confidence":3},{"trial_n":22,"min":81,"max":174,"target":"absent","response":"absent","rt":1466.5,"correct":true,"confidence":4},{"trial_n":23,"min":81,"max":174,"target":"absent","response":"absent","rt":1621.5,"correct":true,"confidence":3},{"trial_n":24,"min":85,"max":170,"target":"present","response":"absent","rt":1401.7999999523,"correct":false,"confidence":3},{"trial_n":25,"min":81,"max":174,"target":"absent","response":"absent","rt":1427.1999998093,"correct":true,"confidence":4},{"trial_n":26,"min":81,"max":174,"target":"absent","response":"absent","rt":2255.7999999523,"correct":true,"confidence":3},{"trial_n":27,"min":85,"max":170,"target":"present","response":"absent","rt":1369.8999998569,"correct":false,"confidence":3},{"trial_n":28,"min":81,"max":174,"target":"present","response":"absent","rt":1504.7000000477,"correct":false,"confidence":3},{"trial_n":29,"min":77,"max":178,"target":"absent","response":"absent","rt":1772.6000001431,"correct":true,"confidence":3},{"trial_n":30,"min":77,"max":178,"target":"present","response":"present","rt":1806.8999998569,"correct":true,"confidence":3},{"trial_n":31,"min":79,"max":176,"target":"absent","response":"absent","rt":3498.2999999523,"correct":true,"confidence":2},{"trial_n":32,"min":79,"max":176,"target":"present","response":"present","rt":1806.5,"correct":true,"confidence":3},{"trial_n":33,"min":81,"max":174,"target":"absent","response":"absent","rt":1674.1000001431,"correct":true,"confidence":3},{"trial_n":34,"min":81,"max":174,"target":"present","response":"absent","rt":1558.1999998093,"correct":false,"confidence":3},{"trial_n":35,"min":79,"max":176,"target":"present","response":"absent","rt":1425.7999999523,"correct":false,"confidence":3},{"trial_n":36,"min":77,"max":178,"target":"present","response":"absent","rt":1488.7000000477,"correct":false,"confidence":3},{"trial_n":37,"min":75,"max":180,"target":"present","response":"present","rt":3233.7000000477,"correct":true,"confidence":2},{"trial_n":38,"min":75,"max":180,"target":"absent","response":"absent","rt":1687.0999999046,"correct":true,"confidence":2},{"trial_n":39,"min":77,"max":178,"target":"present","response":"present","rt":2897.5,"correct":true,"confidence":2},{"trial_n":40,"min":77,"max":178,"target":"absent","response":"absent","rt":2695.3000001907,"correct":true,"confidence":2},{"trial_n":41,"min":78,"max":177,"target":"present","response":"absent","rt":1934.3000001907,"correct":false,"confidence":2},{"trial_n":42,"min":77,"max":178,"target":"present","response":"present","rt":1887,"correct":true,"confidence":3},{"trial_n":43,"min":77,"max":178,"target":"present","response":"present","rt":1650,"correct":true,"confidence":3},{"trial_n":44,"min":78,"max":177,"target":"present","response":"absent","rt":1904.0999999046,"correct":false,"confidence":2},{"trial_n":45,"min":77,"max":178,"target":"absent","response":"absent","rt":2000.7999999523,"correct":true,"confidence":2},{"trial_n":46,"min":77,"max":178,"target":"absent","response":"absent","rt":2470.5,"correct":true,"confidence":2},{"trial_n":47,"min":78,"max":177,"target":"present","response":"absent","rt":2192.5,"correct":false,"confidence":2},{"trial_n":48,"min":77,"max":178,"target":"absent","response":"absent","rt":1921.3999998569,"correct":true,"confidence":1},{"trial_n":49,"min":77,"max":178,"target":"absent","response":"absent","rt":4485.2999999523,"correct":true,"confidence":2},{"trial_n":50,"min":78,"max":177,"target":"present","response":"present","rt":1667.6000001431,"correct":true,"confidence":3},{"trial_n":51,"min":78,"max":177,"target":"present","response":"present","rt":3851.0999999046,"correct":true,"confidence":2},{"trial_n":52,"min":79,"max":176,"target":"present","response":"present","rt":2142.7000000477,"correct":true,"confidence":2},{"trial_n":53,"min":79,"max":176,"target":"absent","response":"present","rt":1833.9000000954,"correct":false,"confidence":2},{"trial_n":54,"min":78,"max":177,"target":"absent","response":"present","rt":1848,"correct":false,"confidence":2},{"trial_n":55,"min":77,"max":178,"target":"present","response":"present","rt":1687.4000000954,"correct":true,"confidence":2},{"trial_n":56,"min":77,"max":178,"target":"present","response":"present","rt":1678,"correct":true,"confidence":3},{"trial_n":57,"min":78,"max":177,"target":"absent","response":"absent","rt":2198.0999999046,"correct":true,"confidence":2},{"trial_n":58,"min":78,"max":177,"target":"present","response":"present","rt":2149.6000001431,"correct":true,"confidence":2},{"trial_n":59,"min":79,"max":176,"target":"present","response":"present","rt":1537.7999999523,"correct":true,"confidence":3},{"trial_n":60,"min":79,"max":176,"target":"absent","response":"present","rt":1716.2999999523,"correct":false,"confidence":2},{"trial_n":61,"min":78,"max":177,"target":"absent","response":"absent","rt":2419.0999999046,"correct":true,"confidence":2},{"trial_n":62,"min":78,"max":177,"target":"absent","response":"absent","rt":2377.1000001431,"correct":true,"confidence":2},{"trial_n":63,"min":79,"max":176,"target":"present","response":"absent","rt":2420.2999999523,"correct":false,"confidence":2},{"trial_n":64,"min":78,"max":177,"target":"present","response":"absent","rt":2067.1999998093,"correct":false,"confidence":2},{"trial_n":65,"min":77,"max":178,"target":"absent","response":"absent","rt":2077.7000000477,"correct":true,"confidence":2},{"trial_n":66,"min":77,"max":178,"target":"absent","response":"present","rt":2466.4000000954,"correct":false,"confidence":2},{"trial_n":67,"min":76,"max":179,"target":"absent","response":"absent","rt":2579.2999999523,"correct":true,"confidence":2},{"trial_n":68,"min":76,"max":179,"target":"absent","response":"absent","rt":3137,"correct":true,"confidence":2},{"trial_n":69,"min":77,"max":178,"target":"present","response":"absent","rt":1874.8999998569,"correct":false,"confidence":2},{"trial_n":70,"min":76,"max":179,"target":"absent","response":"absent","rt":1620.7999999523,"correct":true,"confidence":2},{"trial_n":71,"min":41,"max":214,"target":"present","response":"absent","rt":6036.6999998093,"correct":false,"confidence":-1},{"trial_n":72,"min":41,"max":214,"target":"present","response":"present","rt":2264,"correct":true,"confidence":-1},{"trial_n":73,"min":41,"max":214,"target":"absent","response":"absent","rt":1822.2000000477,"correct":true,"confidence":-1},{"trial_n":74,"min":57,"max":198,"target":"absent","response":"present","rt":1526.1999998093,"correct":false,"confidence":-1},{"trial_n":75,"min":41,"max":214,"target":"present","response":"present","rt":1965.2000000477,"correct":true,"confidence":-1},{"trial_n":76,"min":41,"max":214,"target":"present","response":"present","rt":1147.6999998093,"correct":true,"confidence":-1},{"trial_n":77,"min":57,"max":198,"target":"absent","response":"absent","rt":2215.0999999046,"correct":true,"confidence":-1},{"trial_n":78,"min":57,"max":198,"target":"absent","response":"absent","rt":1556,"correct":true,"confidence":-1},{"trial_n":79,"min":73,"max":182,"target":"present","response":"present","rt":2630.2999999523,"correct":true,"confidence":-1},{"trial_n":80,"min":73,"max":182,"target":"absent","response":"present","rt":1298.4000000954,"correct":false,"confidence":-1},{"trial_n":81,"min":65,"max":190,"target":"absent","response":"absent","rt":1725.5999999046,"correct":true,"confidence":-1},{"trial_n":82,"min":65,"max":190,"target":"present","response":"present","rt":1763.5,"correct":true,"confidence":-1},{"trial_n":83,"min":73,"max":182,"target":"present","response":"present","rt":732.70000004768,"correct":true,"confidence":-1},{"trial_n":84,"min":73,"max":182,"target":"absent","response":"absent","rt":1825.9000000954,"correct":true,"confidence":-1},{"trial_n":85,"min":81,"max":174,"target":"present","response":"present","rt":2259.0999999046,"correct":true,"confidence":-1},{"trial_n":86,"min":81,"max":174,"target":"absent","response":"absent","rt":1538.0999999046,"correct":true,"confidence":-1},{"trial_n":87,"min":89,"max":166,"target":"present","response":"present","rt":1448.4000000954,"correct":true,"confidence":-1},{"trial_n":88,"min":89,"max":166,"target":"present","response":"present","rt":996.20000004768,"correct":true,"confidence":-1},{"trial_n":89,"min":97,"max":158,"target":"absent","response":"present","rt":1023.9000000954,"correct":false,"confidence":-1},{"trial_n":90,"min":89,"max":166,"target":"absent","response":"present","rt":1083.8999998569,"correct":false,"confidence":-1},{"trial_n":91,"min":85,"max":170,"target":"absent","response":"present","rt":1638.4000000954,"correct":false,"confidence":2},{"trial_n":92,"min":81,"max":174,"target":"present","response":"present","rt":1606.7000000477,"correct":true,"confidence":4},{"trial_n":93,"min":81,"max":174,"target":"present","response":"present","rt":1845.8999998569,"correct":true,"confidence":4},{"trial_n":94,"min":85,"max":170,"target":"absent","response":"present","rt":1766,"correct":false,"confidence":2},{"trial_n":95,"min":81,"max":174,"target":"present","response":"present","rt":1780.6000001431,"correct":true,"confidence":2},{"trial_n":96,"min":81,"max":174,"target":"absent","response":"absent","rt":1760.8000001907,"correct":true,"confidence":3},{"trial_n":97,"min":85,"max":170,"target":"absent","response":"absent","rt":2520.5999999046,"correct":true,"confidence":1},{"trial_n":98,"min":85,"max":170,"target":"present","response":"present","rt":1666.9000000954,"correct":true,"confidence":1},{"trial_n":99,"min":89,"max":166,"target":"absent","response":"present","rt":1856.1000001431,"correct":false,"confidence":1},{"trial_n":100,"min":85,"max":170,"target":"absent","response":"absent","rt":1729.7999999523,"correct":true,"confidence":2},{"trial_n":101,"min":85,"max":170,"target":"absent","response":"present","rt":1529.2000000477,"correct":false,"confidence":1},{"trial_n":102,"min":83,"max":172,"target":"absent","response":"absent","rt":1597.5,"correct":true,"confidence":1},{"trial_n":103,"min":83,"max":172,"target":"absent","response":"absent","rt":1732.8999998569,"correct":true,"confidence":1},{"trial_n":104,"min":85,"max":170,"target":"absent","response":"present","rt":1972.7999999523,"correct":false,"confidence":1},{"trial_n":105,"min":83,"max":172,"target":"present","response":"present","rt":2180,"correct":true,"confidence":2},{"trial_n":106,"min":83,"max":172,"target":"present","response":"present","rt":1598.5,"correct":true,"confidence":1},{"trial_n":107,"min":85,"max":170,"target":"present","response":"absent","rt":3185.2999999523,"correct":false,"confidence":1},{"trial_n":108,"min":83,"max":172,"target":"present","response":"absent","rt":2233.6000001431,"correct":false,"confidence":1},{"trial_n":109,"min":81,"max":174,"target":"present","response":"present","rt":1490.5999999046,"correct":true,"confidence":1},{"trial_n":110,"min":81,"max":174,"target":"absent","response":"present","rt":1629.2000000477,"correct":false,"confidence":1},{"trial_n":111,"min":80,"max":175,"target":"absent","response":"present","rt":1661.2999999523,"correct":false,"confidence":1},{"trial_n":112,"min":79,"max":176,"target":"absent","response":"absent","rt":1697.0999999046,"correct":true,"confidence":2},{"trial_n":113,"min":79,"max":176,"target":"present","response":"present","rt":1462.3999998569,"correct":true,"confidence":4},{"trial_n":114,"min":80,"max":175,"target":"absent","response":"absent","rt":1779,"correct":true,"confidence":2},{"trial_n":115,"min":80,"max":175,"target":"absent","response":"absent","rt":1672.9000000954,"correct":true,"confidence":2},{"trial_n":116,"min":81,"max":174,"target":"present","response":"present","rt":1531.2999999523,"correct":true,"confidence":2},{"trial_n":117,"min":81,"max":174,"target":"present","response":"absent","rt":1508.5,"correct":false,"confidence":3},{"trial_n":118,"min":80,"max":175,"target":"absent","response":"present","rt":1908.3999998569,"correct":false,"confidence":1},{"trial_n":119,"min":79,"max":176,"target":"absent","response":"absent","rt":1548.4000000954,"correct":true,"confidence":3},{"trial_n":120,"min":79,"max":176,"target":"present","response":"absent","rt":2224.2000000477,"correct":false,"confidence":1},{"trial_n":121,"min":78,"max":177,"target":"present","response":"present","rt":1473.6000001431,"correct":true,"confidence":4},{"trial_n":122,"min":78,"max":177,"target":"present","response":"present","rt":1382.5,"correct":true,"confidence":3},{"trial_n":123,"min":79,"max":176,"target":"present","response":"present","rt":1558.7000000477,"correct":true,"confidence":4},{"trial_n":124,"min":79,"max":176,"target":"present","response":"present","rt":1860.2999999523,"correct":true,"confidence":2},{"trial_n":125,"min":80,"max":175,"target":"absent","response":"present","rt":2715.7000000477,"correct":false,"confidence":1},{"trial_n":126,"min":79,"max":176,"target":"absent","response":"absent","rt":1832.0999999046,"correct":true,"confidence":1},{"trial_n":127,"min":79,"max":176,"target":"present","response":"present","rt":1713.2000000477,"correct":true,"confidence":3},{"trial_n":128,"min":80,"max":175,"target":"present","response":"present","rt":1746.5,"correct":true,"confidence":3},{"trial_n":129,"min":80,"max":175,"target":"absent","response":"absent","rt":1819.3000001907,"correct":true,"confidence":1},{"trial_n":130,"min":81,"max":174,"target":"absent","response":"absent","rt":1550.8999998569,"correct":true,"confidence":1},{"trial_n":131,"min":81,"max":174,"target":"present","response":"absent","rt":1616.9000000954,"correct":false,"confidence":1},{"trial_n":132,"min":80,"max":175,"target":"present","response":"present","rt":1607.6999998093,"correct":true,"confidence":3},{"trial_n":133,"min":80,"max":175,"target":"present","response":"present","rt":1181.2999999523,"correct":true,"confidence":4},{"trial_n":134,"min":81,"max":174,"target":"absent","response":"absent","rt":2542.7999999523,"correct":true,"confidence":4},{"trial_n":135,"min":81,"max":174,"target":"absent","response":"absent","rt":1794.9000000954,"correct":true,"confidence":3},{"trial_n":136,"min":82,"max":173,"target":"absent","response":"absent","rt":1548,"correct":true,"confidence":4},{"trial_n":137,"min":82,"max":173,"target":"present","response":"present","rt":1905.8000001907,"correct":true,"confidence":1},{"trial_n":138,"min":83,"max":172,"target":"present","response":"absent","rt":2196.0999999046,"correct":false,"confidence":1},{"trial_n":139,"min":82,"max":173,"target":"present","response":"present","rt":2526.7000000477,"correct":true,"confidence":2},{"trial_n":140,"min":82,"max":173,"target":"present","response":"present","rt":1523.0999999046,"correct":true,"confidence":3}]