[{"trial_n":1,"min":25,"max":230,"target":"present","response":"absent","rt":5071.5,"correct":false,"confidence":-1},{"trial_n":2,"min":25,"max":230,"target":"present","response":"present","rt":885.5,"correct":true,"confidence":-1},{"trial_n":3,"min":25,"max":230,"target":"absent","response":"absent","rt":966.39999999851,"correct":true,"confidence":-1},{"trial_n":4,"min":41,"max":214,"target":"absent","response":"absent","rt":1220.3000000007,"correct":true,"confidence":-1},{"trial_n":5,"min":41,"max":214,"target":"present","response":"present","rt":879,"correct":true,"confidence":-1},{"trial_n":6,"min":57,"max":198,"target":"absent","response":"absent","rt":769,"correct":true,"confidence":-1},{"trial_n":7,"min":57,"max":198,"target":"present","response":"present","rt":747.39999999851,"correct":true,"confidence":-1},{"trial_n":8,"min":73,"max":182,"target":"absent","response":"absent","rt":683.30000000075,"correct":true,"confidence":-1},{"trial_n":9,"min":73,"max":182,"target":"absent","response":"absent","rt":1251.4000000022,"correct":true,"confidence":-1},{"trial_n":10,"min":89,"max":166,"target":"present","response":"absent","rt":537.5,"correct":false,"confidence":-1},{"trial_n":11,"min":81,"max":174,"target":"present","response":"absent","rt":534.5,"correct":false,"confidence":-1},{"trial_n":12,"min":73,"max":182,"target":"present","response":"absent","rt":397.09999999776,"correct":false,"confidence":-1},{"trial_n":13,"min":65,"max":190,"target":"absent","response":"absent","rt":366.30000000075,"correct":true,"confidence":-1},{"trial_n":14,"min":65,"max":190,"target":"present","response":"absent","rt":380.39999999851,"correct":false,"confidence":-1},{"trial_n":15,"min":57,"max":198,"target":"absent","response":"absent","rt":350.19999999925,"correct":true,"confidence":-1},{"trial_n":16,"min":57,"max":198,"target":"present","response":"absent","rt":121.70000000298,"correct":false,"confidence":-1},{"trial_n":17,"min":49,"max":206,"target":"absent","response":"absent","rt":132.69999999925,"correct":true,"confidence":-1},{"trial_n":18,"min":49,"max":206,"target":"absent","response":"absent","rt":626.60000000149,"correct":true,"confidence":-1},{"trial_n":19,"min":57,"max":198,"target":"present","response":"absent","rt":350.19999999925,"correct":false,"confidence":-1},{"trial_n":20,"min":49,"max":206,"target":"absent","response":"absent","rt":375.5,"correct":true,"confidence":-1},{"trial_n":21,"min":49,"max":206,"target":"present","response":"present","rt":948.29999999702,"correct":true,"confidence":4},{"trial_n":22,"min":53,"max":202,"target":"present","response":"present","rt":1094.9000000022,"correct":true,"confidence":3},{"trial_n":23,"min":53,"max":202,"target":"present","response":"present","rt":816.19999999925,"correct":true,"confidence":3},{"trial_n":24,"min":57,"max":198,"target":"absent","response":"absent","rt":912,"correct":true,"confidence":4},{"trial_n":25,"min":57,"max":198,"target":"absent","response":"absent","rt":1150,"correct":true,"confidence":4},{"trial_n":26,"min":61,"max":194,"target":"absent","response":"absent","rt":772.40000000224,"correct":true,"confidence":4},{"trial_n":27,"min":61,"max":194,"target":"absent","response":"absent","rt":1220.6000000015,"correct":true,"confidence":3},{"trial_n":28,"min":65,"max":190,"target":"absent","response":"absent","rt":724.69999999925,"correct":true,"confidence":4},{"trial_n":29,"min":65,"max":190,"target":"present","response":"present","rt":743.19999999925,"correct":true,"confidence":3},{"trial_n":30,"min":69,"max":186,"target":"absent","response":"absent","rt":924.89999999851,"correct":true,"confidence":4},{"trial_n":31,"min":69,"max":186,"target":"absent","response":"absent","rt":981.5,"correct":true,"confidence":3},{"trial_n":32,"min":71,"max":184,"target":"absent","response":"absent","rt":684.89999999851,"correct":true,"confidence":2},{"trial_n":33,"min":71,"max":184,"target":"absent","response":"absent","rt":699.19999999925,"correct":true,"confidence":3},{"trial_n":34,"min":73,"max":182,"target":"present","response":"absent","rt":1001.8000000007,"correct":false,"confidence":3},{"trial_n":35,"min":71,"max":184,"target":"absent","response":"absent","rt":712.69999999925,"correct":true,"confidence":3},{"trial_n":36,"min":71,"max":184,"target":"present","response":"present","rt":734.90000000224,"correct":true,"confidence":3},{"trial_n":37,"min":73,"max":182,"target":"absent","response":"absent","rt":1450.3000000007,"correct":true,"confidence":2},{"trial_n":38,"min":73,"max":182,"target":"present","response":"present","rt":894.5,"correct":true,"confidence":4},{"trial_n":39,"min":75,"max":180,"target":"present","response":"present","rt":1145.3000000007,"correct":true,"confidence":3},{"trial_n":40,"min":75,"max":180,"target":"present","response":"present","rt":812.39999999851,"correct":true,"confidence":4},{"trial_n":41,"min":76,"max":179,"target":"present","response":"present","rt":819.60000000149,"correct":true,"confidence":4},{"trial_n":42,"min":76,"max":179,"target":"present","response":"absent","rt":1353.4000000022,"correct":false,"confidence":2},{"trial_n":43,"min":75,"max":180,"target":"absent","response":"absent","rt":1143.6000000015,"correct":true,"confidence":2},{"trial_n":44,"min":75,"max":180,"target":"present","response":"present","rt":1408.3000000007,"correct":true,"confidence":3},{"trial_n":45,"min":76,"max":179,"target":"present","response":"present","rt":846.39999999851,"correct":true,"confidence":3},{"trial_n":46,"min":76,"max":179,"target":"present","response":"absent","rt":849,"correct":false,"confidence":3},{"trial_n":47,"min":75,"max":180,"target":"present","response":"present","rt":747.30000000075,"correct":true,"confidence":4},{"trial_n":48,"min":75,"max":180,"target":"present","response":"present","rt":865.19999999925,"correct":true,"confidence":4},{"trial_n":49,"min":76,"max":179,"target":"absent","response":"absent","rt":853.89999999851,"correct":true,"confidence":3},{"trial_n":50,"min":76,"max":179,"target":"absent","response":"absent","rt":779.10000000149,"correct":true,"confidence":4},{"trial_n":51,"min":77,"max":178,"target":"absent","response":"absent","rt":829.5,"correct":true,"confidence":4},{"trial_n":52,"min":77,"max":178,"target":"present","response":"present","rt":1167,"correct":true,"confidence":2},{"trial_n":53,"min":78,"max":177,"target":"absent","response":"present","rt":1714.8000000007,"correct":false,"confidence":3},{"trial_n":54,"min":77,"max":178,"target":"present","response":"present","rt":796.60000000149,"correct":true,"confidence":4},{"trial_n":55,"min":77,"max":178,"target":"absent","response":"absent","rt":821.59999999776,"correct":true,"confidence":3},{"trial_n":56,"min":78,"max":177,"target":"absent","response":"absent","rt":893.80000000075,"correct":true,"confidence":3},{"trial_n":57,"min":78,"max":177,"target":"present","response":"present","rt":886.5,"correct":true,"confidence":4},{"trial_n":58,"min":79,"max":176,"target":"present","response":"present","rt":739.5,"correct":true,"confidence":4},{"trial_n":59,"min":79,"max":176,"target":"present","response":"present","rt":656.69999999925,"correct":true,"confidence":4},{"trial_n":60,"min":80,"max":175,"target":"absent","response":"absent","rt":713.60000000149,"correct":true,"confidence":3},{"trial_n":61,"min":80,"max":175,"target":"absent","response":"absent","rt":782.09999999776,"correct":true,"confidence":4},{"trial_n":62,"min":81,"max":174,"target":"present","response":"absent","rt":2615,"correct":false,"confidence":2},{"trial_n":63,"min":80,"max":175,"target":"present","response":"present","rt":916.30000000075,"correct":true,"confidence":4},{"trial_n":64,"min":80,"max":175,"target":"present","response":"absent","rt":862.30000000075,"correct":false,"confidence":2},{"trial_n":65,"min":79,"max":176,"target":"present","response":"absent","rt":777.40000000224,"correct":false,"confidence":3},{"trial_n":66,"min":78,"max":177,"target":"absent","response":"absent","rt":675.59999999776,"correct":true,"confidence":4},{"trial_n":67,"min":78,"max":177,"target":"absent","response":"absent","rt":677.19999999925,"correct":true,"confidence":4},{"trial_n":68,"min":79,"max":176,"target":"present","response":"present","rt":768.5,"correct":true,"confidence":3},{"trial_n":69,"min":79,"max":176,"target":"absent","response":"present","rt":652.20000000298,"correct":false,"confidence":3},{"trial_n":70,"min":78,"max":177,"target":"absent","response":"absent","rt":932.80000000075,"correct":true,"confidence":4},{"trial_n":71,"min":41,"max":214,"target":"present","response":"absent","rt":4596,"correct":false,"confidence":-1},{"trial_n":72,"min":41,"max":214,"target":"present","response":"present","rt":518.39999999851,"correct":true,"confidence":-1},{"trial_n":73,"min":41,"max":214,"target":"absent","response":"present","rt":538.89999999851,"correct":false,"confidence":-1},{"trial_n":74,"min":25,"max":230,"target":"absent","response":"absent","rt":827.10000000149,"correct":true,"confidence":-1},{"trial_n":75,"min":25,"max":230,"target":"present","response":"present","rt":416.39999999851,"correct":true,"confidence":-1},{"trial_n":76,"min":41,"max":214,"target":"absent","response":"absent","rt":462.69999999925,"correct":true,"confidence":-1},{"trial_n":77,"min":41,"max":214,"target":"present","response":"present","rt":204.89999999851,"correct":true,"confidence":-1},{"trial_n":78,"min":57,"max":198,"target":"absent","response":"absent","rt":363,"correct":true,"confidence":-1},{"trial_n":79,"min":57,"max":198,"target":"present","response":"present","rt":354.80000000075,"correct":true,"confidence":-1},{"trial_n":80,"min":73,"max":182,"target":"present","response":"present","rt":263.69999999925,"correct":true,"confidence":-1},{"trial_n":81,"min":73,"max":182,"target":"present","response":"present","rt":466.29999999702,"correct":true,"confidence":-1},{"trial_n":82,"min":81,"max":174,"target":"present","response":"present","rt":572.39999999851,"correct":true,"confidence":-1},{"trial_n":83,"min":81,"max":174,"target":"absent","response":"absent","rt":747.09999999776,"correct":true,"confidence":-1},{"trial_n":84,"min":89,"max":166,"target":"absent","response":"present","rt":711.69999999925,"correct":false,"confidence":-1},{"trial_n":85,"min":81,"max":174,"target":"absent","response":"absent","rt":504.40000000224,"correct":true,"confidence":-1},{"trial_n":86,"min":81,"max":174,"target":"present","response":"present","rt":621.69999999925,"correct":true,"confidence":-1},{"trial_n":87,"min":89,"max":166,"target":"absent","response":"absent","rt":756.89999999851,"correct":true,"confidence":-1},{"trial_n":88,"min":89,"max":166,"target":"present","response":"absent","rt":554.60000000149,"correct":false,"confidence":-1},{"trial_n":89,"min":81,"max":174,"target":"present","response":"present","rt":557.40000000224,"correct":true,"confidence":-1},{"trial_n":90,"min":81,"max":174,"target":"present","response":"present","rt":1036.5,"correct":true,"confidence":-1},{"trial_n":91,"min":85,"max":170,"target":"present","response":"present","rt":458.5,"correct":true,"confidence":4},{"trial_n":92,"min":85,"max":170,"target":"absent","response":"absent","rt":1597.6000000015,"correct":true,"confidence":3},{"trial_n":93,"min":89,"max":166,"target":"present","response":"present","rt":1252.3000000007,"correct":true,"confidence":4},{"trial_n":94,"min":89,"max":166,"target":"absent","response":"present","rt":1116.1000000015,"correct":false,"confidence":3},{"trial_n":95,"min":85,"max":170,"target":"absent","response":"present","rt":1847,"correct":false,"confidence":2},{"trial_n":96,"min":81,"max":174,"target":"present","response":"present","rt":955.60000000149,"correct":true,"confidence":4},{"trial_n":97,"min":81,"max":174,"target":"present","response":"present","rt":1195,"correct":true,"confidence":5},{"trial_n":98,"min":85,"max":170,"target":"absent","response":"absent","rt":1869.200000003,"correct":true,"confidence":3},{"trial_n":99,"min":85,"max":170,"target":"absent","response":"present","rt":1359.1999999993,"correct":false,"confidence":2},{"trial_n":100,"min":81,"max":174,"target":"absent","response":"present","rt":1009.3000000007,"correct":false,"confidence":2},{"trial_n":101,"min":79,"max":176,"target":"present","response":"present","rt":1213.6999999993,"correct":true,"confidence":4},{"trial_n":102,"min":79,"max":176,"target":"absent","response":"absent","rt":1497.4000000022,"correct":true,"confidence":3},{"trial_n":103,"min":81,"max":174,"target":"present","response":"present","rt":880.5,"correct":true,"confidence":4},{"trial_n":104,"min":81,"max":174,"target":"present","response":"present","rt":940.40000000224,"correct":true,"confidence":5},{"trial_n":105,"min":83,"max":172,"target":"absent","response":"absent","rt":1425.1999999993,"correct":true,"confidence":3},{"trial_n":106,"min":83,"max":172,"target":"absent","response":"present","rt":954.70000000298,"correct":false,"confidence":2},{"trial_n":107,"min":81,"max":174,"target":"absent","response":"present","rt":1133.6999999993,"correct":false,"confidence":3},{"trial_n":108,"min":79,"max":176,"target":"absent","response":"present","rt":910.10000000149,"correct":false,"confidence":3},{"trial_n":109,"min":77,"max":178,"target":"absent","response":"present","rt":872.90000000224,"correct":false,"confidence":2},{"trial_n":110,"min":75,"max":180,"target":"absent","response":"absent","rt":1670.5,"correct":true,"confidence":3},{"trial_n":111,"min":75,"max":180,"target":"absent","response":"present","rt":1012.0999999978,"correct":false,"confidence":3},{"trial_n":112,"min":74,"max":181,"target":"present","response":"absent","rt":1133.0999999978,"correct":false,"confidence":4},{"trial_n":113,"min":73,"max":182,"target":"absent","response":"present","rt":1788.8999999985,"correct":false,"confidence":3},{"trial_n":114,"min":72,"max":183,"target":"present","response":"present","rt":890.10000000149,"correct":true,"confidence":4},{"trial_n":115,"min":72,"max":183,"target":"absent","response":"present","rt":1190.0999999978,"correct":false,"confidence":3},{"trial_n":116,"min":71,"max":184,"target":"present","response":"present","rt":759.69999999925,"correct":true,"confidence":5},{"trial_n":117,"min":71,"max":184,"target":"present","response":"present","rt":1020.5,"correct":true,"confidence":5},{"trial_n":118,"min":72,"max":183,"target":"absent","response":"present","rt":817.09999999776,"correct":false,"confidence":3},{"trial_n":119,"min":71,"max":184,"target":"present","response":"present","rt":707.59999999776,"correct":true,"confidence":5},{"trial_n":120,"min":71,"max":184,"target":"present","response":"present","rt":1269.8000000007,"correct":true,"confidence":5},{"trial_n":121,"min":72,"max":183,"target":"present","response":"present","rt":784,"correct":true,"confidence":5},{"trial_n":122,"min":72,"max":183,"target":"absent","response":"present","rt":840.59999999776,"correct":false,"confidence":5},{"trial_n":123,"min":71,"max":184,"target":"absent","response":"absent","rt":1604.4000000022,"correct":true,"confidence":2},{"trial_n":124,"min":71,"max":184,"target":"present","response":"present","rt":602.09999999776,"correct":true,"confidence":4},{"trial_n":125,"min":72,"max":183,"target":"present","response":"present","rt":981.29999999702,"correct":true,"confidence":5},{"trial_n":126,"min":72,"max":183,"target":"present","response":"present","rt":762.69999999925,"correct":true,"confidence":5},{"trial_n":127,"min":73,"max":182,"target":"absent","response":"absent","rt":3890.3999999985,"correct":true,"confidence":4},{"trial_n":128,"min":73,"max":182,"target":"absent","response":"present","rt":1064.5,"correct":false,"confidence":4},{"trial_n":129,"min":72,"max":183,"target":"present","response":"present","rt":922.90000000224,"correct":true,"confidence":5},{"trial_n":130,"min":72,"max":183,"target":"absent","response":"absent","rt":1281.0999999978,"correct":true,"confidence":4},{"trial_n":131,"min":73,"max":182,"target":"absent","response":"absent","rt":1285,"correct":true,"confidence":3},{"trial_n":132,"min":73,"max":182,"target":"absent","response":"absent","rt":1179.9000000022,"correct":true,"confidence":4},{"trial_n":133,"min":74,"max":181,"target":"present","response":"present","rt":1452.5,"correct":true,"confidence":3},{"trial_n":134,"min":74,"max":181,"target":"present","response":"present","rt":1024.5,"correct":true,"confidence":5},{"trial_n":135,"min":75,"max":180,"target":"absent","response":"absent","rt":1308.799999997,"correct":true,"confidence":2},{"trial_n":136,"min":75,"max":180,"target":"present","response":"present","rt":1152.3000000007,"correct":true,"confidence":4},{"trial_n":137,"min":76,"max":179,"target":"absent","response":"present","rt":1261.1999999993,"correct":false,"confidence":2},{"trial_n":138,"min":75,"max":180,"target":"present","response":"present","rt":1290.700000003,"correct":true,"confidence":4},{"trial_n":139,"min":75,"max":180,"target":"present","response":"present","rt":823.40000000224,"correct":true,"confidence":3},{"trial_n":140,"min":76,"max":179,"target":"present","response":"present","rt":1090.6999999993,"correct":true,"confidence":4}]