[{"trial_n":1,"min":25,"max":230,"target":"present","response":"present","rt":1358.5,"correct":true,"confidence":-1},{"trial_n":2,"min":25,"max":230,"target":"present","response":"present","rt":212.60000038147,"correct":true,"confidence":-1},{"trial_n":3,"min":41,"max":214,"target":"absent","response":"absent","rt":154.5,"correct":true,"confidence":-1},{"trial_n":4,"min":41,"max":214,"target":"absent","response":"absent","rt":297.79999923706,"correct":true,"confidence":-1},{"trial_n":5,"min":57,"max":198,"target":"present","response":"present","rt":184.5,"correct":true,"confidence":-1},{"trial_n":6,"min":57,"max":198,"target":"present","response":"present","rt":692.19999980927,"correct":true,"confidence":-1},{"trial_n":7,"min":73,"max":182,"target":"present","response":"present","rt":218.9000005722,"correct":true,"confidence":-1},{"trial_n":8,"min":73,"max":182,"target":"present","response":"present","rt":176.30000019073,"correct":true,"confidence":-1},{"trial_n":9,"min":89,"max":166,"target":"absent","response":"absent","rt":249.5,"correct":true,"confidence":-1},{"trial_n":10,"min":89,"max":166,"target":"present","response":"absent","rt":308.5,"correct":false,"confidence":-1},{"trial_n":11,"min":81,"max":174,"target":"present","response":"present","rt":551.5,"correct":true,"confidence":-1},{"trial_n":12,"min":81,"max":174,"target":"present","response":"absent","rt":379.89999961853,"correct":false,"confidence":-1},{"trial_n":13,"min":73,"max":182,"target":"present","response":"present","rt":593.0999994278,"correct":true,"confidence":-1},{"trial_n":14,"min":73,"max":182,"target":"present","response":"present","rt":200.10000038147,"correct":true,"confidence":-1},{"trial_n":15,"min":81,"max":174,"target":"absent","response":"absent","rt":285,"correct":true,"confidence":-1},{"trial_n":16,"min":81,"max":174,"target":"absent","response":"absent","rt":297.79999923706,"correct":true,"confidence":-1},{"trial_n":17,"min":89,"max":166,"target":"absent","response":"absent","rt":330.30000019073,"correct":true,"confidence":-1},{"trial_n":18,"min":89,"max":166,"target":"absent","response":"absent","rt":345.60000038147,"correct":true,"confidence":-1},{"trial_n":19,"min":97,"max":158,"target":"present","response":"absent","rt":365.89999961853,"correct":false,"confidence":-1},{"trial_n":20,"min":89,"max":166,"target":"absent","response":"absent","rt":650.19999980927,"correct":true,"confidence":-1},{"trial_n":21,"min":89,"max":166,"target":"present","response":"absent","rt":377.20000076294,"correct":false,"confidence":3},{"trial_n":22,"min":85,"max":170,"target":"present","response":"absent","rt":1203.4000005722,"correct":false,"confidence":3},{"trial_n":23,"min":81,"max":174,"target":"present","response":"present","rt":1263.4000005722,"correct":true,"confidence":3},{"trial_n":24,"min":81,"max":174,"target":"present","response":"present","rt":523.30000019073,"correct":true,"confidence":4},{"trial_n":25,"min":85,"max":170,"target":"absent","response":"absent","rt":966.5999994278,"correct":true,"confidence":3},{"trial_n":26,"min":85,"max":170,"target":"absent","response":"absent","rt":2627.5,"correct":true,"confidence":2},{"trial_n":27,"min":89,"max":166,"target":"present","response":"absent","rt":1182.8999996185,"correct":false,"confidence":2},{"trial_n":28,"min":85,"max":170,"target":"present","response":"absent","rt":761.5,"correct":false,"confidence":4},{"trial_n":29,"min":81,"max":174,"target":"absent","response":"absent","rt":1877.3000001907,"correct":true,"confidence":2},{"trial_n":30,"min":81,"max":174,"target":"present","response":"present","rt":950.30000019073,"correct":true,"confidence":3},{"trial_n":31,"min":83,"max":172,"target":"present","response":"present","rt":693.4000005722,"correct":true,"confidence":5},{"trial_n":32,"min":83,"max":172,"target":"present","response":"present","rt":1118.6000003815,"correct":true,"confidence":4},{"trial_n":33,"min":85,"max":170,"target":"present","response":"present","rt":470.80000019073,"correct":true,"confidence":5},{"trial_n":34,"min":85,"max":170,"target":"absent","response":"present","rt":930.10000038147,"correct":false,"confidence":3},{"trial_n":35,"min":83,"max":172,"target":"absent","response":"present","rt":1982.8000001907,"correct":false,"confidence":3},{"trial_n":36,"min":81,"max":174,"target":"absent","response":"present","rt":325.69999980927,"correct":false,"confidence":2},{"trial_n":37,"min":79,"max":176,"target":"absent","response":"present","rt":1007.0999994278,"correct":false,"confidence":1},{"trial_n":38,"min":77,"max":178,"target":"present","response":"present","rt":1926.5,"correct":true,"confidence":2},{"trial_n":39,"min":77,"max":178,"target":"absent","response":"absent","rt":757,"correct":true,"confidence":1},{"trial_n":40,"min":79,"max":176,"target":"present","response":"present","rt":727.39999961853,"correct":true,"confidence":4},{"trial_n":41,"min":79,"max":176,"target":"absent","response":"absent","rt":1656.8000001907,"correct":true,"confidence":4},{"trial_n":42,"min":80,"max":175,"target":"present","response":"absent","rt":1187.8000001907,"correct":false,"confidence":3},{"trial_n":43,"min":79,"max":176,"target":"present","response":"present","rt":764.89999961853,"correct":true,"confidence":3},{"trial_n":44,"min":79,"max":176,"target":"absent","response":"absent","rt":546.4000005722,"correct":true,"confidence":4},{"trial_n":45,"min":80,"max":175,"target":"present","response":"present","rt":726.69999980927,"correct":true,"confidence":4},{"trial_n":46,"min":80,"max":175,"target":"absent","response":"absent","rt":639.5,"correct":true,"confidence":4},{"trial_n":47,"min":81,"max":174,"target":"absent","response":"absent","rt":549,"correct":true,"confidence":4},{"trial_n":48,"min":81,"max":174,"target":"absent","response":"absent","rt":1349.6000003815,"correct":true,"confidence":2},{"trial_n":49,"min":82,"max":173,"target":"present","response":"absent","rt":675.89999961853,"correct":false,"confidence":2},{"trial_n":50,"min":81,"max":174,"target":"absent","response":"absent","rt":596.30000019073,"correct":true,"confidence":2},{"trial_n":51,"min":81,"max":174,"target":"present","response":"present","rt":795.10000038147,"correct":true,"confidence":4},{"trial_n":52,"min":82,"max":173,"target":"absent","response":"absent","rt":906.9000005722,"correct":true,"confidence":3},{"trial_n":53,"min":82,"max":173,"target":"present","response":"present","rt":678.5999994278,"correct":true,"confidence":4},{"trial_n":54,"min":83,"max":172,"target":"present","response":"absent","rt":567.89999961853,"correct":false,"confidence":3},{"trial_n":55,"min":82,"max":173,"target":"absent","response":"absent","rt":651.20000076294,"correct":true,"confidence":2},{"trial_n":56,"min":82,"max":173,"target":"absent","response":"absent","rt":509.19999980927,"correct":true,"confidence":4},{"trial_n":57,"min":83,"max":172,"target":"present","response":"absent","rt":553.19999980927,"correct":false,"confidence":4},{"trial_n":58,"min":82,"max":173,"target":"present","response":"absent","rt":418.30000019073,"correct":false,"confidence":4},{"trial_n":59,"min":81,"max":174,"target":"absent","response":"absent","rt":586.0999994278,"correct":true,"confidence":4},{"trial_n":60,"min":81,"max":174,"target":"absent","response":"absent","rt":394.5,"correct":true,"confidence":4},{"trial_n":61,"min":82,"max":173,"target":"present","response":"present","rt":711.30000019073,"correct":true,"confidence":3},{"trial_n":62,"min":82,"max":173,"target":"absent","response":"absent","rt":2050.6000003815,"correct":true,"confidence":2},{"trial_n":63,"min":83,"max":172,"target":"present","response":"present","rt":989.9000005722,"correct":true,"confidence":3},{"trial_n":64,"min":83,"max":172,"target":"absent","response":"absent","rt":470.0999994278,"correct":true,"confidence":3},{"trial_n":65,"min":84,"max":171,"target":"absent","response":"absent","rt":3277.0999994278,"correct":true,"confidence":1},{"trial_n":66,"min":84,"max":171,"target":"absent","response":"present","rt":875,"correct":false,"confidence":2},{"trial_n":67,"min":83,"max":172,"target":"absent","response":"absent","rt":581.30000019073,"correct":true,"confidence":2},{"trial_n":68,"min":83,"max":172,"target":"absent","response":"absent","rt":428.69999980927,"correct":true,"confidence":2},{"trial_n":69,"min":84,"max":171,"target":"absent","response":"absent","rt":881.69999980927,"correct":true,"confidence":3},{"trial_n":70,"min":84,"max":171,"target":"present","response":"present","rt":477,"correct":true,"confidence":4},{"trial_n":71,"min":41,"max":214,"target":"present","response":"present","rt":13976.199999809,"correct":true,"confidence":-1},{"trial_n":72,"min":41,"max":214,"target":"present","response":"absent","rt":4876.8000001907,"correct":false,"confidence":-1},{"trial_n":73,"min":25,"max":230,"target":"absent","response":"present","rt":5197.1000003815,"correct":false,"confidence":-1},{"trial_n":74,"min":9,"max":246,"target":"absent","response":"absent","rt":773.5,"correct":true,"confidence":-1},{"trial_n":75,"min":9,"max":246,"target":"present","response":"present","rt":357.0999994278,"correct":true,"confidence":-1},{"trial_n":76,"min":25,"max":230,"target":"absent","response":"absent","rt":482.30000019073,"correct":true,"confidence":-1},{"trial_n":77,"min":25,"max":230,"target":"present","response":"present","rt":323.9000005722,"correct":true,"confidence":-1},{"trial_n":78,"min":41,"max":214,"target":"present","response":"absent","rt":340.80000019073,"correct":false,"confidence":-1},{"trial_n":79,"min":25,"max":230,"target":"present","response":"present","rt":386.5999994278,"correct":true,"confidence":-1},{"trial_n":80,"min":25,"max":230,"target":"present","response":"present","rt":305,"correct":true,"confidence":-1},{"trial_n":81,"min":33,"max":222,"target":"present","response":"present","rt":402.19999980927,"correct":true,"confidence":-1},{"trial_n":82,"min":33,"max":222,"target":"absent","response":"absent","rt":420.5999994278,"correct":true,"confidence":-1},{"trial_n":83,"min":41,"max":214,"target":"present","response":"present","rt":418.4000005722,"correct":true,"confidence":-1},{"trial_n":84,"min":41,"max":214,"target":"present","response":"present","rt":513.60000038147,"correct":true,"confidence":-1},{"trial_n":85,"min":49,"max":206,"target":"present","response":"present","rt":3301.6000003815,"correct":true,"confidence":-1},{"trial_n":86,"min":49,"max":206,"target":"present","response":"present","rt":222.5,"correct":true,"confidence":-1},{"trial_n":87,"min":57,"max":198,"target":"absent","response":"present","rt":519.70000076294,"correct":false,"confidence":-1},{"trial_n":88,"min":49,"max":206,"target":"present","response":"present","rt":363.19999980927,"correct":true,"confidence":-1},{"trial_n":89,"min":49,"max":206,"target":"absent","response":"absent","rt":481.39999961853,"correct":true,"confidence":-1},{"trial_n":90,"min":57,"max":198,"target":"absent","response":"absent","rt":583.10000038147,"correct":true,"confidence":-1},{"trial_n":91,"min":57,"max":198,"target":"absent","response":"absent","rt":492.19999980927,"correct":true,"confidence":5},{"trial_n":92,"min":61,"max":194,"target":"absent","response":"absent","rt":792.80000019073,"correct":true,"confidence":4},{"trial_n":93,"min":61,"max":194,"target":"present","response":"present","rt":397.19999980927,"correct":true,"confidence":5},{"trial_n":94,"min":65,"max":190,"target":"present","response":"present","rt":282.60000038147,"correct":true,"confidence":4},{"trial_n":95,"min":65,"max":190,"target":"present","response":"present","rt":855.30000019073,"correct":true,"confidence":3},{"trial_n":96,"min":69,"max":186,"target":"absent","response":"absent","rt":594.19999980927,"correct":true,"confidence":3},{"trial_n":97,"min":69,"max":186,"target":"absent","response":"absent","rt":562.5999994278,"correct":true,"confidence":3},{"trial_n":98,"min":73,"max":182,"target":"present","response":"present","rt":230.5,"correct":true,"confidence":4},{"trial_n":99,"min":73,"max":182,"target":"absent","response":"absent","rt":438.69999980927,"correct":true,"confidence":4},{"trial_n":100,"min":77,"max":178,"target":"absent","response":"present","rt":1490.7000007629,"correct":false,"confidence":2},{"trial_n":101,"min":75,"max":180,"target":"absent","response":"absent","rt":868,"correct":true,"confidence":4},{"trial_n":102,"min":75,"max":180,"target":"absent","response":"absent","rt":197.80000019073,"correct":true,"confidence":5},{"trial_n":103,"min":77,"max":178,"target":"present","response":"present","rt":290.19999980927,"correct":true,"confidence":4},{"trial_n":104,"min":77,"max":178,"target":"present","response":"present","rt":207,"correct":true,"confidence":4},{"trial_n":105,"min":79,"max":176,"target":"absent","response":"absent","rt":251.69999980927,"correct":true,"confidence":4},{"trial_n":106,"min":79,"max":176,"target":"present","response":"present","rt":121.80000019073,"correct":true,"confidence":5},{"trial_n":107,"min":81,"max":174,"target":"absent","response":"absent","rt":226.29999923706,"correct":true,"confidence":5},{"trial_n":108,"min":81,"max":174,"target":"absent","response":"present","rt":4878.2999992371,"correct":false,"confidence":2},{"trial_n":109,"min":79,"max":176,"target":"absent","response":"absent","rt":444.80000019073,"correct":true,"confidence":3},{"trial_n":110,"min":79,"max":176,"target":"absent","response":"absent","rt":238.4000005722,"correct":true,"confidence":4},{"trial_n":111,"min":80,"max":175,"target":"present","response":"present","rt":183.4000005722,"correct":true,"confidence":4},{"trial_n":112,"min":80,"max":175,"target":"absent","response":"absent","rt":841.30000019073,"correct":true,"confidence":2},{"trial_n":113,"min":81,"max":174,"target":"present","response":"present","rt":278.69999980927,"correct":true,"confidence":5},{"trial_n":114,"min":81,"max":174,"target":"present","response":"present","rt":587.9000005722,"correct":true,"confidence":5},{"trial_n":115,"min":82,"max":173,"target":"absent","response":"present","rt":1538.6999998093,"correct":false,"confidence":1},{"trial_n":116,"min":81,"max":174,"target":"absent","response":"present","rt":626.10000038147,"correct":false,"confidence":3},{"trial_n":117,"min":80,"max":175,"target":"present","response":"absent","rt":1149.3000001907,"correct":false,"confidence":1},{"trial_n":118,"min":79,"max":176,"target":"absent","response":"present","rt":764.70000076294,"correct":false,"confidence":1},{"trial_n":119,"min":78,"max":177,"target":"present","response":"absent","rt":505.10000038147,"correct":false,"confidence":3},{"trial_n":120,"min":77,"max":178,"target":"absent","response":"absent","rt":555.30000019073,"correct":true,"confidence":2},{"trial_n":121,"min":77,"max":178,"target":"absent","response":"absent","rt":452.4000005722,"correct":true,"confidence":2},{"trial_n":122,"min":78,"max":177,"target":"absent","response":"absent","rt":671.9000005722,"correct":true,"confidence":1},{"trial_n":123,"min":78,"max":177,"target":"present","response":"present","rt":180.69999980927,"correct":true,"confidence":4},{"trial_n":124,"min":79,"max":176,"target":"present","response":"present","rt":213.19999980927,"correct":true,"confidence":3},{"trial_n":125,"min":79,"max":176,"target":"present","response":"present","rt":215.80000019073,"correct":true,"confidence":5},{"trial_n":126,"min":80,"max":175,"target":"present","response":"present","rt":1211.2999992371,"correct":true,"confidence":2},{"trial_n":127,"min":80,"max":175,"target":"absent","response":"absent","rt":466.30000019073,"correct":true,"confidence":2},{"trial_n":128,"min":81,"max":174,"target":"present","response":"present","rt":312.5,"correct":true,"confidence":4},{"trial_n":129,"min":81,"max":174,"target":"absent","response":"absent","rt":743.39999961853,"correct":true,"confidence":1},{"trial_n":130,"min":82,"max":173,"target":"absent","response":"absent","rt":435.39999961853,"correct":true,"confidence":3},{"trial_n":131,"min":82,"max":173,"target":"absent","response":"absent","rt":480.5,"correct":true,"confidence":3},{"trial_n":132,"min":83,"max":172,"target":"absent","response":"absent","rt":564.69999980927,"correct":true,"confidence":4},{"trial_n":133,"min":83,"max":172,"target":"present","response":"present","rt":1081.1999998093,"correct":true,"confidence":1},{"trial_n":134,"min":84,"max":171,"target":"absent","response":"absent","rt":360.60000038147,"correct":true,"confidence":3},{"trial_n":135,"min":84,"max":171,"target":"present","response":"present","rt":145.30000019073,"correct":true,"confidence":4},{"trial_n":136,"min":85,"max":170,"target":"present","response":"present","rt":616.89999961853,"correct":true,"confidence":4},{"trial_n":137,"min":85,"max":170,"target":"present","response":"present","rt":179.60000038147,"correct":true,"confidence":3},{"trial_n":138,"min":86,"max":169,"target":"present","response":"absent","rt":1585.1000003815,"correct":false,"confidence":1},{"trial_n":139,"min":85,"max":170,"target":"absent","response":"present","rt":851.19999980927,"correct":false,"confidence":1},{"trial_n":140,"min":84,"max":171,"target":"present","response":"present","rt":348.4000005722,"correct":true,"confidence":3}]