[{"trial_n":1,"min":25,"max":230,"target":"present","response":"present","rt":2701.1999999285,"correct":true,"confidence":-1},{"trial_n":2,"min":25,"max":230,"target":"present","response":"present","rt":1199.5,"correct":true,"confidence":-1},{"trial_n":3,"min":41,"max":214,"target":"absent","response":"absent","rt":1118.6000000238,"correct":true,"confidence":-1},{"trial_n":4,"min":41,"max":214,"target":"absent","response":"absent","rt":3787.2000000477,"correct":true,"confidence":-1},{"trial_n":5,"min":57,"max":198,"target":"present","response":"present","rt":450,"correct":true,"confidence":-1},{"trial_n":6,"min":57,"max":198,"target":"absent","response":"absent","rt":359.80000007153,"correct":true,"confidence":-1},{"trial_n":7,"min":73,"max":182,"target":"present","response":"present","rt":697,"correct":true,"confidence":-1},{"trial_n":8,"min":73,"max":182,"target":"present","response":"present","rt":544.79999995232,"correct":true,"confidence":-1},{"trial_n":9,"min":89,"max":166,"target":"present","response":"absent","rt":440.19999992847,"correct":false,"confidence":-1},{"trial_n":10,"min":73,"max":182,"target":"absent","response":"absent","rt":435.29999995232,"correct":true,"confidence":-1},{"trial_n":11,"min":73,"max":182,"target":"absent","response":"absent","rt":496.90000009537,"correct":true,"confidence":-1},{"trial_n":12,"min":81,"max":174,"target":"present","response":"present","rt":554.80000007153,"correct":true,"confidence":-1},{"trial_n":13,"min":81,"max":174,"target":"absent","response":"absent","rt":467.90000009537,"correct":true,"confidence":-1},{"trial_n":14,"min":89,"max":166,"target":"present","response":"absent","rt":368.30000007153,"correct":false,"confidence":-1},{"trial_n":15,"min":81,"max":174,"target":"present","response":"present","rt":349.60000002384,"correct":true,"confidence":-1},{"trial_n":16,"min":81,"max":174,"target":"absent","response":"absent","rt":436.5,"correct":true,"confidence":-1},{"trial_n":17,"min":89,"max":166,"target":"absent","response":"absent","rt":483.5,"correct":true,"confidence":-1},{"trial_n":18,"min":89,"max":166,"target":"absent","response":"absent","rt":484.60000002384,"correct":true,"confidence":-1},{"trial_n":19,"min":97,"max":158,"target":"absent","response":"absent","rt":414.5,"correct":true,"confidence":-1},{"trial_n":20,"min":97,"max":158,"target":"present","response":"present","rt":531.60000002384,"correct":true,"confidence":-1},{"trial_n":21,"min":101,"max":154,"target":"present","response":"present","rt":1500.7999999523,"correct":true,"confidence":2},{"trial_n":22,"min":101,"max":154,"target":"present","response":"absent","rt":1249.2000000477,"correct":false,"confidence":1},{"trial_n":23,"min":97,"max":158,"target":"absent","response":"absent","rt":840.80000007153,"correct":true,"confidence":1},{"trial_n":24,"min":97,"max":158,"target":"present","response":"absent","rt":1243.8999999762,"correct":false,"confidence":3},{"trial_n":25,"min":93,"max":162,"target":"present","response":"present","rt":1732.7000000477,"correct":true,"confidence":2},{"trial_n":26,"min":93,"max":162,"target":"absent","response":"absent","rt":778.29999995232,"correct":true,"confidence":3},{"trial_n":27,"min":97,"max":158,"target":"present","response":"present","rt":2733.1999999285,"correct":true,"confidence":1},{"trial_n":28,"min":97,"max":158,"target":"present","response":"absent","rt":828.39999997616,"correct":false,"confidence":3},{"trial_n":29,"min":93,"max":162,"target":"present","response":"absent","rt":852.40000009537,"correct":false,"confidence":4},{"trial_n":30,"min":89,"max":166,"target":"present","response":"absent","rt":1654.5,"correct":false,"confidence":1},{"trial_n":31,"min":87,"max":168,"target":"absent","response":"absent","rt":2167,"correct":true,"confidence":2},{"trial_n":32,"min":87,"max":168,"target":"absent","response":"absent","rt":1674.8999999762,"correct":true,"confidence":1},{"trial_n":33,"min":89,"max":166,"target":"present","response":"absent","rt":1654.8999999762,"correct":false,"confidence":3},{"trial_n":34,"min":87,"max":168,"target":"absent","response":"absent","rt":1323.7000000477,"correct":true,"confidence":3},{"trial_n":35,"min":87,"max":168,"target":"present","response":"absent","rt":1324.3999999762,"correct":false,"confidence":3},{"trial_n":36,"min":85,"max":170,"target":"absent","response":"present","rt":1367.3999999762,"correct":false,"confidence":3},{"trial_n":37,"min":83,"max":172,"target":"absent","response":"absent","rt":1293,"correct":true,"confidence":2},{"trial_n":38,"min":83,"max":172,"target":"present","response":"absent","rt":14442.899999976,"correct":false,"confidence":1},{"trial_n":39,"min":81,"max":174,"target":"absent","response":"absent","rt":1196.3000000715,"correct":true,"confidence":1},{"trial_n":40,"min":81,"max":174,"target":"absent","response":"present","rt":1340.6000000238,"correct":false,"confidence":2},{"trial_n":41,"min":80,"max":175,"target":"present","response":"present","rt":955,"correct":true,"confidence":4},{"trial_n":42,"min":80,"max":175,"target":"absent","response":"present","rt":896.30000007153,"correct":false,"confidence":2},{"trial_n":43,"min":79,"max":176,"target":"absent","response":"present","rt":1441,"correct":false,"confidence":2},{"trial_n":44,"min":78,"max":177,"target":"absent","response":"absent","rt":2778.7000000477,"correct":true,"confidence":1},{"trial_n":45,"min":78,"max":177,"target":"absent","response":"present","rt":1290.7999999523,"correct":false,"confidence":2},{"trial_n":46,"min":77,"max":178,"target":"absent","response":"absent","rt":1899.1999999285,"correct":true,"confidence":3},{"trial_n":47,"min":77,"max":178,"target":"absent","response":"present","rt":1457.6000000238,"correct":false,"confidence":2},{"trial_n":48,"min":76,"max":179,"target":"present","response":"absent","rt":10064.5,"correct":false,"confidence":4},{"trial_n":49,"min":75,"max":180,"target":"absent","response":"present","rt":1301.8999999762,"correct":false,"confidence":1},{"trial_n":50,"min":74,"max":181,"target":"absent","response":"absent","rt":1302.3999999762,"correct":true,"confidence":1},{"trial_n":51,"min":74,"max":181,"target":"present","response":"present","rt":956.80000007153,"correct":true,"confidence":3},{"trial_n":52,"min":75,"max":180,"target":"present","response":"present","rt":951.39999997616,"correct":true,"confidence":3},{"trial_n":53,"min":75,"max":180,"target":"present","response":"present","rt":919.79999995232,"correct":true,"confidence":5},{"trial_n":54,"min":76,"max":179,"target":"absent","response":"present","rt":1490.1000000238,"correct":false,"confidence":2},{"trial_n":55,"min":75,"max":180,"target":"absent","response":"absent","rt":951,"correct":true,"confidence":2},{"trial_n":56,"min":75,"max":180,"target":"present","response":"present","rt":1306.9000000954,"correct":true,"confidence":4},{"trial_n":57,"min":76,"max":179,"target":"absent","response":"absent","rt":802,"correct":true,"confidence":4},{"trial_n":58,"min":76,"max":179,"target":"present","response":"present","rt":1735.6000000238,"correct":true,"confidence":2},{"trial_n":59,"min":77,"max":178,"target":"present","response":"present","rt":17469.799999952,"correct":true,"confidence":2},{"trial_n":60,"min":77,"max":178,"target":"absent","response":"absent","rt":908.5,"correct":true,"confidence":1},{"trial_n":61,"min":78,"max":177,"target":"present","response":"present","rt":1305.2000000477,"correct":true,"confidence":4},{"trial_n":62,"min":78,"max":177,"target":"absent","response":"absent","rt":1338.3000000715,"correct":true,"confidence":2},{"trial_n":63,"min":79,"max":176,"target":"present","response":"present","rt":982.60000002384,"correct":true,"confidence":2},{"trial_n":64,"min":79,"max":176,"target":"present","response":"present","rt":884.80000007153,"correct":true,"confidence":2},{"trial_n":65,"min":80,"max":175,"target":"absent","response":"present","rt":73138,"correct":false,"confidence":1},{"trial_n":66,"min":79,"max":176,"target":"present","response":"present","rt":1412.8000000715,"correct":true,"confidence":3},{"trial_n":67,"min":79,"max":176,"target":"present","response":"present","rt":1748.7999999523,"correct":true,"confidence":3},{"trial_n":68,"min":80,"max":175,"target":"absent","response":"absent","rt":1326.8999999762,"correct":true,"confidence":4},{"trial_n":69,"min":80,"max":175,"target":"present","response":"present","rt":877.89999997616,"correct":true,"confidence":5},{"trial_n":70,"min":81,"max":174,"target":"present","response":"present","rt":1214.3999999762,"correct":true,"confidence":2},{"trial_n":71,"min":41,"max":214,"target":"present","response":"present","rt":3011.3000000715,"correct":true,"confidence":-1},{"trial_n":72,"min":41,"max":214,"target":"present","response":"absent","rt":377557.4000001,"correct":false,"confidence":-1},{"trial_n":73,"min":25,"max":230,"target":"absent","response":"present","rt":1108.2000000477,"correct":false,"confidence":-1},{"trial_n":74,"min":9,"max":246,"target":"absent","response":"absent","rt":1085.6000000238,"correct":true,"confidence":-1},{"trial_n":75,"min":9,"max":246,"target":"present","response":"present","rt":917.5,"correct":true,"confidence":-1},{"trial_n":76,"min":25,"max":230,"target":"absent","response":"absent","rt":1430.5,"correct":true,"confidence":-1},{"trial_n":77,"min":25,"max":230,"target":"present","response":"present","rt":831.39999997616,"correct":true,"confidence":-1},{"trial_n":78,"min":41,"max":214,"target":"absent","response":"absent","rt":1393.1000000238,"correct":true,"confidence":-1},{"trial_n":79,"min":41,"max":214,"target":"present","response":"present","rt":308.30000007153,"correct":true,"confidence":-1},{"trial_n":80,"min":57,"max":198,"target":"absent","response":"absent","rt":445.60000002384,"correct":true,"confidence":-1},{"trial_n":81,"min":57,"max":198,"target":"present","response":"present","rt":422.60000002384,"correct":true,"confidence":-1},{"trial_n":82,"min":65,"max":190,"target":"absent","response":"absent","rt":2330.8999999762,"correct":true,"confidence":-1},{"trial_n":83,"min":65,"max":190,"target":"absent","response":"absent","rt":502.70000004768,"correct":true,"confidence":-1},{"trial_n":84,"min":73,"max":182,"target":"present","response":"present","rt":666,"correct":true,"confidence":-1},{"trial_n":85,"min":73,"max":182,"target":"present","response":"present","rt":556.39999997616,"correct":true,"confidence":-1},{"trial_n":86,"min":81,"max":174,"target":"present","response":"absent","rt":1108,"correct":false,"confidence":-1},{"trial_n":87,"min":73,"max":182,"target":"absent","response":"present","rt":532.39999997616,"correct":false,"confidence":-1},{"trial_n":88,"min":65,"max":190,"target":"absent","response":"absent","rt":585.70000004768,"correct":true,"confidence":-1},{"trial_n":89,"min":65,"max":190,"target":"absent","response":"present","rt":583.60000002384,"correct":false,"confidence":-1},{"trial_n":90,"min":57,"max":198,"target":"present","response":"absent","rt":3984.1000000238,"correct":false,"confidence":-1},{"trial_n":91,"min":53,"max":202,"target":"present","response":"present","rt":478.39999997616,"correct":true,"confidence":3},{"trial_n":92,"min":53,"max":202,"target":"absent","response":"absent","rt":1341.1000000238,"correct":true,"confidence":3},{"trial_n":93,"min":57,"max":198,"target":"present","response":"present","rt":827,"correct":true,"confidence":3},{"trial_n":94,"min":57,"max":198,"target":"present","response":"present","rt":425.60000002384,"correct":true,"confidence":5},{"trial_n":95,"min":61,"max":194,"target":"absent","response":"absent","rt":1297,"correct":true,"confidence":4},{"trial_n":96,"min":61,"max":194,"target":"present","response":"present","rt":309.10000002384,"correct":true,"confidence":3},{"trial_n":97,"min":65,"max":190,"target":"absent","response":"absent","rt":553.20000004768,"correct":true,"confidence":4},{"trial_n":98,"min":65,"max":190,"target":"absent","response":"absent","rt":764,"correct":true,"confidence":4},{"trial_n":99,"min":69,"max":186,"target":"present","response":"present","rt":302.20000004768,"correct":true,"confidence":5},{"trial_n":100,"min":69,"max":186,"target":"present","response":"present","rt":541.90000009537,"correct":true,"confidence":5},{"trial_n":101,"min":71,"max":184,"target":"present","response":"present","rt":387.20000004768,"correct":true,"confidence":5},{"trial_n":102,"min":71,"max":184,"target":"present","response":"present","rt":335.80000007153,"correct":true,"confidence":5},{"trial_n":103,"min":73,"max":182,"target":"absent","response":"absent","rt":549.20000004768,"correct":true,"confidence":1},{"trial_n":104,"min":73,"max":182,"target":"absent","response":"absent","rt":1371.2999999523,"correct":true,"confidence":1},{"trial_n":105,"min":75,"max":180,"target":"absent","response":"present","rt":605.70000004768,"correct":false,"confidence":5},{"trial_n":106,"min":73,"max":182,"target":"absent","response":"absent","rt":380.09999990463,"correct":true,"confidence":5},{"trial_n":107,"min":73,"max":182,"target":"present","response":"present","rt":257.60000002384,"correct":true,"confidence":5},{"trial_n":108,"min":75,"max":180,"target":"absent","response":"absent","rt":441.39999997616,"correct":true,"confidence":5},{"trial_n":109,"min":75,"max":180,"target":"present","response":"present","rt":470.80000007153,"correct":true,"confidence":5},{"trial_n":110,"min":77,"max":178,"target":"absent","response":"present","rt":1661.8999999762,"correct":false,"confidence":1},{"trial_n":111,"min":76,"max":179,"target":"present","response":"present","rt":391.19999992847,"correct":true,"confidence":5},{"trial_n":112,"min":76,"max":179,"target":"present","response":"present","rt":287.29999995232,"correct":true,"confidence":5},{"trial_n":113,"min":77,"max":178,"target":"present","response":"present","rt":350.20000004768,"correct":true,"confidence":5},{"trial_n":114,"min":77,"max":178,"target":"absent","response":"absent","rt":407.89999997616,"correct":true,"confidence":5},{"trial_n":115,"min":78,"max":177,"target":"present","response":"present","rt":320,"correct":true,"confidence":5},{"trial_n":116,"min":78,"max":177,"target":"present","response":"present","rt":337.10000002384,"correct":true,"confidence":5},{"trial_n":117,"min":79,"max":176,"target":"present","response":"absent","rt":664.89999997616,"correct":false,"confidence":5},{"trial_n":118,"min":78,"max":177,"target":"absent","response":"absent","rt":745.09999990463,"correct":true,"confidence":5},{"trial_n":119,"min":78,"max":177,"target":"present","response":"present","rt":434.69999992847,"correct":true,"confidence":5},{"trial_n":120,"min":79,"max":176,"target":"present","response":"absent","rt":530.10000002384,"correct":false,"confidence":1},{"trial_n":121,"min":78,"max":177,"target":"present","response":"present","rt":399.80000007153,"correct":true,"confidence":5},{"trial_n":122,"min":78,"max":177,"target":"present","response":"present","rt":329.29999995232,"correct":true,"confidence":5},{"trial_n":123,"min":79,"max":176,"target":"absent","response":"present","rt":471,"correct":false,"confidence":5},{"trial_n":124,"min":78,"max":177,"target":"absent","response":"present","rt":624.79999995232,"correct":false,"confidence":5},{"trial_n":125,"min":77,"max":178,"target":"absent","response":"absent","rt":582.39999997616,"correct":true,"confidence":5},{"trial_n":126,"min":77,"max":178,"target":"present","response":"present","rt":629.39999997616,"correct":true,"confidence":5},{"trial_n":127,"min":78,"max":177,"target":"absent","response":"absent","rt":422.10000002384,"correct":true,"confidence":5},{"trial_n":128,"min":78,"max":177,"target":"present","response":"present","rt":410.20000004768,"correct":true,"confidence":5},{"trial_n":129,"min":79,"max":176,"target":"present","response":"present","rt":424.5,"correct":true,"confidence":5},{"trial_n":130,"min":79,"max":176,"target":"absent","response":"absent","rt":459,"correct":true,"confidence":5},{"trial_n":131,"min":80,"max":175,"target":"present","response":"present","rt":400.80000007153,"correct":true,"confidence":5},{"trial_n":132,"min":80,"max":175,"target":"absent","response":"present","rt":700.70000004768,"correct":false,"confidence":5},{"trial_n":133,"min":79,"max":176,"target":"present","response":"present","rt":431.70000004768,"correct":true,"confidence":5},{"trial_n":134,"min":79,"max":176,"target":"absent","response":"absent","rt":357.70000004768,"correct":true,"confidence":5},{"trial_n":135,"min":80,"max":175,"target":"absent","response":"absent","rt":710.60000002384,"correct":true,"confidence":5},{"trial_n":136,"min":80,"max":175,"target":"absent","response":"absent","rt":443.5,"correct":true,"confidence":5},{"trial_n":137,"min":81,"max":174,"target":"absent","response":"absent","rt":761,"correct":true,"confidence":5},{"trial_n":138,"min":81,"max":174,"target":"present","response":"present","rt":384.20000004768,"correct":true,"confidence":5},{"trial_n":139,"min":82,"max":173,"target":"absent","response":"absent","rt":411.20000004768,"correct":true,"confidence":5},{"trial_n":140,"min":82,"max":173,"target":"absent","response":"present","rt":601.10000002384,"correct":false,"confidence":1}]