[{"trial_n":1,"min":25,"max":230,"target":"present","response":"present","rt":5526.8999999762,"correct":true,"confidence":-1},{"trial_n":2,"min":25,"max":230,"target":"present","response":"present","rt":762.79999995232,"correct":true,"confidence":-1},{"trial_n":3,"min":41,"max":214,"target":"absent","response":"absent","rt":1201.4000000358,"correct":true,"confidence":-1},{"trial_n":4,"min":41,"max":214,"target":"absent","response":"absent","rt":597.80000001192,"correct":true,"confidence":-1},{"trial_n":5,"min":57,"max":198,"target":"present","response":"present","rt":1044.6999999881,"correct":true,"confidence":-1},{"trial_n":6,"min":57,"max":198,"target":"absent","response":"present","rt":1548.9000000358,"correct":false,"confidence":-1},{"trial_n":7,"min":41,"max":214,"target":"present","response":"present","rt":974.19999998808,"correct":true,"confidence":-1},{"trial_n":8,"min":41,"max":214,"target":"present","response":"present","rt":764.69999998808,"correct":true,"confidence":-1},{"trial_n":9,"min":57,"max":198,"target":"absent","response":"absent","rt":986.5,"correct":true,"confidence":-1},{"trial_n":10,"min":57,"max":198,"target":"absent","response":"absent","rt":651.10000002384,"correct":true,"confidence":-1},{"trial_n":11,"min":65,"max":190,"target":"absent","response":"absent","rt":807.89999997616,"correct":true,"confidence":-1},{"trial_n":12,"min":65,"max":190,"target":"present","response":"present","rt":1005.3000000119,"correct":true,"confidence":-1},{"trial_n":13,"min":73,"max":182,"target":"present","response":"present","rt":708,"correct":true,"confidence":-1},{"trial_n":14,"min":73,"max":182,"target":"absent","response":"absent","rt":1097.5,"correct":true,"confidence":-1},{"trial_n":15,"min":81,"max":174,"target":"present","response":"absent","rt":683.5,"correct":false,"confidence":-1},{"trial_n":16,"min":73,"max":182,"target":"absent","response":"present","rt":2522,"correct":false,"confidence":-1},{"trial_n":17,"min":65,"max":190,"target":"present","response":"present","rt":1146.8000000119,"correct":true,"confidence":-1},{"trial_n":18,"min":65,"max":190,"target":"absent","response":"absent","rt":859.80000001192,"correct":true,"confidence":-1},{"trial_n":19,"min":73,"max":182,"target":"absent","response":"absent","rt":646.10000002384,"correct":true,"confidence":-1},{"trial_n":20,"min":73,"max":182,"target":"absent","response":"absent","rt":551,"correct":true,"confidence":-1},{"trial_n":21,"min":77,"max":178,"target":"absent","response":"absent","rt":795.69999998808,"correct":true,"confidence":3},{"trial_n":22,"min":77,"max":178,"target":"present","response":"present","rt":833.19999998808,"correct":true,"confidence":5},{"trial_n":23,"min":81,"max":174,"target":"absent","response":"absent","rt":884.90000003576,"correct":true,"confidence":3},{"trial_n":24,"min":81,"max":174,"target":"present","response":"present","rt":1280.1999999881,"correct":true,"confidence":3},{"trial_n":25,"min":85,"max":170,"target":"present","response":"absent","rt":1426.3000000119,"correct":false,"confidence":3},{"trial_n":26,"min":81,"max":174,"target":"present","response":"present","rt":815.19999998808,"correct":true,"confidence":4},{"trial_n":27,"min":81,"max":174,"target":"present","response":"absent","rt":921.5,"correct":false,"confidence":4},{"trial_n":28,"min":77,"max":178,"target":"absent","response":"absent","rt":883.60000002384,"correct":true,"confidence":4},{"trial_n":29,"min":77,"max":178,"target":"present","response":"present","rt":1339.6999999881,"correct":true,"confidence":4},{"trial_n":30,"min":81,"max":174,"target":"absent","response":"absent","rt":1445.7999999523,"correct":true,"confidence":4},{"trial_n":31,"min":81,"max":174,"target":"present","response":"present","rt":881.40000003576,"correct":true,"confidence":4},{"trial_n":32,"min":83,"max":172,"target":"present","response":"absent","rt":906.40000003576,"correct":false,"confidence":4},{"trial_n":33,"min":81,"max":174,"target":"absent","response":"present","rt":1063.8999999762,"correct":false,"confidence":5},{"trial_n":34,"min":79,"max":176,"target":"present","response":"present","rt":945.5,"correct":true,"confidence":4},{"trial_n":35,"min":79,"max":176,"target":"absent","response":"absent","rt":1003.1999999881,"correct":true,"confidence":3},{"trial_n":36,"min":81,"max":174,"target":"absent","response":"absent","rt":1039.1999999881,"correct":true,"confidence":3},{"trial_n":37,"min":81,"max":174,"target":"absent","response":"absent","rt":1053.6000000238,"correct":true,"confidence":3},{"trial_n":38,"min":83,"max":172,"target":"present","response":"present","rt":1050.0999999642,"correct":true,"confidence":4},{"trial_n":39,"min":83,"max":172,"target":"absent","response":"absent","rt":885.39999997616,"correct":true,"confidence":3},{"trial_n":40,"min":85,"max":170,"target":"present","response":"present","rt":1053.8000000119,"correct":true,"confidence":3},{"trial_n":41,"min":85,"max":170,"target":"present","response":"present","rt":838.69999998808,"correct":true,"confidence":5},{"trial_n":42,"min":86,"max":169,"target":"present","response":"present","rt":1360.1999999881,"correct":true,"confidence":3},{"trial_n":43,"min":86,"max":169,"target":"absent","response":"absent","rt":1024.6999999881,"correct":true,"confidence":3},{"trial_n":44,"min":87,"max":168,"target":"absent","response":"absent","rt":1125.8000000119,"correct":true,"confidence":4},{"trial_n":45,"min":87,"max":168,"target":"absent","response":"absent","rt":1035,"correct":true,"confidence":4},{"trial_n":46,"min":88,"max":167,"target":"present","response":"absent","rt":859.80000001192,"correct":false,"confidence":4},{"trial_n":47,"min":87,"max":168,"target":"absent","response":"present","rt":1051.5,"correct":false,"confidence":3},{"trial_n":48,"min":86,"max":169,"target":"absent","response":"absent","rt":960.39999997616,"correct":true,"confidence":4},{"trial_n":49,"min":86,"max":169,"target":"present","response":"absent","rt":975.09999996424,"correct":false,"confidence":3},{"trial_n":50,"min":85,"max":170,"target":"absent","response":"absent","rt":927,"correct":true,"confidence":3},{"trial_n":51,"min":85,"max":170,"target":"present","response":"present","rt":863.80000001192,"correct":true,"confidence":4},{"trial_n":52,"min":86,"max":169,"target":"present","response":"absent","rt":1924.3999999762,"correct":false,"confidence":3},{"trial_n":53,"min":85,"max":170,"target":"present","response":"present","rt":938.30000001192,"correct":true,"confidence":3},{"trial_n":54,"min":85,"max":170,"target":"present","response":"present","rt":935.70000004768,"correct":true,"confidence":4},{"trial_n":55,"min":86,"max":169,"target":"absent","response":"present","rt":986.10000002384,"correct":false,"confidence":4},{"trial_n":56,"min":85,"max":170,"target":"present","response":"present","rt":3242.0999999642,"correct":true,"confidence":4},{"trial_n":57,"min":85,"max":170,"target":"present","response":"present","rt":1054.1000000238,"correct":true,"confidence":4},{"trial_n":58,"min":86,"max":169,"target":"present","response":"absent","rt":1210.3999999762,"correct":false,"confidence":3},{"trial_n":59,"min":85,"max":170,"target":"absent","response":"present","rt":3008.3999999762,"correct":false,"confidence":3},{"trial_n":60,"min":84,"max":171,"target":"absent","response":"absent","rt":1130.6000000238,"correct":true,"confidence":3},{"trial_n":61,"min":84,"max":171,"target":"absent","response":"absent","rt":884.89999997616,"correct":true,"confidence":3},{"trial_n":62,"min":85,"max":170,"target":"present","response":"absent","rt":1081.6000000238,"correct":false,"confidence":3},{"trial_n":63,"min":84,"max":171,"target":"absent","response":"absent","rt":1159.3999999762,"correct":true,"confidence":3},{"trial_n":64,"min":84,"max":171,"target":"absent","response":"absent","rt":1053.8000000119,"correct":true,"confidence":3},{"trial_n":65,"min":85,"max":170,"target":"absent","response":"absent","rt":900.59999996424,"correct":true,"confidence":3},{"trial_n":66,"min":85,"max":170,"target":"present","response":"absent","rt":947.5,"correct":false,"confidence":3},{"trial_n":67,"min":84,"max":171,"target":"present","response":"present","rt":820.5,"correct":true,"confidence":4},{"trial_n":68,"min":84,"max":171,"target":"present","response":"present","rt":770.80000001192,"correct":true,"confidence":4},{"trial_n":69,"min":85,"max":170,"target":"present","response":"present","rt":1240.7999999523,"correct":true,"confidence":3},{"trial_n":70,"min":85,"max":170,"target":"absent","response":"absent","rt":840.10000002384,"correct":true,"confidence":3},{"trial_n":71,"min":41,"max":214,"target":"present","response":"present","rt":3061.8999999762,"correct":true,"confidence":-1},{"trial_n":72,"min":41,"max":214,"target":"present","response":"present","rt":750.90000003576,"correct":true,"confidence":-1},{"trial_n":73,"min":57,"max":198,"target":"absent","response":"absent","rt":1394.4000000358,"correct":true,"confidence":-1},{"trial_n":74,"min":57,"max":198,"target":"absent","response":"absent","rt":824.30000001192,"correct":true,"confidence":-1},{"trial_n":75,"min":73,"max":182,"target":"present","response":"present","rt":1180.6000000238,"correct":true,"confidence":-1},{"trial_n":76,"min":73,"max":182,"target":"present","response":"present","rt":868.69999998808,"correct":true,"confidence":-1},{"trial_n":77,"min":89,"max":166,"target":"present","response":"present","rt":969.69999998808,"correct":true,"confidence":-1},{"trial_n":78,"min":89,"max":166,"target":"absent","response":"present","rt":799.89999997616,"correct":false,"confidence":-1},{"trial_n":79,"min":73,"max":182,"target":"present","response":"present","rt":626,"correct":true,"confidence":-1},{"trial_n":80,"min":73,"max":182,"target":"absent","response":"absent","rt":1039,"correct":true,"confidence":-1},{"trial_n":81,"min":81,"max":174,"target":"absent","response":"absent","rt":1045.0999999642,"correct":true,"confidence":-1},{"trial_n":82,"min":81,"max":174,"target":"present","response":"present","rt":789.60000002384,"correct":true,"confidence":-1},{"trial_n":83,"min":89,"max":166,"target":"absent","response":"present","rt":1201.7999999523,"correct":false,"confidence":-1},{"trial_n":84,"min":81,"max":174,"target":"absent","response":"absent","rt":1254.9000000358,"correct":true,"confidence":-1},{"trial_n":85,"min":81,"max":174,"target":"absent","response":"absent","rt":575.80000001192,"correct":true,"confidence":-1},{"trial_n":86,"min":89,"max":166,"target":"present","response":"present","rt":1677.5,"correct":true,"confidence":-1},{"trial_n":87,"min":89,"max":166,"target":"present","response":"present","rt":584.39999997616,"correct":true,"confidence":-1},{"trial_n":88,"min":97,"max":158,"target":"absent","response":"present","rt":622.30000001192,"correct":false,"confidence":-1},{"trial_n":89,"min":89,"max":166,"target":"present","response":"absent","rt":980.09999996424,"correct":false,"confidence":-1},{"trial_n":90,"min":81,"max":174,"target":"present","response":"present","rt":1013.1000000238,"correct":true,"confidence":-1},{"trial_n":91,"min":81,"max":174,"target":"absent","response":"present","rt":738.39999997616,"correct":false,"confidence":3},{"trial_n":92,"min":77,"max":178,"target":"present","response":"present","rt":1053.3999999762,"correct":true,"confidence":5},{"trial_n":93,"min":77,"max":178,"target":"absent","response":"absent","rt":1078.1000000238,"correct":true,"confidence":3},{"trial_n":94,"min":81,"max":174,"target":"present","response":"present","rt":920.69999998808,"correct":true,"confidence":4},{"trial_n":95,"min":81,"max":174,"target":"present","response":"present","rt":912.59999996424,"correct":true,"confidence":3},{"trial_n":96,"min":85,"max":170,"target":"absent","response":"present","rt":990.5,"correct":false,"confidence":3},{"trial_n":97,"min":81,"max":174,"target":"absent","response":"absent","rt":1084.6999999881,"correct":true,"confidence":3},{"trial_n":98,"min":81,"max":174,"target":"present","response":"present","rt":1509.7999999523,"correct":true,"confidence":3},{"trial_n":99,"min":85,"max":170,"target":"present","response":"present","rt":938.10000002384,"correct":true,"confidence":3},{"trial_n":100,"min":85,"max":170,"target":"absent","response":"present","rt":1387.6000000238,"correct":false,"confidence":3},{"trial_n":101,"min":83,"max":172,"target":"absent","response":"absent","rt":1093.6000000238,"correct":true,"confidence":4},{"trial_n":102,"min":83,"max":172,"target":"present","response":"present","rt":773.20000004768,"correct":true,"confidence":4},{"trial_n":103,"min":85,"max":170,"target":"absent","response":"present","rt":887.70000004768,"correct":false,"confidence":3},{"trial_n":104,"min":83,"max":172,"target":"absent","response":"absent","rt":1007.3000000119,"correct":true,"confidence":3},{"trial_n":105,"min":83,"max":172,"target":"present","response":"present","rt":698.10000002384,"correct":true,"confidence":4},{"trial_n":106,"min":85,"max":170,"target":"present","response":"absent","rt":883.59999996424,"correct":false,"confidence":3},{"trial_n":107,"min":83,"max":172,"target":"present","response":"present","rt":679.79999995232,"correct":true,"confidence":3},{"trial_n":108,"min":83,"max":172,"target":"present","response":"present","rt":640.80000001192,"correct":true,"confidence":5},{"trial_n":109,"min":85,"max":170,"target":"absent","response":"present","rt":1105.0999999642,"correct":false,"confidence":3},{"trial_n":110,"min":83,"max":172,"target":"present","response":"present","rt":1073.2999999523,"correct":true,"confidence":4},{"trial_n":111,"min":83,"max":172,"target":"absent","response":"absent","rt":2366.3000000119,"correct":true,"confidence":3},{"trial_n":112,"min":84,"max":171,"target":"present","response":"present","rt":838.39999997616,"correct":true,"confidence":3},{"trial_n":113,"min":84,"max":171,"target":"absent","response":"present","rt":971.39999997616,"correct":false,"confidence":3},{"trial_n":114,"min":83,"max":172,"target":"absent","response":"absent","rt":1116.5,"correct":true,"confidence":3},{"trial_n":115,"min":83,"max":172,"target":"present","response":"present","rt":968.5,"correct":true,"confidence":3},{"trial_n":116,"min":84,"max":171,"target":"present","response":"present","rt":924,"correct":true,"confidence":3},{"trial_n":117,"min":84,"max":171,"target":"absent","response":"present","rt":1063.8999999762,"correct":false,"confidence":3},{"trial_n":118,"min":83,"max":172,"target":"absent","response":"absent","rt":1020.2000000477,"correct":true,"confidence":3},{"trial_n":119,"min":83,"max":172,"target":"absent","response":"absent","rt":1041.6000000238,"correct":true,"confidence":3},{"trial_n":120,"min":84,"max":171,"target":"present","response":"present","rt":809,"correct":true,"confidence":3},{"trial_n":121,"min":84,"max":171,"target":"present","response":"present","rt":1299.4000000358,"correct":true,"confidence":5},{"trial_n":122,"min":85,"max":170,"target":"absent","response":"absent","rt":941.80000001192,"correct":true,"confidence":3},{"trial_n":123,"min":85,"max":170,"target":"present","response":"present","rt":1350.1000000238,"correct":true,"confidence":3},{"trial_n":124,"min":86,"max":169,"target":"absent","response":"absent","rt":899.19999998808,"correct":true,"confidence":5},{"trial_n":125,"min":86,"max":169,"target":"absent","response":"present","rt":1730.2999999523,"correct":false,"confidence":3},{"trial_n":126,"min":85,"max":170,"target":"present","response":"present","rt":1771.6999999881,"correct":true,"confidence":3},{"trial_n":127,"min":85,"max":170,"target":"absent","response":"absent","rt":976.19999998808,"correct":true,"confidence":4},{"trial_n":128,"min":86,"max":169,"target":"absent","response":"absent","rt":1699.7999999523,"correct":true,"confidence":3},{"trial_n":129,"min":86,"max":169,"target":"absent","response":"absent","rt":968.39999997616,"correct":true,"confidence":4},{"trial_n":130,"min":87,"max":168,"target":"present","response":"present","rt":870.69999998808,"correct":true,"confidence":3},{"trial_n":131,"min":87,"max":168,"target":"present","response":"present","rt":897.80000001192,"correct":true,"confidence":3},{"trial_n":132,"min":88,"max":167,"target":"absent","response":"absent","rt":1009.3000000119,"correct":true,"confidence":3},{"trial_n":133,"min":88,"max":167,"target":"present","response":"present","rt":978.69999998808,"correct":true,"confidence":3},{"trial_n":134,"min":89,"max":166,"target":"absent","response":"absent","rt":805.5,"correct":true,"confidence":3},{"trial_n":135,"min":89,"max":166,"target":"present","response":"absent","rt":1440.5999999642,"correct":false,"confidence":2},{"trial_n":136,"min":88,"max":167,"target":"present","response":"present","rt":1067.1999999881,"correct":true,"confidence":3},{"trial_n":137,"min":88,"max":167,"target":"absent","response":"absent","rt":832.90000003576,"correct":true,"confidence":3},{"trial_n":138,"min":89,"max":166,"target":"present","response":"absent","rt":944.60000002384,"correct":false,"confidence":3},{"trial_n":139,"min":88,"max":167,"target":"absent","response":"absent","rt":1505.1000000238,"correct":true,"confidence":4},{"trial_n":140,"min":88,"max":167,"target":"present","response":"present","rt":644.30000001192,"correct":true,"confidence":4}]