[{"trial_n":1,"n_dots":4.25,"target":"right","response":"left","rt":2961.5,"correct":false,"confidence":-1},{"trial_n":2,"n_dots":4.25,"target":"left","response":"left","rt":488.5999994278,"correct":true,"confidence":-1},{"trial_n":3,"n_dots":4.25,"target":"left","response":"left","rt":550.10000038147,"correct":true,"confidence":-1},{"trial_n":4,"n_dots":3.85,"target":"left","response":"left","rt":553.69999980927,"correct":true,"confidence":-1},{"trial_n":5,"n_dots":3.85,"target":"right","response":"right","rt":343.30000019073,"correct":true,"confidence":-1},{"trial_n":6,"n_dots":3.45,"target":"right","response":"right","rt":383.19999980927,"correct":true,"confidence":-1},{"trial_n":7,"n_dots":3.45,"target":"right","response":"right","rt":654,"correct":true,"confidence":-1},{"trial_n":8,"n_dots":3.25,"target":"left","response":"left","rt":1013,"correct":true,"confidence":-1},{"trial_n":9,"n_dots":3.25,"target":"right","response":"right","rt":402.60000038147,"correct":true,"confidence":-1},{"trial_n":10,"n_dots":3.05,"target":"right","response":"right","rt":514.5999994278,"correct":true,"confidence":-1},{"trial_n":11,"n_dots":3.05,"target":"left","response":"right","rt":1138,"correct":false,"confidence":-1},{"trial_n":12,"n_dots":3.25,"target":"right","response":"right","rt":434.80000019073,"correct":true,"confidence":-1},{"trial_n":13,"n_dots":3.25,"target":"left","response":"right","rt":2046.6999998093,"correct":false,"confidence":-1},{"trial_n":14,"n_dots":3.35,"target":"right","response":"right","rt":2043,"correct":true,"confidence":-1},{"trial_n":15,"n_dots":3.35,"target":"left","response":"right","rt":405.5999994278,"correct":false,"confidence":-1},{"trial_n":16,"n_dots":3.45,"target":"left","response":"left","rt":603.69999980927,"correct":true,"confidence":-1},{"trial_n":17,"n_dots":3.45,"target":"left","response":"left","rt":408.69999980927,"correct":true,"confidence":-1},{"trial_n":18,"n_dots":3.35,"target":"right","response":"left","rt":281.89999961853,"correct":false,"confidence":-1},{"trial_n":19,"n_dots":3.45,"target":"right","response":"left","rt":582.5,"correct":false,"confidence":-1},{"trial_n":20,"n_dots":3.55,"target":"right","response":"right","rt":301.80000019073,"correct":true,"confidence":-1},{"trial_n":21,"n_dots":3.55,"target":"left","response":"right","rt":292.10000038147,"correct":false,"confidence":3},{"trial_n":22,"n_dots":3.65,"target":"left","response":"right","rt":962.60000038147,"correct":false,"confidence":3},{"trial_n":23,"n_dots":3.75,"target":"left","response":"left","rt":456.89999961853,"correct":true,"confidence":3},{"trial_n":24,"n_dots":3.75,"target":"right","response":"right","rt":298.5,"correct":true,"confidence":4},{"trial_n":25,"n_dots":3.65,"target":"left","response":"left","rt":451,"correct":true,"confidence":2},{"trial_n":26,"n_dots":3.65,"target":"right","response":"right","rt":307.70000076294,"correct":true,"confidence":4},{"trial_n":27,"n_dots":3.55,"target":"right","response":"right","rt":286.30000019073,"correct":true,"confidence":4},{"trial_n":28,"n_dots":3.55,"target":"right","response":"right","rt":303.5,"correct":true,"confidence":2},{"trial_n":29,"n_dots":3.45,"target":"left","response":"left","rt":363,"correct":true,"confidence":2},{"trial_n":30,"n_dots":3.45,"target":"right","response":"right","rt":233.19999980927,"correct":true,"confidence":2},{"trial_n":31,"n_dots":3.35,"target":"right","response":"left","rt":3100.8000001907,"correct":false,"confidence":1},{"trial_n":32,"n_dots":3.45,"target":"right","response":"right","rt":594.89999961853,"correct":true,"confidence":2},{"trial_n":33,"n_dots":3.45,"target":"right","response":"left","rt":196.30000019073,"correct":false,"confidence":2},{"trial_n":34,"n_dots":3.55,"target":"right","response":"right","rt":172.60000038147,"correct":true,"confidence":3},{"trial_n":35,"n_dots":3.55,"target":"left","response":"left","rt":62.300000190735,"correct":true,"confidence":3},{"trial_n":36,"n_dots":3.45,"target":"left","response":"left","rt":286.19999980927,"correct":true,"confidence":2},{"trial_n":37,"n_dots":3.45,"target":"left","response":"left","rt":614.4000005722,"correct":true,"confidence":2},{"trial_n":38,"n_dots":3.35,"target":"left","response":"left","rt":239.80000019073,"correct":true,"confidence":3},{"trial_n":39,"n_dots":3.35,"target":"right","response":"right","rt":1008.0999994278,"correct":true,"confidence":4},{"trial_n":40,"n_dots":3.25,"target":"right","response":"right","rt":332.29999923706,"correct":true,"confidence":2},{"trial_n":41,"n_dots":3.25,"target":"left","response":"left","rt":507.10000038147,"correct":true,"confidence":2},{"trial_n":42,"n_dots":3.15,"target":"left","response":"left","rt":339.39999961853,"correct":true,"confidence":1},{"trial_n":43,"n_dots":3.15,"target":"right","response":"right","rt":457.20000076294,"correct":true,"confidence":1},{"trial_n":44,"n_dots":3.05,"target":"right","response":"right","rt":290.39999961853,"correct":true,"confidence":2},{"trial_n":45,"n_dots":3.05,"target":"right","response":"right","rt":83.699999809265,"correct":true,"confidence":2},{"trial_n":46,"n_dots":2.95,"target":"right","response":"right","rt":235,"correct":true,"confidence":2},{"trial_n":47,"n_dots":2.95,"target":"left","response":"left","rt":341.19999980927,"correct":true,"confidence":2},{"trial_n":48,"n_dots":2.85,"target":"right","response":"right","rt":1780.2000007629,"correct":true,"confidence":1},{"trial_n":49,"n_dots":2.85,"target":"left","response":"left","rt":1493.1000003815,"correct":true,"confidence":3},{"trial_n":50,"n_dots":2.75,"target":"right","response":"left","rt":554.60000038147,"correct":false,"confidence":3},{"trial_n":51,"n_dots":2.85,"target":"right","response":"right","rt":364.79999923706,"correct":true,"confidence":2},{"trial_n":52,"n_dots":2.85,"target":"left","response":"left","rt":649.4000005722,"correct":true,"confidence":4},{"trial_n":53,"n_dots":2.75,"target":"right","response":"left","rt":425.9000005722,"correct":false,"confidence":3},{"trial_n":54,"n_dots":2.85,"target":"right","response":"left","rt":330.5,"correct":false,"confidence":3},{"trial_n":55,"n_dots":2.95,"target":"left","response":"left","rt":2.3000001907349,"correct":true,"confidence":3},{"trial_n":56,"n_dots":2.95,"target":"left","response":"left","rt":333.80000019073,"correct":true,"confidence":3},{"trial_n":57,"n_dots":2.85,"target":"right","response":"left","rt":1744.8000001907,"correct":false,"confidence":1},{"trial_n":58,"n_dots":2.95,"target":"right","response":"left","rt":1920.3999996185,"correct":false,"confidence":1},{"trial_n":59,"n_dots":3.05,"target":"left","response":"left","rt":775.60000038147,"correct":true,"confidence":1},{"trial_n":60,"n_dots":3.05,"target":"left","response":"left","rt":312.39999961853,"correct":true,"confidence":2},{"trial_n":61,"n_dots":2.95,"target":"left","response":"left","rt":303.5,"correct":true,"confidence":3},{"trial_n":62,"n_dots":2.95,"target":"right","response":"left","rt":335.5,"correct":false,"confidence":2},{"trial_n":63,"n_dots":3.05,"target":"right","response":"left","rt":332,"correct":false,"confidence":2},{"trial_n":64,"n_dots":3.15,"target":"left","response":"left","rt":2404,"correct":true,"confidence":1},{"trial_n":65,"n_dots":3.15,"target":"left","response":"left","rt":1773.6999998093,"correct":true,"confidence":1},{"trial_n":66,"n_dots":3.05,"target":"right","response":"left","rt":320.60000038147,"correct":false,"confidence":2},{"trial_n":67,"n_dots":3.15,"target":"right","response":"left","rt":839.30000019073,"correct":false,"confidence":2},{"trial_n":68,"n_dots":3.25,"target":"left","response":"left","rt":525.5,"correct":true,"confidence":2},{"trial_n":69,"n_dots":3.25,"target":"right","response":"left","rt":354.60000038147,"correct":false,"confidence":2},{"trial_n":70,"n_dots":3.35,"target":"left","response":"left","rt":434.20000076294,"correct":true,"confidence":2},{"trial_n":71,"n_dots":3.35,"target":"left","response":"left","rt":435.5999994278,"correct":true,"confidence":2},{"trial_n":72,"n_dots":3.25,"target":"left","response":"left","rt":487,"correct":true,"confidence":2},{"trial_n":73,"n_dots":3.25,"target":"left","response":"right","rt":1125.9000005722,"correct":false,"confidence":2},{"trial_n":74,"n_dots":3.35,"target":"left","response":"right","rt":1890.9000005722,"correct":false,"confidence":2},{"trial_n":75,"n_dots":3.45,"target":"left","response":"left","rt":1183.1999998093,"correct":true,"confidence":1},{"trial_n":76,"n_dots":3.45,"target":"right","response":"right","rt":2512.3000001907,"correct":true,"confidence":1},{"trial_n":77,"n_dots":3.35,"target":"left","response":"left","rt":1167.7000007629,"correct":true,"confidence":1},{"trial_n":78,"n_dots":3.35,"target":"right","response":"right","rt":1280.4000005722,"correct":true,"confidence":1},{"trial_n":79,"n_dots":3.25,"target":"left","response":"left","rt":358.5999994278,"correct":true,"confidence":2},{"trial_n":80,"n_dots":3.25,"target":"right","response":"right","rt":1351.2999992371,"correct":true,"confidence":1},{"trial_n":81,"n_dots":3.15,"target":"right","response":"left","rt":733.39999961853,"correct":false,"confidence":1},{"trial_n":82,"n_dots":3.25,"target":"right","response":"left","rt":377.60000038147,"correct":false,"confidence":1},{"trial_n":83,"n_dots":3.35,"target":"left","response":"right","rt":1156.9000005722,"correct":false,"confidence":1},{"trial_n":84,"n_dots":3.45,"target":"left","response":"left","rt":372.5999994278,"correct":true,"confidence":3},{"trial_n":85,"n_dots":3.45,"target":"left","response":"left","rt":839.89999961853,"correct":true,"confidence":2},{"trial_n":86,"n_dots":3.35,"target":"left","response":"left","rt":694.5999994278,"correct":true,"confidence":2},{"trial_n":87,"n_dots":3.35,"target":"right","response":"right","rt":523.30000019073,"correct":true,"confidence":4},{"trial_n":88,"n_dots":3.25,"target":"left","response":"left","rt":1501.8000001907,"correct":true,"confidence":2},{"trial_n":89,"n_dots":3.25,"target":"right","response":"right","rt":216.5999994278,"correct":true,"confidence":2},{"trial_n":90,"n_dots":3.15,"target":"right","response":"right","rt":761.9000005722,"correct":true,"confidence":2},{"trial_n":91,"n_dots":3.15,"target":"right","response":"right","rt":1007.9000005722,"correct":true,"confidence":2},{"trial_n":92,"n_dots":3.05,"target":"right","response":"right","rt":972,"correct":true,"confidence":2},{"trial_n":93,"n_dots":3.05,"target":"left","response":"left","rt":3157.8999996185,"correct":true,"confidence":2},{"trial_n":94,"n_dots":2.95,"target":"right","response":"right","rt":1512.3999996185,"correct":true,"confidence":1},{"trial_n":95,"n_dots":2.95,"target":"right","response":"right","rt":1035.5999994278,"correct":true,"confidence":2},{"trial_n":96,"n_dots":2.85,"target":"left","response":"right","rt":1283.3000001907,"correct":false,"confidence":2},{"trial_n":97,"n_dots":2.95,"target":"right","response":"right","rt":731.60000038147,"correct":true,"confidence":2},{"trial_n":98,"n_dots":2.95,"target":"left","response":"right","rt":1159.4000005722,"correct":false,"confidence":1},{"trial_n":99,"n_dots":3.05,"target":"left","response":"left","rt":858.89999961853,"correct":true,"confidence":2},{"trial_n":100,"n_dots":3.05,"target":"left","response":"right","rt":1273,"correct":false,"confidence":2},{"trial_n":101,"n_dots":3.15,"target":"left","response":"left","rt":887,"correct":true,"confidence":1},{"trial_n":102,"n_dots":3.15,"target":"right","response":"right","rt":965.19999980927,"correct":true,"confidence":1},{"trial_n":103,"n_dots":3.05,"target":"right","response":"right","rt":617,"correct":true,"confidence":2},{"trial_n":104,"n_dots":3.05,"target":"left","response":"left","rt":1788.9000005722,"correct":true,"confidence":1},{"trial_n":105,"n_dots":2.95,"target":"right","response":"right","rt":807.89999961853,"correct":true,"confidence":1},{"trial_n":106,"n_dots":2.95,"target":"right","response":"right","rt":655.0999994278,"correct":true,"confidence":1},{"trial_n":107,"n_dots":2.85,"target":"left","response":"left","rt":856.60000038147,"correct":true,"confidence":1},{"trial_n":108,"n_dots":2.85,"target":"left","response":"left","rt":1321,"correct":true,"confidence":1},{"trial_n":109,"n_dots":2.75,"target":"left","response":"right","rt":1359.7000007629,"correct":false,"confidence":1},{"trial_n":110,"n_dots":2.85,"target":"right","response":"right","rt":1234.5,"correct":true,"confidence":1},{"trial_n":111,"n_dots":2.85,"target":"right","response":"left","rt":1643.6000003815,"correct":false,"confidence":1},{"trial_n":112,"n_dots":2.95,"target":"left","response":"right","rt":1813.3000001907,"correct":false,"confidence":1},{"trial_n":113,"n_dots":3.05,"target":"right","response":"right","rt":1296.6000003815,"correct":true,"confidence":1},{"trial_n":114,"n_dots":3.05,"target":"left","response":"left","rt":1404.7999992371,"correct":true,"confidence":1},{"trial_n":115,"n_dots":2.95,"target":"left","response":"left","rt":549.69999980927,"correct":true,"confidence":2},{"trial_n":116,"n_dots":2.95,"target":"right","response":"right","rt":760.89999961853,"correct":true,"confidence":2},{"trial_n":117,"n_dots":2.85,"target":"right","response":"right","rt":685.9000005722,"correct":true,"confidence":2},{"trial_n":118,"n_dots":2.85,"target":"left","response":"right","rt":1215.5999994278,"correct":false,"confidence":1},{"trial_n":119,"n_dots":2.95,"target":"left","response":"right","rt":887.10000038147,"correct":false,"confidence":1},{"trial_n":120,"n_dots":3.05,"target":"left","response":"left","rt":2489.2999992371,"correct":true,"confidence":2}]