[{"trial_n":1,"span":8,"encoder":"69826474","distractor":"69856474","target":"present","response":"present","rt":"6482.6999999285","correct":true,"confidence":-1},{"trial_n":2,"span":8,"encoder":"05050032","distractor":"05650032","target":"present","response":"present","rt":"2994","correct":true,"confidence":-1},{"trial_n":3,"span":10,"encoder":"8592675376","distractor":"8592685376","target":"absent","response":"absent","rt":"3337.6000000238","correct":true,"confidence":-1},{"trial_n":4,"span":10,"encoder":"3749255422","distractor":"3709255422","target":"absent","response":"absent","rt":"2422","correct":true,"confidence":-1},{"trial_n":5,"span":12,"encoder":"669281937934","distractor":"669289937934","target":"present","response":"present","rt":"4478.2000000477","correct":true,"confidence":-1},{"trial_n":6,"span":12,"encoder":"149643680964","distractor":"144643680964","target":"present","response":"present","rt":"3300.2000000477","correct":true,"confidence":-1},{"trial_n":7,"span":14,"encoder":"65487574418357","distractor":"65487594418357","target":"present","response":"absent","rt":"4094.5999999046","correct":false,"confidence":-1},{"trial_n":8,"span":12,"encoder":"652006751652","distractor":"652006751622","target":"absent","response":"present","rt":"1887.1000000238","correct":false,"confidence":-1},{"trial_n":9,"span":10,"encoder":"1906788131","distractor":"1906748131","target":"absent","response":"absent","rt":"2108","correct":true,"confidence":-1},{"trial_n":10,"span":10,"encoder":"4199817855","distractor":"4191817855","target":"present","response":"present","rt":"1837.1000000238","correct":true,"confidence":-1},{"trial_n":11,"span":12,"encoder":"655440088284","distractor":"655440068284","target":"present","response":"present","rt":"2257.3000000715","correct":true,"confidence":-1},{"trial_n":12,"span":12,"encoder":"662045112028","distractor":"662045142028","target":"present","response":"present","rt":"1547.2000000477","correct":true,"confidence":-1},{"trial_n":13,"span":13,"encoder":"6717613026048","distractor":"6717693026048","target":"absent","response":"present","rt":"1718.0999999046","correct":false,"confidence":-1},{"trial_n":14,"span":12,"encoder":"361430156018","distractor":"311430156018","target":"absent","response":"absent","rt":"1318.6999999285","correct":true,"confidence":-1},{"trial_n":15,"span":12,"encoder":"020301918920","distractor":"023301918920","target":"present","response":"present","rt":"1896.5","correct":true,"confidence":-1},{"trial_n":16,"span":13,"encoder":"1966926415388","distractor":"1966926315388","target":"present","response":"absent","rt":"3113","correct":false,"confidence":-1},{"trial_n":17,"span":12,"encoder":"270295095643","distractor":"270895095643","target":"present","response":"present","rt":"10651.699999928","correct":true,"confidence":-1},{"trial_n":18,"span":12,"encoder":"409733931942","distractor":"459733931942","target":"present","response":"absent","rt":"959.30000007153","correct":false,"confidence":-1},{"trial_n":19,"span":11,"encoder":"91730916596","distractor":"91730910596","target":"present","response":"absent","rt":"2343.5999999046","correct":false,"confidence":-1},{"trial_n":20,"span":10,"encoder":"2367454687","distractor":"2397454687","target":"absent","response":"present","rt":"2047.3999999762","correct":false,"confidence":-1},{"trial_n":21,"span":9,"encoder":"772982326","distractor":"778982326","target":"present","response":"present","rt":"3820.1000000238","correct":true,"confidence":3},{"trial_n":22,"span":9,"encoder":"936147732","distractor":"933147732","target":"present","response":"present","rt":"2968.2000000477","correct":true,"confidence":4},{"trial_n":23,"span":10,"encoder":"7374525993","distractor":"6374525993","target":"present","response":"present","rt":"3514.3000000715","correct":true,"confidence":4},{"trial_n":24,"span":10,"encoder":"0504486249","distractor":"9504486249","target":"absent","response":"absent","rt":"2789.6000000238","correct":true,"confidence":3},{"trial_n":25,"span":11,"encoder":"41342561804","distractor":"41342521804","target":"present","response":"absent","rt":"2268.4000000954","correct":false,"confidence":3},{"trial_n":26,"span":10,"encoder":"2052388502","distractor":"2052338502","target":"present","response":"absent","rt":"4075.1000000238","correct":false,"confidence":2},{"trial_n":27,"span":9,"encoder":"576518538","distractor":"576588538","target":"present","response":"present","rt":"12416","correct":true,"confidence":2},{"trial_n":28,"span":9,"encoder":"006913253","distractor":"006933253","target":"present","response":"absent","rt":"6063","correct":false,"confidence":3},{"trial_n":29,"span":8,"encoder":"21946511","distractor":"21946521","target":"absent","response":"absent","rt":"3297.8999999762","correct":true,"confidence":4},{"trial_n":30,"span":8,"encoder":"02106171","distractor":"02101171","target":"present","response":"present","rt":"2673.1000000238","correct":true,"confidence":2},{"trial_n":31,"span":9,"encoder":"452617696","distractor":"472617696","target":"present","response":"absent","rt":"3667.5","correct":false,"confidence":4},{"trial_n":32,"span":8,"encoder":"99950720","distractor":"99950723","target":"absent","response":"present","rt":"3851.2999999523","correct":false,"confidence":2},{"trial_n":33,"span":7,"encoder":"2082302","distractor":"2084302","target":"absent","response":"present","rt":"8139.2000000477","correct":false,"confidence":4},{"trial_n":34,"span":6,"encoder":"412666","distractor":"412466","target":"present","response":"present","rt":"9301.3999999762","correct":true,"confidence":4},{"trial_n":35,"span":6,"encoder":"640722","distractor":"640622","target":"present","response":"absent","rt":"2314.7999999523","correct":false,"confidence":1},{"trial_n":36,"span":5,"encoder":"11365","distractor":"41365","target":"absent","response":"absent","rt":"2186.8999999762","correct":true,"confidence":5},{"trial_n":37,"span":5,"encoder":"30047","distractor":"30547","target":"absent","response":"absent","rt":"2814.8999999762","correct":true,"confidence":2},{"trial_n":38,"span":6,"encoder":"938453","distractor":"938458","target":"absent","response":"absent","rt":"2791.2999999523","correct":true,"confidence":4},{"trial_n":39,"span":6,"encoder":"621324","distractor":"121324","target":"present","response":"present","rt":"2927","correct":true,"confidence":2},{"trial_n":40,"span":7,"encoder":"8682880","distractor":"8682840","target":"absent","response":"absent","rt":"4103.5","correct":true,"confidence":3},{"trial_n":41,"span":7,"encoder":"6382474","distractor":"6382574","target":"absent","response":"absent","rt":"3714.2000000477","correct":true,"confidence":4},{"trial_n":42,"span":8,"encoder":"91348973","distractor":"91048973","target":"absent","response":"present","rt":"3332.8999999762","correct":false,"confidence":3},{"trial_n":43,"span":7,"encoder":"6441021","distractor":"6441121","target":"absent","response":"absent","rt":"2973.3999999762","correct":true,"confidence":4},{"trial_n":44,"span":7,"encoder":"6659534","distractor":"7659534","target":"present","response":"present","rt":"4353.1999999285","correct":true,"confidence":2},{"trial_n":45,"span":8,"encoder":"32510446","distractor":"32910446","target":"absent","response":"absent","rt":"2632.3999999762","correct":true,"confidence":4},{"trial_n":46,"span":8,"encoder":"85817560","distractor":"85877560","target":"present","response":"present","rt":"3735.1000000238","correct":true,"confidence":3},{"trial_n":47,"span":9,"encoder":"982841779","distractor":"982851779","target":"absent","response":"present","rt":"3780.2000000477","correct":false,"confidence":3},{"trial_n":48,"span":8,"encoder":"32922326","distractor":"32022326","target":"absent","response":"absent","rt":"5260","correct":true,"confidence":2},{"trial_n":49,"span":8,"encoder":"04811669","distractor":"04811969","target":"present","response":"absent","rt":"3818.5999999046","correct":false,"confidence":4},{"trial_n":50,"span":7,"encoder":"4443053","distractor":"4643053","target":"present","response":"present","rt":"2619","correct":true,"confidence":5},{"trial_n":51,"span":7,"encoder":"2606988","distractor":"2606984","target":"present","response":"absent","rt":"4814.2000000477","correct":false,"confidence":3},{"trial_n":52,"span":6,"encoder":"634679","distractor":"634609","target":"present","response":"absent","rt":"3743.1999999285","correct":false,"confidence":3},{"trial_n":53,"span":5,"encoder":"17047","distractor":"12047","target":"absent","response":"absent","rt":"6897.5","correct":true,"confidence":2},{"trial_n":54,"span":5,"encoder":"05305","distractor":"95305","target":"absent","response":"absent","rt":"1905.1000000238","correct":true,"confidence":4},{"trial_n":55,"span":6,"encoder":"455504","distractor":"485504","target":"absent","response":"absent","rt":"2184.3999999762","correct":true,"confidence":4},{"trial_n":56,"span":6,"encoder":"785812","distractor":"785852","target":"absent","response":"absent","rt":"6763","correct":true,"confidence":2},{"trial_n":57,"span":7,"encoder":"6242684","distractor":"6262684","target":"absent","response":"absent","rt":"42243.799999952","correct":true,"confidence":1},{"trial_n":58,"span":7,"encoder":"2548604","distractor":"2549604","target":"absent","response":"absent","rt":"3342","correct":true,"confidence":4},{"trial_n":59,"span":8,"encoder":"89308941","distractor":"29308941","target":"absent","response":"absent","rt":"2161.2000000477","correct":true,"confidence":5},{"trial_n":60,"span":8,"encoder":"26380075","distractor":"86380075","target":"absent","response":"absent","rt":"3162.1999999285","correct":true,"confidence":5},{"trial_n":61,"span":9,"encoder":"302427389","distractor":"302497389","target":"absent","response":"absent","rt":"3235.9000000954","correct":true,"confidence":3},{"trial_n":62,"span":9,"encoder":"154753046","distractor":"194753046","target":"absent","response":"present","rt":"2583.1000000238","correct":false,"confidence":4},{"trial_n":63,"span":8,"encoder":"57639683","distractor":"07639683","target":"absent","response":"absent","rt":"7426.2999999523","correct":true,"confidence":1},{"trial_n":64,"span":8,"encoder":"25927610","distractor":"25927670","target":"present","response":"present","rt":"2681.2999999523","correct":true,"confidence":2},{"trial_n":65,"span":9,"encoder":"921148272","distractor":"921148872","target":"present","response":"absent","rt":"4613","correct":false,"confidence":3},{"trial_n":66,"span":8,"encoder":"57761440","distractor":"54761440","target":"present","response":"present","rt":"2020.6999999285","correct":true,"confidence":5},{"trial_n":67,"span":8,"encoder":"04142643","distractor":"04742643","target":"present","response":"present","rt":"2974.3999999762","correct":true,"confidence":4},{"trial_n":68,"span":9,"encoder":"085746493","distractor":"585746493","target":"absent","response":"present","rt":"3264.3999999762","correct":false,"confidence":3},{"trial_n":69,"span":8,"encoder":"70758907","distractor":"70458907","target":"absent","response":"absent","rt":"2133.3999999762","correct":true,"confidence":3},{"trial_n":70,"span":8,"encoder":"57872561","distractor":"57872521","target":"present","response":"present","rt":"1597.7000000477","correct":true,"confidence":3},{"trial_n":71,"span":8,"encoder":"46181348","distractor":"46481348","target":"present","response":"absent","rt":"4893.8000000715","correct":false,"confidence":-1},{"trial_n":72,"span":7,"encoder":"3976047","distractor":"3976947","target":"present","response":"present","rt":"4881.2000000477","correct":true,"confidence":-1},{"trial_n":73,"span":7,"encoder":"1884131","distractor":"1884931","target":"absent","response":"absent","rt":"3147.7999999523","correct":true,"confidence":-1},{"trial_n":74,"span":8,"encoder":"33583674","distractor":"33586674","target":"absent","response":"absent","rt":"6374.7000000477","correct":true,"confidence":-1},{"trial_n":75,"span":8,"encoder":"73178364","distractor":"73178304","target":"present","response":"present","rt":"5093.3999999762","correct":true,"confidence":-1},{"trial_n":76,"span":9,"encoder":"201488255","distractor":"201488215","target":"absent","response":"absent","rt":"3676.6000000238","correct":true,"confidence":-1},{"trial_n":77,"span":9,"encoder":"112244797","distractor":"182244797","target":"present","response":"present","rt":"2315.1000000238","correct":true,"confidence":-1},{"trial_n":78,"span":10,"encoder":"3330706697","distractor":"3330726697","target":"absent","response":"absent","rt":"5149.5","correct":true,"confidence":-1},{"trial_n":79,"span":10,"encoder":"5698514264","distractor":"2698514264","target":"absent","response":"absent","rt":"2068.3999999762","correct":true,"confidence":-1},{"trial_n":80,"span":11,"encoder":"43078815989","distractor":"43078815929","target":"absent","response":"absent","rt":"3894.1000000238","correct":true,"confidence":-1},{"trial_n":81,"span":11,"encoder":"99486647644","distractor":"99496647644","target":"absent","response":"absent","rt":"5369.2999999523","correct":true,"confidence":-1},{"trial_n":82,"span":12,"encoder":"876873200194","distractor":"876873200192","target":"present","response":"present","rt":"1677.0999999046","correct":true,"confidence":-1},{"trial_n":83,"span":12,"encoder":"571238004882","distractor":"571238074882","target":"absent","response":"present","rt":"4865.3999999762","correct":false,"confidence":-1},{"trial_n":84,"span":11,"encoder":"33221681168","distractor":"33521681168","target":"absent","response":"absent","rt":"4545","correct":true,"confidence":-1},{"trial_n":85,"span":11,"encoder":"40140877808","distractor":"40940877808","target":"present","response":"present","rt":"2224.8999999762","correct":true,"confidence":-1},{"trial_n":86,"span":12,"encoder":"365029368287","distractor":"365020368287","target":"absent","response":"present","rt":"5235.1000000238","correct":false,"confidence":-1},{"trial_n":87,"span":11,"encoder":"39704639495","distractor":"39704689495","target":"present","response":"absent","rt":"7293.7999999523","correct":false,"confidence":-1},{"trial_n":88,"span":10,"encoder":"4794805364","distractor":"4794805264","target":"present","response":"absent","rt":"1914.2999999523","correct":false,"confidence":-1},{"trial_n":89,"span":9,"encoder":"547466182","distractor":"546466182","target":"absent","response":"absent","rt":"643.10000002384","correct":true,"confidence":-1},{"trial_n":90,"span":9,"encoder":"079297514","distractor":"079297554","target":"present","response":"absent","rt":"618","correct":false,"confidence":-1},{"trial_n":91,"span":8,"encoder":"83947334","distractor":"83947634","target":"absent","response":"absent","rt":"4368.8999999762","correct":true,"confidence":4},{"trial_n":92,"span":8,"encoder":"16182113","distractor":"18182113","target":"absent","response":"absent","rt":"4229.1000000238","correct":true,"confidence":5},{"trial_n":93,"span":9,"encoder":"249494804","distractor":"949494804","target":"absent","response":"absent","rt":"2773","correct":true,"confidence":4},{"trial_n":94,"span":9,"encoder":"943327612","distractor":"643327612","target":"absent","response":"absent","rt":"2380.5","correct":true,"confidence":4},{"trial_n":95,"span":10,"encoder":"9906759001","distractor":"9906359001","target":"present","response":"present","rt":"4224.1000000238","correct":true,"confidence":3},{"trial_n":96,"span":10,"encoder":"2780129751","distractor":"4780129751","target":"absent","response":"absent","rt":"3843","correct":true,"confidence":2},{"trial_n":97,"span":11,"encoder":"10517105654","distractor":"10517101654","target":"present","response":"present","rt":"11136.100000024","correct":true,"confidence":3},{"trial_n":98,"span":11,"encoder":"61709909577","distractor":"61709909777","target":"present","response":"present","rt":"4723.2999999523","correct":true,"confidence":2},{"trial_n":99,"span":12,"encoder":"721817686404","distractor":"721897686404","target":"absent","response":"present","rt":"5785.7999999523","correct":false,"confidence":2},{"trial_n":100,"span":11,"encoder":"12660776124","distractor":"12660376124","target":"present","response":"present","rt":"4654.0999999046","correct":true,"confidence":4},{"trial_n":101,"span":11,"encoder":"49655751470","distractor":"49655721470","target":"present","response":"absent","rt":"3200.7999999523","correct":false,"confidence":2},{"trial_n":102,"span":10,"encoder":"3613686473","distractor":"3613683473","target":"present","response":"present","rt":"3128","correct":true,"confidence":4},{"trial_n":103,"span":10,"encoder":"0041690248","distractor":"0041690245","target":"present","response":"present","rt":"2172.3999999762","correct":true,"confidence":5},{"trial_n":104,"span":11,"encoder":"54982288024","distractor":"54982288074","target":"absent","response":"absent","rt":"2122.3999999762","correct":true,"confidence":3},{"trial_n":105,"span":11,"encoder":"97659628107","distractor":"97659658107","target":"absent","response":"present","rt":"3927.7000000477","correct":false,"confidence":2},{"trial_n":106,"span":10,"encoder":"8574670436","distractor":"8574675436","target":"absent","response":"absent","rt":"4114.5","correct":true,"confidence":3},{"trial_n":107,"span":10,"encoder":"9307532938","distractor":"9307531938","target":"present","response":"present","rt":"4271.1000000238","correct":true,"confidence":3},{"trial_n":108,"span":11,"encoder":"60422521608","distractor":"60422521648","target":"absent","response":"present","rt":"5499.5","correct":false,"confidence":2},{"trial_n":109,"span":10,"encoder":"8968823685","distractor":"8958823685","target":"absent","response":"absent","rt":"7139.7000000477","correct":true,"confidence":2},{"trial_n":110,"span":10,"encoder":"1075731895","distractor":"1075731395","target":"present","response":"present","rt":"1867.2999999523","correct":true,"confidence":5},{"trial_n":111,"span":11,"encoder":"61681530457","distractor":"61681530417","target":"present","response":"present","rt":"1676.7999999523","correct":true,"confidence":3},{"trial_n":112,"span":11,"encoder":"11834717781","distractor":"11834787781","target":"present","response":"present","rt":"4729.7999999523","correct":true,"confidence":2},{"trial_n":113,"span":12,"encoder":"535860102057","distractor":"575860102057","target":"present","response":"absent","rt":"15991.799999952","correct":false,"confidence":1},{"trial_n":114,"span":11,"encoder":"48875902113","distractor":"48875908113","target":"present","response":"present","rt":"3327.5","correct":true,"confidence":5},{"trial_n":115,"span":11,"encoder":"08084438280","distractor":"08184438280","target":"present","response":"absent","rt":"4946.7999999523","correct":false,"confidence":1},{"trial_n":116,"span":10,"encoder":"4898650108","distractor":"4898650104","target":"present","response":"present","rt":"2299.6999999285","correct":true,"confidence":5},{"trial_n":117,"span":10,"encoder":"1106725575","distractor":"6106725575","target":"present","response":"present","rt":"4947.7999999523","correct":true,"confidence":4},{"trial_n":118,"span":11,"encoder":"04532748315","distractor":"04532758315","target":"absent","response":"absent","rt":"7622.8999999762","correct":true,"confidence":3},{"trial_n":119,"span":11,"encoder":"56500322810","distractor":"56500322210","target":"absent","response":"absent","rt":"22556.5","correct":true,"confidence":1},{"trial_n":120,"span":12,"encoder":"959128618320","distractor":"959128618327","target":"present","response":"present","rt":"2101.1000000238","correct":true,"confidence":4},{"trial_n":121,"span":12,"encoder":"060955698201","distractor":"060355698201","target":"present","response":"present","rt":"4368.7000000477","correct":true,"confidence":2},{"trial_n":122,"span":13,"encoder":"1397713704106","distractor":"1397713744106","target":"absent","response":"absent","rt":"4987.7999999523","correct":true,"confidence":2},{"trial_n":123,"span":13,"encoder":"1737734920705","distractor":"8737734920705","target":"present","response":"present","rt":"3675","correct":true,"confidence":3},{"trial_n":124,"span":14,"encoder":"49600408219872","distractor":"49600408219874","target":"absent","response":"absent","rt":"3070.2000000477","correct":true,"confidence":5},{"trial_n":125,"span":14,"encoder":"34051809801282","distractor":"34051809801281","target":"absent","response":"present","rt":"2827.3999999762","correct":false,"confidence":4},{"trial_n":126,"span":13,"encoder":"9306121414418","distractor":"9306121414413","target":"absent","response":"absent","rt":"2365.6000000238","correct":true,"confidence":5},{"trial_n":127,"span":13,"encoder":"7497455338397","distractor":"7497755338397","target":"present","response":"absent","rt":"4120.2000000477","correct":false,"confidence":3},{"trial_n":128,"span":12,"encoder":"170243912676","distractor":"470243912676","target":"present","response":"present","rt":"5275.6000000238","correct":true,"confidence":2},{"trial_n":129,"span":12,"encoder":"134414135546","distractor":"134414135746","target":"present","response":"present","rt":"2453.5","correct":true,"confidence":4},{"trial_n":130,"span":13,"encoder":"1291027081321","distractor":"1291027681321","target":"absent","response":"absent","rt":"19592.300000072","correct":true,"confidence":1},{"trial_n":131,"span":13,"encoder":"7216369124741","distractor":"7215369124741","target":"present","response":"absent","rt":"4647.6000000238","correct":false,"confidence":2},{"trial_n":132,"span":12,"encoder":"207822856951","distractor":"207822856954","target":"absent","response":"absent","rt":"2290.6000000238","correct":true,"confidence":4},{"trial_n":133,"span":12,"encoder":"888696595307","distractor":"888696395307","target":"present","response":"absent","rt":"4586.8999999762","correct":false,"confidence":1},{"trial_n":134,"span":11,"encoder":"38908689824","distractor":"68908689824","target":"absent","response":"absent","rt":"3076.8999999762","correct":true,"confidence":3},{"trial_n":135,"span":11,"encoder":"77989499334","distractor":"77989499434","target":"present","response":"present","rt":"2110.7999999523","correct":true,"confidence":4},{"trial_n":136,"span":12,"encoder":"964040298549","distractor":"964040288549","target":"absent","response":"present","rt":"37359.199999928","correct":false,"confidence":1},{"trial_n":137,"span":11,"encoder":"15054981498","distractor":"15054981698","target":"absent","response":"absent","rt":"3842.1000000238","correct":true,"confidence":4},{"trial_n":138,"span":11,"encoder":"88851660412","distractor":"88851650412","target":"absent","response":"present","rt":"6467.5999999046","correct":false,"confidence":3},{"trial_n":139,"span":10,"encoder":"5251788192","distractor":"5251788692","target":"present","response":"present","rt":"5527.5999999046","correct":true,"confidence":3},{"trial_n":140,"span":10,"encoder":"9527029720","distractor":"9523029720","target":"present","response":"absent","rt":"5455.8999999762","correct":false,"confidence":1}]