[{"trial_n":1,"span":8,"encoder":"71818034","distractor":"71018034","target":"present","response":"present","rt":"4051.2999997139","correct":true,"confidence":-1},{"trial_n":2,"span":8,"encoder":"72463778","distractor":"72463776","target":"present","response":"present","rt":"1731.5999999046","correct":true,"confidence":-1},{"trial_n":3,"span":10,"encoder":"7891189970","distractor":"4891189970","target":"absent","response":"present","rt":"1994.7000002861","correct":false,"confidence":-1},{"trial_n":4,"span":8,"encoder":"43470507","distractor":"43479507","target":"absent","response":"present","rt":"2137.5","correct":false,"confidence":-1},{"trial_n":5,"span":6,"encoder":"294849","distractor":"494849","target":"present","response":"present","rt":"2559.1999998093","correct":true,"confidence":-1},{"trial_n":6,"span":6,"encoder":"793924","distractor":"794924","target":"absent","response":"absent","rt":"4223.2999997139","correct":true,"confidence":-1},{"trial_n":7,"span":8,"encoder":"72891838","distractor":"78891838","target":"present","response":"present","rt":"2646.5999999046","correct":true,"confidence":-1},{"trial_n":8,"span":8,"encoder":"56959796","distractor":"56959795","target":"absent","response":"absent","rt":"4153.3000001907","correct":true,"confidence":-1},{"trial_n":9,"span":10,"encoder":"9705317935","distractor":"9705317905","target":"absent","response":"absent","rt":"2623","correct":true,"confidence":-1},{"trial_n":10,"span":10,"encoder":"0209307395","distractor":"0209300395","target":"absent","response":"absent","rt":"2346.7999997139","correct":true,"confidence":-1},{"trial_n":11,"span":12,"encoder":"470624623845","distractor":"480624623845","target":"present","response":"present","rt":"4030.9000000954","correct":true,"confidence":-1},{"trial_n":12,"span":12,"encoder":"826873221195","distractor":"826773221195","target":"present","response":"absent","rt":"2572.7000002861","correct":false,"confidence":-1},{"trial_n":13,"span":11,"encoder":"75377577602","distractor":"35377577602","target":"present","response":"present","rt":"2105.3000001907","correct":true,"confidence":-1},{"trial_n":14,"span":11,"encoder":"06067122346","distractor":"06067122446","target":"absent","response":"present","rt":"2508.9000000954","correct":false,"confidence":-1},{"trial_n":15,"span":10,"encoder":"9721805958","distractor":"9701805958","target":"absent","response":"absent","rt":"3491.8999996185","correct":true,"confidence":-1},{"trial_n":16,"span":10,"encoder":"4537289950","distractor":"4537589950","target":"present","response":"present","rt":"1517.6999998093","correct":true,"confidence":-1},{"trial_n":17,"span":11,"encoder":"12049586731","distractor":"12049886731","target":"absent","response":"present","rt":"2890.7000002861","correct":false,"confidence":-1},{"trial_n":18,"span":10,"encoder":"5069335270","distractor":"5089335270","target":"absent","response":"present","rt":"2620","correct":false,"confidence":-1},{"trial_n":19,"span":9,"encoder":"697149840","distractor":"697144840","target":"absent","response":"absent","rt":"2426.9000000954","correct":true,"confidence":-1},{"trial_n":20,"span":9,"encoder":"688692145","distractor":"688672145","target":"absent","response":"present","rt":"2326.0999999046","correct":false,"confidence":-1},{"trial_n":21,"span":8,"encoder":"00508683","distractor":"00508603","target":"present","response":"present","rt":"2133.7000002861","correct":true,"confidence":5},{"trial_n":22,"span":8,"encoder":"98558321","distractor":"98758321","target":"present","response":"absent","rt":"4369.0999999046","correct":false,"confidence":3},{"trial_n":23,"span":7,"encoder":"7193380","distractor":"7143380","target":"absent","response":"absent","rt":"3059","correct":true,"confidence":5},{"trial_n":24,"span":7,"encoder":"7163713","distractor":"7663713","target":"present","response":"present","rt":"2731.5","correct":true,"confidence":5},{"trial_n":25,"span":8,"encoder":"91011842","distractor":"91011142","target":"present","response":"present","rt":"3620.1999998093","correct":true,"confidence":5},{"trial_n":26,"span":8,"encoder":"07051172","distractor":"97051172","target":"present","response":"absent","rt":"2543.0999999046","correct":false,"confidence":5},{"trial_n":27,"span":7,"encoder":"0456744","distractor":"0456244","target":"absent","response":"absent","rt":"4576.2999997139","correct":true,"confidence":5},{"trial_n":28,"span":7,"encoder":"3526274","distractor":"3526674","target":"absent","response":"absent","rt":"2760.8000001907","correct":true,"confidence":5},{"trial_n":29,"span":8,"encoder":"73497100","distractor":"73897100","target":"absent","response":"absent","rt":"4252.8999996185","correct":true,"confidence":3},{"trial_n":30,"span":8,"encoder":"84326153","distractor":"84326553","target":"absent","response":"absent","rt":"6155.5999999046","correct":true,"confidence":3},{"trial_n":31,"span":9,"encoder":"987144171","distractor":"987145171","target":"present","response":"present","rt":"2446.7000002861","correct":true,"confidence":4},{"trial_n":32,"span":9,"encoder":"456176536","distractor":"456171536","target":"present","response":"absent","rt":"5725.5","correct":false,"confidence":4},{"trial_n":33,"span":8,"encoder":"06332110","distractor":"56332110","target":"present","response":"present","rt":"3347.5999999046","correct":true,"confidence":5},{"trial_n":34,"span":8,"encoder":"66507799","distractor":"66507759","target":"present","response":"present","rt":"3232.7999997139","correct":true,"confidence":4},{"trial_n":35,"span":9,"encoder":"235105995","distractor":"235105695","target":"absent","response":"absent","rt":"3093.9000000954","correct":true,"confidence":5},{"trial_n":36,"span":9,"encoder":"681374525","distractor":"681394525","target":"absent","response":"absent","rt":"3674.5999999046","correct":true,"confidence":5},{"trial_n":37,"span":10,"encoder":"5910789596","distractor":"5910789594","target":"absent","response":"present","rt":"3577.5999999046","correct":false,"confidence":3},{"trial_n":38,"span":9,"encoder":"687529449","distractor":"697529449","target":"present","response":"present","rt":"3482.6999998093","correct":true,"confidence":4},{"trial_n":39,"span":9,"encoder":"507688782","distractor":"507648782","target":"present","response":"present","rt":"2474.0999999046","correct":true,"confidence":5},{"trial_n":40,"span":10,"encoder":"4922977392","distractor":"4922977382","target":"present","response":"absent","rt":"3476.7000002861","correct":false,"confidence":4},{"trial_n":41,"span":9,"encoder":"753539065","distractor":"723539065","target":"present","response":"absent","rt":"3310.0999999046","correct":false,"confidence":5},{"trial_n":42,"span":8,"encoder":"76846233","distractor":"76846236","target":"present","response":"present","rt":"5848.8000001907","correct":true,"confidence":4},{"trial_n":43,"span":8,"encoder":"72094248","distractor":"72064248","target":"absent","response":"absent","rt":"2601.7999997139","correct":true,"confidence":3},{"trial_n":44,"span":9,"encoder":"709291152","distractor":"709891152","target":"present","response":"absent","rt":"4631.2000002861","correct":false,"confidence":3},{"trial_n":45,"span":8,"encoder":"69279020","distractor":"69279920","target":"absent","response":"absent","rt":"2049.2999997139","correct":true,"confidence":5},{"trial_n":46,"span":8,"encoder":"93541371","distractor":"93541971","target":"present","response":"present","rt":"3747.6999998093","correct":true,"confidence":5},{"trial_n":47,"span":9,"encoder":"956109092","distractor":"956109692","target":"present","response":"present","rt":"3567","correct":true,"confidence":5},{"trial_n":48,"span":9,"encoder":"964187088","distractor":"964183088","target":"present","response":"present","rt":"3315.1000003815","correct":true,"confidence":4},{"trial_n":49,"span":10,"encoder":"8308498289","distractor":"8608498289","target":"present","response":"present","rt":"4836.1999998093","correct":true,"confidence":3},{"trial_n":50,"span":10,"encoder":"3003112625","distractor":"3003112665","target":"absent","response":"present","rt":"3802.3000001907","correct":false,"confidence":5},{"trial_n":51,"span":9,"encoder":"033392775","distractor":"033397775","target":"present","response":"present","rt":"2073.1999998093","correct":true,"confidence":5},{"trial_n":52,"span":9,"encoder":"008960263","distractor":"008960963","target":"absent","response":"absent","rt":"3406.5","correct":true,"confidence":5},{"trial_n":53,"span":10,"encoder":"0630109099","distractor":"5630109099","target":"present","response":"present","rt":"2916.7000002861","correct":true,"confidence":4},{"trial_n":54,"span":10,"encoder":"4480442720","distractor":"4482442720","target":"present","response":"present","rt":"3876.2000002861","correct":true,"confidence":3},{"trial_n":55,"span":11,"encoder":"05865870873","distractor":"05865875873","target":"absent","response":"absent","rt":"3431.1000003815","correct":true,"confidence":4},{"trial_n":56,"span":11,"encoder":"81955882997","distractor":"81955889997","target":"absent","response":"absent","rt":"4328.8999996185","correct":true,"confidence":2},{"trial_n":57,"span":12,"encoder":"017182804392","distractor":"017182804992","target":"absent","response":"absent","rt":"7442.2000002861","correct":true,"confidence":3},{"trial_n":58,"span":12,"encoder":"348367741699","distractor":"848367741699","target":"present","response":"absent","rt":"4637.4000000954","correct":false,"confidence":3},{"trial_n":59,"span":11,"encoder":"66874473819","distractor":"66874673819","target":"present","response":"absent","rt":"3012.6999998093","correct":false,"confidence":3},{"trial_n":60,"span":10,"encoder":"0249730393","distractor":"0249770393","target":"absent","response":"present","rt":"3375","correct":false,"confidence":3},{"trial_n":61,"span":9,"encoder":"087626698","distractor":"087626298","target":"absent","response":"absent","rt":"5703","correct":true,"confidence":3},{"trial_n":62,"span":9,"encoder":"599082884","distractor":"599052884","target":"absent","response":"present","rt":"4789.0999999046","correct":false,"confidence":5},{"trial_n":63,"span":8,"encoder":"23768099","distractor":"23778099","target":"present","response":"present","rt":"4542.7000002861","correct":true,"confidence":5},{"trial_n":64,"span":8,"encoder":"21567127","distractor":"29567127","target":"absent","response":"present","rt":"3521.9000000954","correct":false,"confidence":5},{"trial_n":65,"span":7,"encoder":"1011906","distractor":"1011986","target":"absent","response":"present","rt":"5952.8000001907","correct":false,"confidence":3},{"trial_n":66,"span":6,"encoder":"765984","distractor":"765784","target":"absent","response":"absent","rt":"2454","correct":true,"confidence":5},{"trial_n":67,"span":6,"encoder":"322651","distractor":"372651","target":"present","response":"present","rt":"3142","correct":true,"confidence":4},{"trial_n":68,"span":7,"encoder":"6031934","distractor":"6031964","target":"present","response":"absent","rt":"3215.3000001907","correct":false,"confidence":3},{"trial_n":69,"span":6,"encoder":"463477","distractor":"433477","target":"absent","response":"absent","rt":"4903.1999998093","correct":true,"confidence":4},{"trial_n":70,"span":6,"encoder":"909093","distractor":"979093","target":"present","response":"present","rt":"2501.5999999046","correct":true,"confidence":5},{"trial_n":71,"span":8,"encoder":"07420144","distractor":"07120144","target":"present","response":"absent","rt":"6026.5","correct":false,"confidence":-1},{"trial_n":72,"span":7,"encoder":"1765298","distractor":"1765238","target":"present","response":"present","rt":"3297","correct":true,"confidence":-1},{"trial_n":73,"span":7,"encoder":"1554325","distractor":"1524325","target":"absent","response":"absent","rt":"2250.9000000954","correct":true,"confidence":-1},{"trial_n":74,"span":8,"encoder":"91434756","distractor":"01434756","target":"absent","response":"absent","rt":"3653.0999999046","correct":true,"confidence":-1},{"trial_n":75,"span":8,"encoder":"39591667","distractor":"39591660","target":"present","response":"present","rt":"3226.8000001907","correct":true,"confidence":-1},{"trial_n":76,"span":9,"encoder":"236694211","distractor":"236694241","target":"present","response":"present","rt":"2090.8000001907","correct":true,"confidence":-1},{"trial_n":77,"span":9,"encoder":"082547858","distractor":"082541858","target":"present","response":"present","rt":"4811.3999996185","correct":true,"confidence":-1},{"trial_n":78,"span":10,"encoder":"9857498147","distractor":"9857998147","target":"present","response":"present","rt":"3442.3000001907","correct":true,"confidence":-1},{"trial_n":79,"span":10,"encoder":"4680414652","distractor":"4681414652","target":"present","response":"present","rt":"3263.6999998093","correct":true,"confidence":-1},{"trial_n":80,"span":11,"encoder":"84877563953","distractor":"84877560953","target":"present","response":"present","rt":"3748.2000002861","correct":true,"confidence":-1},{"trial_n":81,"span":11,"encoder":"80851105022","distractor":"30851105022","target":"absent","response":"present","rt":"3259.5999999046","correct":false,"confidence":-1},{"trial_n":82,"span":10,"encoder":"5879136536","distractor":"5879126536","target":"present","response":"present","rt":"2839.1000003815","correct":true,"confidence":-1},{"trial_n":83,"span":10,"encoder":"4525928798","distractor":"4525128798","target":"present","response":"present","rt":"4799.7000002861","correct":true,"confidence":-1},{"trial_n":84,"span":11,"encoder":"60303369416","distractor":"60307369416","target":"present","response":"present","rt":"2286.3000001907","correct":true,"confidence":-1},{"trial_n":85,"span":11,"encoder":"78190618740","distractor":"88190618740","target":"present","response":"absent","rt":"7131","correct":false,"confidence":-1},{"trial_n":86,"span":10,"encoder":"0720301897","distractor":"0720301097","target":"present","response":"present","rt":"3004.8000001907","correct":true,"confidence":-1},{"trial_n":87,"span":10,"encoder":"1270032702","distractor":"1270002702","target":"present","response":"present","rt":"4898.8000001907","correct":true,"confidence":-1},{"trial_n":88,"span":11,"encoder":"25342589155","distractor":"25342585155","target":"present","response":"absent","rt":"1382.0999999046","correct":false,"confidence":-1},{"trial_n":89,"span":10,"encoder":"4502682501","distractor":"4202682501","target":"present","response":"present","rt":"1815.2000002861","correct":true,"confidence":-1},{"trial_n":90,"span":10,"encoder":"3346334269","distractor":"0346334269","target":"present","response":"present","rt":"3326.0999999046","correct":true,"confidence":-1},{"trial_n":91,"span":11,"encoder":"13643960580","distractor":"15643960580","target":"absent","response":"absent","rt":"2708.7000002861","correct":true,"confidence":5},{"trial_n":92,"span":11,"encoder":"04433953136","distractor":"04433653136","target":"absent","response":"absent","rt":"6278.0999999046","correct":true,"confidence":5},{"trial_n":93,"span":12,"encoder":"014108512667","distractor":"414108512667","target":"present","response":"present","rt":"3824.3000001907","correct":true,"confidence":5},{"trial_n":94,"span":12,"encoder":"558709019842","distractor":"558709059842","target":"absent","response":"absent","rt":"6511.1999998093","correct":true,"confidence":2},{"trial_n":95,"span":13,"encoder":"6444993593556","distractor":"6445993593556","target":"absent","response":"absent","rt":"5402.5999999046","correct":true,"confidence":4},{"trial_n":96,"span":13,"encoder":"7770081887096","distractor":"7770081847096","target":"present","response":"present","rt":"5041.5","correct":true,"confidence":5},{"trial_n":97,"span":14,"encoder":"03595135035826","distractor":"03795135035826","target":"present","response":"present","rt":"13787.599999905","correct":true,"confidence":3},{"trial_n":98,"span":14,"encoder":"88130527373087","distractor":"87130527373087","target":"present","response":"absent","rt":"7358.1000003815","correct":false,"confidence":2},{"trial_n":99,"span":13,"encoder":"1425450774897","distractor":"1425450704897","target":"absent","response":"present","rt":"5500.0999999046","correct":false,"confidence":4},{"trial_n":100,"span":12,"encoder":"359203830383","distractor":"359203820383","target":"absent","response":"absent","rt":"15619.300000191","correct":true,"confidence":1},{"trial_n":101,"span":12,"encoder":"469121243794","distractor":"469161243794","target":"present","response":"absent","rt":"5656.8999996185","correct":false,"confidence":4},{"trial_n":102,"span":11,"encoder":"91996795565","distractor":"91994795565","target":"absent","response":"absent","rt":"7545.0999999046","correct":true,"confidence":4},{"trial_n":103,"span":11,"encoder":"76991268417","distractor":"76991238417","target":"present","response":"present","rt":"4306","correct":true,"confidence":4},{"trial_n":104,"span":12,"encoder":"296890359245","distractor":"296890357245","target":"absent","response":"present","rt":"11323.400000095","correct":false,"confidence":3},{"trial_n":105,"span":11,"encoder":"34156882953","distractor":"34186882953","target":"absent","response":"present","rt":"2703.2000002861","correct":false,"confidence":3},{"trial_n":106,"span":10,"encoder":"2852268182","distractor":"2859268182","target":"absent","response":"absent","rt":"3912.2000002861","correct":true,"confidence":4},{"trial_n":107,"span":10,"encoder":"0617655064","distractor":"0617355064","target":"absent","response":"absent","rt":"8336.8000001907","correct":true,"confidence":3},{"trial_n":108,"span":11,"encoder":"79125212524","distractor":"79125213524","target":"present","response":"present","rt":"2595.6000003815","correct":true,"confidence":5},{"trial_n":109,"span":11,"encoder":"97428915487","distractor":"97428935487","target":"absent","response":"absent","rt":"4288.5","correct":true,"confidence":3},{"trial_n":110,"span":12,"encoder":"293928369854","distractor":"293028369854","target":"absent","response":"absent","rt":"3693.6999998093","correct":true,"confidence":4},{"trial_n":111,"span":12,"encoder":"076620694786","distractor":"076622694786","target":"absent","response":"absent","rt":"4144.5","correct":true,"confidence":4},{"trial_n":112,"span":13,"encoder":"4607568566968","distractor":"4607562566968","target":"present","response":"present","rt":"8176.5","correct":true,"confidence":3},{"trial_n":113,"span":13,"encoder":"0453798334504","distractor":"0453298334504","target":"absent","response":"absent","rt":"5107.0999999046","correct":true,"confidence":4},{"trial_n":114,"span":14,"encoder":"15421566300849","distractor":"15421566320849","target":"absent","response":"absent","rt":"1717.5999999046","correct":true,"confidence":5},{"trial_n":115,"span":14,"encoder":"17300762772652","distractor":"17300763772652","target":"present","response":"present","rt":"8877.9000000954","correct":true,"confidence":3},{"trial_n":116,"span":15,"encoder":"169599443633544","distractor":"169599443635544","target":"absent","response":"absent","rt":"4992.6999998093","correct":true,"confidence":4},{"trial_n":117,"span":15,"encoder":"836547952453343","distractor":"836947952453343","target":"absent","response":"absent","rt":"7127.3999996185","correct":true,"confidence":4},{"trial_n":118,"span":16,"encoder":"6500432414343657","distractor":"6500432412343657","target":"present","response":"present","rt":"7995.5999999046","correct":true,"confidence":3},{"trial_n":119,"span":16,"encoder":"4072084937324855","distractor":"4072084937354855","target":"absent","response":"present","rt":"14906.899999619","correct":false,"confidence":3},{"trial_n":120,"span":15,"encoder":"761308981911022","distractor":"761308981981022","target":"absent","response":"absent","rt":"3163.2999997139","correct":true,"confidence":5},{"trial_n":121,"span":15,"encoder":"779487520585362","distractor":"779437520585362","target":"absent","response":"absent","rt":"6131.4000000954","correct":true,"confidence":3},{"trial_n":122,"span":16,"encoder":"2752990535485834","distractor":"2752990555485834","target":"absent","response":"absent","rt":"2801.5","correct":true,"confidence":4},{"trial_n":123,"span":16,"encoder":"2749007856580653","distractor":"6749007856580653","target":"absent","response":"present","rt":"4045","correct":false,"confidence":3},{"trial_n":124,"span":15,"encoder":"402574689424837","distractor":"402574687424837","target":"absent","response":"absent","rt":"10712.900000095","correct":true,"confidence":4},{"trial_n":125,"span":15,"encoder":"717701560951332","distractor":"717301560951332","target":"present","response":"absent","rt":"7444.0999999046","correct":false,"confidence":4},{"trial_n":126,"span":14,"encoder":"77318253928159","distractor":"77318253948159","target":"absent","response":"present","rt":"7057","correct":false,"confidence":4},{"trial_n":127,"span":13,"encoder":"1496490532950","distractor":"1696490532950","target":"present","response":"present","rt":"3254.2999997139","correct":true,"confidence":4},{"trial_n":128,"span":13,"encoder":"9742101623757","distractor":"9742121623757","target":"absent","response":"absent","rt":"4198","correct":true,"confidence":5},{"trial_n":129,"span":14,"encoder":"60744719197678","distractor":"60704719197678","target":"present","response":"absent","rt":"6881.0999999046","correct":false,"confidence":3},{"trial_n":130,"span":13,"encoder":"7647749028123","distractor":"7647749028133","target":"absent","response":"absent","rt":"1782.7000002861","correct":true,"confidence":5},{"trial_n":131,"span":13,"encoder":"5617774314510","distractor":"5617774214510","target":"absent","response":"absent","rt":"4869.9000000954","correct":true,"confidence":4},{"trial_n":132,"span":14,"encoder":"95133759077624","distractor":"35133759077624","target":"present","response":"absent","rt":"5712.1999998093","correct":false,"confidence":3},{"trial_n":133,"span":13,"encoder":"2984092430213","distractor":"2984592430213","target":"absent","response":"absent","rt":"6399.2000002861","correct":true,"confidence":4},{"trial_n":134,"span":13,"encoder":"1426366426610","distractor":"1426366446610","target":"present","response":"present","rt":"3796","correct":true,"confidence":4},{"trial_n":135,"span":14,"encoder":"62282912417030","distractor":"62282913417030","target":"absent","response":"present","rt":"5909.6999998093","correct":false,"confidence":3},{"trial_n":136,"span":13,"encoder":"9868941901149","distractor":"9888941901149","target":"absent","response":"absent","rt":"3693.5999999046","correct":true,"confidence":5},{"trial_n":137,"span":13,"encoder":"9496960455188","distractor":"9496960655188","target":"present","response":"absent","rt":"3940","correct":false,"confidence":2},{"trial_n":138,"span":12,"encoder":"821754450152","distractor":"821794450152","target":"present","response":"present","rt":"7793.8000001907","correct":true,"confidence":4},{"trial_n":139,"span":12,"encoder":"359813088154","distractor":"359813098154","target":"present","response":"absent","rt":"3647.3000001907","correct":false,"confidence":3},{"trial_n":140,"span":11,"encoder":"94861035656","distractor":"94861035156","target":"present","response":"present","rt":"2699.6999998093","correct":true,"confidence":4}]