[{"trial_n":1,"min":25,"max":230,"target":"present","response":"present","rt":6950.8000001907,"correct":true,"confidence":-1},{"trial_n":2,"min":25,"max":230,"target":"present","response":"present","rt":2123.0999999046,"correct":true,"confidence":-1},{"trial_n":3,"min":41,"max":214,"target":"absent","response":"absent","rt":1374,"correct":true,"confidence":-1},{"trial_n":4,"min":41,"max":214,"target":"absent","response":"absent","rt":973,"correct":true,"confidence":-1},{"trial_n":5,"min":57,"max":198,"target":"present","response":"present","rt":1085.4000000954,"correct":true,"confidence":-1},{"trial_n":6,"min":57,"max":198,"target":"present","response":"absent","rt":2261.6000003815,"correct":false,"confidence":-1},{"trial_n":7,"min":41,"max":214,"target":"present","response":"present","rt":1002.5,"correct":true,"confidence":-1},{"trial_n":8,"min":41,"max":214,"target":"absent","response":"absent","rt":1092.0999999046,"correct":true,"confidence":-1},{"trial_n":9,"min":57,"max":198,"target":"present","response":"present","rt":1338.1999998093,"correct":true,"confidence":-1},{"trial_n":10,"min":57,"max":198,"target":"present","response":"present","rt":777.60000038147,"correct":true,"confidence":-1},{"trial_n":11,"min":65,"max":190,"target":"absent","response":"absent","rt":1236.4000000954,"correct":true,"confidence":-1},{"trial_n":12,"min":65,"max":190,"target":"present","response":"present","rt":942.7999997139,"correct":true,"confidence":-1},{"trial_n":13,"min":73,"max":182,"target":"absent","response":"absent","rt":1005.6999998093,"correct":true,"confidence":-1},{"trial_n":14,"min":73,"max":182,"target":"absent","response":"absent","rt":1110.9000000954,"correct":true,"confidence":-1},{"trial_n":15,"min":81,"max":174,"target":"present","response":"absent","rt":839.2000002861,"correct":false,"confidence":-1},{"trial_n":16,"min":73,"max":182,"target":"present","response":"present","rt":805.09999990463,"correct":true,"confidence":-1},{"trial_n":17,"min":73,"max":182,"target":"present","response":"present","rt":928.2999997139,"correct":true,"confidence":-1},{"trial_n":18,"min":81,"max":174,"target":"absent","response":"present","rt":990.10000038147,"correct":false,"confidence":-1},{"trial_n":19,"min":73,"max":182,"target":"present","response":"present","rt":976.2000002861,"correct":true,"confidence":-1},{"trial_n":20,"min":73,"max":182,"target":"absent","response":"absent","rt":1007.7999997139,"correct":true,"confidence":-1},{"trial_n":21,"min":77,"max":178,"target":"present","response":"present","rt":901.2000002861,"correct":true,"confidence":4},{"trial_n":22,"min":77,"max":178,"target":"present","response":"absent","rt":898.60000038147,"correct":false,"confidence":3},{"trial_n":23,"min":73,"max":182,"target":"absent","response":"absent","rt":1148.3000001907,"correct":true,"confidence":5},{"trial_n":24,"min":73,"max":182,"target":"present","response":"present","rt":895,"correct":true,"confidence":5},{"trial_n":25,"min":77,"max":178,"target":"absent","response":"absent","rt":1526.6999998093,"correct":true,"confidence":2},{"trial_n":26,"min":77,"max":178,"target":"present","response":"present","rt":1024.6000003815,"correct":true,"confidence":5},{"trial_n":27,"min":81,"max":174,"target":"present","response":"present","rt":888.5,"correct":true,"confidence":5},{"trial_n":28,"min":81,"max":174,"target":"absent","response":"absent","rt":1207.5,"correct":true,"confidence":4},{"trial_n":29,"min":85,"max":170,"target":"absent","response":"absent","rt":794.90000009537,"correct":true,"confidence":5},{"trial_n":30,"min":85,"max":170,"target":"present","response":"present","rt":890,"correct":true,"confidence":5},{"trial_n":31,"min":87,"max":168,"target":"present","response":"absent","rt":898.30000019073,"correct":false,"confidence":5},{"trial_n":32,"min":85,"max":170,"target":"present","response":"absent","rt":783.40000009537,"correct":false,"confidence":4},{"trial_n":33,"min":83,"max":172,"target":"absent","response":"absent","rt":1064.7999997139,"correct":true,"confidence":4},{"trial_n":34,"min":83,"max":172,"target":"present","response":"present","rt":1169.5999999046,"correct":true,"confidence":3},{"trial_n":35,"min":85,"max":170,"target":"absent","response":"absent","rt":1133.5,"correct":true,"confidence":5},{"trial_n":36,"min":85,"max":170,"target":"absent","response":"absent","rt":769.89999961853,"correct":true,"confidence":4},{"trial_n":37,"min":87,"max":168,"target":"present","response":"present","rt":939.09999990463,"correct":true,"confidence":5},{"trial_n":38,"min":87,"max":168,"target":"absent","response":"absent","rt":969.2000002861,"correct":true,"confidence":3},{"trial_n":39,"min":89,"max":166,"target":"present","response":"present","rt":1368.1999998093,"correct":true,"confidence":5},{"trial_n":40,"min":89,"max":166,"target":"present","response":"absent","rt":1630.0999999046,"correct":false,"confidence":2},{"trial_n":41,"min":88,"max":167,"target":"absent","response":"absent","rt":1283.8000001907,"correct":true,"confidence":3},{"trial_n":42,"min":88,"max":167,"target":"absent","response":"absent","rt":1115.9000000954,"correct":true,"confidence":5},{"trial_n":43,"min":89,"max":166,"target":"absent","response":"absent","rt":999.7999997139,"correct":true,"confidence":5},{"trial_n":44,"min":89,"max":166,"target":"present","response":"present","rt":1608.7000002861,"correct":true,"confidence":4},{"trial_n":45,"min":90,"max":165,"target":"absent","response":"absent","rt":1076.0999999046,"correct":true,"confidence":2},{"trial_n":46,"min":90,"max":165,"target":"present","response":"absent","rt":854.2000002861,"correct":false,"confidence":5},{"trial_n":47,"min":89,"max":166,"target":"absent","response":"present","rt":835.80000019073,"correct":false,"confidence":5},{"trial_n":48,"min":88,"max":167,"target":"present","response":"present","rt":877,"correct":true,"confidence":5},{"trial_n":49,"min":88,"max":167,"target":"present","response":"present","rt":959,"correct":true,"confidence":3},{"trial_n":50,"min":89,"max":166,"target":"present","response":"present","rt":959.5,"correct":true,"confidence":3},{"trial_n":51,"min":89,"max":166,"target":"present","response":"present","rt":1288.4000000954,"correct":true,"confidence":5},{"trial_n":52,"min":90,"max":165,"target":"absent","response":"present","rt":1090.5,"correct":false,"confidence":3},{"trial_n":53,"min":89,"max":166,"target":"absent","response":"absent","rt":1324.4000000954,"correct":true,"confidence":3},{"trial_n":54,"min":89,"max":166,"target":"absent","response":"absent","rt":859,"correct":true,"confidence":5},{"trial_n":55,"min":90,"max":165,"target":"present","response":"present","rt":1041.5999999046,"correct":true,"confidence":4},{"trial_n":56,"min":90,"max":165,"target":"absent","response":"present","rt":1120.1999998093,"correct":false,"confidence":4},{"trial_n":57,"min":89,"max":166,"target":"present","response":"present","rt":937.19999980927,"correct":true,"confidence":5},{"trial_n":58,"min":89,"max":166,"target":"present","response":"present","rt":846,"correct":true,"confidence":5},{"trial_n":59,"min":90,"max":165,"target":"absent","response":"present","rt":919.5,"correct":false,"confidence":5},{"trial_n":60,"min":89,"max":166,"target":"absent","response":"absent","rt":885.2999997139,"correct":true,"confidence":5},{"trial_n":61,"min":89,"max":166,"target":"absent","response":"absent","rt":1253.1999998093,"correct":true,"confidence":2},{"trial_n":62,"min":90,"max":165,"target":"present","response":"present","rt":1294.3000001907,"correct":true,"confidence":5},{"trial_n":63,"min":90,"max":165,"target":"present","response":"present","rt":1055.8000001907,"correct":true,"confidence":3},{"trial_n":64,"min":91,"max":164,"target":"absent","response":"present","rt":918.7999997139,"correct":false,"confidence":4},{"trial_n":65,"min":90,"max":165,"target":"absent","response":"present","rt":810.80000019073,"correct":false,"confidence":5},{"trial_n":66,"min":89,"max":166,"target":"absent","response":"present","rt":837.19999980927,"correct":false,"confidence":4},{"trial_n":67,"min":88,"max":167,"target":"absent","response":"present","rt":1427.1000003815,"correct":false,"confidence":2},{"trial_n":68,"min":87,"max":168,"target":"absent","response":"present","rt":1134.1999998093,"correct":false,"confidence":3},{"trial_n":69,"min":86,"max":169,"target":"absent","response":"absent","rt":1262.3000001907,"correct":true,"confidence":2},{"trial_n":70,"min":86,"max":169,"target":"present","response":"absent","rt":1468.2999997139,"correct":false,"confidence":4},{"trial_n":71,"min":41,"max":214,"target":"present","response":"present","rt":3400.8000001907,"correct":true,"confidence":-1},{"trial_n":72,"min":41,"max":214,"target":"present","response":"present","rt":1318,"correct":true,"confidence":-1},{"trial_n":73,"min":57,"max":198,"target":"absent","response":"absent","rt":1298.3000001907,"correct":true,"confidence":-1},{"trial_n":74,"min":57,"max":198,"target":"absent","response":"absent","rt":1374.8000001907,"correct":true,"confidence":-1},{"trial_n":75,"min":73,"max":182,"target":"present","response":"present","rt":859.30000019073,"correct":true,"confidence":-1},{"trial_n":76,"min":73,"max":182,"target":"present","response":"present","rt":981.7000002861,"correct":true,"confidence":-1},{"trial_n":77,"min":89,"max":166,"target":"absent","response":"absent","rt":1255.5,"correct":true,"confidence":-1},{"trial_n":78,"min":89,"max":166,"target":"present","response":"present","rt":944.2999997139,"correct":true,"confidence":-1},{"trial_n":79,"min":105,"max":150,"target":"present","response":"present","rt":1866.6000003815,"correct":true,"confidence":-1},{"trial_n":80,"min":105,"max":150,"target":"present","response":"absent","rt":1288,"correct":false,"confidence":-1},{"trial_n":81,"min":97,"max":158,"target":"absent","response":"present","rt":982.5,"correct":false,"confidence":-1},{"trial_n":82,"min":89,"max":166,"target":"absent","response":"present","rt":2246.2999997139,"correct":false,"confidence":-1},{"trial_n":83,"min":81,"max":174,"target":"present","response":"present","rt":1025.7000002861,"correct":true,"confidence":-1},{"trial_n":84,"min":81,"max":174,"target":"present","response":"present","rt":630.09999990463,"correct":true,"confidence":-1},{"trial_n":85,"min":89,"max":166,"target":"absent","response":"absent","rt":880.19999980927,"correct":true,"confidence":-1},{"trial_n":86,"min":89,"max":166,"target":"present","response":"present","rt":849.2999997139,"correct":true,"confidence":-1},{"trial_n":87,"min":97,"max":158,"target":"absent","response":"present","rt":939.30000019073,"correct":false,"confidence":-1},{"trial_n":88,"min":89,"max":166,"target":"absent","response":"present","rt":919.7999997139,"correct":false,"confidence":-1},{"trial_n":89,"min":81,"max":174,"target":"absent","response":"absent","rt":664.09999990463,"correct":true,"confidence":-1},{"trial_n":90,"min":81,"max":174,"target":"absent","response":"absent","rt":1186.2999997139,"correct":true,"confidence":-1},{"trial_n":91,"min":85,"max":170,"target":"present","response":"present","rt":799.30000019073,"correct":true,"confidence":5},{"trial_n":92,"min":85,"max":170,"target":"absent","response":"absent","rt":995.90000009537,"correct":true,"confidence":5},{"trial_n":93,"min":89,"max":166,"target":"present","response":"present","rt":1019.5,"correct":true,"confidence":5},{"trial_n":94,"min":89,"max":166,"target":"present","response":"present","rt":1240.2999997139,"correct":true,"confidence":5},{"trial_n":95,"min":93,"max":162,"target":"absent","response":"absent","rt":1477,"correct":true,"confidence":2},{"trial_n":96,"min":93,"max":162,"target":"absent","response":"present","rt":1064.3999996185,"correct":false,"confidence":4},{"trial_n":97,"min":89,"max":166,"target":"present","response":"present","rt":904.59999990463,"correct":true,"confidence":5},{"trial_n":98,"min":89,"max":166,"target":"present","response":"present","rt":1449.0999999046,"correct":true,"confidence":3},{"trial_n":99,"min":93,"max":162,"target":"absent","response":"present","rt":787,"correct":false,"confidence":5},{"trial_n":100,"min":89,"max":166,"target":"absent","response":"absent","rt":1522.7999997139,"correct":true,"confidence":2},{"trial_n":101,"min":89,"max":166,"target":"present","response":"present","rt":1012.5,"correct":true,"confidence":5},{"trial_n":102,"min":91,"max":164,"target":"absent","response":"present","rt":1181.8000001907,"correct":false,"confidence":3},{"trial_n":103,"min":89,"max":166,"target":"absent","response":"absent","rt":1066.8000001907,"correct":true,"confidence":5},{"trial_n":104,"min":89,"max":166,"target":"absent","response":"absent","rt":1528.7000002861,"correct":true,"confidence":3},{"trial_n":105,"min":91,"max":164,"target":"present","response":"present","rt":708.19999980927,"correct":true,"confidence":5},{"trial_n":106,"min":91,"max":164,"target":"absent","response":"present","rt":957.7000002861,"correct":false,"confidence":2},{"trial_n":107,"min":89,"max":166,"target":"present","response":"present","rt":707.10000038147,"correct":true,"confidence":5},{"trial_n":108,"min":89,"max":166,"target":"present","response":"present","rt":1099.1999998093,"correct":true,"confidence":5},{"trial_n":109,"min":91,"max":164,"target":"present","response":"present","rt":969,"correct":true,"confidence":4},{"trial_n":110,"min":91,"max":164,"target":"present","response":"present","rt":1357.2999997139,"correct":true,"confidence":2},{"trial_n":111,"min":92,"max":163,"target":"absent","response":"absent","rt":1634.4000000954,"correct":true,"confidence":3},{"trial_n":112,"min":92,"max":163,"target":"absent","response":"absent","rt":1226.7999997139,"correct":true,"confidence":5},{"trial_n":113,"min":93,"max":162,"target":"present","response":"present","rt":2154.6000003815,"correct":true,"confidence":3},{"trial_n":114,"min":93,"max":162,"target":"absent","response":"present","rt":6511.2999997139,"correct":false,"confidence":3},{"trial_n":115,"min":92,"max":163,"target":"absent","response":"present","rt":1664.5,"correct":false,"confidence":2},{"trial_n":116,"min":91,"max":164,"target":"absent","response":"absent","rt":1037.1999998093,"correct":true,"confidence":4},{"trial_n":117,"min":91,"max":164,"target":"absent","response":"absent","rt":1028.0999999046,"correct":true,"confidence":4},{"trial_n":118,"min":92,"max":163,"target":"absent","response":"present","rt":2027.7999997139,"correct":false,"confidence":3},{"trial_n":119,"min":91,"max":164,"target":"present","response":"present","rt":749.2999997139,"correct":true,"confidence":5},{"trial_n":120,"min":91,"max":164,"target":"present","response":"absent","rt":2473.2999997139,"correct":false,"confidence":2},{"trial_n":121,"min":90,"max":165,"target":"absent","response":"absent","rt":1171.5999999046,"correct":true,"confidence":5},{"trial_n":122,"min":90,"max":165,"target":"present","response":"present","rt":1242.6000003815,"correct":true,"confidence":2},{"trial_n":123,"min":91,"max":164,"target":"present","response":"present","rt":1279.6000003815,"correct":true,"confidence":4},{"trial_n":124,"min":91,"max":164,"target":"absent","response":"present","rt":1194.3999996185,"correct":false,"confidence":4},{"trial_n":125,"min":90,"max":165,"target":"present","response":"present","rt":853.40000009537,"correct":true,"confidence":4},{"trial_n":126,"min":90,"max":165,"target":"present","response":"absent","rt":7395.7000002861,"correct":false,"confidence":2},{"trial_n":127,"min":89,"max":166,"target":"absent","response":"absent","rt":985.09999990463,"correct":true,"confidence":4},{"trial_n":128,"min":89,"max":166,"target":"present","response":"present","rt":997.09999990463,"correct":true,"confidence":4},{"trial_n":129,"min":90,"max":165,"target":"present","response":"present","rt":1043.2999997139,"correct":true,"confidence":5},{"trial_n":130,"min":90,"max":165,"target":"present","response":"present","rt":1463.2999997139,"correct":true,"confidence":2},{"trial_n":131,"min":91,"max":164,"target":"absent","response":"absent","rt":1291.5,"correct":true,"confidence":4},{"trial_n":132,"min":91,"max":164,"target":"present","response":"present","rt":1090.3000001907,"correct":true,"confidence":5},{"trial_n":133,"min":92,"max":163,"target":"absent","response":"absent","rt":1045.7000002861,"correct":true,"confidence":4},{"trial_n":134,"min":92,"max":163,"target":"present","response":"present","rt":1592.1000003815,"correct":true,"confidence":2},{"trial_n":135,"min":93,"max":162,"target":"present","response":"present","rt":1792.2999997139,"correct":true,"confidence":3},{"trial_n":136,"min":93,"max":162,"target":"present","response":"present","rt":749,"correct":true,"confidence":5},{"trial_n":137,"min":94,"max":161,"target":"present","response":"absent","rt":3338,"correct":false,"confidence":2},{"trial_n":138,"min":93,"max":162,"target":"absent","response":"present","rt":2034.3999996185,"correct":false,"confidence":2},{"trial_n":139,"min":92,"max":163,"target":"absent","response":"absent","rt":1551.3999996185,"correct":true,"confidence":4},{"trial_n":140,"min":92,"max":163,"target":"absent","response":"present","rt":2290.2000002861,"correct":false,"confidence":2}]