[{"trial_n":1,"min":25,"max":230,"target":"present","response":"absent","rt":10070,"correct":false,"confidence":-1},{"trial_n":2,"min":25,"max":230,"target":"present","response":"absent","rt":1610,"correct":false,"confidence":-1},{"trial_n":3,"min":9,"max":246,"target":"absent","response":"present","rt":67540,"correct":false,"confidence":-1},{"trial_n":4,"min":0,"max":255,"target":"absent","response":"present","rt":1869,"correct":false,"confidence":-1},{"trial_n":5,"min":0,"max":255,"target":"present","response":"present","rt":6491,"correct":true,"confidence":-1},{"trial_n":6,"min":0,"max":255,"target":"absent","response":"absent","rt":1181,"correct":true,"confidence":-1},{"trial_n":7,"min":16,"max":239,"target":"present","response":"absent","rt":4035,"correct":false,"confidence":-1},{"trial_n":8,"min":0,"max":255,"target":"present","response":"present","rt":318,"correct":true,"confidence":-1},{"trial_n":9,"min":0,"max":255,"target":"present","response":"present","rt":723,"correct":true,"confidence":-1},{"trial_n":10,"min":16,"max":239,"target":"present","response":"present","rt":1260,"correct":true,"confidence":-1},{"trial_n":11,"min":16,"max":239,"target":"present","response":"present","rt":1992,"correct":true,"confidence":-1},{"trial_n":12,"min":24,"max":231,"target":"present","response":"absent","rt":822,"correct":false,"confidence":-1},{"trial_n":13,"min":16,"max":239,"target":"absent","response":"present","rt":3055,"correct":false,"confidence":-1},{"trial_n":14,"min":8,"max":247,"target":"present","response":"present","rt":1048,"correct":true,"confidence":-1},{"trial_n":15,"min":8,"max":247,"target":"absent","response":"absent","rt":446,"correct":true,"confidence":-1},{"trial_n":16,"min":16,"max":239,"target":"present","response":"absent","rt":443,"correct":false,"confidence":-1},{"trial_n":17,"min":8,"max":247,"target":"absent","response":"absent","rt":485,"correct":true,"confidence":-1},{"trial_n":18,"min":8,"max":247,"target":"absent","response":"absent","rt":324,"correct":true,"confidence":-1},{"trial_n":19,"min":16,"max":239,"target":"present","response":"present","rt":574,"correct":true,"confidence":-1},{"trial_n":20,"min":16,"max":239,"target":"present","response":"present","rt":998,"correct":true,"confidence":-1},{"trial_n":21,"min":20,"max":235,"target":"absent","response":"absent","rt":680,"correct":true,"confidence":5},{"trial_n":22,"min":20,"max":235,"target":"absent","response":"absent","rt":4766,"correct":true,"confidence":5},{"trial_n":23,"min":24,"max":231,"target":"present","response":"present","rt":8809,"correct":true,"confidence":5},{"trial_n":24,"min":24,"max":231,"target":"present","response":"absent","rt":2002,"correct":false,"confidence":5},{"trial_n":25,"min":20,"max":235,"target":"present","response":"present","rt":720,"correct":true,"confidence":5},{"trial_n":26,"min":20,"max":235,"target":"present","response":"absent","rt":918,"correct":false,"confidence":5},{"trial_n":27,"min":16,"max":239,"target":"present","response":"present","rt":1373,"correct":true,"confidence":5},{"trial_n":28,"min":16,"max":239,"target":"absent","response":"absent","rt":11057,"correct":true,"confidence":5},{"trial_n":29,"min":20,"max":235,"target":"present","response":"absent","rt":7056,"correct":false,"confidence":5},{"trial_n":30,"min":16,"max":239,"target":"absent","response":"absent","rt":1165,"correct":true,"confidence":4},{"trial_n":31,"min":16,"max":239,"target":"present","response":"present","rt":1073,"correct":true,"confidence":4},{"trial_n":32,"min":18,"max":237,"target":"present","response":"absent","rt":926,"correct":false,"confidence":4},{"trial_n":33,"min":16,"max":239,"target":"absent","response":"absent","rt":1092,"correct":true,"confidence":5},{"trial_n":34,"min":16,"max":239,"target":"absent","response":"absent","rt":2555,"correct":true,"confidence":5},{"trial_n":35,"min":18,"max":237,"target":"present","response":"absent","rt":939,"correct":false,"confidence":5},{"trial_n":36,"min":16,"max":239,"target":"present","response":"absent","rt":335,"correct":false,"confidence":5},{"trial_n":37,"min":14,"max":241,"target":"absent","response":"absent","rt":864,"correct":true,"confidence":5},{"trial_n":38,"min":14,"max":241,"target":"absent","response":"absent","rt":2036,"correct":true,"confidence":5},{"trial_n":39,"min":16,"max":239,"target":"present","response":"present","rt":1548,"correct":true,"confidence":5},{"trial_n":40,"min":16,"max":239,"target":"absent","response":"absent","rt":6410,"correct":true,"confidence":5},{"trial_n":41,"min":17,"max":238,"target":"absent","response":"absent","rt":774,"correct":true,"confidence":5},{"trial_n":42,"min":17,"max":238,"target":"present","response":"present","rt":1501,"correct":true,"confidence":5},{"trial_n":43,"min":18,"max":237,"target":"absent","response":"absent","rt":568,"correct":true,"confidence":5},{"trial_n":44,"min":18,"max":237,"target":"absent","response":"absent","rt":909,"correct":true,"confidence":5},{"trial_n":45,"min":19,"max":236,"target":"absent","response":"absent","rt":493,"correct":true,"confidence":5},{"trial_n":46,"min":19,"max":236,"target":"present","response":"present","rt":651,"correct":true,"confidence":5},{"trial_n":47,"min":20,"max":235,"target":"present","response":"absent","rt":1032,"correct":false,"confidence":4},{"trial_n":48,"min":19,"max":236,"target":"present","response":"absent","rt":407,"correct":false,"confidence":4},{"trial_n":49,"min":18,"max":237,"target":"absent","response":"absent","rt":532,"correct":true,"confidence":4},{"trial_n":50,"min":18,"max":237,"target":"absent","response":"absent","rt":2159,"correct":true,"confidence":4},{"trial_n":51,"min":19,"max":236,"target":"absent","response":"absent","rt":657,"correct":true,"confidence":5},{"trial_n":52,"min":19,"max":236,"target":"present","response":"present","rt":949,"correct":true,"confidence":5},{"trial_n":53,"min":20,"max":235,"target":"absent","response":"absent","rt":607,"correct":true,"confidence":5},{"trial_n":54,"min":20,"max":235,"target":"absent","response":"absent","rt":1169,"correct":true,"confidence":3},{"trial_n":55,"min":21,"max":234,"target":"present","response":"absent","rt":511,"correct":false,"confidence":5},{"trial_n":56,"min":20,"max":235,"target":"present","response":"present","rt":433,"correct":true,"confidence":4},{"trial_n":57,"min":20,"max":235,"target":"absent","response":"absent","rt":2188,"correct":true,"confidence":5},{"trial_n":58,"min":21,"max":234,"target":"absent","response":"absent","rt":483,"correct":true,"confidence":5},{"trial_n":59,"min":21,"max":234,"target":"present","response":"present","rt":1133,"correct":true,"confidence":5},{"trial_n":60,"min":22,"max":233,"target":"absent","response":"absent","rt":2505,"correct":true,"confidence":5},{"trial_n":61,"min":22,"max":233,"target":"present","response":"present","rt":2812,"correct":true,"confidence":5},{"trial_n":62,"min":23,"max":232,"target":"present","response":"present","rt":770,"correct":true,"confidence":5},{"trial_n":63,"min":23,"max":232,"target":"absent","response":"absent","rt":871,"correct":true,"confidence":5},{"trial_n":64,"min":24,"max":231,"target":"absent","response":"absent","rt":1077,"correct":true,"confidence":5},{"trial_n":65,"min":24,"max":231,"target":"present","response":"absent","rt":3421,"correct":false,"confidence":5},{"trial_n":66,"min":23,"max":232,"target":"present","response":"present","rt":1040,"correct":true,"confidence":5},{"trial_n":67,"min":23,"max":232,"target":"absent","response":"present","rt":3919,"correct":false,"confidence":5},{"trial_n":68,"min":22,"max":233,"target":"absent","response":"absent","rt":5506,"correct":true,"confidence":5},{"trial_n":69,"min":22,"max":233,"target":"absent","response":"absent","rt":2722,"correct":true,"confidence":5},{"trial_n":70,"min":23,"max":232,"target":"absent","response":"absent","rt":4656,"correct":true,"confidence":5},{"trial_n":71,"min":41,"max":214,"target":"present","response":"present","rt":5550,"correct":true,"confidence":-1},{"trial_n":72,"min":41,"max":214,"target":"present","response":"present","rt":454,"correct":true,"confidence":-1},{"trial_n":73,"min":57,"max":198,"target":"absent","response":"absent","rt":1950,"correct":true,"confidence":-1},{"trial_n":74,"min":57,"max":198,"target":"absent","response":"absent","rt":504,"correct":true,"confidence":-1},{"trial_n":75,"min":73,"max":182,"target":"present","response":"absent","rt":821,"correct":false,"confidence":-1},{"trial_n":76,"min":57,"max":198,"target":"present","response":"present","rt":601,"correct":true,"confidence":-1},{"trial_n":77,"min":57,"max":198,"target":"present","response":"present","rt":469,"correct":true,"confidence":-1},{"trial_n":78,"min":73,"max":182,"target":"absent","response":"absent","rt":630,"correct":true,"confidence":-1},{"trial_n":79,"min":73,"max":182,"target":"absent","response":"absent","rt":656,"correct":true,"confidence":-1},{"trial_n":80,"min":89,"max":166,"target":"absent","response":"absent","rt":686,"correct":true,"confidence":-1},{"trial_n":81,"min":89,"max":166,"target":"present","response":"present","rt":530,"correct":true,"confidence":-1},{"trial_n":82,"min":97,"max":158,"target":"absent","response":"present","rt":622,"correct":false,"confidence":-1},{"trial_n":83,"min":89,"max":166,"target":"present","response":"absent","rt":327,"correct":false,"confidence":-1},{"trial_n":84,"min":81,"max":174,"target":"present","response":"present","rt":329,"correct":true,"confidence":-1},{"trial_n":85,"min":81,"max":174,"target":"present","response":"present","rt":320,"correct":true,"confidence":-1},{"trial_n":86,"min":89,"max":166,"target":"present","response":"absent","rt":349,"correct":false,"confidence":-1},{"trial_n":87,"min":81,"max":174,"target":"present","response":"present","rt":251,"correct":true,"confidence":-1},{"trial_n":88,"min":81,"max":174,"target":"present","response":"absent","rt":392,"correct":false,"confidence":-1},{"trial_n":89,"min":73,"max":182,"target":"present","response":"present","rt":285,"correct":true,"confidence":-1},{"trial_n":90,"min":73,"max":182,"target":"present","response":"absent","rt":284,"correct":false,"confidence":-1},{"trial_n":91,"min":69,"max":186,"target":"present","response":"present","rt":1938,"correct":true,"confidence":1},{"trial_n":92,"min":69,"max":186,"target":"absent","response":"absent","rt":698,"correct":true,"confidence":1},{"trial_n":93,"min":73,"max":182,"target":"present","response":"present","rt":942,"correct":true,"confidence":5},{"trial_n":94,"min":73,"max":182,"target":"absent","response":"present","rt":1403,"correct":false,"confidence":1},{"trial_n":95,"min":69,"max":186,"target":"absent","response":"absent","rt":566,"correct":true,"confidence":5},{"trial_n":96,"min":69,"max":186,"target":"absent","response":"absent","rt":452,"correct":true,"confidence":5},{"trial_n":97,"min":73,"max":182,"target":"absent","response":"absent","rt":682,"correct":true,"confidence":5},{"trial_n":98,"min":73,"max":182,"target":"absent","response":"absent","rt":561,"correct":true,"confidence":5},{"trial_n":99,"min":77,"max":178,"target":"absent","response":"absent","rt":587,"correct":true,"confidence":5},{"trial_n":100,"min":77,"max":178,"target":"present","response":"absent","rt":1639,"correct":false,"confidence":5},{"trial_n":101,"min":75,"max":180,"target":"absent","response":"absent","rt":577,"correct":true,"confidence":5},{"trial_n":102,"min":75,"max":180,"target":"absent","response":"absent","rt":351,"correct":true,"confidence":5},{"trial_n":103,"min":77,"max":178,"target":"absent","response":"absent","rt":1583,"correct":true,"confidence":5},{"trial_n":104,"min":77,"max":178,"target":"present","response":"absent","rt":429,"correct":false,"confidence":5},{"trial_n":105,"min":75,"max":180,"target":"absent","response":"absent","rt":3479,"correct":true,"confidence":4},{"trial_n":106,"min":75,"max":180,"target":"absent","response":"present","rt":1138,"correct":false,"confidence":5},{"trial_n":107,"min":73,"max":182,"target":"present","response":"present","rt":712,"correct":true,"confidence":5},{"trial_n":108,"min":73,"max":182,"target":"absent","response":"absent","rt":2348,"correct":true,"confidence":5},{"trial_n":109,"min":75,"max":180,"target":"present","response":"absent","rt":1608,"correct":false,"confidence":5},{"trial_n":110,"min":73,"max":182,"target":"absent","response":"absent","rt":42,"correct":true,"confidence":5},{"trial_n":111,"min":73,"max":182,"target":"absent","response":"absent","rt":640,"correct":true,"confidence":5},{"trial_n":112,"min":74,"max":181,"target":"present","response":"absent","rt":414,"correct":false,"confidence":5},{"trial_n":113,"min":73,"max":182,"target":"present","response":"absent","rt":366,"correct":false,"confidence":5},{"trial_n":114,"min":72,"max":183,"target":"present","response":"absent","rt":456,"correct":false,"confidence":5},{"trial_n":115,"min":71,"max":184,"target":"absent","response":"absent","rt":455,"correct":true,"confidence":5},{"trial_n":116,"min":71,"max":184,"target":"absent","response":"absent","rt":391,"correct":true,"confidence":5},{"trial_n":117,"min":72,"max":183,"target":"present","response":"absent","rt":657,"correct":false,"confidence":2},{"trial_n":118,"min":71,"max":184,"target":"present","response":"absent","rt":490,"correct":false,"confidence":4},{"trial_n":119,"min":70,"max":185,"target":"absent","response":"absent","rt":749,"correct":true,"confidence":5},{"trial_n":120,"min":70,"max":185,"target":"absent","response":"absent","rt":1171,"correct":true,"confidence":5},{"trial_n":121,"min":71,"max":184,"target":"present","response":"present","rt":155,"correct":true,"confidence":4},{"trial_n":122,"min":71,"max":184,"target":"present","response":"absent","rt":559,"correct":false,"confidence":5},{"trial_n":123,"min":70,"max":185,"target":"present","response":"present","rt":303,"correct":true,"confidence":3},{"trial_n":124,"min":70,"max":185,"target":"absent","response":"absent","rt":364,"correct":true,"confidence":4},{"trial_n":125,"min":71,"max":184,"target":"present","response":"absent","rt":370,"correct":false,"confidence":5},{"trial_n":126,"min":70,"max":185,"target":"present","response":"absent","rt":214,"correct":false,"confidence":5},{"trial_n":127,"min":69,"max":186,"target":"present","response":"absent","rt":1216,"correct":false,"confidence":4},{"trial_n":128,"min":68,"max":187,"target":"present","response":"absent","rt":123,"correct":false,"confidence":5},{"trial_n":129,"min":67,"max":188,"target":"absent","response":"absent","rt":785,"correct":true,"confidence":5},{"trial_n":130,"min":67,"max":188,"target":"absent","response":"absent","rt":179,"correct":true,"confidence":5},{"trial_n":131,"min":68,"max":187,"target":"present","response":"absent","rt":128,"correct":false,"confidence":4},{"trial_n":132,"min":67,"max":188,"target":"absent","response":"absent","rt":2175,"correct":true,"confidence":4},{"trial_n":133,"min":67,"max":188,"target":"present","response":"absent","rt":2125,"correct":false,"confidence":3},{"trial_n":134,"min":66,"max":189,"target":"present","response":"present","rt":319,"correct":true,"confidence":4},{"trial_n":135,"min":66,"max":189,"target":"absent","response":"absent","rt":1794,"correct":true,"confidence":4},{"trial_n":136,"min":67,"max":188,"target":"absent","response":"absent","rt":554,"correct":true,"confidence":4},{"trial_n":137,"min":67,"max":188,"target":"present","response":"absent","rt":8103,"correct":false,"confidence":4},{"trial_n":138,"min":66,"max":189,"target":"absent","response":"absent","rt":110,"correct":true,"confidence":4},{"trial_n":139,"min":66,"max":189,"target":"absent","response":"absent","rt":28,"correct":true,"confidence":4},{"trial_n":140,"min":67,"max":188,"target":"absent","response":"absent","rt":146,"correct":true,"confidence":5}]