[{"trial_n":1,"n_dots":4.25,"target":"right","response":"left","rt":6086.4000000954,"correct":false,"confidence":-1},{"trial_n":2,"n_dots":4.25,"target":"right","response":"right","rt":946.80000019073,"correct":true,"confidence":-1},{"trial_n":3,"n_dots":4.25,"target":"right","response":"right","rt":968.09999990463,"correct":true,"confidence":-1},{"trial_n":4,"n_dots":3.85,"target":"right","response":"right","rt":591.30000019073,"correct":true,"confidence":-1},{"trial_n":5,"n_dots":3.85,"target":"left","response":"left","rt":741.40000009537,"correct":true,"confidence":-1},{"trial_n":6,"n_dots":3.45,"target":"left","response":"left","rt":635.7000002861,"correct":true,"confidence":-1},{"trial_n":7,"n_dots":3.45,"target":"right","response":"right","rt":599.69999980927,"correct":true,"confidence":-1},{"trial_n":8,"n_dots":3.25,"target":"right","response":"right","rt":728.69999980927,"correct":true,"confidence":-1},{"trial_n":9,"n_dots":3.25,"target":"left","response":"right","rt":605.2999997139,"correct":false,"confidence":-1},{"trial_n":10,"n_dots":3.45,"target":"right","response":"right","rt":570.7000002861,"correct":true,"confidence":-1},{"trial_n":11,"n_dots":3.45,"target":"left","response":"left","rt":672.2999997139,"correct":true,"confidence":-1},{"trial_n":12,"n_dots":3.25,"target":"left","response":"left","rt":678,"correct":true,"confidence":-1},{"trial_n":13,"n_dots":3.25,"target":"right","response":"right","rt":668.09999990463,"correct":true,"confidence":-1},{"trial_n":14,"n_dots":3.15,"target":"right","response":"right","rt":841,"correct":true,"confidence":-1},{"trial_n":15,"n_dots":3.15,"target":"left","response":"left","rt":720.19999980927,"correct":true,"confidence":-1},{"trial_n":16,"n_dots":3.05,"target":"right","response":"right","rt":881,"correct":true,"confidence":-1},{"trial_n":17,"n_dots":3.05,"target":"left","response":"right","rt":549.69999980927,"correct":false,"confidence":-1},{"trial_n":18,"n_dots":3.15,"target":"left","response":"right","rt":792.7000002861,"correct":false,"confidence":-1},{"trial_n":19,"n_dots":3.25,"target":"left","response":"right","rt":929.40000009537,"correct":false,"confidence":-1},{"trial_n":20,"n_dots":3.35,"target":"right","response":"left","rt":651.39999961853,"correct":false,"confidence":-1},{"trial_n":21,"n_dots":3.45,"target":"right","response":"right","rt":706.10000038147,"correct":true,"confidence":3},{"trial_n":22,"n_dots":3.45,"target":"right","response":"right","rt":1154.5,"correct":true,"confidence":4},{"trial_n":23,"n_dots":3.35,"target":"left","response":"right","rt":699.2999997139,"correct":false,"confidence":4},{"trial_n":24,"n_dots":3.45,"target":"left","response":"right","rt":967.69999980927,"correct":false,"confidence":2},{"trial_n":25,"n_dots":3.55,"target":"left","response":"left","rt":646,"correct":true,"confidence":4},{"trial_n":26,"n_dots":3.55,"target":"right","response":"right","rt":581.59999990463,"correct":true,"confidence":4},{"trial_n":27,"n_dots":3.45,"target":"right","response":"right","rt":769.69999980927,"correct":true,"confidence":4},{"trial_n":28,"n_dots":3.45,"target":"right","response":"right","rt":737.7999997139,"correct":true,"confidence":4},{"trial_n":29,"n_dots":3.35,"target":"left","response":"left","rt":885.30000019073,"correct":true,"confidence":4},{"trial_n":30,"n_dots":3.35,"target":"right","response":"right","rt":613.5,"correct":true,"confidence":3},{"trial_n":31,"n_dots":3.25,"target":"left","response":"left","rt":1232.5999999046,"correct":true,"confidence":3},{"trial_n":32,"n_dots":3.25,"target":"right","response":"right","rt":542.2999997139,"correct":true,"confidence":4},{"trial_n":33,"n_dots":3.15,"target":"left","response":"right","rt":759,"correct":false,"confidence":4},{"trial_n":34,"n_dots":3.25,"target":"right","response":"right","rt":1111.3000001907,"correct":true,"confidence":4},{"trial_n":35,"n_dots":3.25,"target":"left","response":"left","rt":703,"correct":true,"confidence":5},{"trial_n":36,"n_dots":3.15,"target":"left","response":"left","rt":509.09999990463,"correct":true,"confidence":5},{"trial_n":37,"n_dots":3.15,"target":"right","response":"right","rt":757.69999980927,"correct":true,"confidence":3},{"trial_n":38,"n_dots":3.05,"target":"left","response":"left","rt":1108.5,"correct":true,"confidence":3},{"trial_n":39,"n_dots":3.05,"target":"right","response":"right","rt":626.5,"correct":true,"confidence":2},{"trial_n":40,"n_dots":2.95,"target":"right","response":"right","rt":625,"correct":true,"confidence":4},{"trial_n":41,"n_dots":2.95,"target":"left","response":"left","rt":779,"correct":true,"confidence":2},{"trial_n":42,"n_dots":2.85,"target":"right","response":"right","rt":1124.7000002861,"correct":true,"confidence":4},{"trial_n":43,"n_dots":2.85,"target":"right","response":"right","rt":645.59999990463,"correct":true,"confidence":5},{"trial_n":44,"n_dots":2.75,"target":"left","response":"left","rt":611,"correct":true,"confidence":3},{"trial_n":45,"n_dots":2.75,"target":"left","response":"right","rt":879,"correct":false,"confidence":4},{"trial_n":46,"n_dots":2.85,"target":"right","response":"right","rt":461.59999990463,"correct":true,"confidence":4},{"trial_n":47,"n_dots":2.85,"target":"right","response":"right","rt":820.39999961853,"correct":true,"confidence":2},{"trial_n":48,"n_dots":2.75,"target":"left","response":"left","rt":1055.5,"correct":true,"confidence":2},{"trial_n":49,"n_dots":2.75,"target":"left","response":"left","rt":1268.5,"correct":true,"confidence":4},{"trial_n":50,"n_dots":2.65,"target":"left","response":"left","rt":728.09999990463,"correct":true,"confidence":4},{"trial_n":51,"n_dots":2.65,"target":"left","response":"left","rt":490.5,"correct":true,"confidence":3},{"trial_n":52,"n_dots":2.55,"target":"right","response":"right","rt":437.2000002861,"correct":true,"confidence":4},{"trial_n":53,"n_dots":2.55,"target":"right","response":"left","rt":665.69999980927,"correct":false,"confidence":3},{"trial_n":54,"n_dots":2.65,"target":"left","response":"left","rt":506.90000009537,"correct":true,"confidence":4},{"trial_n":55,"n_dots":2.65,"target":"left","response":"left","rt":636.40000009537,"correct":true,"confidence":4},{"trial_n":56,"n_dots":2.55,"target":"right","response":"right","rt":757.69999980927,"correct":true,"confidence":2},{"trial_n":57,"n_dots":2.55,"target":"right","response":"right","rt":953,"correct":true,"confidence":4},{"trial_n":58,"n_dots":2.45,"target":"right","response":"left","rt":707,"correct":false,"confidence":3},{"trial_n":59,"n_dots":2.55,"target":"left","response":"left","rt":649.90000009537,"correct":true,"confidence":3},{"trial_n":60,"n_dots":2.55,"target":"left","response":"left","rt":521.09999990463,"correct":true,"confidence":4},{"trial_n":61,"n_dots":2.45,"target":"left","response":"left","rt":467.90000009537,"correct":true,"confidence":5},{"trial_n":62,"n_dots":2.45,"target":"right","response":"left","rt":491,"correct":false,"confidence":4},{"trial_n":63,"n_dots":2.55,"target":"right","response":"right","rt":673.40000009537,"correct":true,"confidence":4},{"trial_n":64,"n_dots":2.55,"target":"left","response":"left","rt":692.2000002861,"correct":true,"confidence":3},{"trial_n":65,"n_dots":2.45,"target":"left","response":"left","rt":711.7999997139,"correct":true,"confidence":2},{"trial_n":66,"n_dots":2.45,"target":"left","response":"left","rt":557.7000002861,"correct":true,"confidence":3},{"trial_n":67,"n_dots":2.35,"target":"right","response":"left","rt":1065.4000000954,"correct":false,"confidence":3},{"trial_n":68,"n_dots":2.45,"target":"right","response":"right","rt":746.69999980927,"correct":true,"confidence":3},{"trial_n":69,"n_dots":2.45,"target":"right","response":"left","rt":1005.1000003815,"correct":false,"confidence":4},{"trial_n":70,"n_dots":2.55,"target":"left","response":"left","rt":420.7999997139,"correct":true,"confidence":5},{"trial_n":71,"n_dots":2.55,"target":"left","response":"right","rt":727,"correct":false,"confidence":2},{"trial_n":72,"n_dots":2.65,"target":"right","response":"left","rt":762.40000009537,"correct":false,"confidence":3},{"trial_n":73,"n_dots":2.75,"target":"left","response":"left","rt":1310.2999997139,"correct":true,"confidence":4},{"trial_n":74,"n_dots":2.75,"target":"right","response":"right","rt":736.2999997139,"correct":true,"confidence":3},{"trial_n":75,"n_dots":2.65,"target":"right","response":"right","rt":426.30000019073,"correct":true,"confidence":4},{"trial_n":76,"n_dots":2.65,"target":"left","response":"left","rt":435.7999997139,"correct":true,"confidence":4},{"trial_n":77,"n_dots":2.55,"target":"right","response":"left","rt":468.7000002861,"correct":false,"confidence":3},{"trial_n":78,"n_dots":2.65,"target":"left","response":"left","rt":878,"correct":true,"confidence":2},{"trial_n":79,"n_dots":2.65,"target":"left","response":"right","rt":634.7999997139,"correct":false,"confidence":3},{"trial_n":80,"n_dots":2.75,"target":"right","response":"right","rt":405.80000019073,"correct":true,"confidence":4},{"trial_n":81,"n_dots":2.75,"target":"right","response":"left","rt":3837.9000000954,"correct":false,"confidence":4},{"trial_n":82,"n_dots":2.85,"target":"left","response":"left","rt":2556.2000002861,"correct":true,"confidence":3},{"trial_n":83,"n_dots":2.85,"target":"right","response":"right","rt":364,"correct":true,"confidence":4},{"trial_n":84,"n_dots":2.75,"target":"right","response":"right","rt":271.7000002861,"correct":true,"confidence":5},{"trial_n":85,"n_dots":2.75,"target":"left","response":"left","rt":521.5,"correct":true,"confidence":3},{"trial_n":86,"n_dots":2.65,"target":"right","response":"right","rt":591.10000038147,"correct":true,"confidence":4},{"trial_n":87,"n_dots":2.65,"target":"right","response":"left","rt":442.59999990463,"correct":false,"confidence":3},{"trial_n":88,"n_dots":2.75,"target":"left","response":"right","rt":733.5,"correct":false,"confidence":3},{"trial_n":89,"n_dots":2.85,"target":"right","response":"right","rt":1119,"correct":true,"confidence":2},{"trial_n":90,"n_dots":2.85,"target":"right","response":"right","rt":637.80000019073,"correct":true,"confidence":3},{"trial_n":91,"n_dots":2.75,"target":"left","response":"left","rt":342.80000019073,"correct":true,"confidence":4},{"trial_n":92,"n_dots":2.75,"target":"left","response":"left","rt":443.30000019073,"correct":true,"confidence":5},{"trial_n":93,"n_dots":2.65,"target":"left","response":"left","rt":855.59999990463,"correct":true,"confidence":3},{"trial_n":94,"n_dots":2.65,"target":"left","response":"left","rt":379.10000038147,"correct":true,"confidence":4},{"trial_n":95,"n_dots":2.55,"target":"left","response":"left","rt":480.80000019073,"correct":true,"confidence":3},{"trial_n":96,"n_dots":2.55,"target":"left","response":"left","rt":986.90000009537,"correct":true,"confidence":3},{"trial_n":97,"n_dots":2.45,"target":"left","response":"left","rt":385.69999980927,"correct":true,"confidence":4},{"trial_n":98,"n_dots":2.45,"target":"right","response":"right","rt":580.5,"correct":true,"confidence":4},{"trial_n":99,"n_dots":2.35,"target":"left","response":"right","rt":719.7000002861,"correct":false,"confidence":3},{"trial_n":100,"n_dots":2.45,"target":"right","response":"left","rt":279,"correct":false,"confidence":4},{"trial_n":101,"n_dots":2.55,"target":"left","response":"left","rt":812.90000009537,"correct":true,"confidence":3},{"trial_n":102,"n_dots":2.55,"target":"left","response":"left","rt":1779.3000001907,"correct":true,"confidence":4},{"trial_n":103,"n_dots":2.45,"target":"left","response":"left","rt":1065.1999998093,"correct":true,"confidence":3},{"trial_n":104,"n_dots":2.45,"target":"left","response":"left","rt":667.7000002861,"correct":true,"confidence":4},{"trial_n":105,"n_dots":2.35,"target":"right","response":"left","rt":1459.9000000954,"correct":false,"confidence":2},{"trial_n":106,"n_dots":2.45,"target":"right","response":"left","rt":598.90000009537,"correct":false,"confidence":3},{"trial_n":107,"n_dots":2.55,"target":"left","response":"right","rt":1953.5,"correct":false,"confidence":3},{"trial_n":108,"n_dots":2.65,"target":"right","response":"left","rt":840.90000009537,"correct":false,"confidence":4},{"trial_n":109,"n_dots":2.75,"target":"left","response":"left","rt":563.7999997139,"correct":true,"confidence":4},{"trial_n":110,"n_dots":2.75,"target":"right","response":"left","rt":732.5,"correct":false,"confidence":4},{"trial_n":111,"n_dots":2.85,"target":"right","response":"left","rt":711.59999990463,"correct":false,"confidence":4},{"trial_n":112,"n_dots":2.95,"target":"right","response":"right","rt":455.90000009537,"correct":true,"confidence":4},{"trial_n":113,"n_dots":2.95,"target":"right","response":"left","rt":482.89999961853,"correct":false,"confidence":2},{"trial_n":114,"n_dots":3.05,"target":"right","response":"right","rt":543,"correct":true,"confidence":4},{"trial_n":115,"n_dots":3.05,"target":"right","response":"right","rt":473.80000019073,"correct":true,"confidence":3},{"trial_n":116,"n_dots":2.95,"target":"right","response":"left","rt":603.5,"correct":false,"confidence":3},{"trial_n":117,"n_dots":3.05,"target":"left","response":"left","rt":835.90000009537,"correct":true,"confidence":4},{"trial_n":118,"n_dots":3.05,"target":"left","response":"left","rt":962.7999997139,"correct":true,"confidence":4},{"trial_n":119,"n_dots":2.95,"target":"left","response":"left","rt":638.80000019073,"correct":true,"confidence":1},{"trial_n":120,"n_dots":2.95,"target":"left","response":"left","rt":2201.5999999046,"correct":true,"confidence":3}]