[{"trial_n":1,"span":8,"encoder":"94470512","distractor":"94470812","target":"present","response":"present","rt":"17328","correct":true,"confidence":-1},{"trial_n":2,"span":8,"encoder":"05425627","distractor":"05425667","target":"present","response":"present","rt":"2498","correct":true,"confidence":-1},{"trial_n":3,"span":10,"encoder":"8193169023","distractor":"8193163023","target":"absent","response":"present","rt":"1751","correct":false,"confidence":-1},{"trial_n":4,"span":8,"encoder":"21620447","distractor":"21680447","target":"absent","response":"present","rt":"1654","correct":false,"confidence":-1},{"trial_n":5,"span":6,"encoder":"498174","distractor":"498974","target":"present","response":"absent","rt":"1825","correct":false,"confidence":-1},{"trial_n":6,"span":4,"encoder":"5134","distractor":"3134","target":"present","response":"present","rt":"711","correct":true,"confidence":-1},{"trial_n":7,"span":4,"encoder":"7565","distractor":"7365","target":"absent","response":"present","rt":"950","correct":false,"confidence":-1},{"trial_n":8,"span":2,"encoder":"82","distractor":"12","target":"present","response":"present","rt":"540","correct":true,"confidence":-1},{"trial_n":9,"span":2,"encoder":"21","distractor":"01","target":"present","response":"present","rt":"925","correct":true,"confidence":-1},{"trial_n":10,"span":4,"encoder":"2705","distractor":"5705","target":"absent","response":"present","rt":"605","correct":false,"confidence":-1},{"trial_n":11,"span":2,"encoder":"95","distractor":"99","target":"absent","response":"absent","rt":"1584","correct":true,"confidence":-1},{"trial_n":12,"span":2,"encoder":"70","distractor":"78","target":"present","response":"present","rt":"1085","correct":true,"confidence":-1},{"trial_n":13,"span":3,"encoder":"568","distractor":"868","target":"present","response":"present","rt":"733","correct":true,"confidence":-1},{"trial_n":14,"span":3,"encoder":"768","distractor":"763","target":"absent","response":"present","rt":"572","correct":false,"confidence":-1},{"trial_n":15,"span":2,"encoder":"83","distractor":"81","target":"absent","response":"present","rt":"546","correct":false,"confidence":-1},{"trial_n":16,"span":2,"encoder":"22","distractor":"42","target":"absent","response":"absent","rt":"1046","correct":true,"confidence":-1},{"trial_n":17,"span":2,"encoder":"74","distractor":"72","target":"present","response":"present","rt":"604","correct":true,"confidence":-1},{"trial_n":18,"span":3,"encoder":"320","distractor":"329","target":"absent","response":"present","rt":"613","correct":false,"confidence":-1},{"trial_n":19,"span":2,"encoder":"84","distractor":"44","target":"absent","response":"present","rt":"666","correct":false,"confidence":-1},{"trial_n":20,"span":2,"encoder":"16","distractor":"06","target":"absent","response":"absent","rt":"995","correct":true,"confidence":-1},{"trial_n":21,"span":2,"encoder":"69","distractor":"09","target":"present","response":"absent","rt":"709","correct":false,"confidence":4},{"trial_n":22,"span":2,"encoder":"98","distractor":"99","target":"absent","response":"absent","rt":"3548","correct":true,"confidence":3},{"trial_n":23,"span":2,"encoder":"16","distractor":"10","target":"absent","response":"absent","rt":"1341","correct":true,"confidence":3},{"trial_n":24,"span":3,"encoder":"470","distractor":"475","target":"present","response":"present","rt":"876","correct":true,"confidence":3},{"trial_n":25,"span":3,"encoder":"576","distractor":"556","target":"present","response":"absent","rt":"2487","correct":false,"confidence":4},{"trial_n":26,"span":2,"encoder":"39","distractor":"29","target":"present","response":"absent","rt":"1439","correct":false,"confidence":4},{"trial_n":27,"span":2,"encoder":"23","distractor":"13","target":"present","response":"absent","rt":"1031","correct":false,"confidence":4},{"trial_n":28,"span":2,"encoder":"49","distractor":"45","target":"absent","response":"absent","rt":"2185","correct":true,"confidence":3},{"trial_n":29,"span":2,"encoder":"82","distractor":"80","target":"absent","response":"present","rt":"730","correct":false,"confidence":3},{"trial_n":30,"span":2,"encoder":"78","distractor":"71","target":"present","response":"absent","rt":"2424","correct":false,"confidence":3},{"trial_n":31,"span":2,"encoder":"07","distractor":"37","target":"present","response":"absent","rt":"9855601","correct":false,"confidence":1},{"trial_n":32,"span":2,"encoder":"45","distractor":"47","target":"present","response":"present","rt":"1534","correct":true,"confidence":5},{"trial_n":33,"span":2,"encoder":"96","distractor":"91","target":"present","response":"present","rt":"1202","correct":true,"confidence":5},{"trial_n":34,"span":3,"encoder":"310","distractor":"312","target":"absent","response":"absent","rt":"2073","correct":true,"confidence":5},{"trial_n":35,"span":3,"encoder":"240","distractor":"540","target":"present","response":"absent","rt":"2056","correct":false,"confidence":3},{"trial_n":36,"span":2,"encoder":"27","distractor":"47","target":"present","response":"present","rt":"1466","correct":true,"confidence":5},{"trial_n":37,"span":2,"encoder":"50","distractor":"51","target":"absent","response":"present","rt":"119200","correct":false,"confidence":3},{"trial_n":38,"span":2,"encoder":"45","distractor":"47","target":"present","response":"present","rt":"2978","correct":true,"confidence":5},{"trial_n":39,"span":2,"encoder":"79","distractor":"99","target":"absent","response":"absent","rt":"1873","correct":true,"confidence":5},{"trial_n":40,"span":3,"encoder":"491","distractor":"291","target":"absent","response":"absent","rt":"1478","correct":true,"confidence":5},{"trial_n":41,"span":3,"encoder":"898","distractor":"899","target":"present","response":"present","rt":"1738","correct":true,"confidence":5},{"trial_n":42,"span":4,"encoder":"3048","distractor":"3348","target":"absent","response":"absent","rt":"1643","correct":true,"confidence":5},{"trial_n":43,"span":4,"encoder":"6718","distractor":"0718","target":"absent","response":"absent","rt":"2771","correct":true,"confidence":5},{"trial_n":44,"span":5,"encoder":"46253","distractor":"46258","target":"present","response":"absent","rt":"1361","correct":false,"confidence":3},{"trial_n":45,"span":4,"encoder":"0323","distractor":"6323","target":"present","response":"present","rt":"2000","correct":true,"confidence":3},{"trial_n":46,"span":4,"encoder":"6236","distractor":"6136","target":"present","response":"present","rt":"1861","correct":true,"confidence":5},{"trial_n":47,"span":5,"encoder":"15642","distractor":"95642","target":"present","response":"present","rt":"1512","correct":true,"confidence":5},{"trial_n":48,"span":5,"encoder":"64972","distractor":"64975","target":"absent","response":"absent","rt":"1097","correct":true,"confidence":5},{"trial_n":49,"span":6,"encoder":"320051","distractor":"320451","target":"present","response":"absent","rt":"1912","correct":false,"confidence":5},{"trial_n":50,"span":5,"encoder":"63617","distractor":"63817","target":"present","response":"present","rt":"1440","correct":true,"confidence":5},{"trial_n":51,"span":5,"encoder":"34057","distractor":"34857","target":"absent","response":"absent","rt":"1001","correct":true,"confidence":5},{"trial_n":52,"span":6,"encoder":"631702","distractor":"635702","target":"absent","response":"absent","rt":"1122","correct":true,"confidence":5},{"trial_n":53,"span":6,"encoder":"750327","distractor":"759327","target":"absent","response":"absent","rt":"925","correct":true,"confidence":4},{"trial_n":54,"span":7,"encoder":"9239704","distractor":"9239004","target":"absent","response":"absent","rt":"1062","correct":true,"confidence":5},{"trial_n":55,"span":7,"encoder":"5785106","distractor":"5785706","target":"present","response":"present","rt":"1594","correct":true,"confidence":5},{"trial_n":56,"span":8,"encoder":"12752566","distractor":"12752466","target":"absent","response":"present","rt":"1904","correct":false,"confidence":5},{"trial_n":57,"span":7,"encoder":"8363475","distractor":"8333475","target":"present","response":"present","rt":"1178","correct":true,"confidence":5},{"trial_n":58,"span":7,"encoder":"7613703","distractor":"8613703","target":"present","response":"absent","rt":"3279","correct":false,"confidence":3},{"trial_n":59,"span":6,"encoder":"602309","distractor":"502309","target":"absent","response":"absent","rt":"987","correct":true,"confidence":5},{"trial_n":60,"span":6,"encoder":"915339","distractor":"915319","target":"present","response":"present","rt":"1276","correct":true,"confidence":5},{"trial_n":61,"span":7,"encoder":"0679059","distractor":"0679049","target":"present","response":"absent","rt":"1918","correct":false,"confidence":1},{"trial_n":62,"span":6,"encoder":"917446","distractor":"517446","target":"present","response":"present","rt":"703","correct":true,"confidence":5},{"trial_n":63,"span":6,"encoder":"488319","distractor":"438319","target":"absent","response":"absent","rt":"863","correct":true,"confidence":5},{"trial_n":64,"span":7,"encoder":"1507434","distractor":"1507834","target":"present","response":"absent","rt":"820","correct":false,"confidence":5},{"trial_n":65,"span":6,"encoder":"241739","distractor":"221739","target":"absent","response":"absent","rt":"2735","correct":true,"confidence":5},{"trial_n":66,"span":6,"encoder":"505395","distractor":"505396","target":"absent","response":"present","rt":"1955","correct":false,"confidence":3},{"trial_n":67,"span":5,"encoder":"62057","distractor":"62053","target":"present","response":"absent","rt":"975","correct":false,"confidence":4},{"trial_n":68,"span":4,"encoder":"8279","distractor":"3279","target":"absent","response":"absent","rt":"822","correct":true,"confidence":4},{"trial_n":69,"span":4,"encoder":"0042","distractor":"0942","target":"absent","response":"present","rt":"1441","correct":false,"confidence":4},{"trial_n":70,"span":3,"encoder":"368","distractor":"568","target":"absent","response":"absent","rt":"1190","correct":true,"confidence":4},{"trial_n":71,"span":8,"encoder":"78636651","distractor":"76636651","target":"present","response":"present","rt":"2661","correct":true,"confidence":-1},{"trial_n":72,"span":8,"encoder":"49380826","distractor":"41380826","target":"present","response":"absent","rt":"3120","correct":false,"confidence":-1},{"trial_n":73,"span":7,"encoder":"0521177","distractor":"0527177","target":"absent","response":"absent","rt":"3837","correct":true,"confidence":-1},{"trial_n":74,"span":7,"encoder":"0044713","distractor":"0049713","target":"absent","response":"absent","rt":"5392","correct":true,"confidence":-1},{"trial_n":75,"span":8,"encoder":"60451891","distractor":"10451891","target":"present","response":"present","rt":"5997","correct":true,"confidence":-1},{"trial_n":76,"span":8,"encoder":"25133877","distractor":"25183877","target":"present","response":"present","rt":"3919","correct":true,"confidence":-1},{"trial_n":77,"span":9,"encoder":"822819339","distractor":"422819339","target":"absent","response":"present","rt":"1734","correct":false,"confidence":-1},{"trial_n":78,"span":8,"encoder":"79988600","distractor":"79988601","target":"present","response":"absent","rt":"1063","correct":false,"confidence":-1},{"trial_n":79,"span":7,"encoder":"2080469","distractor":"2380469","target":"present","response":"present","rt":"673","correct":true,"confidence":-1},{"trial_n":80,"span":7,"encoder":"2884882","distractor":"1884882","target":"absent","response":"absent","rt":"4186","correct":true,"confidence":-1},{"trial_n":81,"span":8,"encoder":"72933738","distractor":"72933798","target":"present","response":"present","rt":"4560","correct":true,"confidence":-1},{"trial_n":82,"span":8,"encoder":"15688598","distractor":"15588598","target":"present","response":"absent","rt":"3178","correct":false,"confidence":-1},{"trial_n":83,"span":7,"encoder":"2682129","distractor":"1682129","target":"present","response":"present","rt":"2209","correct":true,"confidence":-1},{"trial_n":84,"span":7,"encoder":"2866645","distractor":"0866645","target":"present","response":"present","rt":"1391","correct":true,"confidence":-1},{"trial_n":85,"span":8,"encoder":"31990643","distractor":"31090643","target":"present","response":"absent","rt":"812","correct":false,"confidence":-1},{"trial_n":86,"span":7,"encoder":"1160187","distractor":"1164187","target":"absent","response":"present","rt":"284","correct":false,"confidence":-1},{"trial_n":87,"span":6,"encoder":"887199","distractor":"787199","target":"absent","response":"absent","rt":"407","correct":true,"confidence":-1},{"trial_n":88,"span":6,"encoder":"722672","distractor":"772672","target":"present","response":"present","rt":"419","correct":true,"confidence":-1},{"trial_n":89,"span":7,"encoder":"1307315","distractor":"1307375","target":"present","response":"absent","rt":"344","correct":false,"confidence":-1},{"trial_n":90,"span":6,"encoder":"282438","distractor":"292438","target":"absent","response":"present","rt":"344","correct":false,"confidence":-1},{"trial_n":91,"span":5,"encoder":"07671","distractor":"02671","target":"present","response":"absent","rt":"324","correct":false,"confidence":4},{"trial_n":92,"span":4,"encoder":"9488","distractor":"9988","target":"present","response":"absent","rt":"1684","correct":false,"confidence":3},{"trial_n":93,"span":3,"encoder":"823","distractor":"843","target":"absent","response":"absent","rt":"4322","correct":true,"confidence":5},{"trial_n":94,"span":3,"encoder":"155","distractor":"153","target":"absent","response":"present","rt":"9832","correct":false,"confidence":5},{"trial_n":95,"span":2,"encoder":"97","distractor":"67","target":"absent","response":"absent","rt":"7510","correct":true,"confidence":3},{"trial_n":96,"span":2,"encoder":"81","distractor":"01","target":"present","response":"present","rt":"10349","correct":true,"confidence":3},{"trial_n":97,"span":3,"encoder":"690","distractor":"890","target":"absent","response":"absent","rt":"3613","correct":true,"confidence":4},{"trial_n":98,"span":3,"encoder":"292","distractor":"992","target":"present","response":"absent","rt":"2578","correct":false,"confidence":3},{"trial_n":99,"span":2,"encoder":"98","distractor":"88","target":"present","response":"present","rt":"1797","correct":true,"confidence":4},{"trial_n":100,"span":2,"encoder":"93","distractor":"63","target":"absent","response":"absent","rt":"1681","correct":true,"confidence":4},{"trial_n":101,"span":3,"encoder":"067","distractor":"567","target":"present","response":"absent","rt":"1517","correct":false,"confidence":4},{"trial_n":102,"span":2,"encoder":"18","distractor":"17","target":"absent","response":"absent","rt":"507","correct":true,"confidence":5},{"trial_n":103,"span":2,"encoder":"29","distractor":"21","target":"absent","response":"absent","rt":"1085","correct":true,"confidence":5},{"trial_n":104,"span":3,"encoder":"622","distractor":"122","target":"absent","response":"absent","rt":"775","correct":true,"confidence":5},{"trial_n":105,"span":3,"encoder":"689","distractor":"679","target":"present","response":"absent","rt":"824","correct":false,"confidence":5},{"trial_n":106,"span":2,"encoder":"74","distractor":"77","target":"present","response":"absent","rt":"865","correct":false,"confidence":5},{"trial_n":107,"span":2,"encoder":"51","distractor":"55","target":"present","response":"absent","rt":"392","correct":false,"confidence":5},{"trial_n":108,"span":2,"encoder":"02","distractor":"00","target":"absent","response":"absent","rt":"210","correct":true,"confidence":5},{"trial_n":109,"span":2,"encoder":"25","distractor":"20","target":"present","response":"absent","rt":"305","correct":false,"confidence":5},{"trial_n":110,"span":2,"encoder":"13","distractor":"23","target":"present","response":"absent","rt":"693","correct":false,"confidence":5},{"trial_n":111,"span":2,"encoder":"98","distractor":"93","target":"absent","response":"present","rt":"1675","correct":false,"confidence":2},{"trial_n":112,"span":2,"encoder":"91","distractor":"99","target":"absent","response":"absent","rt":"431","correct":true,"confidence":4},{"trial_n":113,"span":2,"encoder":"30","distractor":"32","target":"absent","response":"absent","rt":"357","correct":true,"confidence":3},{"trial_n":114,"span":3,"encoder":"834","distractor":"833","target":"absent","response":"present","rt":"563","correct":false,"confidence":4},{"trial_n":115,"span":2,"encoder":"11","distractor":"31","target":"absent","response":"absent","rt":"4151","correct":true,"confidence":2},{"trial_n":116,"span":2,"encoder":"43","distractor":"40","target":"absent","response":"present","rt":"1152","correct":false,"confidence":3},{"trial_n":117,"span":2,"encoder":"02","distractor":"12","target":"present","response":"absent","rt":"836","correct":false,"confidence":3},{"trial_n":118,"span":2,"encoder":"76","distractor":"36","target":"present","response":"present","rt":"523","correct":true,"confidence":3},{"trial_n":119,"span":2,"encoder":"72","distractor":"52","target":"present","response":"absent","rt":"1344","correct":false,"confidence":3},{"trial_n":120,"span":2,"encoder":"20","distractor":"22","target":"absent","response":"present","rt":"652","correct":false,"confidence":3},{"trial_n":121,"span":2,"encoder":"02","distractor":"82","target":"present","response":"absent","rt":"772","correct":false,"confidence":3},{"trial_n":122,"span":2,"encoder":"20","distractor":"22","target":"present","response":"present","rt":"1380","correct":true,"confidence":2},{"trial_n":123,"span":2,"encoder":"16","distractor":"26","target":"absent","response":"present","rt":"612","correct":false,"confidence":2},{"trial_n":124,"span":2,"encoder":"15","distractor":"85","target":"absent","response":"absent","rt":"684","correct":true,"confidence":3},{"trial_n":125,"span":2,"encoder":"43","distractor":"49","target":"absent","response":"absent","rt":"682","correct":true,"confidence":3},{"trial_n":126,"span":3,"encoder":"816","distractor":"866","target":"absent","response":"absent","rt":"1059","correct":true,"confidence":2},{"trial_n":127,"span":3,"encoder":"761","distractor":"701","target":"absent","response":"present","rt":"1604","correct":false,"confidence":3},{"trial_n":128,"span":2,"encoder":"15","distractor":"13","target":"present","response":"absent","rt":"790","correct":false,"confidence":2},{"trial_n":129,"span":2,"encoder":"76","distractor":"86","target":"present","response":"present","rt":"667","correct":true,"confidence":3},{"trial_n":130,"span":2,"encoder":"31","distractor":"34","target":"present","response":"absent","rt":"359","correct":false,"confidence":4},{"trial_n":131,"span":2,"encoder":"22","distractor":"62","target":"absent","response":"absent","rt":"1535","correct":true,"confidence":3},{"trial_n":132,"span":2,"encoder":"02","distractor":"82","target":"absent","response":"present","rt":"562","correct":false,"confidence":2},{"trial_n":133,"span":2,"encoder":"86","distractor":"66","target":"present","response":"absent","rt":"912","correct":false,"confidence":3},{"trial_n":134,"span":2,"encoder":"48","distractor":"28","target":"absent","response":"present","rt":"694","correct":false,"confidence":3},{"trial_n":135,"span":2,"encoder":"26","distractor":"46","target":"present","response":"absent","rt":"801","correct":false,"confidence":3},{"trial_n":136,"span":2,"encoder":"33","distractor":"32","target":"present","response":"present","rt":"496","correct":true,"confidence":3},{"trial_n":137,"span":2,"encoder":"23","distractor":"63","target":"absent","response":"absent","rt":"432","correct":true,"confidence":3},{"trial_n":138,"span":3,"encoder":"517","distractor":"519","target":"absent","response":"absent","rt":"2389","correct":true,"confidence":1},{"trial_n":139,"span":3,"encoder":"449","distractor":"441","target":"absent","response":"absent","rt":"2723","correct":true,"confidence":3},{"trial_n":140,"span":4,"encoder":"8975","distractor":"8973","target":"present","response":"present","rt":"447","correct":true,"confidence":3}]