[{"trial_n":1,"n_dots":4.25,"target":"left","response":"right","rt":6010,"correct":false,"confidence":-1},{"trial_n":2,"n_dots":4.25,"target":"right","response":"right","rt":6848,"correct":true,"confidence":-1},{"trial_n":3,"n_dots":4.25,"target":"right","response":"right","rt":1442,"correct":true,"confidence":-1},{"trial_n":4,"n_dots":3.85,"target":"left","response":"left","rt":495,"correct":true,"confidence":-1},{"trial_n":5,"n_dots":3.85,"target":"right","response":"right","rt":4670,"correct":true,"confidence":-1},{"trial_n":6,"n_dots":3.45,"target":"left","response":"left","rt":806,"correct":true,"confidence":-1},{"trial_n":7,"n_dots":3.45,"target":"right","response":"right","rt":3620,"correct":true,"confidence":-1},{"trial_n":8,"n_dots":3.25,"target":"right","response":"left","rt":174,"correct":false,"confidence":-1},{"trial_n":9,"n_dots":3.45,"target":"left","response":"right","rt":1453,"correct":false,"confidence":-1},{"trial_n":10,"n_dots":3.65,"target":"right","response":"left","rt":643,"correct":false,"confidence":-1},{"trial_n":11,"n_dots":3.85,"target":"right","response":"left","rt":6408,"correct":false,"confidence":-1},{"trial_n":12,"n_dots":4.05,"target":"left","response":"right","rt":7236,"correct":false,"confidence":-1},{"trial_n":13,"n_dots":4.15,"target":"left","response":"left","rt":175,"correct":true,"confidence":-1},{"trial_n":14,"n_dots":4.15,"target":"left","response":"right","rt":375,"correct":false,"confidence":-1},{"trial_n":15,"n_dots":4.25,"target":"right","response":"left","rt":989,"correct":false,"confidence":-1},{"trial_n":16,"n_dots":4.35,"target":"right","response":"right","rt":66,"correct":true,"confidence":-1},{"trial_n":17,"n_dots":4.35,"target":"left","response":"right","rt":235,"correct":false,"confidence":-1},{"trial_n":18,"n_dots":4.45,"target":"left","response":"left","rt":511,"correct":true,"confidence":-1},{"trial_n":19,"n_dots":4.45,"target":"left","response":"right","rt":346,"correct":false,"confidence":-1},{"trial_n":20,"n_dots":4.55,"target":"right","response":"right","rt":4,"correct":true,"confidence":-1},{"trial_n":21,"n_dots":4.55,"target":"left","response":"right","rt":3817,"correct":false,"confidence":4},{"trial_n":22,"n_dots":4.65,"target":"right","response":"right","rt":8313,"correct":true,"confidence":4},{"trial_n":23,"n_dots":4.65,"target":"left","response":"right","rt":279,"correct":false,"confidence":4},{"trial_n":24,"n_dots":4.75,"target":"right","response":"right","rt":499,"correct":true,"confidence":1},{"trial_n":25,"n_dots":4.75,"target":"right","response":"right","rt":474,"correct":true,"confidence":1},{"trial_n":26,"n_dots":4.65,"target":"right","response":"right","rt":342,"correct":true,"confidence":2},{"trial_n":27,"n_dots":4.65,"target":"right","response":"right","rt":1164,"correct":true,"confidence":2},{"trial_n":28,"n_dots":4.55,"target":"right","response":"right","rt":1285,"correct":true,"confidence":2},{"trial_n":29,"n_dots":4.55,"target":"left","response":"left","rt":997,"correct":true,"confidence":3},{"trial_n":30,"n_dots":4.45,"target":"right","response":"right","rt":817,"correct":true,"confidence":3},{"trial_n":31,"n_dots":4.45,"target":"left","response":"right","rt":915,"correct":false,"confidence":3},{"trial_n":32,"n_dots":4.55,"target":"right","response":"right","rt":664,"correct":true,"confidence":3},{"trial_n":33,"n_dots":4.55,"target":"left","response":"left","rt":427,"correct":true,"confidence":3},{"trial_n":34,"n_dots":4.45,"target":"left","response":"right","rt":503,"correct":false,"confidence":3},{"trial_n":35,"n_dots":4.55,"target":"right","response":"left","rt":949,"correct":false,"confidence":1},{"trial_n":36,"n_dots":4.65,"target":"right","response":"right","rt":293,"correct":true,"confidence":3},{"trial_n":37,"n_dots":4.65,"target":"left","response":"left","rt":316,"correct":true,"confidence":3},{"trial_n":38,"n_dots":4.55,"target":"right","response":"right","rt":294,"correct":true,"confidence":3},{"trial_n":39,"n_dots":4.55,"target":"left","response":"left","rt":250,"correct":true,"confidence":3},{"trial_n":40,"n_dots":4.45,"target":"left","response":"right","rt":696,"correct":false,"confidence":3},{"trial_n":41,"n_dots":4.55,"target":"right","response":"right","rt":1125,"correct":true,"confidence":1},{"trial_n":42,"n_dots":4.55,"target":"left","response":"left","rt":501,"correct":true,"confidence":3},{"trial_n":43,"n_dots":4.45,"target":"right","response":"right","rt":767,"correct":true,"confidence":3},{"trial_n":44,"n_dots":4.45,"target":"left","response":"left","rt":1552,"correct":true,"confidence":3},{"trial_n":45,"n_dots":4.35,"target":"right","response":"right","rt":511,"correct":true,"confidence":3},{"trial_n":46,"n_dots":4.35,"target":"left","response":"left","rt":1086,"correct":true,"confidence":3},{"trial_n":47,"n_dots":4.25,"target":"right","response":"right","rt":624,"correct":true,"confidence":3},{"trial_n":48,"n_dots":4.25,"target":"left","response":"right","rt":143,"correct":false,"confidence":3},{"trial_n":49,"n_dots":4.35,"target":"right","response":"left","rt":171,"correct":false,"confidence":3},{"trial_n":50,"n_dots":4.45,"target":"left","response":"right","rt":1099,"correct":false,"confidence":3},{"trial_n":51,"n_dots":4.55,"target":"left","response":"left","rt":977,"correct":true,"confidence":2},{"trial_n":52,"n_dots":4.55,"target":"left","response":"right","rt":907,"correct":false,"confidence":2},{"trial_n":53,"n_dots":4.65,"target":"left","response":"left","rt":357,"correct":true,"confidence":3},{"trial_n":54,"n_dots":4.65,"target":"left","response":"right","rt":277,"correct":false,"confidence":2},{"trial_n":55,"n_dots":4.75,"target":"left","response":"right","rt":529,"correct":false,"confidence":2},{"trial_n":56,"n_dots":4.85,"target":"left","response":"left","rt":560,"correct":true,"confidence":2},{"trial_n":57,"n_dots":4.85,"target":"right","response":"right","rt":652,"correct":true,"confidence":2},{"trial_n":58,"n_dots":4.75,"target":"left","response":"left","rt":15,"correct":true,"confidence":2},{"trial_n":59,"n_dots":4.75,"target":"left","response":"right","rt":263,"correct":false,"confidence":2},{"trial_n":60,"n_dots":4.85,"target":"right","response":"right","rt":685,"correct":true,"confidence":2},{"trial_n":61,"n_dots":4.85,"target":"right","response":"right","rt":369,"correct":true,"confidence":2},{"trial_n":62,"n_dots":4.75,"target":"left","response":"left","rt":367,"correct":true,"confidence":1},{"trial_n":63,"n_dots":4.75,"target":"right","response":"right","rt":434,"correct":true,"confidence":2},{"trial_n":64,"n_dots":4.65,"target":"right","response":"right","rt":339,"correct":true,"confidence":2},{"trial_n":65,"n_dots":4.65,"target":"left","response":"left","rt":260,"correct":true,"confidence":2},{"trial_n":66,"n_dots":4.55,"target":"right","response":"right","rt":344,"correct":true,"confidence":2},{"trial_n":67,"n_dots":4.55,"target":"left","response":"left","rt":135,"correct":true,"confidence":2},{"trial_n":68,"n_dots":4.45,"target":"right","response":"right","rt":149,"correct":true,"confidence":2},{"trial_n":69,"n_dots":4.45,"target":"left","response":"left","rt":1367,"correct":true,"confidence":2},{"trial_n":70,"n_dots":4.35,"target":"right","response":"right","rt":707,"correct":true,"confidence":3},{"trial_n":71,"n_dots":4.35,"target":"right","response":"right","rt":401,"correct":true,"confidence":3},{"trial_n":72,"n_dots":4.25,"target":"right","response":"left","rt":367,"correct":false,"confidence":3},{"trial_n":73,"n_dots":4.35,"target":"left","response":"left","rt":1046,"correct":true,"confidence":2},{"trial_n":74,"n_dots":4.35,"target":"left","response":"left","rt":314,"correct":true,"confidence":3},{"trial_n":75,"n_dots":4.25,"target":"right","response":"left","rt":872,"correct":false,"confidence":2},{"trial_n":76,"n_dots":4.35,"target":"left","response":"left","rt":185,"correct":true,"confidence":2},{"trial_n":77,"n_dots":4.35,"target":"right","response":"right","rt":335,"correct":true,"confidence":2},{"trial_n":78,"n_dots":4.25,"target":"left","response":"left","rt":217,"correct":true,"confidence":3},{"trial_n":79,"n_dots":4.25,"target":"left","response":"left","rt":177,"correct":true,"confidence":2},{"trial_n":80,"n_dots":4.15,"target":"left","response":"right","rt":506,"correct":false,"confidence":2},{"trial_n":81,"n_dots":4.25,"target":"right","response":"right","rt":232,"correct":true,"confidence":2},{"trial_n":82,"n_dots":4.25,"target":"left","response":"left","rt":50,"correct":true,"confidence":2},{"trial_n":83,"n_dots":4.15,"target":"right","response":"right","rt":334,"correct":true,"confidence":2},{"trial_n":84,"n_dots":4.15,"target":"right","response":"left","rt":228,"correct":false,"confidence":2},{"trial_n":85,"n_dots":4.25,"target":"left","response":"right","rt":206,"correct":false,"confidence":2},{"trial_n":86,"n_dots":4.35,"target":"left","response":"right","rt":2709,"correct":false,"confidence":2},{"trial_n":87,"n_dots":4.45,"target":"right","response":"left","rt":1423,"correct":false,"confidence":2},{"trial_n":88,"n_dots":4.55,"target":"right","response":"right","rt":280,"correct":true,"confidence":2},{"trial_n":89,"n_dots":4.55,"target":"right","response":"left","rt":122,"correct":false,"confidence":2},{"trial_n":90,"n_dots":4.65,"target":"left","response":"left","rt":361,"correct":true,"confidence":2},{"trial_n":91,"n_dots":4.65,"target":"right","response":"right","rt":742,"correct":true,"confidence":2},{"trial_n":92,"n_dots":4.55,"target":"left","response":"left","rt":962,"correct":true,"confidence":2},{"trial_n":93,"n_dots":4.55,"target":"right","response":"right","rt":504,"correct":true,"confidence":2},{"trial_n":94,"n_dots":4.45,"target":"right","response":"left","rt":415,"correct":false,"confidence":2},{"trial_n":95,"n_dots":4.55,"target":"left","response":"left","rt":2561,"correct":true,"confidence":2},{"trial_n":96,"n_dots":4.55,"target":"right","response":"right","rt":684,"correct":true,"confidence":2},{"trial_n":97,"n_dots":4.45,"target":"left","response":"left","rt":344,"correct":true,"confidence":2},{"trial_n":98,"n_dots":4.45,"target":"left","response":"left","rt":313,"correct":true,"confidence":1},{"trial_n":99,"n_dots":4.35,"target":"right","response":"right","rt":5190,"correct":true,"confidence":2},{"trial_n":100,"n_dots":4.35,"target":"right","response":"left","rt":649,"correct":false,"confidence":2},{"trial_n":101,"n_dots":4.45,"target":"left","response":"left","rt":450,"correct":true,"confidence":3},{"trial_n":102,"n_dots":4.45,"target":"right","response":"left","rt":480,"correct":false,"confidence":2},{"trial_n":103,"n_dots":4.55,"target":"right","response":"right","rt":690,"correct":true,"confidence":1},{"trial_n":104,"n_dots":4.55,"target":"left","response":"left","rt":938,"correct":true,"confidence":3},{"trial_n":105,"n_dots":4.45,"target":"right","response":"left","rt":1323,"correct":false,"confidence":2},{"trial_n":106,"n_dots":4.55,"target":"left","response":"left","rt":382,"correct":true,"confidence":2},{"trial_n":107,"n_dots":4.55,"target":"left","response":"left","rt":4269,"correct":true,"confidence":2},{"trial_n":108,"n_dots":4.45,"target":"left","response":"left","rt":1156,"correct":true,"confidence":2},{"trial_n":109,"n_dots":4.45,"target":"right","response":"left","rt":362,"correct":false,"confidence":2},{"trial_n":110,"n_dots":4.55,"target":"left","response":"left","rt":237,"correct":true,"confidence":2},{"trial_n":111,"n_dots":4.55,"target":"left","response":"left","rt":311,"correct":true,"confidence":3},{"trial_n":112,"n_dots":4.45,"target":"right","response":"right","rt":568,"correct":true,"confidence":2},{"trial_n":113,"n_dots":4.45,"target":"right","response":"right","rt":944,"correct":true,"confidence":2},{"trial_n":114,"n_dots":4.35,"target":"right","response":"left","rt":1519,"correct":false,"confidence":3},{"trial_n":115,"n_dots":4.45,"target":"left","response":"left","rt":3578,"correct":true,"confidence":2},{"trial_n":116,"n_dots":4.45,"target":"left","response":"left","rt":532,"correct":true,"confidence":2},{"trial_n":117,"n_dots":4.35,"target":"left","response":"left","rt":538,"correct":true,"confidence":2},{"trial_n":118,"n_dots":4.35,"target":"right","response":"right","rt":3659,"correct":true,"confidence":2},{"trial_n":119,"n_dots":4.25,"target":"right","response":"left","rt":521,"correct":false,"confidence":2},{"trial_n":120,"n_dots":4.35,"target":"right","response":"right","rt":2192,"correct":true,"confidence":2}]