[{"trial_n":1,"min":25,"max":230,"target":"present","response":"present","rt":4902,"correct":true,"confidence":-1},{"trial_n":2,"min":25,"max":230,"target":"present","response":"present","rt":726,"correct":true,"confidence":-1},{"trial_n":3,"min":41,"max":214,"target":"absent","response":"present","rt":1601,"correct":false,"confidence":-1},{"trial_n":4,"min":25,"max":230,"target":"absent","response":"absent","rt":1153,"correct":true,"confidence":-1},{"trial_n":5,"min":25,"max":230,"target":"present","response":"present","rt":1128,"correct":true,"confidence":-1},{"trial_n":6,"min":41,"max":214,"target":"absent","response":"absent","rt":1001,"correct":true,"confidence":-1},{"trial_n":7,"min":41,"max":214,"target":"absent","response":"absent","rt":1018,"correct":true,"confidence":-1},{"trial_n":8,"min":57,"max":198,"target":"present","response":"absent","rt":595.00000000001,"correct":false,"confidence":-1},{"trial_n":9,"min":41,"max":214,"target":"absent","response":"absent","rt":534,"correct":true,"confidence":-1},{"trial_n":10,"min":41,"max":214,"target":"present","response":"present","rt":1096,"correct":true,"confidence":-1},{"trial_n":11,"min":49,"max":206,"target":"present","response":"present","rt":2300,"correct":true,"confidence":-1},{"trial_n":12,"min":49,"max":206,"target":"absent","response":"absent","rt":986,"correct":true,"confidence":-1},{"trial_n":13,"min":57,"max":198,"target":"absent","response":"absent","rt":654,"correct":true,"confidence":-1},{"trial_n":14,"min":57,"max":198,"target":"absent","response":"absent","rt":519,"correct":true,"confidence":-1},{"trial_n":15,"min":65,"max":190,"target":"present","response":"present","rt":1246,"correct":true,"confidence":-1},{"trial_n":16,"min":65,"max":190,"target":"absent","response":"present","rt":1405,"correct":false,"confidence":-1},{"trial_n":17,"min":57,"max":198,"target":"absent","response":"present","rt":2268,"correct":false,"confidence":-1},{"trial_n":18,"min":49,"max":206,"target":"absent","response":"absent","rt":1238,"correct":true,"confidence":-1},{"trial_n":19,"min":49,"max":206,"target":"present","response":"present","rt":945,"correct":true,"confidence":-1},{"trial_n":20,"min":57,"max":198,"target":"present","response":"present","rt":1985,"correct":true,"confidence":-1},{"trial_n":21,"min":57,"max":198,"target":"absent","response":"absent","rt":795,"correct":true,"confidence":4},{"trial_n":22,"min":61,"max":194,"target":"absent","response":"absent","rt":1854,"correct":true,"confidence":5},{"trial_n":23,"min":61,"max":194,"target":"absent","response":"absent","rt":803.99999999999,"correct":true,"confidence":5},{"trial_n":24,"min":65,"max":190,"target":"present","response":"present","rt":1200,"correct":true,"confidence":3},{"trial_n":25,"min":65,"max":190,"target":"absent","response":"absent","rt":920.99999999999,"correct":true,"confidence":3},{"trial_n":26,"min":69,"max":186,"target":"present","response":"present","rt":832.00000000003,"correct":true,"confidence":3},{"trial_n":27,"min":69,"max":186,"target":"absent","response":"absent","rt":872.00000000003,"correct":true,"confidence":4},{"trial_n":28,"min":73,"max":182,"target":"present","response":"present","rt":1133,"correct":true,"confidence":3},{"trial_n":29,"min":73,"max":182,"target":"absent","response":"absent","rt":922.00000000003,"correct":true,"confidence":3},{"trial_n":30,"min":77,"max":178,"target":"present","response":"present","rt":883.00000000003,"correct":true,"confidence":4},{"trial_n":31,"min":77,"max":178,"target":"present","response":"present","rt":983,"correct":true,"confidence":4},{"trial_n":32,"min":79,"max":176,"target":"present","response":"present","rt":1015,"correct":true,"confidence":3},{"trial_n":33,"min":79,"max":176,"target":"absent","response":"absent","rt":1121,"correct":true,"confidence":4},{"trial_n":34,"min":81,"max":174,"target":"present","response":"present","rt":883,"correct":true,"confidence":3},{"trial_n":35,"min":81,"max":174,"target":"absent","response":"absent","rt":1038,"correct":true,"confidence":4},{"trial_n":36,"min":83,"max":172,"target":"present","response":"present","rt":916,"correct":true,"confidence":3},{"trial_n":37,"min":83,"max":172,"target":"absent","response":"absent","rt":857,"correct":true,"confidence":3},{"trial_n":38,"min":85,"max":170,"target":"absent","response":"absent","rt":938.00000000003,"correct":true,"confidence":3},{"trial_n":39,"min":85,"max":170,"target":"present","response":"present","rt":866,"correct":true,"confidence":3},{"trial_n":40,"min":87,"max":168,"target":"absent","response":"absent","rt":1556,"correct":true,"confidence":4},{"trial_n":41,"min":87,"max":168,"target":"absent","response":"absent","rt":824.99999999997,"correct":true,"confidence":4},{"trial_n":42,"min":88,"max":167,"target":"present","response":"present","rt":766,"correct":true,"confidence":5},{"trial_n":43,"min":88,"max":167,"target":"absent","response":"absent","rt":1290,"correct":true,"confidence":2},{"trial_n":44,"min":89,"max":166,"target":"present","response":"present","rt":834,"correct":true,"confidence":2},{"trial_n":45,"min":89,"max":166,"target":"absent","response":"absent","rt":922.00000000003,"correct":true,"confidence":3},{"trial_n":46,"min":90,"max":165,"target":"absent","response":"absent","rt":941,"correct":true,"confidence":2},{"trial_n":47,"min":90,"max":165,"target":"present","response":"present","rt":969,"correct":true,"confidence":3},{"trial_n":48,"min":91,"max":164,"target":"present","response":"absent","rt":869,"correct":false,"confidence":3},{"trial_n":49,"min":90,"max":165,"target":"present","response":"present","rt":1050,"correct":true,"confidence":4},{"trial_n":50,"min":90,"max":165,"target":"present","response":"absent","rt":1336,"correct":false,"confidence":1},{"trial_n":51,"min":89,"max":166,"target":"absent","response":"absent","rt":2040,"correct":true,"confidence":1},{"trial_n":52,"min":89,"max":166,"target":"absent","response":"present","rt":874,"correct":false,"confidence":3},{"trial_n":53,"min":88,"max":167,"target":"present","response":"present","rt":3235,"correct":true,"confidence":1},{"trial_n":54,"min":88,"max":167,"target":"absent","response":"absent","rt":7858,"correct":true,"confidence":1},{"trial_n":55,"min":89,"max":166,"target":"present","response":"absent","rt":2769,"correct":false,"confidence":2},{"trial_n":56,"min":88,"max":167,"target":"present","response":"present","rt":1986,"correct":true,"confidence":2},{"trial_n":57,"min":88,"max":167,"target":"present","response":"present","rt":902,"correct":true,"confidence":4},{"trial_n":58,"min":89,"max":166,"target":"present","response":"present","rt":1419.0000000001,"correct":true,"confidence":4},{"trial_n":59,"min":89,"max":166,"target":"absent","response":"absent","rt":1375.9999999999,"correct":true,"confidence":2},{"trial_n":60,"min":90,"max":165,"target":"absent","response":"present","rt":1291,"correct":false,"confidence":2},{"trial_n":61,"min":89,"max":166,"target":"present","response":"present","rt":1359,"correct":true,"confidence":5},{"trial_n":62,"min":89,"max":166,"target":"present","response":"present","rt":1139,"correct":true,"confidence":4},{"trial_n":63,"min":90,"max":165,"target":"present","response":"absent","rt":1055,"correct":false,"confidence":3},{"trial_n":64,"min":89,"max":166,"target":"present","response":"absent","rt":1186,"correct":false,"confidence":2},{"trial_n":65,"min":88,"max":167,"target":"absent","response":"present","rt":842,"correct":false,"confidence":3},{"trial_n":66,"min":87,"max":168,"target":"present","response":"absent","rt":1487.0000000001,"correct":false,"confidence":3},{"trial_n":67,"min":86,"max":169,"target":"absent","response":"absent","rt":1842,"correct":true,"confidence":4},{"trial_n":68,"min":86,"max":169,"target":"present","response":"present","rt":1136,"correct":true,"confidence":5},{"trial_n":69,"min":87,"max":168,"target":"present","response":"present","rt":887,"correct":true,"confidence":5},{"trial_n":70,"min":87,"max":168,"target":"absent","response":"present","rt":1926.0000000001,"correct":false,"confidence":2},{"trial_n":71,"min":41,"max":214,"target":"present","response":"present","rt":1631,"correct":true,"confidence":-1},{"trial_n":72,"min":41,"max":214,"target":"present","response":"present","rt":933,"correct":true,"confidence":-1},{"trial_n":73,"min":57,"max":198,"target":"absent","response":"absent","rt":1168,"correct":true,"confidence":-1},{"trial_n":74,"min":57,"max":198,"target":"absent","response":"absent","rt":900,"correct":true,"confidence":-1},{"trial_n":75,"min":73,"max":182,"target":"present","response":"present","rt":1054,"correct":true,"confidence":-1},{"trial_n":76,"min":73,"max":182,"target":"absent","response":"absent","rt":1200,"correct":true,"confidence":-1},{"trial_n":77,"min":89,"max":166,"target":"absent","response":"absent","rt":700,"correct":true,"confidence":-1},{"trial_n":78,"min":89,"max":166,"target":"present","response":"present","rt":2968,"correct":true,"confidence":-1},{"trial_n":79,"min":105,"max":150,"target":"absent","response":"present","rt":868,"correct":false,"confidence":-1},{"trial_n":80,"min":89,"max":166,"target":"present","response":"absent","rt":1352,"correct":false,"confidence":-1},{"trial_n":81,"min":81,"max":174,"target":"absent","response":"absent","rt":869,"correct":true,"confidence":-1},{"trial_n":82,"min":81,"max":174,"target":"present","response":"present","rt":785,"correct":true,"confidence":-1},{"trial_n":83,"min":89,"max":166,"target":"present","response":"present","rt":1585.9999999999,"correct":true,"confidence":-1},{"trial_n":84,"min":89,"max":166,"target":"absent","response":"absent","rt":770,"correct":true,"confidence":-1},{"trial_n":85,"min":97,"max":158,"target":"present","response":"absent","rt":618.00000000006,"correct":false,"confidence":-1},{"trial_n":86,"min":89,"max":166,"target":"absent","response":"present","rt":1118,"correct":false,"confidence":-1},{"trial_n":87,"min":81,"max":174,"target":"absent","response":"absent","rt":784,"correct":true,"confidence":-1},{"trial_n":88,"min":81,"max":174,"target":"absent","response":"absent","rt":535,"correct":true,"confidence":-1},{"trial_n":89,"min":89,"max":166,"target":"present","response":"present","rt":868.99999999994,"correct":true,"confidence":-1},{"trial_n":90,"min":89,"max":166,"target":"present","response":"present","rt":838,"correct":true,"confidence":-1},{"trial_n":91,"min":93,"max":162,"target":"present","response":"absent","rt":1996.0000000001,"correct":false,"confidence":2},{"trial_n":92,"min":89,"max":166,"target":"present","response":"present","rt":921,"correct":true,"confidence":5},{"trial_n":93,"min":89,"max":166,"target":"absent","response":"present","rt":1154,"correct":false,"confidence":3},{"trial_n":94,"min":85,"max":170,"target":"present","response":"present","rt":920,"correct":true,"confidence":5},{"trial_n":95,"min":85,"max":170,"target":"absent","response":"absent","rt":871,"correct":true,"confidence":5},{"trial_n":96,"min":89,"max":166,"target":"absent","response":"absent","rt":1188,"correct":true,"confidence":3},{"trial_n":97,"min":89,"max":166,"target":"present","response":"present","rt":1487,"correct":true,"confidence":5},{"trial_n":98,"min":93,"max":162,"target":"absent","response":"present","rt":1089,"correct":false,"confidence":2},{"trial_n":99,"min":89,"max":166,"target":"present","response":"absent","rt":957,"correct":false,"confidence":2},{"trial_n":100,"min":85,"max":170,"target":"absent","response":"present","rt":906,"correct":false,"confidence":2},{"trial_n":101,"min":83,"max":172,"target":"present","response":"present","rt":689.00000000006,"correct":true,"confidence":5},{"trial_n":102,"min":83,"max":172,"target":"present","response":"present","rt":739.99999999994,"correct":true,"confidence":5},{"trial_n":103,"min":85,"max":170,"target":"absent","response":"absent","rt":939,"correct":true,"confidence":3},{"trial_n":104,"min":85,"max":170,"target":"present","response":"present","rt":756,"correct":true,"confidence":5},{"trial_n":105,"min":87,"max":168,"target":"absent","response":"absent","rt":923,"correct":true,"confidence":3},{"trial_n":106,"min":87,"max":168,"target":"absent","response":"present","rt":1039,"correct":false,"confidence":2},{"trial_n":107,"min":85,"max":170,"target":"absent","response":"absent","rt":941.00000000006,"correct":true,"confidence":3},{"trial_n":108,"min":85,"max":170,"target":"absent","response":"absent","rt":789,"correct":true,"confidence":3},{"trial_n":109,"min":87,"max":168,"target":"absent","response":"present","rt":857,"correct":false,"confidence":2},{"trial_n":110,"min":85,"max":170,"target":"absent","response":"absent","rt":988.99999999994,"correct":true,"confidence":2},{"trial_n":111,"min":85,"max":170,"target":"absent","response":"present","rt":889,"correct":false,"confidence":1},{"trial_n":112,"min":84,"max":171,"target":"present","response":"absent","rt":940,"correct":false,"confidence":2},{"trial_n":113,"min":83,"max":172,"target":"absent","response":"absent","rt":823,"correct":true,"confidence":3},{"trial_n":114,"min":83,"max":172,"target":"present","response":"absent","rt":906.99999999988,"correct":false,"confidence":1},{"trial_n":115,"min":82,"max":173,"target":"absent","response":"absent","rt":956,"correct":true,"confidence":3},{"trial_n":116,"min":82,"max":173,"target":"absent","response":"absent","rt":1073,"correct":true,"confidence":1},{"trial_n":117,"min":83,"max":172,"target":"absent","response":"absent","rt":941,"correct":true,"confidence":1},{"trial_n":118,"min":83,"max":172,"target":"absent","response":"absent","rt":891,"correct":true,"confidence":1},{"trial_n":119,"min":84,"max":171,"target":"present","response":"present","rt":657,"correct":true,"confidence":5},{"trial_n":120,"min":84,"max":171,"target":"absent","response":"present","rt":1158,"correct":false,"confidence":2},{"trial_n":121,"min":83,"max":172,"target":"present","response":"present","rt":757,"correct":true,"confidence":5},{"trial_n":122,"min":83,"max":172,"target":"present","response":"present","rt":808,"correct":true,"confidence":5},{"trial_n":123,"min":84,"max":171,"target":"absent","response":"present","rt":1058,"correct":false,"confidence":4},{"trial_n":124,"min":83,"max":172,"target":"present","response":"present","rt":808,"correct":true,"confidence":4},{"trial_n":125,"min":83,"max":172,"target":"absent","response":"absent","rt":1375,"correct":true,"confidence":5},{"trial_n":126,"min":84,"max":171,"target":"present","response":"present","rt":1076,"correct":true,"confidence":2},{"trial_n":127,"min":84,"max":171,"target":"present","response":"present","rt":1408,"correct":true,"confidence":5},{"trial_n":128,"min":85,"max":170,"target":"absent","response":"absent","rt":1675,"correct":true,"confidence":2},{"trial_n":129,"min":85,"max":170,"target":"present","response":"present","rt":891,"correct":true,"confidence":5},{"trial_n":130,"min":86,"max":169,"target":"present","response":"present","rt":1892,"correct":true,"confidence":3},{"trial_n":131,"min":86,"max":169,"target":"present","response":"present","rt":839,"correct":true,"confidence":3},{"trial_n":132,"min":87,"max":168,"target":"present","response":"present","rt":1508,"correct":true,"confidence":1},{"trial_n":133,"min":87,"max":168,"target":"present","response":"present","rt":909,"correct":true,"confidence":5},{"trial_n":134,"min":88,"max":167,"target":"absent","response":"present","rt":845,"correct":false,"confidence":2},{"trial_n":135,"min":87,"max":168,"target":"present","response":"present","rt":809,"correct":true,"confidence":4},{"trial_n":136,"min":87,"max":168,"target":"present","response":"present","rt":891,"correct":true,"confidence":3},{"trial_n":137,"min":88,"max":167,"target":"absent","response":"present","rt":809,"correct":false,"confidence":2},{"trial_n":138,"min":87,"max":168,"target":"present","response":"present","rt":792,"correct":true,"confidence":1},{"trial_n":139,"min":87,"max":168,"target":"present","response":"present","rt":1127,"correct":true,"confidence":5},{"trial_n":140,"min":88,"max":167,"target":"present","response":"present","rt":992.00000000012,"correct":true,"confidence":1}]