[{"trial_n":1,"n_dots":4.25,"target":"left","response":"left","rt":4737,"correct":true,"confidence":-1},{"trial_n":2,"n_dots":4.25,"target":"right","response":"left","rt":3216,"correct":false,"confidence":-1},{"trial_n":3,"n_dots":4.65,"target":"left","response":"left","rt":631,"correct":true,"confidence":-1},{"trial_n":4,"n_dots":4.65,"target":"right","response":"right","rt":580,"correct":true,"confidence":-1},{"trial_n":5,"n_dots":4.25,"target":"right","response":"right","rt":530,"correct":true,"confidence":-1},{"trial_n":6,"n_dots":4.25,"target":"left","response":"left","rt":363,"correct":true,"confidence":-1},{"trial_n":7,"n_dots":3.85,"target":"right","response":"right","rt":264.99999999999,"correct":true,"confidence":-1},{"trial_n":8,"n_dots":3.85,"target":"left","response":"left","rt":412.99999999999,"correct":true,"confidence":-1},{"trial_n":9,"n_dots":3.65,"target":"left","response":"left","rt":331.99999999999,"correct":true,"confidence":-1},{"trial_n":10,"n_dots":3.65,"target":"right","response":"right","rt":529.99999999999,"correct":true,"confidence":-1},{"trial_n":11,"n_dots":3.45,"target":"left","response":"left","rt":579.99999999999,"correct":true,"confidence":-1},{"trial_n":12,"n_dots":3.45,"target":"right","response":"left","rt":548,"correct":false,"confidence":-1},{"trial_n":13,"n_dots":3.55,"target":"left","response":"left","rt":399,"correct":true,"confidence":-1},{"trial_n":14,"n_dots":3.55,"target":"left","response":"left","rt":464,"correct":true,"confidence":-1},{"trial_n":15,"n_dots":3.45,"target":"left","response":"left","rt":30,"correct":true,"confidence":-1},{"trial_n":16,"n_dots":3.45,"target":"right","response":"right","rt":714,"correct":true,"confidence":-1},{"trial_n":17,"n_dots":3.35,"target":"right","response":"right","rt":281.00000000001,"correct":true,"confidence":-1},{"trial_n":18,"n_dots":3.35,"target":"right","response":"left","rt":414,"correct":false,"confidence":-1},{"trial_n":19,"n_dots":3.45,"target":"right","response":"right","rt":581,"correct":true,"confidence":-1},{"trial_n":20,"n_dots":3.45,"target":"left","response":"left","rt":448,"correct":true,"confidence":-1},{"trial_n":21,"n_dots":3.35,"target":"right","response":"right","rt":263,"correct":true,"confidence":4},{"trial_n":22,"n_dots":3.35,"target":"left","response":"left","rt":633,"correct":true,"confidence":4},{"trial_n":23,"n_dots":3.25,"target":"left","response":"right","rt":802.00000000003,"correct":false,"confidence":3},{"trial_n":24,"n_dots":3.35,"target":"left","response":"left","rt":569,"correct":true,"confidence":5},{"trial_n":25,"n_dots":3.35,"target":"left","response":"left","rt":685.00000000003,"correct":true,"confidence":3},{"trial_n":26,"n_dots":3.25,"target":"right","response":"left","rt":885,"correct":false,"confidence":2},{"trial_n":27,"n_dots":3.35,"target":"right","response":"right","rt":701,"correct":true,"confidence":4},{"trial_n":28,"n_dots":3.35,"target":"left","response":"left","rt":486,"correct":true,"confidence":5},{"trial_n":29,"n_dots":3.25,"target":"left","response":"left","rt":536.99999999997,"correct":true,"confidence":5},{"trial_n":30,"n_dots":3.25,"target":"right","response":"right","rt":752.00000000003,"correct":true,"confidence":4},{"trial_n":31,"n_dots":3.15,"target":"right","response":"right","rt":370.00000000003,"correct":true,"confidence":5},{"trial_n":32,"n_dots":3.15,"target":"left","response":"right","rt":537,"correct":false,"confidence":4},{"trial_n":33,"n_dots":3.25,"target":"right","response":"right","rt":286,"correct":true,"confidence":5},{"trial_n":34,"n_dots":3.25,"target":"right","response":"left","rt":752,"correct":false,"confidence":3},{"trial_n":35,"n_dots":3.35,"target":"right","response":"right","rt":621,"correct":true,"confidence":2},{"trial_n":36,"n_dots":3.35,"target":"right","response":"right","rt":720.99999999997,"correct":true,"confidence":2},{"trial_n":37,"n_dots":3.25,"target":"left","response":"left","rt":503,"correct":true,"confidence":5},{"trial_n":38,"n_dots":3.25,"target":"left","response":"left","rt":405,"correct":true,"confidence":4},{"trial_n":39,"n_dots":3.15,"target":"left","response":"left","rt":452,"correct":true,"confidence":5},{"trial_n":40,"n_dots":3.15,"target":"right","response":"right","rt":636,"correct":true,"confidence":4},{"trial_n":41,"n_dots":3.05,"target":"left","response":"left","rt":2233,"correct":true,"confidence":2},{"trial_n":42,"n_dots":3.05,"target":"right","response":"right","rt":588,"correct":true,"confidence":3},{"trial_n":43,"n_dots":2.95,"target":"right","response":"right","rt":522.00000000006,"correct":true,"confidence":3},{"trial_n":44,"n_dots":2.95,"target":"left","response":"left","rt":537.99999999994,"correct":true,"confidence":4},{"trial_n":45,"n_dots":2.85,"target":"left","response":"right","rt":1490,"correct":false,"confidence":2},{"trial_n":46,"n_dots":2.95,"target":"left","response":"left","rt":390,"correct":true,"confidence":5},{"trial_n":47,"n_dots":2.95,"target":"right","response":"right","rt":540,"correct":true,"confidence":5},{"trial_n":48,"n_dots":2.85,"target":"left","response":"left","rt":440,"correct":true,"confidence":5},{"trial_n":49,"n_dots":2.85,"target":"right","response":"right","rt":60,"correct":true,"confidence":2},{"trial_n":50,"n_dots":2.75,"target":"left","response":"left","rt":522.99999999994,"correct":true,"confidence":5},{"trial_n":51,"n_dots":2.75,"target":"right","response":"left","rt":308.00000000006,"correct":false,"confidence":5},{"trial_n":52,"n_dots":2.85,"target":"right","response":"right","rt":1806.9999999999,"correct":true,"confidence":1},{"trial_n":53,"n_dots":2.85,"target":"right","response":"right","rt":1091,"correct":true,"confidence":1},{"trial_n":54,"n_dots":2.75,"target":"left","response":"right","rt":706,"correct":false,"confidence":2},{"trial_n":55,"n_dots":2.85,"target":"left","response":"left","rt":623,"correct":true,"confidence":3},{"trial_n":56,"n_dots":2.85,"target":"left","response":"right","rt":791,"correct":false,"confidence":1},{"trial_n":57,"n_dots":2.95,"target":"left","response":"left","rt":990,"correct":true,"confidence":1},{"trial_n":58,"n_dots":2.95,"target":"right","response":"right","rt":441,"correct":true,"confidence":2},{"trial_n":59,"n_dots":2.85,"target":"left","response":"left","rt":391,"correct":true,"confidence":4},{"trial_n":60,"n_dots":2.85,"target":"left","response":"right","rt":1341,"correct":false,"confidence":1},{"trial_n":61,"n_dots":2.95,"target":"right","response":"right","rt":445,"correct":true,"confidence":3},{"trial_n":62,"n_dots":2.95,"target":"left","response":"left","rt":229,"correct":true,"confidence":3},{"trial_n":63,"n_dots":2.85,"target":"right","response":"right","rt":664,"correct":true,"confidence":3},{"trial_n":64,"n_dots":2.85,"target":"left","response":"left","rt":678,"correct":true,"confidence":2},{"trial_n":65,"n_dots":2.75,"target":"right","response":"right","rt":745,"correct":true,"confidence":2},{"trial_n":66,"n_dots":2.75,"target":"right","response":"right","rt":596,"correct":true,"confidence":2},{"trial_n":67,"n_dots":2.65,"target":"right","response":"left","rt":512.00000000012,"correct":false,"confidence":2},{"trial_n":68,"n_dots":2.75,"target":"right","response":"right","rt":828,"correct":true,"confidence":1},{"trial_n":69,"n_dots":2.75,"target":"right","response":"right","rt":913,"correct":true,"confidence":1},{"trial_n":70,"n_dots":2.65,"target":"right","response":"right","rt":694.99999999988,"correct":true,"confidence":2},{"trial_n":71,"n_dots":2.65,"target":"right","response":"right","rt":647,"correct":true,"confidence":2},{"trial_n":72,"n_dots":2.55,"target":"right","response":"left","rt":879,"correct":false,"confidence":1},{"trial_n":73,"n_dots":2.65,"target":"right","response":"right","rt":393,"correct":true,"confidence":1},{"trial_n":74,"n_dots":2.65,"target":"right","response":"right","rt":663,"correct":true,"confidence":3},{"trial_n":75,"n_dots":2.55,"target":"right","response":"right","rt":762.00000000012,"correct":true,"confidence":2},{"trial_n":76,"n_dots":2.55,"target":"left","response":"right","rt":680,"correct":false,"confidence":2},{"trial_n":77,"n_dots":2.65,"target":"left","response":"left","rt":831,"correct":true,"confidence":3},{"trial_n":78,"n_dots":2.65,"target":"right","response":"left","rt":2447.9999999999,"correct":false,"confidence":1},{"trial_n":79,"n_dots":2.75,"target":"right","response":"left","rt":392.99999999988,"correct":false,"confidence":4},{"trial_n":80,"n_dots":2.85,"target":"left","response":"left","rt":363,"correct":true,"confidence":4},{"trial_n":81,"n_dots":2.85,"target":"right","response":"right","rt":889,"correct":true,"confidence":2},{"trial_n":82,"n_dots":2.75,"target":"left","response":"right","rt":501,"correct":false,"confidence":3},{"trial_n":83,"n_dots":2.85,"target":"left","response":"left","rt":984.00000000012,"correct":true,"confidence":1},{"trial_n":84,"n_dots":2.85,"target":"right","response":"right","rt":516.99999999988,"correct":true,"confidence":5},{"trial_n":85,"n_dots":2.75,"target":"left","response":"right","rt":568.99999999988,"correct":false,"confidence":1},{"trial_n":86,"n_dots":2.85,"target":"right","response":"right","rt":284,"correct":true,"confidence":4},{"trial_n":87,"n_dots":2.85,"target":"left","response":"left","rt":584,"correct":true,"confidence":5},{"trial_n":88,"n_dots":2.75,"target":"right","response":"right","rt":317.99999999988,"correct":true,"confidence":5},{"trial_n":89,"n_dots":2.75,"target":"left","response":"left","rt":585,"correct":true,"confidence":5},{"trial_n":90,"n_dots":2.65,"target":"left","response":"left","rt":503,"correct":true,"confidence":5},{"trial_n":91,"n_dots":2.65,"target":"right","response":"right","rt":602,"correct":true,"confidence":3},{"trial_n":92,"n_dots":2.55,"target":"left","response":"left","rt":1519,"correct":true,"confidence":1},{"trial_n":93,"n_dots":2.55,"target":"left","response":"right","rt":1352,"correct":false,"confidence":2},{"trial_n":94,"n_dots":2.65,"target":"left","response":"left","rt":502,"correct":true,"confidence":4},{"trial_n":95,"n_dots":2.65,"target":"right","response":"left","rt":1036,"correct":false,"confidence":2},{"trial_n":96,"n_dots":2.75,"target":"right","response":"right","rt":585,"correct":true,"confidence":3},{"trial_n":97,"n_dots":2.75,"target":"left","response":"left","rt":370,"correct":true,"confidence":4},{"trial_n":98,"n_dots":2.65,"target":"right","response":"right","rt":504.00000000012,"correct":true,"confidence":2},{"trial_n":99,"n_dots":2.65,"target":"left","response":"right","rt":303,"correct":false,"confidence":3},{"trial_n":100,"n_dots":2.75,"target":"left","response":"left","rt":370,"correct":true,"confidence":3},{"trial_n":101,"n_dots":2.75,"target":"right","response":"left","rt":1508,"correct":false,"confidence":1},{"trial_n":102,"n_dots":2.85,"target":"right","response":"left","rt":903,"correct":false,"confidence":3},{"trial_n":103,"n_dots":2.95,"target":"right","response":"right","rt":436,"correct":true,"confidence":2},{"trial_n":104,"n_dots":2.95,"target":"left","response":"right","rt":1320.0000000001,"correct":false,"confidence":1},{"trial_n":105,"n_dots":3.05,"target":"left","response":"right","rt":837,"correct":false,"confidence":1},{"trial_n":106,"n_dots":3.15,"target":"right","response":"left","rt":1021,"correct":false,"confidence":2},{"trial_n":107,"n_dots":3.25,"target":"left","response":"left","rt":936.00000000012,"correct":true,"confidence":2},{"trial_n":108,"n_dots":3.25,"target":"left","response":"left","rt":454,"correct":true,"confidence":4},{"trial_n":109,"n_dots":3.15,"target":"right","response":"right","rt":555,"correct":true,"confidence":4},{"trial_n":110,"n_dots":3.15,"target":"left","response":"left","rt":521,"correct":true,"confidence":4},{"trial_n":111,"n_dots":3.05,"target":"left","response":"left","rt":422,"correct":true,"confidence":4},{"trial_n":112,"n_dots":3.05,"target":"right","response":"left","rt":1054,"correct":false,"confidence":2},{"trial_n":113,"n_dots":3.15,"target":"right","response":"left","rt":386.99999999988,"correct":false,"confidence":5},{"trial_n":114,"n_dots":3.25,"target":"left","response":"left","rt":438,"correct":true,"confidence":3},{"trial_n":115,"n_dots":3.25,"target":"left","response":"left","rt":406,"correct":true,"confidence":3},{"trial_n":116,"n_dots":3.15,"target":"right","response":"right","rt":388,"correct":true,"confidence":4},{"trial_n":117,"n_dots":3.15,"target":"left","response":"left","rt":357,"correct":true,"confidence":3},{"trial_n":118,"n_dots":3.05,"target":"left","response":"left","rt":287,"correct":true,"confidence":4},{"trial_n":119,"n_dots":3.05,"target":"right","response":"right","rt":406,"correct":true,"confidence":2},{"trial_n":120,"n_dots":2.95,"target":"left","response":"left","rt":224,"correct":true,"confidence":3}]