[{"trial_n":1,"span":8,"encoder":"79066814","distractor":"73066814","target":"present","response":"absent","rt":"5710","correct":false,"confidence":-1},{"trial_n":2,"span":6,"encoder":"006769","distractor":"806769","target":"present","response":"present","rt":"4775","correct":true,"confidence":-1},{"trial_n":3,"span":6,"encoder":"161954","distractor":"168954","target":"absent","response":"absent","rt":"3797","correct":true,"confidence":-1},{"trial_n":4,"span":8,"encoder":"30991952","distractor":"33991952","target":"absent","response":"absent","rt":"2520","correct":true,"confidence":-1},{"trial_n":5,"span":8,"encoder":"02538138","distractor":"02548138","target":"present","response":"present","rt":"3437","correct":true,"confidence":-1},{"trial_n":6,"span":10,"encoder":"6210925900","distractor":"6210925920","target":"present","response":"absent","rt":"4014","correct":false,"confidence":-1},{"trial_n":7,"span":8,"encoder":"69615248","distractor":"69655248","target":"absent","response":"absent","rt":"2257","correct":true,"confidence":-1},{"trial_n":8,"span":8,"encoder":"37925589","distractor":"37925588","target":"absent","response":"absent","rt":"1838.0000000001","correct":true,"confidence":-1},{"trial_n":9,"span":10,"encoder":"2286786554","distractor":"2286786754","target":"present","response":"present","rt":"2713","correct":true,"confidence":-1},{"trial_n":10,"span":10,"encoder":"5042084799","distractor":"5042084796","target":"absent","response":"absent","rt":"1661","correct":true,"confidence":-1},{"trial_n":11,"span":12,"encoder":"636517081518","distractor":"636515081518","target":"absent","response":"absent","rt":"3790.9999999999","correct":true,"confidence":-1},{"trial_n":12,"span":12,"encoder":"834218502008","distractor":"834218502508","target":"present","response":"absent","rt":"1458","correct":false,"confidence":-1},{"trial_n":13,"span":11,"encoder":"52903973163","distractor":"52903993163","target":"absent","response":"present","rt":"2132","correct":false,"confidence":-1},{"trial_n":14,"span":10,"encoder":"7178743831","distractor":"7178743811","target":"absent","response":"absent","rt":"2629.0000000001","correct":true,"confidence":-1},{"trial_n":15,"span":10,"encoder":"6388522434","distractor":"6388562434","target":"present","response":"absent","rt":"4402","correct":false,"confidence":-1},{"trial_n":16,"span":9,"encoder":"647188246","distractor":"643188246","target":"present","response":"present","rt":"2959","correct":true,"confidence":-1},{"trial_n":17,"span":9,"encoder":"031398845","distractor":"731398845","target":"absent","response":"absent","rt":"2063.9999999999","correct":true,"confidence":-1},{"trial_n":18,"span":10,"encoder":"0990869135","distractor":"0990969135","target":"present","response":"absent","rt":"1687","correct":false,"confidence":-1},{"trial_n":19,"span":9,"encoder":"557967919","distractor":"957967919","target":"present","response":"present","rt":"2508","correct":true,"confidence":-1},{"trial_n":20,"span":9,"encoder":"135574145","distractor":"135504145","target":"absent","response":"present","rt":"2477","correct":false,"confidence":-1},{"trial_n":21,"span":8,"encoder":"42338190","distractor":"12338190","target":"present","response":"present","rt":"3446","correct":true,"confidence":5},{"trial_n":22,"span":8,"encoder":"49187711","distractor":"49187611","target":"present","response":"absent","rt":"5311","correct":false,"confidence":3},{"trial_n":23,"span":7,"encoder":"9094652","distractor":"9094642","target":"present","response":"present","rt":"3107","correct":true,"confidence":5},{"trial_n":24,"span":7,"encoder":"4153075","distractor":"8153075","target":"absent","response":"absent","rt":"2292","correct":true,"confidence":5},{"trial_n":25,"span":8,"encoder":"42036305","distractor":"42096305","target":"present","response":"present","rt":"3031.9999999999","correct":true,"confidence":5},{"trial_n":26,"span":8,"encoder":"24899607","distractor":"27899607","target":"absent","response":"absent","rt":"2264","correct":true,"confidence":4},{"trial_n":27,"span":9,"encoder":"545819938","distractor":"555819938","target":"absent","response":"absent","rt":"1883","correct":true,"confidence":4},{"trial_n":28,"span":9,"encoder":"824570584","distractor":"824510584","target":"absent","response":"absent","rt":"5100","correct":true,"confidence":3},{"trial_n":29,"span":10,"encoder":"7758610756","distractor":"7718610756","target":"absent","response":"absent","rt":"2072.9999999999","correct":true,"confidence":5},{"trial_n":30,"span":10,"encoder":"5094473199","distractor":"5094472199","target":"present","response":"absent","rt":"11908","correct":false,"confidence":3},{"trial_n":31,"span":9,"encoder":"986343101","distractor":"986349101","target":"absent","response":"absent","rt":"4582","correct":true,"confidence":5},{"trial_n":32,"span":9,"encoder":"523299574","distractor":"523299874","target":"absent","response":"absent","rt":"2336.0000000001","correct":true,"confidence":3},{"trial_n":33,"span":10,"encoder":"7257715142","distractor":"7257745142","target":"absent","response":"present","rt":"8142","correct":false,"confidence":2},{"trial_n":34,"span":9,"encoder":"890382341","distractor":"890382381","target":"absent","response":"absent","rt":"1890","correct":true,"confidence":5},{"trial_n":35,"span":9,"encoder":"990881119","distractor":"993881119","target":"present","response":"absent","rt":"3588","correct":false,"confidence":3},{"trial_n":36,"span":8,"encoder":"04770512","distractor":"34770512","target":"present","response":"present","rt":"7352","correct":true,"confidence":2},{"trial_n":37,"span":8,"encoder":"18699276","distractor":"18698276","target":"present","response":"present","rt":"4085","correct":true,"confidence":4},{"trial_n":38,"span":9,"encoder":"941070001","distractor":"941070071","target":"present","response":"absent","rt":"4205","correct":false,"confidence":3},{"trial_n":39,"span":8,"encoder":"01471917","distractor":"01472917","target":"absent","response":"absent","rt":"3103","correct":true,"confidence":3},{"trial_n":40,"span":8,"encoder":"95924558","distractor":"96924558","target":"absent","response":"absent","rt":"3902","correct":true,"confidence":3},{"trial_n":41,"span":9,"encoder":"224369510","distractor":"224361510","target":"present","response":"absent","rt":"4680.0000000001","correct":false,"confidence":2},{"trial_n":42,"span":8,"encoder":"25763319","distractor":"25763313","target":"present","response":"present","rt":"3070","correct":true,"confidence":3},{"trial_n":43,"span":8,"encoder":"94618332","distractor":"14618332","target":"present","response":"present","rt":"2338.0000000001","correct":true,"confidence":4},{"trial_n":44,"span":9,"encoder":"458937436","distractor":"458937434","target":"present","response":"present","rt":"4310","correct":true,"confidence":5},{"trial_n":45,"span":9,"encoder":"034765209","distractor":"035765209","target":"present","response":"absent","rt":"5175","correct":false,"confidence":3},{"trial_n":46,"span":8,"encoder":"20646942","distractor":"20646642","target":"absent","response":"absent","rt":"5073.0000000001","correct":true,"confidence":2},{"trial_n":47,"span":8,"encoder":"27434880","distractor":"26434880","target":"present","response":"present","rt":"4405.0000000001","correct":true,"confidence":3},{"trial_n":48,"span":9,"encoder":"981179527","distractor":"981149527","target":"absent","response":"absent","rt":"4309","correct":true,"confidence":3},{"trial_n":49,"span":9,"encoder":"268080941","distractor":"268080041","target":"absent","response":"absent","rt":"5776","correct":true,"confidence":2},{"trial_n":50,"span":10,"encoder":"6096619673","distractor":"6096610673","target":"present","response":"present","rt":"4731","correct":true,"confidence":3},{"trial_n":51,"span":10,"encoder":"5075601083","distractor":"5005601083","target":"absent","response":"absent","rt":"2236","correct":true,"confidence":5},{"trial_n":52,"span":11,"encoder":"11343899851","distractor":"81343899851","target":"present","response":"present","rt":"4439","correct":true,"confidence":3},{"trial_n":53,"span":11,"encoder":"64685182949","distractor":"64645182949","target":"absent","response":"absent","rt":"6354","correct":true,"confidence":3},{"trial_n":54,"span":12,"encoder":"531455269458","distractor":"531455268458","target":"absent","response":"absent","rt":"3177.0000000001","correct":true,"confidence":4},{"trial_n":55,"span":12,"encoder":"201515423686","distractor":"201515423086","target":"present","response":"present","rt":"7330","correct":true,"confidence":3},{"trial_n":56,"span":13,"encoder":"5098119043986","distractor":"5098139043986","target":"present","response":"present","rt":"5716","correct":true,"confidence":3},{"trial_n":57,"span":13,"encoder":"2806703819858","distractor":"2806706819858","target":"absent","response":"absent","rt":"7085","correct":true,"confidence":1},{"trial_n":58,"span":14,"encoder":"93482427857914","distractor":"93482497857914","target":"absent","response":"absent","rt":"5136.9999999999","correct":true,"confidence":1},{"trial_n":59,"span":14,"encoder":"34649968913859","distractor":"44649968913859","target":"absent","response":"present","rt":"4370","correct":false,"confidence":2},{"trial_n":60,"span":13,"encoder":"2429571533300","distractor":"2421571533300","target":"absent","response":"present","rt":"5937","correct":false,"confidence":2},{"trial_n":61,"span":12,"encoder":"654093757860","distractor":"654093797860","target":"present","response":"absent","rt":"6316","correct":false,"confidence":3},{"trial_n":62,"span":11,"encoder":"71118018770","distractor":"71118818770","target":"absent","response":"present","rt":"3179","correct":false,"confidence":3},{"trial_n":63,"span":10,"encoder":"8642833553","distractor":"8642833453","target":"present","response":"present","rt":"3255","correct":true,"confidence":4},{"trial_n":64,"span":10,"encoder":"8924535098","distractor":"8924533098","target":"absent","response":"absent","rt":"6356","correct":true,"confidence":4},{"trial_n":65,"span":11,"encoder":"35675009248","distractor":"35675009240","target":"present","response":"absent","rt":"4546","correct":false,"confidence":3},{"trial_n":66,"span":10,"encoder":"1613066469","distractor":"1613063469","target":"absent","response":"absent","rt":"3223.0000000001","correct":true,"confidence":3},{"trial_n":67,"span":10,"encoder":"5984045912","distractor":"5984045915","target":"present","response":"present","rt":"7192.9999999999","correct":true,"confidence":2},{"trial_n":68,"span":11,"encoder":"04174152399","distractor":"04174152398","target":"present","response":"present","rt":"4780.9999999999","correct":true,"confidence":3},{"trial_n":69,"span":11,"encoder":"32777069763","distractor":"32777069063","target":"present","response":"present","rt":"3848","correct":true,"confidence":4},{"trial_n":70,"span":12,"encoder":"206155057218","distractor":"206155087218","target":"present","response":"absent","rt":"4470","correct":false,"confidence":3},{"trial_n":71,"span":8,"encoder":"28916316","distractor":"78916316","target":"present","response":"present","rt":"3988","correct":true,"confidence":-1},{"trial_n":72,"span":8,"encoder":"31847555","distractor":"31847585","target":"present","response":"present","rt":"3902","correct":true,"confidence":-1},{"trial_n":73,"span":9,"encoder":"944248433","distractor":"946248433","target":"absent","response":"present","rt":"6639","correct":false,"confidence":-1},{"trial_n":74,"span":8,"encoder":"50379030","distractor":"50377030","target":"absent","response":"absent","rt":"3735.9999999998","correct":true,"confidence":-1},{"trial_n":75,"span":8,"encoder":"46826660","distractor":"46826160","target":"present","response":"present","rt":"2837","correct":true,"confidence":-1},{"trial_n":76,"span":9,"encoder":"585889421","distractor":"585889420","target":"present","response":"present","rt":"3857","correct":true,"confidence":-1},{"trial_n":77,"span":9,"encoder":"990987972","distractor":"990987922","target":"absent","response":"absent","rt":"2771.0000000002","correct":true,"confidence":-1},{"trial_n":78,"span":10,"encoder":"5225404737","distractor":"5225400737","target":"absent","response":"absent","rt":"3458","correct":true,"confidence":-1},{"trial_n":79,"span":10,"encoder":"1478103458","distractor":"1474103458","target":"absent","response":"absent","rt":"8813","correct":true,"confidence":-1},{"trial_n":80,"span":11,"encoder":"15746897168","distractor":"15746892168","target":"present","response":"present","rt":"4581","correct":true,"confidence":-1},{"trial_n":81,"span":11,"encoder":"27545431090","distractor":"27545431490","target":"present","response":"present","rt":"1946","correct":true,"confidence":-1},{"trial_n":82,"span":12,"encoder":"438542922014","distractor":"438540922014","target":"absent","response":"present","rt":"7674","correct":false,"confidence":-1},{"trial_n":83,"span":11,"encoder":"42275822759","distractor":"42275822754","target":"absent","response":"absent","rt":"5166","correct":true,"confidence":-1},{"trial_n":84,"span":11,"encoder":"45994377757","distractor":"43994377757","target":"present","response":"absent","rt":"4451","correct":false,"confidence":-1},{"trial_n":85,"span":10,"encoder":"7291767159","distractor":"7291267159","target":"present","response":"present","rt":"15382","correct":true,"confidence":-1},{"trial_n":86,"span":10,"encoder":"4755155546","distractor":"4754155546","target":"absent","response":"absent","rt":"2661","correct":true,"confidence":-1},{"trial_n":87,"span":11,"encoder":"81323355076","distractor":"81323355976","target":"absent","response":"absent","rt":"2587","correct":true,"confidence":-1},{"trial_n":88,"span":11,"encoder":"63256860420","distractor":"63256860920","target":"absent","response":"absent","rt":"2569","correct":true,"confidence":-1},{"trial_n":89,"span":12,"encoder":"664745049030","distractor":"764745049030","target":"present","response":"present","rt":"3489","correct":true,"confidence":-1},{"trial_n":90,"span":12,"encoder":"347129151120","distractor":"347129157120","target":"absent","response":"absent","rt":"1560","correct":true,"confidence":-1},{"trial_n":91,"span":13,"encoder":"2952520521738","distractor":"2951520521738","target":"present","response":"present","rt":"8012","correct":true,"confidence":3},{"trial_n":92,"span":13,"encoder":"8832797521122","distractor":"8832797581122","target":"present","response":"present","rt":"5324","correct":true,"confidence":2},{"trial_n":93,"span":14,"encoder":"64005971637131","distractor":"64005951637131","target":"present","response":"absent","rt":"7260","correct":false,"confidence":2},{"trial_n":94,"span":13,"encoder":"2507290448019","distractor":"2307290448019","target":"present","response":"present","rt":"8792","correct":true,"confidence":2},{"trial_n":95,"span":13,"encoder":"9955180335358","distractor":"9959180335358","target":"present","response":"present","rt":"13977","correct":true,"confidence":2},{"trial_n":96,"span":14,"encoder":"46236359970419","distractor":"46231359970419","target":"absent","response":"absent","rt":"10663","correct":true,"confidence":3},{"trial_n":97,"span":14,"encoder":"33983622041284","distractor":"33983622041484","target":"absent","response":"absent","rt":"5481.9999999998","correct":true,"confidence":5},{"trial_n":98,"span":15,"encoder":"681157927910334","distractor":"681157927900334","target":"present","response":"present","rt":"7722","correct":true,"confidence":3},{"trial_n":99,"span":15,"encoder":"855228303929301","distractor":"855228303922301","target":"absent","response":"absent","rt":"4084","correct":true,"confidence":5},{"trial_n":100,"span":16,"encoder":"3514045589934558","distractor":"3214045589934558","target":"absent","response":"absent","rt":"10658","correct":true,"confidence":4},{"trial_n":101,"span":16,"encoder":"4010310722151868","distractor":"1010310722151868","target":"absent","response":"present","rt":"8132.0000000002","correct":false,"confidence":3},{"trial_n":102,"span":15,"encoder":"267560580187410","distractor":"267560580187610","target":"present","response":"present","rt":"5302","correct":true,"confidence":5},{"trial_n":103,"span":15,"encoder":"397516045689496","distractor":"327516045689496","target":"absent","response":"absent","rt":"11386","correct":true,"confidence":2},{"trial_n":104,"span":16,"encoder":"9042006534968812","distractor":"9042056534968812","target":"absent","response":"present","rt":"6578","correct":false,"confidence":2},{"trial_n":105,"span":15,"encoder":"877204321310186","distractor":"877244321310186","target":"present","response":"present","rt":"7890","correct":true,"confidence":3},{"trial_n":106,"span":15,"encoder":"542278967317560","distractor":"542278964317560","target":"present","response":"present","rt":"3974","correct":true,"confidence":2},{"trial_n":107,"span":16,"encoder":"4742194167760750","distractor":"4742184167760750","target":"present","response":"present","rt":"10877","correct":true,"confidence":1},{"trial_n":108,"span":16,"encoder":"0431486918729402","distractor":"0431486918709402","target":"present","response":"present","rt":"12207","correct":true,"confidence":2},{"trial_n":109,"span":17,"encoder":"27341568289762808","distractor":"27341568229762808","target":"absent","response":"absent","rt":"16952","correct":true,"confidence":1},{"trial_n":110,"span":17,"encoder":"38267038490037617","distractor":"38667038490037617","target":"present","response":"present","rt":"8745","correct":true,"confidence":3},{"trial_n":111,"span":18,"encoder":"047361413248822860","distractor":"047361413448822860","target":"present","response":"present","rt":"10235","correct":true,"confidence":2},{"trial_n":112,"span":18,"encoder":"359646385969856637","distractor":"359646385969851637","target":"absent","response":"absent","rt":"4894.0000000002","correct":true,"confidence":5},{"trial_n":113,"span":19,"encoder":"1219779580430477885","distractor":"1219779580410477885","target":"present","response":"absent","rt":"10924","correct":false,"confidence":2},{"trial_n":114,"span":18,"encoder":"188979636816612021","distractor":"188979636816612041","target":"absent","response":"absent","rt":"3644","correct":true,"confidence":4},{"trial_n":115,"span":18,"encoder":"641401878883053540","distractor":"641401858883053540","target":"absent","response":"present","rt":"18355","correct":false,"confidence":3},{"trial_n":116,"span":17,"encoder":"69954424046323223","distractor":"69954424046323222","target":"absent","response":"absent","rt":"1856.0000000002","correct":true,"confidence":5},{"trial_n":117,"span":17,"encoder":"67126641814102536","distractor":"67126641814102736","target":"absent","response":"absent","rt":"3873.9999999998","correct":true,"confidence":5},{"trial_n":118,"span":18,"encoder":"150883587311635984","distractor":"150883587311605984","target":"absent","response":"absent","rt":"14578","correct":true,"confidence":5},{"trial_n":119,"span":18,"encoder":"199335082821142950","distractor":"199334082821142950","target":"present","response":"present","rt":"13612","correct":true,"confidence":2},{"trial_n":120,"span":19,"encoder":"0685898308825888793","distractor":"0688898308825888793","target":"present","response":"present","rt":"7319","correct":true,"confidence":4},{"trial_n":121,"span":19,"encoder":"5149018097723422466","distractor":"5149018097723422366","target":"absent","response":"absent","rt":"4727","correct":true,"confidence":4},{"trial_n":122,"span":20,"encoder":"55762254829451280256","distractor":"57762254829451280256","target":"present","response":"absent","rt":"33304","correct":false,"confidence":5},{"trial_n":123,"span":19,"encoder":"1931106004540291491","distractor":"1931106004540291499","target":"present","response":"present","rt":"6070","correct":true,"confidence":5},{"trial_n":124,"span":19,"encoder":"0003147132803790859","distractor":"0603147132803790859","target":"present","response":"present","rt":"15700","correct":true,"confidence":3},{"trial_n":125,"span":20,"encoder":"95097713422993073293","distractor":"95097713422993074293","target":"absent","response":"absent","rt":"3992","correct":true,"confidence":5},{"trial_n":126,"span":20,"encoder":"62357827592588916158","distractor":"62357807592588916158","target":"present","response":"present","rt":"12305","correct":true,"confidence":3},{"trial_n":127,"span":21,"encoder":"608566339296930686553","distractor":"608556339296930686553","target":"absent","response":"present","rt":"10481","correct":false,"confidence":3},{"trial_n":128,"span":20,"encoder":"04152242712703711666","distractor":"04152242712703714666","target":"present","response":"present","rt":"14445","correct":true,"confidence":3},{"trial_n":129,"span":20,"encoder":"67118058762779154534","distractor":"67118057762779154534","target":"present","response":"present","rt":"13645","correct":true,"confidence":2},{"trial_n":130,"span":21,"encoder":"895472659108069284800","distractor":"895472659108069584800","target":"absent","response":"absent","rt":"6578.9999999995","correct":true,"confidence":3},{"trial_n":131,"span":21,"encoder":"939832491887328120281","distractor":"939832471887328120281","target":"absent","response":"present","rt":"5155","correct":false,"confidence":1},{"trial_n":132,"span":20,"encoder":"99052090131992979772","distractor":"99052090101992979772","target":"absent","response":"present","rt":"18008","correct":false,"confidence":2},{"trial_n":133,"span":19,"encoder":"5653964608853840821","distractor":"5653968608853840821","target":"present","response":"present","rt":"9544","correct":true,"confidence":1},{"trial_n":134,"span":19,"encoder":"2571331884476430944","distractor":"2571331884476430943","target":"present","response":"present","rt":"4659","correct":true,"confidence":5},{"trial_n":135,"span":20,"encoder":"91046585902590391470","distractor":"91076585902590391470","target":"absent","response":"present","rt":"8510","correct":false,"confidence":2},{"trial_n":136,"span":19,"encoder":"6888445478898260583","distractor":"6688445478898260583","target":"present","response":"present","rt":"10374","correct":true,"confidence":3},{"trial_n":137,"span":19,"encoder":"1857021733719752752","distractor":"1857021733716752752","target":"absent","response":"absent","rt":"12811","correct":true,"confidence":3},{"trial_n":138,"span":20,"encoder":"58215214271557298875","distractor":"58285214271557298875","target":"present","response":"present","rt":"8041","correct":true,"confidence":2},{"trial_n":139,"span":20,"encoder":"50367168918712423814","distractor":"50367168918212423814","target":"absent","response":"absent","rt":"11194","correct":true,"confidence":1},{"trial_n":140,"span":21,"encoder":"344922187105949063943","distractor":"344922187705949063943","target":"present","response":"present","rt":"6312","correct":true,"confidence":1}]