[{"trial_n":1,"min":25,"max":230,"target":"present","response":"absent","rt":6305.1000000015,"correct":false,"confidence":-1},{"trial_n":2,"min":25,"max":230,"target":"present","response":"present","rt":2521.200000003,"correct":true,"confidence":-1},{"trial_n":3,"min":25,"max":230,"target":"absent","response":"present","rt":5693.8000000045,"correct":false,"confidence":-1},{"trial_n":4,"min":9,"max":246,"target":"absent","response":"present","rt":1590.3000000045,"correct":false,"confidence":-1},{"trial_n":5,"min":0,"max":255,"target":"present","response":"present","rt":1882.700000003,"correct":true,"confidence":-1},{"trial_n":6,"min":0,"max":255,"target":"absent","response":"absent","rt":1328.299999997,"correct":true,"confidence":-1},{"trial_n":7,"min":16,"max":239,"target":"absent","response":"absent","rt":1084.8999999985,"correct":true,"confidence":-1},{"trial_n":8,"min":16,"max":239,"target":"present","response":"present","rt":1717.6000000015,"correct":true,"confidence":-1},{"trial_n":9,"min":32,"max":223,"target":"absent","response":"absent","rt":1678.799999997,"correct":true,"confidence":-1},{"trial_n":10,"min":32,"max":223,"target":"present","response":"present","rt":1294.700000003,"correct":true,"confidence":-1},{"trial_n":11,"min":40,"max":215,"target":"present","response":"present","rt":913.39999999851,"correct":true,"confidence":-1},{"trial_n":12,"min":40,"max":215,"target":"absent","response":"absent","rt":1372.8999999985,"correct":true,"confidence":-1},{"trial_n":13,"min":48,"max":207,"target":"present","response":"present","rt":1130.3999999985,"correct":true,"confidence":-1},{"trial_n":14,"min":48,"max":207,"target":"absent","response":"absent","rt":1329,"correct":true,"confidence":-1},{"trial_n":15,"min":56,"max":199,"target":"present","response":"present","rt":967.70000000298,"correct":true,"confidence":-1},{"trial_n":16,"min":56,"max":199,"target":"absent","response":"absent","rt":1058.6000000015,"correct":true,"confidence":-1},{"trial_n":17,"min":64,"max":191,"target":"present","response":"absent","rt":4896.400000006,"correct":false,"confidence":-1},{"trial_n":18,"min":56,"max":199,"target":"absent","response":"absent","rt":1371.099999994,"correct":true,"confidence":-1},{"trial_n":19,"min":56,"max":199,"target":"absent","response":"absent","rt":1595.799999997,"correct":true,"confidence":-1},{"trial_n":20,"min":64,"max":191,"target":"absent","response":"absent","rt":1073.1999999955,"correct":true,"confidence":-1},{"trial_n":21,"min":64,"max":191,"target":"absent","response":"absent","rt":1245.1999999955,"correct":true,"confidence":4},{"trial_n":22,"min":68,"max":187,"target":"present","response":"present","rt":1988.5,"correct":true,"confidence":4},{"trial_n":23,"min":68,"max":187,"target":"present","response":"present","rt":1180.6000000015,"correct":true,"confidence":3},{"trial_n":24,"min":72,"max":183,"target":"present","response":"absent","rt":1553.3999999985,"correct":false,"confidence":5},{"trial_n":25,"min":68,"max":187,"target":"absent","response":"absent","rt":2681.5,"correct":true,"confidence":5},{"trial_n":26,"min":68,"max":187,"target":"absent","response":"absent","rt":1118.799999997,"correct":true,"confidence":5},{"trial_n":27,"min":72,"max":183,"target":"present","response":"absent","rt":1035.799999997,"correct":false,"confidence":5},{"trial_n":28,"min":68,"max":187,"target":"absent","response":"absent","rt":894.80000000447,"correct":true,"confidence":5},{"trial_n":29,"min":68,"max":187,"target":"present","response":"present","rt":1687.3999999985,"correct":true,"confidence":3},{"trial_n":30,"min":72,"max":183,"target":"present","response":"absent","rt":1035.8999999985,"correct":false,"confidence":5},{"trial_n":31,"min":70,"max":185,"target":"present","response":"absent","rt":1005.299999997,"correct":false,"confidence":5},{"trial_n":32,"min":68,"max":187,"target":"present","response":"absent","rt":1054.200000003,"correct":false,"confidence":5},{"trial_n":33,"min":66,"max":189,"target":"present","response":"absent","rt":1136.299999997,"correct":false,"confidence":5},{"trial_n":34,"min":64,"max":191,"target":"absent","response":"absent","rt":854.60000000149,"correct":true,"confidence":5},{"trial_n":35,"min":64,"max":191,"target":"present","response":"absent","rt":1054.900000006,"correct":false,"confidence":5},{"trial_n":36,"min":62,"max":193,"target":"absent","response":"absent","rt":920.89999999851,"correct":true,"confidence":5},{"trial_n":37,"min":62,"max":193,"target":"absent","response":"absent","rt":807.80000000447,"correct":true,"confidence":5},{"trial_n":38,"min":64,"max":191,"target":"present","response":"present","rt":1275.799999997,"correct":true,"confidence":3},{"trial_n":39,"min":64,"max":191,"target":"present","response":"present","rt":1478.8000000045,"correct":true,"confidence":3},{"trial_n":40,"min":66,"max":189,"target":"present","response":"present","rt":1326.5,"correct":true,"confidence":4},{"trial_n":41,"min":66,"max":189,"target":"present","response":"present","rt":1218.5,"correct":true,"confidence":5},{"trial_n":42,"min":67,"max":188,"target":"present","response":"present","rt":1178.299999997,"correct":true,"confidence":3},{"trial_n":43,"min":67,"max":188,"target":"absent","response":"absent","rt":1046.8000000045,"correct":true,"confidence":5},{"trial_n":44,"min":68,"max":187,"target":"absent","response":"absent","rt":1053.700000003,"correct":true,"confidence":5},{"trial_n":45,"min":68,"max":187,"target":"present","response":"absent","rt":3827.200000003,"correct":false,"confidence":5},{"trial_n":46,"min":67,"max":188,"target":"absent","response":"absent","rt":1610.099999994,"correct":true,"confidence":5},{"trial_n":47,"min":67,"max":188,"target":"absent","response":"absent","rt":884.20000000298,"correct":true,"confidence":5},{"trial_n":48,"min":68,"max":187,"target":"absent","response":"absent","rt":921.59999999404,"correct":true,"confidence":5},{"trial_n":49,"min":68,"max":187,"target":"present","response":"absent","rt":1937.3999999985,"correct":false,"confidence":3},{"trial_n":50,"min":67,"max":188,"target":"absent","response":"absent","rt":1011.6000000015,"correct":true,"confidence":5},{"trial_n":51,"min":67,"max":188,"target":"present","response":"present","rt":1455.1000000015,"correct":true,"confidence":5},{"trial_n":52,"min":68,"max":187,"target":"absent","response":"absent","rt":1173.799999997,"correct":true,"confidence":5},{"trial_n":53,"min":68,"max":187,"target":"present","response":"present","rt":1947.700000003,"correct":true,"confidence":3},{"trial_n":54,"min":69,"max":186,"target":"present","response":"present","rt":1286.8000000045,"correct":true,"confidence":5},{"trial_n":55,"min":69,"max":186,"target":"present","response":"present","rt":1047.799999997,"correct":true,"confidence":5},{"trial_n":56,"min":70,"max":185,"target":"present","response":"present","rt":977.90000000596,"correct":true,"confidence":5},{"trial_n":57,"min":70,"max":185,"target":"present","response":"present","rt":1098,"correct":true,"confidence":5},{"trial_n":58,"min":71,"max":184,"target":"present","response":"absent","rt":1601.400000006,"correct":false,"confidence":5},{"trial_n":59,"min":70,"max":185,"target":"present","response":"present","rt":1045.1000000015,"correct":true,"confidence":5},{"trial_n":60,"min":70,"max":185,"target":"absent","response":"absent","rt":1606.799999997,"correct":true,"confidence":5},{"trial_n":61,"min":71,"max":184,"target":"present","response":"present","rt":1060.400000006,"correct":true,"confidence":5},{"trial_n":62,"min":71,"max":184,"target":"absent","response":"absent","rt":942.79999999702,"correct":true,"confidence":5},{"trial_n":63,"min":72,"max":183,"target":"present","response":"present","rt":916.10000000149,"correct":true,"confidence":3},{"trial_n":64,"min":72,"max":183,"target":"absent","response":"absent","rt":815.29999999702,"correct":true,"confidence":5},{"trial_n":65,"min":73,"max":182,"target":"absent","response":"absent","rt":862.80000000447,"correct":true,"confidence":5},{"trial_n":66,"min":73,"max":182,"target":"absent","response":"absent","rt":687.10000000149,"correct":true,"confidence":5},{"trial_n":67,"min":74,"max":181,"target":"absent","response":"absent","rt":1021.8999999985,"correct":true,"confidence":3},{"trial_n":68,"min":74,"max":181,"target":"absent","response":"absent","rt":852.70000000298,"correct":true,"confidence":5},{"trial_n":69,"min":75,"max":180,"target":"absent","response":"absent","rt":924.29999999702,"correct":true,"confidence":5},{"trial_n":70,"min":75,"max":180,"target":"absent","response":"absent","rt":584.30000000447,"correct":true,"confidence":5},{"trial_n":71,"min":41,"max":214,"target":"present","response":"present","rt":2276.6999999955,"correct":true,"confidence":-1},{"trial_n":72,"min":41,"max":214,"target":"present","response":"present","rt":1862.1000000015,"correct":true,"confidence":-1},{"trial_n":73,"min":57,"max":198,"target":"absent","response":"absent","rt":802.39999999851,"correct":true,"confidence":-1},{"trial_n":74,"min":57,"max":198,"target":"absent","response":"absent","rt":1179,"correct":true,"confidence":-1},{"trial_n":75,"min":73,"max":182,"target":"present","response":"absent","rt":1678.1999999955,"correct":false,"confidence":-1},{"trial_n":76,"min":57,"max":198,"target":"present","response":"present","rt":876.39999999851,"correct":true,"confidence":-1},{"trial_n":77,"min":57,"max":198,"target":"present","response":"present","rt":645.39999999851,"correct":true,"confidence":-1},{"trial_n":78,"min":73,"max":182,"target":"absent","response":"absent","rt":1158.6000000015,"correct":true,"confidence":-1},{"trial_n":79,"min":73,"max":182,"target":"present","response":"present","rt":518.90000000596,"correct":true,"confidence":-1},{"trial_n":80,"min":89,"max":166,"target":"absent","response":"present","rt":634.80000000447,"correct":false,"confidence":-1},{"trial_n":81,"min":81,"max":174,"target":"absent","response":"absent","rt":634.79999999702,"correct":true,"confidence":-1},{"trial_n":82,"min":81,"max":174,"target":"present","response":"absent","rt":1406.5,"correct":false,"confidence":-1},{"trial_n":83,"min":73,"max":182,"target":"present","response":"absent","rt":854.10000000149,"correct":false,"confidence":-1},{"trial_n":84,"min":65,"max":190,"target":"absent","response":"present","rt":1766.5,"correct":false,"confidence":-1},{"trial_n":85,"min":57,"max":198,"target":"absent","response":"absent","rt":1081.700000003,"correct":true,"confidence":-1},{"trial_n":86,"min":57,"max":198,"target":"present","response":"present","rt":697.39999999851,"correct":true,"confidence":-1},{"trial_n":87,"min":65,"max":190,"target":"present","response":"present","rt":1153.6000000015,"correct":true,"confidence":-1},{"trial_n":88,"min":65,"max":190,"target":"present","response":"present","rt":554.5,"correct":true,"confidence":-1},{"trial_n":89,"min":73,"max":182,"target":"present","response":"present","rt":588.39999999851,"correct":true,"confidence":-1},{"trial_n":90,"min":73,"max":182,"target":"absent","response":"present","rt":450.20000000298,"correct":false,"confidence":-1},{"trial_n":91,"min":69,"max":186,"target":"present","response":"absent","rt":582.40000000596,"correct":false,"confidence":1},{"trial_n":92,"min":65,"max":190,"target":"absent","response":"absent","rt":957.60000000149,"correct":true,"confidence":5},{"trial_n":93,"min":65,"max":190,"target":"present","response":"present","rt":841.79999999702,"correct":true,"confidence":5},{"trial_n":94,"min":69,"max":186,"target":"absent","response":"absent","rt":1633,"correct":true,"confidence":5},{"trial_n":95,"min":69,"max":186,"target":"present","response":"present","rt":710.10000000149,"correct":true,"confidence":5},{"trial_n":96,"min":73,"max":182,"target":"absent","response":"absent","rt":820.59999999404,"correct":true,"confidence":5},{"trial_n":97,"min":73,"max":182,"target":"absent","response":"absent","rt":954.79999999702,"correct":true,"confidence":5},{"trial_n":98,"min":77,"max":178,"target":"absent","response":"absent","rt":1687.5,"correct":true,"confidence":5},{"trial_n":99,"min":77,"max":178,"target":"absent","response":"absent","rt":1542,"correct":true,"confidence":5},{"trial_n":100,"min":81,"max":174,"target":"absent","response":"absent","rt":792.79999999702,"correct":true,"confidence":5},{"trial_n":101,"min":81,"max":174,"target":"present","response":"present","rt":2104.1999999955,"correct":true,"confidence":5},{"trial_n":102,"min":83,"max":172,"target":"absent","response":"absent","rt":2442.700000003,"correct":true,"confidence":1},{"trial_n":103,"min":83,"max":172,"target":"absent","response":"absent","rt":1032.8000000045,"correct":true,"confidence":5},{"trial_n":104,"min":85,"max":170,"target":"absent","response":"absent","rt":915.5,"correct":true,"confidence":5},{"trial_n":105,"min":85,"max":170,"target":"present","response":"present","rt":1135.6000000015,"correct":true,"confidence":4},{"trial_n":106,"min":87,"max":168,"target":"present","response":"present","rt":700.79999999702,"correct":true,"confidence":5},{"trial_n":107,"min":87,"max":168,"target":"present","response":"present","rt":797.80000000447,"correct":true,"confidence":5},{"trial_n":108,"min":89,"max":166,"target":"present","response":"absent","rt":950.10000000149,"correct":false,"confidence":1},{"trial_n":109,"min":87,"max":168,"target":"present","response":"present","rt":842.40000000596,"correct":true,"confidence":5},{"trial_n":110,"min":87,"max":168,"target":"present","response":"present","rt":1330.099999994,"correct":true,"confidence":1},{"trial_n":111,"min":88,"max":167,"target":"present","response":"present","rt":1176.5,"correct":true,"confidence":5},{"trial_n":112,"min":88,"max":167,"target":"present","response":"present","rt":856.89999999851,"correct":true,"confidence":1},{"trial_n":113,"min":89,"max":166,"target":"present","response":"present","rt":1072.8999999985,"correct":true,"confidence":5},{"trial_n":114,"min":89,"max":166,"target":"absent","response":"present","rt":1075.3999999985,"correct":false,"confidence":1},{"trial_n":115,"min":88,"max":167,"target":"absent","response":"absent","rt":3452.3999999985,"correct":true,"confidence":1},{"trial_n":116,"min":88,"max":167,"target":"absent","response":"present","rt":1039.700000003,"correct":false,"confidence":1},{"trial_n":117,"min":87,"max":168,"target":"absent","response":"absent","rt":1437.099999994,"correct":true,"confidence":1},{"trial_n":118,"min":87,"max":168,"target":"absent","response":"absent","rt":1555,"correct":true,"confidence":1},{"trial_n":119,"min":88,"max":167,"target":"present","response":"present","rt":1827.3000000045,"correct":true,"confidence":1},{"trial_n":120,"min":88,"max":167,"target":"absent","response":"absent","rt":1587.5,"correct":true,"confidence":1},{"trial_n":121,"min":89,"max":166,"target":"absent","response":"present","rt":1530,"correct":false,"confidence":1},{"trial_n":122,"min":88,"max":167,"target":"absent","response":"absent","rt":2528.3000000045,"correct":true,"confidence":1},{"trial_n":123,"min":88,"max":167,"target":"present","response":"absent","rt":1722.8999999985,"correct":false,"confidence":1},{"trial_n":124,"min":87,"max":168,"target":"absent","response":"present","rt":3720.3999999985,"correct":false,"confidence":1},{"trial_n":125,"min":86,"max":169,"target":"absent","response":"absent","rt":1211.200000003,"correct":true,"confidence":1},{"trial_n":126,"min":86,"max":169,"target":"present","response":"absent","rt":1007.3000000045,"correct":false,"confidence":1},{"trial_n":127,"min":85,"max":170,"target":"absent","response":"present","rt":1009.299999997,"correct":false,"confidence":1},{"trial_n":128,"min":84,"max":171,"target":"present","response":"present","rt":1855.200000003,"correct":true,"confidence":1},{"trial_n":129,"min":84,"max":171,"target":"absent","response":"absent","rt":1499.6999999955,"correct":true,"confidence":1},{"trial_n":130,"min":85,"max":170,"target":"absent","response":"present","rt":1838.1000000015,"correct":false,"confidence":1},{"trial_n":131,"min":84,"max":171,"target":"present","response":"present","rt":949.90000000596,"correct":true,"confidence":1},{"trial_n":132,"min":84,"max":171,"target":"present","response":"absent","rt":1238.5,"correct":false,"confidence":1},{"trial_n":133,"min":83,"max":172,"target":"present","response":"present","rt":774.60000000149,"correct":true,"confidence":1},{"trial_n":134,"min":83,"max":172,"target":"absent","response":"present","rt":1319.8999999985,"correct":false,"confidence":1},{"trial_n":135,"min":82,"max":173,"target":"present","response":"present","rt":1858,"correct":true,"confidence":1},{"trial_n":136,"min":82,"max":173,"target":"absent","response":"absent","rt":1018.3999999985,"correct":true,"confidence":1},{"trial_n":137,"min":83,"max":172,"target":"present","response":"present","rt":526,"correct":true,"confidence":1},{"trial_n":138,"min":83,"max":172,"target":"absent","response":"absent","rt":1175,"correct":true,"confidence":1},{"trial_n":139,"min":84,"max":171,"target":"present","response":"present","rt":566.39999999851,"correct":true,"confidence":1},{"trial_n":140,"min":84,"max":171,"target":"present","response":"present","rt":722.39999999851,"correct":true,"confidence":1}]