[{"trial_n":1,"n_dots":4.25,"target":"right","response":"right","rt":4497.799999997,"correct":true,"confidence":-1},{"trial_n":2,"n_dots":4.25,"target":"right","response":"right","rt":1108.8999999985,"correct":true,"confidence":-1},{"trial_n":3,"n_dots":3.85,"target":"right","response":"right","rt":706,"correct":true,"confidence":-1},{"trial_n":4,"n_dots":3.85,"target":"left","response":"left","rt":2974.9000000022,"correct":true,"confidence":-1},{"trial_n":5,"n_dots":3.45,"target":"right","response":"right","rt":733.89999999851,"correct":true,"confidence":-1},{"trial_n":6,"n_dots":3.45,"target":"right","response":"right","rt":658.89999999851,"correct":true,"confidence":-1},{"trial_n":7,"n_dots":3.05,"target":"right","response":"right","rt":943.5,"correct":true,"confidence":-1},{"trial_n":8,"n_dots":3.05,"target":"right","response":"left","rt":768.60000000149,"correct":false,"confidence":-1},{"trial_n":9,"n_dots":3.25,"target":"left","response":"right","rt":1341.700000003,"correct":false,"confidence":-1},{"trial_n":10,"n_dots":3.45,"target":"left","response":"left","rt":607.40000000224,"correct":true,"confidence":-1},{"trial_n":11,"n_dots":3.45,"target":"right","response":"left","rt":453.10000000149,"correct":false,"confidence":-1},{"trial_n":12,"n_dots":3.65,"target":"right","response":"left","rt":690.19999999925,"correct":false,"confidence":-1},{"trial_n":13,"n_dots":3.75,"target":"right","response":"right","rt":110.60000000149,"correct":true,"confidence":-1},{"trial_n":14,"n_dots":3.75,"target":"left","response":"right","rt":1450.6999999993,"correct":false,"confidence":-1},{"trial_n":15,"n_dots":3.85,"target":"left","response":"left","rt":708.30000000075,"correct":true,"confidence":-1},{"trial_n":16,"n_dots":3.85,"target":"left","response":"left","rt":261.5,"correct":true,"confidence":-1},{"trial_n":17,"n_dots":3.75,"target":"right","response":"right","rt":543.80000000075,"correct":true,"confidence":-1},{"trial_n":18,"n_dots":3.75,"target":"right","response":"right","rt":1252.6000000015,"correct":true,"confidence":-1},{"trial_n":19,"n_dots":3.65,"target":"left","response":"left","rt":511.89999999851,"correct":true,"confidence":-1},{"trial_n":20,"n_dots":3.65,"target":"right","response":"right","rt":569.5,"correct":true,"confidence":-1},{"trial_n":21,"n_dots":3.55,"target":"left","response":"right","rt":710.19999999925,"correct":false,"confidence":3},{"trial_n":22,"n_dots":3.65,"target":"left","response":"right","rt":1047.8999999985,"correct":false,"confidence":3},{"trial_n":23,"n_dots":3.75,"target":"left","response":"right","rt":804,"correct":false,"confidence":1},{"trial_n":24,"n_dots":3.85,"target":"right","response":"right","rt":542.10000000149,"correct":true,"confidence":3},{"trial_n":25,"n_dots":3.85,"target":"right","response":"right","rt":379.60000000149,"correct":true,"confidence":3},{"trial_n":26,"n_dots":3.75,"target":"right","response":"right","rt":593.59999999776,"correct":true,"confidence":1},{"trial_n":27,"n_dots":3.75,"target":"left","response":"right","rt":622.79999999702,"correct":false,"confidence":1},{"trial_n":28,"n_dots":3.85,"target":"left","response":"right","rt":673.40000000224,"correct":false,"confidence":1},{"trial_n":29,"n_dots":3.95,"target":"right","response":"right","rt":194.10000000149,"correct":true,"confidence":4},{"trial_n":30,"n_dots":3.95,"target":"right","response":"right","rt":357.5,"correct":true,"confidence":4},{"trial_n":31,"n_dots":3.85,"target":"right","response":"right","rt":615.69999999925,"correct":true,"confidence":3},{"trial_n":32,"n_dots":3.85,"target":"right","response":"right","rt":531.19999999925,"correct":true,"confidence":3},{"trial_n":33,"n_dots":3.75,"target":"left","response":"right","rt":3086.1999999993,"correct":false,"confidence":3},{"trial_n":34,"n_dots":3.85,"target":"left","response":"left","rt":620.30000000075,"correct":true,"confidence":1},{"trial_n":35,"n_dots":3.85,"target":"right","response":"right","rt":806.09999999776,"correct":true,"confidence":1},{"trial_n":36,"n_dots":3.75,"target":"right","response":"right","rt":798.19999999925,"correct":true,"confidence":1},{"trial_n":37,"n_dots":3.75,"target":"right","response":"right","rt":644.30000000075,"correct":true,"confidence":4},{"trial_n":38,"n_dots":3.65,"target":"right","response":"right","rt":648.5,"correct":true,"confidence":4},{"trial_n":39,"n_dots":3.65,"target":"left","response":"left","rt":1035.8000000007,"correct":true,"confidence":1},{"trial_n":40,"n_dots":3.55,"target":"right","response":"right","rt":754.69999999925,"correct":true,"confidence":3},{"trial_n":41,"n_dots":3.55,"target":"right","response":"right","rt":431.40000000224,"correct":true,"confidence":4},{"trial_n":42,"n_dots":3.45,"target":"left","response":"right","rt":621.10000000149,"correct":false,"confidence":4},{"trial_n":43,"n_dots":3.55,"target":"right","response":"right","rt":558.39999999851,"correct":true,"confidence":3},{"trial_n":44,"n_dots":3.55,"target":"right","response":"left","rt":725.59999999776,"correct":false,"confidence":4},{"trial_n":45,"n_dots":3.65,"target":"left","response":"right","rt":471.19999999925,"correct":false,"confidence":1},{"trial_n":46,"n_dots":3.75,"target":"left","response":"left","rt":591.40000000224,"correct":true,"confidence":1},{"trial_n":47,"n_dots":3.75,"target":"right","response":"right","rt":505,"correct":true,"confidence":3},{"trial_n":48,"n_dots":3.65,"target":"left","response":"right","rt":579.60000000149,"correct":false,"confidence":4},{"trial_n":49,"n_dots":3.75,"target":"left","response":"left","rt":638.30000000075,"correct":true,"confidence":1},{"trial_n":50,"n_dots":3.75,"target":"right","response":"right","rt":282.80000000075,"correct":true,"confidence":5},{"trial_n":51,"n_dots":3.65,"target":"left","response":"right","rt":623.59999999776,"correct":false,"confidence":4},{"trial_n":52,"n_dots":3.75,"target":"right","response":"right","rt":297.30000000075,"correct":true,"confidence":4},{"trial_n":53,"n_dots":3.75,"target":"left","response":"right","rt":1462.4000000022,"correct":false,"confidence":1},{"trial_n":54,"n_dots":3.85,"target":"left","response":"right","rt":836.19999999925,"correct":false,"confidence":1},{"trial_n":55,"n_dots":3.95,"target":"left","response":"right","rt":1535.8999999985,"correct":false,"confidence":1},{"trial_n":56,"n_dots":4.05,"target":"right","response":"right","rt":483.90000000224,"correct":true,"confidence":1},{"trial_n":57,"n_dots":4.05,"target":"left","response":"right","rt":591.80000000075,"correct":false,"confidence":1},{"trial_n":58,"n_dots":4.15,"target":"left","response":"left","rt":211.10000000149,"correct":true,"confidence":1},{"trial_n":59,"n_dots":4.15,"target":"left","response":"left","rt":144.10000000149,"correct":true,"confidence":1},{"trial_n":60,"n_dots":4.05,"target":"right","response":"right","rt":67.39999999851,"correct":true,"confidence":1},{"trial_n":61,"n_dots":4.05,"target":"right","response":"right","rt":1382.1000000015,"correct":true,"confidence":1},{"trial_n":62,"n_dots":3.95,"target":"right","response":"right","rt":733.5,"correct":true,"confidence":1},{"trial_n":63,"n_dots":3.95,"target":"left","response":"left","rt":406.19999999925,"correct":true,"confidence":1},{"trial_n":64,"n_dots":3.85,"target":"left","response":"left","rt":656.79999999702,"correct":true,"confidence":1},{"trial_n":65,"n_dots":3.85,"target":"left","response":"left","rt":456.09999999776,"correct":true,"confidence":1},{"trial_n":66,"n_dots":3.75,"target":"left","response":"left","rt":521.89999999851,"correct":true,"confidence":1},{"trial_n":67,"n_dots":3.75,"target":"left","response":"left","rt":743.80000000075,"correct":true,"confidence":1},{"trial_n":68,"n_dots":3.65,"target":"left","response":"right","rt":598.30000000075,"correct":false,"confidence":1},{"trial_n":69,"n_dots":3.75,"target":"left","response":"left","rt":518.89999999851,"correct":true,"confidence":1},{"trial_n":70,"n_dots":3.75,"target":"right","response":"right","rt":794.89999999851,"correct":true,"confidence":1},{"trial_n":71,"n_dots":3.65,"target":"left","response":"right","rt":979.90000000224,"correct":false,"confidence":1},{"trial_n":72,"n_dots":3.75,"target":"right","response":"right","rt":30.5,"correct":true,"confidence":1},{"trial_n":73,"n_dots":3.75,"target":"left","response":"right","rt":808.5,"correct":false,"confidence":1},{"trial_n":74,"n_dots":3.85,"target":"left","response":"right","rt":1251.1000000015,"correct":false,"confidence":1},{"trial_n":75,"n_dots":3.95,"target":"left","response":"left","rt":229.30000000075,"correct":true,"confidence":1},{"trial_n":76,"n_dots":3.95,"target":"right","response":"right","rt":514.69999999925,"correct":true,"confidence":1},{"trial_n":77,"n_dots":3.85,"target":"right","response":"right","rt":734.30000000075,"correct":true,"confidence":1},{"trial_n":78,"n_dots":3.85,"target":"left","response":"left","rt":821,"correct":true,"confidence":1},{"trial_n":79,"n_dots":3.75,"target":"right","response":"right","rt":678.60000000149,"correct":true,"confidence":1},{"trial_n":80,"n_dots":3.75,"target":"left","response":"left","rt":607.09999999776,"correct":true,"confidence":1},{"trial_n":81,"n_dots":3.65,"target":"left","response":"left","rt":522.5,"correct":true,"confidence":1},{"trial_n":82,"n_dots":3.65,"target":"right","response":"right","rt":973.40000000224,"correct":true,"confidence":4},{"trial_n":83,"n_dots":3.55,"target":"left","response":"right","rt":301.69999999925,"correct":false,"confidence":4},{"trial_n":84,"n_dots":3.65,"target":"left","response":"right","rt":262.69999999925,"correct":false,"confidence":1},{"trial_n":85,"n_dots":3.75,"target":"left","response":"right","rt":873.09999999776,"correct":false,"confidence":1},{"trial_n":86,"n_dots":3.85,"target":"right","response":"right","rt":512.59999999776,"correct":true,"confidence":4},{"trial_n":87,"n_dots":3.85,"target":"left","response":"right","rt":734.59999999776,"correct":false,"confidence":1},{"trial_n":88,"n_dots":3.95,"target":"right","response":"right","rt":418.69999999925,"correct":true,"confidence":1},{"trial_n":89,"n_dots":3.95,"target":"left","response":"right","rt":574.40000000224,"correct":false,"confidence":1},{"trial_n":90,"n_dots":4.05,"target":"right","response":"right","rt":776.10000000149,"correct":true,"confidence":1},{"trial_n":91,"n_dots":4.05,"target":"right","response":"right","rt":637.69999999925,"correct":true,"confidence":1},{"trial_n":92,"n_dots":3.95,"target":"right","response":"right","rt":612.60000000149,"correct":true,"confidence":4},{"trial_n":93,"n_dots":3.95,"target":"right","response":"right","rt":349.5,"correct":true,"confidence":1},{"trial_n":94,"n_dots":3.85,"target":"right","response":"right","rt":526.29999999702,"correct":true,"confidence":4},{"trial_n":95,"n_dots":3.85,"target":"right","response":"right","rt":303.80000000075,"correct":true,"confidence":4},{"trial_n":96,"n_dots":3.75,"target":"right","response":"right","rt":366.39999999851,"correct":true,"confidence":4},{"trial_n":97,"n_dots":3.75,"target":"left","response":"right","rt":725.89999999851,"correct":false,"confidence":1},{"trial_n":98,"n_dots":3.85,"target":"left","response":"left","rt":927.20000000298,"correct":true,"confidence":1},{"trial_n":99,"n_dots":3.85,"target":"right","response":"right","rt":190.89999999851,"correct":true,"confidence":4},{"trial_n":100,"n_dots":3.75,"target":"right","response":"right","rt":309.80000000075,"correct":true,"confidence":1},{"trial_n":101,"n_dots":3.75,"target":"left","response":"left","rt":1161.1000000015,"correct":true,"confidence":1},{"trial_n":102,"n_dots":3.65,"target":"left","response":"right","rt":763.09999999776,"correct":false,"confidence":1},{"trial_n":103,"n_dots":3.75,"target":"right","response":"right","rt":434,"correct":true,"confidence":1},{"trial_n":104,"n_dots":3.75,"target":"left","response":"right","rt":878.30000000075,"correct":false,"confidence":1},{"trial_n":105,"n_dots":3.85,"target":"left","response":"left","rt":620.40000000224,"correct":true,"confidence":1},{"trial_n":106,"n_dots":3.85,"target":"left","response":"right","rt":278.19999999925,"correct":false,"confidence":1},{"trial_n":107,"n_dots":3.95,"target":"right","response":"right","rt":209.60000000149,"correct":true,"confidence":1},{"trial_n":108,"n_dots":3.95,"target":"right","response":"right","rt":57.39999999851,"correct":true,"confidence":1},{"trial_n":109,"n_dots":3.85,"target":"right","response":"right","rt":525.69999999925,"correct":true,"confidence":1},{"trial_n":110,"n_dots":3.85,"target":"left","response":"right","rt":2680.6999999993,"correct":false,"confidence":1},{"trial_n":111,"n_dots":3.95,"target":"left","response":"right","rt":1826.5,"correct":false,"confidence":1},{"trial_n":112,"n_dots":4.05,"target":"right","response":"right","rt":515,"correct":true,"confidence":1},{"trial_n":113,"n_dots":4.05,"target":"right","response":"right","rt":563.69999999925,"correct":true,"confidence":1},{"trial_n":114,"n_dots":3.95,"target":"left","response":"left","rt":632,"correct":true,"confidence":1},{"trial_n":115,"n_dots":3.95,"target":"left","response":"left","rt":709.80000000075,"correct":true,"confidence":1},{"trial_n":116,"n_dots":3.85,"target":"right","response":"right","rt":33.79999999702,"correct":true,"confidence":1},{"trial_n":117,"n_dots":3.85,"target":"left","response":"left","rt":839.5,"correct":true,"confidence":1},{"trial_n":118,"n_dots":3.75,"target":"left","response":"left","rt":528.69999999925,"correct":true,"confidence":1},{"trial_n":119,"n_dots":3.75,"target":"left","response":"right","rt":869.39999999851,"correct":false,"confidence":1},{"trial_n":120,"n_dots":3.85,"target":"right","response":"right","rt":417.5,"correct":true,"confidence":1}]