[{"trial_n":1,"span":8,"encoder":"82744747","distractor":"88744747","target":"present","response":"present","rt":"9709.299999997","correct":true,"confidence":-1},{"trial_n":2,"span":8,"encoder":"97674676","distractor":"97074676","target":"present","response":"present","rt":"3888.3999999985","correct":true,"confidence":-1},{"trial_n":3,"span":10,"encoder":"8410262562","distractor":"8410262565","target":"absent","response":"present","rt":"1253.299999997","correct":false,"confidence":-1},{"trial_n":4,"span":8,"encoder":"87824070","distractor":"87924070","target":"absent","response":"present","rt":"1721.4000000022","correct":false,"confidence":-1},{"trial_n":5,"span":6,"encoder":"030628","distractor":"050628","target":"present","response":"present","rt":"1610.0999999978","correct":true,"confidence":-1},{"trial_n":6,"span":6,"encoder":"976093","distractor":"976091","target":"present","response":"absent","rt":"4172.4000000022","correct":false,"confidence":-1},{"trial_n":7,"span":4,"encoder":"1125","distractor":"1121","target":"absent","response":"absent","rt":"2059.8000000007","correct":true,"confidence":-1},{"trial_n":8,"span":4,"encoder":"0594","distractor":"0894","target":"absent","response":"absent","rt":"3861.3999999985","correct":true,"confidence":-1},{"trial_n":9,"span":6,"encoder":"385194","distractor":"385191","target":"absent","response":"absent","rt":"3161.3000000007","correct":true,"confidence":-1},{"trial_n":10,"span":6,"encoder":"954699","distractor":"954609","target":"present","response":"present","rt":"2938.3999999985","correct":true,"confidence":-1},{"trial_n":11,"span":8,"encoder":"60418969","distractor":"60478969","target":"absent","response":"present","rt":"1589.3999999985","correct":false,"confidence":-1},{"trial_n":12,"span":7,"encoder":"2736245","distractor":"2735245","target":"absent","response":"absent","rt":"2674.8999999985","correct":true,"confidence":-1},{"trial_n":13,"span":7,"encoder":"0338221","distractor":"0938221","target":"absent","response":"absent","rt":"4204.8999999985","correct":true,"confidence":-1},{"trial_n":14,"span":8,"encoder":"98469633","distractor":"98460633","target":"absent","response":"absent","rt":"3026.3000000007","correct":true,"confidence":-1},{"trial_n":15,"span":8,"encoder":"14801918","distractor":"14701918","target":"present","response":"present","rt":"2131.5","correct":true,"confidence":-1},{"trial_n":16,"span":9,"encoder":"000333560","distractor":"000332560","target":"present","response":"present","rt":"1328.3000000007","correct":true,"confidence":-1},{"trial_n":17,"span":9,"encoder":"242769608","distractor":"241769608","target":"present","response":"present","rt":"1187.1999999993","correct":true,"confidence":-1},{"trial_n":18,"span":10,"encoder":"8805722186","distractor":"8805722986","target":"present","response":"present","rt":"934.69999999925","correct":true,"confidence":-1},{"trial_n":19,"span":10,"encoder":"7280300760","distractor":"6280300760","target":"present","response":"present","rt":"801","correct":true,"confidence":-1},{"trial_n":20,"span":11,"encoder":"76130629486","distractor":"76130829486","target":"absent","response":"present","rt":"912.10000000149","correct":false,"confidence":-1},{"trial_n":21,"span":10,"encoder":"7326652454","distractor":"7326622454","target":"absent","response":"present","rt":"2530.299999997","correct":false,"confidence":5},{"trial_n":22,"span":9,"encoder":"790649381","distractor":"790449381","target":"absent","response":"absent","rt":"4874.8000000007","correct":true,"confidence":3},{"trial_n":23,"span":9,"encoder":"948860076","distractor":"948860075","target":"absent","response":"absent","rt":"9387.1000000015","correct":true,"confidence":1},{"trial_n":24,"span":10,"encoder":"3727013413","distractor":"3727083413","target":"present","response":"present","rt":"3011.9000000022","correct":true,"confidence":2},{"trial_n":25,"span":10,"encoder":"9717939967","distractor":"9717939947","target":"present","response":"absent","rt":"6330.6999999993","correct":false,"confidence":4},{"trial_n":26,"span":9,"encoder":"733232859","distractor":"733832859","target":"present","response":"absent","rt":"6490","correct":false,"confidence":1},{"trial_n":27,"span":8,"encoder":"32672345","distractor":"32672045","target":"absent","response":"absent","rt":"7413.9000000022","correct":true,"confidence":4},{"trial_n":28,"span":8,"encoder":"92650937","distractor":"92650934","target":"absent","response":"absent","rt":"1827.6999999993","correct":true,"confidence":5},{"trial_n":29,"span":9,"encoder":"226525818","distractor":"226525868","target":"present","response":"present","rt":"4066.6999999993","correct":true,"confidence":5},{"trial_n":30,"span":9,"encoder":"486796796","distractor":"426796796","target":"present","response":"present","rt":"2279.3000000007","correct":true,"confidence":1},{"trial_n":31,"span":10,"encoder":"0001488706","distractor":"2001488706","target":"present","response":"present","rt":"3187.0999999978","correct":true,"confidence":5},{"trial_n":32,"span":10,"encoder":"7938935657","distractor":"7538935657","target":"present","response":"present","rt":"2964","correct":true,"confidence":3},{"trial_n":33,"span":11,"encoder":"48992230567","distractor":"48792230567","target":"present","response":"present","rt":"2901","correct":true,"confidence":3},{"trial_n":34,"span":11,"encoder":"54208242155","distractor":"54208222155","target":"absent","response":"present","rt":"4456","correct":false,"confidence":3},{"trial_n":35,"span":10,"encoder":"7415192886","distractor":"7415292886","target":"present","response":"present","rt":"4770","correct":true,"confidence":4},{"trial_n":36,"span":10,"encoder":"8731316732","distractor":"8731316532","target":"absent","response":"absent","rt":"6929.799999997","correct":true,"confidence":4},{"trial_n":37,"span":11,"encoder":"89193270919","distractor":"89193270912","target":"present","response":"absent","rt":"7432.6999999993","correct":false,"confidence":2},{"trial_n":38,"span":10,"encoder":"5619031908","distractor":"2619031908","target":"present","response":"absent","rt":"2804.4000000022","correct":false,"confidence":4},{"trial_n":39,"span":9,"encoder":"034463091","distractor":"034473091","target":"present","response":"absent","rt":"4942.8999999985","correct":false,"confidence":4},{"trial_n":40,"span":8,"encoder":"30133048","distractor":"10133048","target":"present","response":"present","rt":"3372.0999999978","correct":true,"confidence":5},{"trial_n":41,"span":8,"encoder":"69866741","distractor":"69866241","target":"present","response":"absent","rt":"7931.6999999993","correct":false,"confidence":1},{"trial_n":42,"span":7,"encoder":"9660705","distractor":"9680705","target":"present","response":"present","rt":"6458.1000000015","correct":true,"confidence":3},{"trial_n":43,"span":7,"encoder":"9412162","distractor":"9416162","target":"absent","response":"present","rt":"8625.8999999985","correct":false,"confidence":1},{"trial_n":44,"span":6,"encoder":"371485","distractor":"321485","target":"absent","response":"absent","rt":"1950.8999999985","correct":true,"confidence":5},{"trial_n":45,"span":6,"encoder":"430930","distractor":"730930","target":"present","response":"present","rt":"2710.3000000007","correct":true,"confidence":5},{"trial_n":46,"span":7,"encoder":"3734163","distractor":"0734163","target":"present","response":"absent","rt":"5696.1999999993","correct":false,"confidence":5},{"trial_n":47,"span":6,"encoder":"652761","distractor":"652791","target":"absent","response":"absent","rt":"2993.5","correct":true,"confidence":5},{"trial_n":48,"span":6,"encoder":"643487","distractor":"743487","target":"absent","response":"absent","rt":"2325.6000000015","correct":true,"confidence":1},{"trial_n":49,"span":7,"encoder":"2907713","distractor":"2907783","target":"present","response":"present","rt":"2878.5","correct":true,"confidence":5},{"trial_n":50,"span":7,"encoder":"4351460","distractor":"4351410","target":"absent","response":"present","rt":"3762.3000000007","correct":false,"confidence":5},{"trial_n":51,"span":6,"encoder":"432482","distractor":"430482","target":"absent","response":"absent","rt":"2439.8999999985","correct":true,"confidence":5},{"trial_n":52,"span":6,"encoder":"223501","distractor":"213501","target":"absent","response":"absent","rt":"5531.299999997","correct":true,"confidence":5},{"trial_n":53,"span":7,"encoder":"0589986","distractor":"0589916","target":"present","response":"present","rt":"10320.100000001","correct":true,"confidence":1},{"trial_n":54,"span":7,"encoder":"9808030","distractor":"9808040","target":"present","response":"present","rt":"2789.1999999993","correct":true,"confidence":5},{"trial_n":55,"span":8,"encoder":"81393574","distractor":"81393374","target":"present","response":"absent","rt":"4407.1999999993","correct":false,"confidence":1},{"trial_n":56,"span":7,"encoder":"1471935","distractor":"1472935","target":"absent","response":"absent","rt":"3937.3999999985","correct":true,"confidence":1},{"trial_n":57,"span":7,"encoder":"5196144","distractor":"5896144","target":"present","response":"present","rt":"2566.5","correct":true,"confidence":5},{"trial_n":58,"span":8,"encoder":"39270075","distractor":"39270079","target":"present","response":"present","rt":"3672.1000000015","correct":true,"confidence":5},{"trial_n":59,"span":8,"encoder":"11244851","distractor":"11244651","target":"present","response":"present","rt":"2781.3999999985","correct":true,"confidence":5},{"trial_n":60,"span":9,"encoder":"300312848","distractor":"100312848","target":"absent","response":"present","rt":"3920.700000003","correct":false,"confidence":1},{"trial_n":61,"span":8,"encoder":"97327728","distractor":"97627728","target":"present","response":"present","rt":"2864.1999999993","correct":true,"confidence":5},{"trial_n":62,"span":8,"encoder":"11656136","distractor":"01656136","target":"absent","response":"present","rt":"3222.8000000007","correct":false,"confidence":1},{"trial_n":63,"span":7,"encoder":"1314279","distractor":"1314272","target":"absent","response":"absent","rt":"4797.5999999978","correct":true,"confidence":1},{"trial_n":64,"span":7,"encoder":"3977366","distractor":"3917366","target":"absent","response":"present","rt":"2120.1999999993","correct":false,"confidence":1},{"trial_n":65,"span":6,"encoder":"391554","distractor":"391556","target":"absent","response":"absent","rt":"1682.799999997","correct":true,"confidence":5},{"trial_n":66,"span":6,"encoder":"396105","distractor":"396405","target":"absent","response":"absent","rt":"2164.5","correct":true,"confidence":5},{"trial_n":67,"span":7,"encoder":"8622022","distractor":"8622002","target":"absent","response":"absent","rt":"5268.6999999993","correct":true,"confidence":5},{"trial_n":68,"span":7,"encoder":"6251618","distractor":"6251613","target":"absent","response":"absent","rt":"3118.3000000007","correct":true,"confidence":1},{"trial_n":69,"span":8,"encoder":"90802802","distractor":"96802802","target":"present","response":"present","rt":"4553.0999999978","correct":true,"confidence":1},{"trial_n":70,"span":8,"encoder":"11978911","distractor":"11978931","target":"absent","response":"absent","rt":"4511.1000000015","correct":true,"confidence":1},{"trial_n":71,"span":8,"encoder":"79820445","distractor":"19820445","target":"present","response":"present","rt":"6735.200000003","correct":true,"confidence":-1},{"trial_n":72,"span":8,"encoder":"35715867","distractor":"35715967","target":"present","response":"absent","rt":"4143.1999999993","correct":false,"confidence":-1},{"trial_n":73,"span":7,"encoder":"0009876","distractor":"0009576","target":"absent","response":"present","rt":"1552.4000000022","correct":false,"confidence":-1},{"trial_n":74,"span":6,"encoder":"888990","distractor":"888994","target":"absent","response":"absent","rt":"3523.1999999993","correct":true,"confidence":-1},{"trial_n":75,"span":6,"encoder":"842702","distractor":"842802","target":"present","response":"present","rt":"2499.6999999993","correct":true,"confidence":-1},{"trial_n":76,"span":7,"encoder":"2765094","distractor":"2765794","target":"absent","response":"absent","rt":"3876","correct":true,"confidence":-1},{"trial_n":77,"span":7,"encoder":"0695401","distractor":"5695401","target":"absent","response":"absent","rt":"2916.6000000015","correct":true,"confidence":-1},{"trial_n":78,"span":8,"encoder":"27885466","distractor":"27885666","target":"present","response":"present","rt":"5084.9000000022","correct":true,"confidence":-1},{"trial_n":79,"span":8,"encoder":"71857869","distractor":"79857869","target":"present","response":"absent","rt":"5533.6999999993","correct":false,"confidence":-1},{"trial_n":80,"span":7,"encoder":"9981735","distractor":"0981735","target":"absent","response":"present","rt":"5333.700000003","correct":false,"confidence":-1},{"trial_n":81,"span":6,"encoder":"837960","distractor":"837980","target":"present","response":"absent","rt":"1068","correct":false,"confidence":-1},{"trial_n":82,"span":5,"encoder":"80009","distractor":"80309","target":"absent","response":"absent","rt":"3099.6999999993","correct":true,"confidence":-1},{"trial_n":83,"span":5,"encoder":"88862","distractor":"88852","target":"present","response":"present","rt":"2342","correct":true,"confidence":-1},{"trial_n":84,"span":6,"encoder":"178045","distractor":"177045","target":"absent","response":"absent","rt":"3052.6999999993","correct":true,"confidence":-1},{"trial_n":85,"span":6,"encoder":"067439","distractor":"077439","target":"absent","response":"absent","rt":"4129","correct":true,"confidence":-1},{"trial_n":86,"span":7,"encoder":"3628760","distractor":"3328760","target":"absent","response":"absent","rt":"2421.8000000007","correct":true,"confidence":-1},{"trial_n":87,"span":7,"encoder":"2716531","distractor":"0716531","target":"present","response":"present","rt":"4865.1999999993","correct":true,"confidence":-1},{"trial_n":88,"span":8,"encoder":"56190584","distractor":"56190384","target":"absent","response":"absent","rt":"2021.0999999978","correct":true,"confidence":-1},{"trial_n":89,"span":8,"encoder":"87860201","distractor":"37860201","target":"present","response":"present","rt":"1634","correct":true,"confidence":-1},{"trial_n":90,"span":9,"encoder":"996809158","distractor":"990809158","target":"present","response":"present","rt":"495.40000000224","correct":true,"confidence":-1},{"trial_n":91,"span":9,"encoder":"403720106","distractor":"403720105","target":"present","response":"present","rt":"6286.3000000007","correct":true,"confidence":5},{"trial_n":92,"span":10,"encoder":"3526166356","distractor":"3522166356","target":"absent","response":"present","rt":"4188.6000000015","correct":false,"confidence":3},{"trial_n":93,"span":9,"encoder":"965324222","distractor":"265324222","target":"absent","response":"absent","rt":"4273","correct":true,"confidence":2},{"trial_n":94,"span":9,"encoder":"781502630","distractor":"785502630","target":"present","response":"present","rt":"3684.9000000022","correct":true,"confidence":1},{"trial_n":95,"span":10,"encoder":"8411109768","distractor":"8411009768","target":"absent","response":"absent","rt":"1710.9000000022","correct":true,"confidence":3},{"trial_n":96,"span":10,"encoder":"3693338295","distractor":"3623338295","target":"present","response":"absent","rt":"13186.099999998","correct":false,"confidence":1},{"trial_n":97,"span":9,"encoder":"773104155","distractor":"773144155","target":"present","response":"present","rt":"9010.5","correct":true,"confidence":1},{"trial_n":98,"span":9,"encoder":"322510100","distractor":"324510100","target":"absent","response":"absent","rt":"5202.3000000007","correct":true,"confidence":1},{"trial_n":99,"span":10,"encoder":"1792683801","distractor":"1192683801","target":"absent","response":"absent","rt":"2105","correct":true,"confidence":5},{"trial_n":100,"span":10,"encoder":"3339451998","distractor":"3339481998","target":"absent","response":"absent","rt":"4708.8000000007","correct":true,"confidence":5},{"trial_n":101,"span":11,"encoder":"74686240393","distractor":"74686249393","target":"present","response":"present","rt":"7656.6999999993","correct":true,"confidence":5},{"trial_n":102,"span":11,"encoder":"92641748741","distractor":"82641748741","target":"absent","response":"absent","rt":"3224","correct":true,"confidence":5},{"trial_n":103,"span":12,"encoder":"327892047292","distractor":"323892047292","target":"present","response":"present","rt":"10850.299999997","correct":true,"confidence":4},{"trial_n":104,"span":12,"encoder":"440244476314","distractor":"440244576314","target":"absent","response":"absent","rt":"4897","correct":true,"confidence":3},{"trial_n":105,"span":13,"encoder":"0051805494641","distractor":"0061805494641","target":"present","response":"present","rt":"12621","correct":true,"confidence":2},{"trial_n":106,"span":13,"encoder":"0904139892616","distractor":"0904139892696","target":"absent","response":"present","rt":"9067.5999999978","correct":false,"confidence":1},{"trial_n":107,"span":12,"encoder":"472563827918","distractor":"471563827918","target":"present","response":"absent","rt":"12216.100000001","correct":false,"confidence":1},{"trial_n":108,"span":11,"encoder":"77118821582","distractor":"70118821582","target":"absent","response":"absent","rt":"4641.3000000007","correct":true,"confidence":5},{"trial_n":109,"span":11,"encoder":"86382604850","distractor":"86482604850","target":"present","response":"absent","rt":"21891.400000002","correct":false,"confidence":1},{"trial_n":110,"span":10,"encoder":"6749093684","distractor":"6748093684","target":"absent","response":"absent","rt":"15776.5","correct":true,"confidence":4},{"trial_n":111,"span":10,"encoder":"1683360465","distractor":"1623360465","target":"absent","response":"absent","rt":"21571.199999999","correct":true,"confidence":5},{"trial_n":112,"span":11,"encoder":"15618365315","distractor":"95618365315","target":"present","response":"present","rt":"2361.6999999993","correct":true,"confidence":5},{"trial_n":113,"span":11,"encoder":"90114100736","distractor":"91114100736","target":"present","response":"absent","rt":"18746.199999999","correct":false,"confidence":3},{"trial_n":114,"span":10,"encoder":"7862174892","distractor":"8862174892","target":"absent","response":"absent","rt":"2341.1999999993","correct":true,"confidence":3},{"trial_n":115,"span":10,"encoder":"7592993561","distractor":"7092993561","target":"absent","response":"present","rt":"7631.8000000007","correct":false,"confidence":1},{"trial_n":116,"span":9,"encoder":"064166538","distractor":"064166838","target":"present","response":"present","rt":"3777","correct":true,"confidence":5},{"trial_n":117,"span":9,"encoder":"891291698","distractor":"890291698","target":"present","response":"present","rt":"4603.5","correct":true,"confidence":1},{"trial_n":118,"span":10,"encoder":"1461901722","distractor":"1461901822","target":"present","response":"absent","rt":"8075.8000000007","correct":false,"confidence":2},{"trial_n":119,"span":9,"encoder":"056625023","distractor":"056626023","target":"absent","response":"present","rt":"11546.100000001","correct":false,"confidence":1},{"trial_n":120,"span":8,"encoder":"05973376","distractor":"05973306","target":"present","response":"present","rt":"5734.1000000015","correct":true,"confidence":1},{"trial_n":121,"span":8,"encoder":"31287987","distractor":"31287927","target":"present","response":"present","rt":"5279.3000000007","correct":true,"confidence":5},{"trial_n":122,"span":9,"encoder":"361860929","distractor":"361860919","target":"absent","response":"absent","rt":"1529.3999999985","correct":true,"confidence":5},{"trial_n":123,"span":9,"encoder":"249153315","distractor":"249653315","target":"present","response":"present","rt":"6044.3000000007","correct":true,"confidence":4},{"trial_n":124,"span":10,"encoder":"7073460230","distractor":"7473460230","target":"absent","response":"present","rt":"5528.6999999993","correct":false,"confidence":3},{"trial_n":125,"span":9,"encoder":"127125012","distractor":"120125012","target":"absent","response":"absent","rt":"8299.6999999993","correct":true,"confidence":3},{"trial_n":126,"span":9,"encoder":"190329328","distractor":"120329328","target":"present","response":"present","rt":"11126.199999999","correct":true,"confidence":1},{"trial_n":127,"span":10,"encoder":"6973690581","distractor":"6913690581","target":"present","response":"absent","rt":"5345.0999999978","correct":false,"confidence":3},{"trial_n":128,"span":9,"encoder":"046836251","distractor":"046836351","target":"present","response":"absent","rt":"7903.3000000007","correct":false,"confidence":1},{"trial_n":129,"span":8,"encoder":"50200398","distractor":"50200498","target":"present","response":"present","rt":"4025.5","correct":true,"confidence":1},{"trial_n":130,"span":8,"encoder":"35781477","distractor":"35781473","target":"absent","response":"absent","rt":"10225.599999998","correct":true,"confidence":4},{"trial_n":131,"span":9,"encoder":"490076700","distractor":"494076700","target":"absent","response":"absent","rt":"6299.6000000015","correct":true,"confidence":3},{"trial_n":132,"span":9,"encoder":"072671210","distractor":"072621210","target":"absent","response":"absent","rt":"9142.6000000015","correct":true,"confidence":3},{"trial_n":133,"span":10,"encoder":"1715620843","distractor":"6715620843","target":"present","response":"present","rt":"2801.8999999985","correct":true,"confidence":5},{"trial_n":134,"span":10,"encoder":"7513213765","distractor":"7513213265","target":"absent","response":"absent","rt":"12134.099999998","correct":true,"confidence":5},{"trial_n":135,"span":11,"encoder":"99730465417","distractor":"99733465417","target":"present","response":"present","rt":"7761.3000000007","correct":true,"confidence":3},{"trial_n":136,"span":11,"encoder":"09081957760","distractor":"09086957760","target":"present","response":"absent","rt":"5795.5","correct":false,"confidence":1},{"trial_n":137,"span":10,"encoder":"8141901256","distractor":"8141901259","target":"absent","response":"absent","rt":"16019.599999998","correct":true,"confidence":4},{"trial_n":138,"span":10,"encoder":"2998988186","distractor":"2998984186","target":"present","response":"present","rt":"4902","correct":true,"confidence":5},{"trial_n":139,"span":11,"encoder":"29447670916","distractor":"29447470916","target":"present","response":"absent","rt":"14508.800000001","correct":false,"confidence":2},{"trial_n":140,"span":10,"encoder":"5809081868","distractor":"5809081862","target":"absent","response":"absent","rt":"6217.9000000022","correct":true,"confidence":1}]