[{"trial_n":1,"min":25,"max":230,"target":"present","response":"present","rt":8156,"correct":true,"confidence":-1},{"trial_n":2,"min":25,"max":230,"target":"present","response":"present","rt":1147,"correct":true,"confidence":-1},{"trial_n":3,"min":41,"max":214,"target":"absent","response":"present","rt":698,"correct":false,"confidence":-1},{"trial_n":4,"min":25,"max":230,"target":"absent","response":"absent","rt":1201,"correct":true,"confidence":-1},{"trial_n":5,"min":25,"max":230,"target":"present","response":"absent","rt":884,"correct":false,"confidence":-1},{"trial_n":6,"min":9,"max":246,"target":"present","response":"present","rt":772,"correct":true,"confidence":-1},{"trial_n":7,"min":9,"max":246,"target":"present","response":"present","rt":1147,"correct":true,"confidence":-1},{"trial_n":8,"min":25,"max":230,"target":"present","response":"present","rt":1171,"correct":true,"confidence":-1},{"trial_n":9,"min":25,"max":230,"target":"absent","response":"absent","rt":1824,"correct":true,"confidence":-1},{"trial_n":10,"min":41,"max":214,"target":"present","response":"present","rt":856.99999999999,"correct":true,"confidence":-1},{"trial_n":11,"min":41,"max":214,"target":"absent","response":"present","rt":1011,"correct":false,"confidence":-1},{"trial_n":12,"min":33,"max":222,"target":"present","response":"present","rt":830,"correct":true,"confidence":-1},{"trial_n":13,"min":33,"max":222,"target":"present","response":"present","rt":954,"correct":true,"confidence":-1},{"trial_n":14,"min":41,"max":214,"target":"present","response":"present","rt":652,"correct":true,"confidence":-1},{"trial_n":15,"min":41,"max":214,"target":"present","response":"present","rt":537,"correct":true,"confidence":-1},{"trial_n":16,"min":49,"max":206,"target":"present","response":"present","rt":373,"correct":true,"confidence":-1},{"trial_n":17,"min":49,"max":206,"target":"absent","response":"absent","rt":1555,"correct":true,"confidence":-1},{"trial_n":18,"min":57,"max":198,"target":"present","response":"present","rt":847,"correct":true,"confidence":-1},{"trial_n":19,"min":57,"max":198,"target":"present","response":"present","rt":659,"correct":true,"confidence":-1},{"trial_n":20,"min":65,"max":190,"target":"absent","response":"present","rt":593.00000000001,"correct":false,"confidence":-1},{"trial_n":21,"min":61,"max":194,"target":"present","response":"present","rt":1238,"correct":true,"confidence":4},{"trial_n":22,"min":61,"max":194,"target":"absent","response":"absent","rt":1884,"correct":true,"confidence":4},{"trial_n":23,"min":65,"max":190,"target":"present","response":"present","rt":1270,"correct":true,"confidence":4},{"trial_n":24,"min":65,"max":190,"target":"present","response":"present","rt":1095,"correct":true,"confidence":5},{"trial_n":25,"min":69,"max":186,"target":"present","response":"absent","rt":1611,"correct":false,"confidence":4},{"trial_n":26,"min":65,"max":190,"target":"absent","response":"absent","rt":1043,"correct":true,"confidence":4},{"trial_n":27,"min":65,"max":190,"target":"absent","response":"absent","rt":7706,"correct":true,"confidence":4},{"trial_n":28,"min":69,"max":186,"target":"present","response":"present","rt":1108,"correct":true,"confidence":4},{"trial_n":29,"min":69,"max":186,"target":"absent","response":"absent","rt":937,"correct":true,"confidence":4},{"trial_n":30,"min":73,"max":182,"target":"absent","response":"present","rt":1051,"correct":false,"confidence":4},{"trial_n":31,"min":71,"max":184,"target":"absent","response":"present","rt":901,"correct":false,"confidence":3},{"trial_n":32,"min":69,"max":186,"target":"present","response":"present","rt":1044,"correct":true,"confidence":5},{"trial_n":33,"min":69,"max":186,"target":"present","response":"present","rt":1366,"correct":true,"confidence":4},{"trial_n":34,"min":71,"max":184,"target":"present","response":"present","rt":1631,"correct":true,"confidence":4},{"trial_n":35,"min":71,"max":184,"target":"absent","response":"present","rt":1085,"correct":false,"confidence":4},{"trial_n":36,"min":69,"max":186,"target":"absent","response":"present","rt":899,"correct":false,"confidence":4},{"trial_n":37,"min":67,"max":188,"target":"absent","response":"present","rt":1018,"correct":false,"confidence":3},{"trial_n":38,"min":65,"max":190,"target":"absent","response":"absent","rt":1540,"correct":true,"confidence":4},{"trial_n":39,"min":65,"max":190,"target":"present","response":"present","rt":1148,"correct":true,"confidence":4},{"trial_n":40,"min":67,"max":188,"target":"absent","response":"absent","rt":895,"correct":true,"confidence":4},{"trial_n":41,"min":67,"max":188,"target":"absent","response":"absent","rt":815,"correct":true,"confidence":4},{"trial_n":42,"min":68,"max":187,"target":"present","response":"present","rt":697,"correct":true,"confidence":4},{"trial_n":43,"min":68,"max":187,"target":"present","response":"present","rt":949.00000000003,"correct":true,"confidence":4},{"trial_n":44,"min":69,"max":186,"target":"absent","response":"absent","rt":752,"correct":true,"confidence":4},{"trial_n":45,"min":69,"max":186,"target":"absent","response":"absent","rt":808,"correct":true,"confidence":4},{"trial_n":46,"min":70,"max":185,"target":"present","response":"present","rt":1223,"correct":true,"confidence":4},{"trial_n":47,"min":70,"max":185,"target":"present","response":"present","rt":1103,"correct":true,"confidence":4},{"trial_n":48,"min":71,"max":184,"target":"absent","response":"absent","rt":1149,"correct":true,"confidence":4},{"trial_n":49,"min":71,"max":184,"target":"present","response":"present","rt":1036,"correct":true,"confidence":4},{"trial_n":50,"min":72,"max":183,"target":"absent","response":"present","rt":1226,"correct":false,"confidence":4},{"trial_n":51,"min":71,"max":184,"target":"present","response":"present","rt":1392,"correct":true,"confidence":4},{"trial_n":52,"min":71,"max":184,"target":"present","response":"present","rt":1456,"correct":true,"confidence":5},{"trial_n":53,"min":72,"max":183,"target":"present","response":"present","rt":1139,"correct":true,"confidence":5},{"trial_n":54,"min":72,"max":183,"target":"absent","response":"present","rt":1518,"correct":false,"confidence":5},{"trial_n":55,"min":71,"max":184,"target":"absent","response":"absent","rt":1762.9999999999,"correct":true,"confidence":2},{"trial_n":56,"min":71,"max":184,"target":"absent","response":"present","rt":971,"correct":false,"confidence":4},{"trial_n":57,"min":70,"max":185,"target":"absent","response":"absent","rt":2317,"correct":true,"confidence":4},{"trial_n":58,"min":70,"max":185,"target":"absent","response":"present","rt":1025.0000000001,"correct":false,"confidence":4},{"trial_n":59,"min":69,"max":186,"target":"present","response":"present","rt":1069,"correct":true,"confidence":4},{"trial_n":60,"min":69,"max":186,"target":"absent","response":"present","rt":1183.9999999999,"correct":false,"confidence":4},{"trial_n":61,"min":68,"max":187,"target":"absent","response":"present","rt":755,"correct":false,"confidence":4},{"trial_n":62,"min":67,"max":188,"target":"absent","response":"present","rt":842,"correct":false,"confidence":4},{"trial_n":63,"min":66,"max":189,"target":"absent","response":"present","rt":1013,"correct":false,"confidence":4},{"trial_n":64,"min":65,"max":190,"target":"present","response":"present","rt":1157.0000000001,"correct":true,"confidence":5},{"trial_n":65,"min":65,"max":190,"target":"absent","response":"present","rt":947.00000000006,"correct":false,"confidence":3},{"trial_n":66,"min":64,"max":191,"target":"present","response":"present","rt":1310,"correct":true,"confidence":4},{"trial_n":67,"min":64,"max":191,"target":"absent","response":"absent","rt":1893,"correct":true,"confidence":4},{"trial_n":68,"min":65,"max":190,"target":"present","response":"present","rt":920,"correct":true,"confidence":5},{"trial_n":69,"min":65,"max":190,"target":"absent","response":"present","rt":1373,"correct":false,"confidence":5},{"trial_n":70,"min":64,"max":191,"target":"present","response":"present","rt":805,"correct":true,"confidence":5},{"trial_n":71,"min":41,"max":214,"target":"present","response":"present","rt":1903,"correct":true,"confidence":-1},{"trial_n":72,"min":41,"max":214,"target":"present","response":"present","rt":1336,"correct":true,"confidence":-1},{"trial_n":73,"min":57,"max":198,"target":"absent","response":"absent","rt":771,"correct":true,"confidence":-1},{"trial_n":74,"min":57,"max":198,"target":"absent","response":"present","rt":962,"correct":false,"confidence":-1},{"trial_n":75,"min":41,"max":214,"target":"present","response":"present","rt":772,"correct":true,"confidence":-1},{"trial_n":76,"min":41,"max":214,"target":"absent","response":"absent","rt":1111,"correct":true,"confidence":-1},{"trial_n":77,"min":57,"max":198,"target":"present","response":"present","rt":788,"correct":true,"confidence":-1},{"trial_n":78,"min":57,"max":198,"target":"present","response":"present","rt":1274.9999999999,"correct":true,"confidence":-1},{"trial_n":79,"min":73,"max":182,"target":"present","response":"present","rt":1171,"correct":true,"confidence":-1},{"trial_n":80,"min":73,"max":182,"target":"absent","response":"absent","rt":1001.0000000001,"correct":true,"confidence":-1},{"trial_n":81,"min":81,"max":174,"target":"present","response":"present","rt":816,"correct":true,"confidence":-1},{"trial_n":82,"min":81,"max":174,"target":"present","response":"absent","rt":1542.0000000001,"correct":false,"confidence":-1},{"trial_n":83,"min":73,"max":182,"target":"absent","response":"absent","rt":1516,"correct":true,"confidence":-1},{"trial_n":84,"min":73,"max":182,"target":"present","response":"present","rt":839,"correct":true,"confidence":-1},{"trial_n":85,"min":81,"max":174,"target":"absent","response":"absent","rt":2031,"correct":true,"confidence":-1},{"trial_n":86,"min":81,"max":174,"target":"present","response":"present","rt":895.99999999994,"correct":true,"confidence":-1},{"trial_n":87,"min":89,"max":166,"target":"absent","response":"absent","rt":1471,"correct":true,"confidence":-1},{"trial_n":88,"min":89,"max":166,"target":"absent","response":"absent","rt":1583,"correct":true,"confidence":-1},{"trial_n":89,"min":97,"max":158,"target":"present","response":"present","rt":842,"correct":true,"confidence":-1},{"trial_n":90,"min":97,"max":158,"target":"absent","response":"absent","rt":1352,"correct":true,"confidence":-1},{"trial_n":91,"min":101,"max":154,"target":"present","response":"present","rt":1203.0000000001,"correct":true,"confidence":4},{"trial_n":92,"min":101,"max":154,"target":"absent","response":"present","rt":1425,"correct":false,"confidence":4},{"trial_n":93,"min":97,"max":158,"target":"present","response":"present","rt":2076,"correct":true,"confidence":4},{"trial_n":94,"min":97,"max":158,"target":"absent","response":"present","rt":1922,"correct":false,"confidence":4},{"trial_n":95,"min":93,"max":162,"target":"absent","response":"present","rt":1223,"correct":false,"confidence":4},{"trial_n":96,"min":89,"max":166,"target":"absent","response":"present","rt":1836.9999999999,"correct":false,"confidence":4},{"trial_n":97,"min":85,"max":170,"target":"absent","response":"absent","rt":1129,"correct":true,"confidence":4},{"trial_n":98,"min":85,"max":170,"target":"present","response":"present","rt":1263,"correct":true,"confidence":4},{"trial_n":99,"min":89,"max":166,"target":"present","response":"present","rt":1252.9999999999,"correct":true,"confidence":4},{"trial_n":100,"min":89,"max":166,"target":"absent","response":"absent","rt":1303.9999999999,"correct":true,"confidence":4},{"trial_n":101,"min":91,"max":164,"target":"absent","response":"present","rt":858,"correct":false,"confidence":4},{"trial_n":102,"min":89,"max":166,"target":"absent","response":"present","rt":2758,"correct":false,"confidence":4},{"trial_n":103,"min":87,"max":168,"target":"absent","response":"present","rt":894,"correct":false,"confidence":4},{"trial_n":104,"min":85,"max":170,"target":"present","response":"present","rt":807,"correct":true,"confidence":4},{"trial_n":105,"min":85,"max":170,"target":"present","response":"present","rt":1181.0000000001,"correct":true,"confidence":3},{"trial_n":106,"min":87,"max":168,"target":"present","response":"present","rt":1140.9999999999,"correct":true,"confidence":5},{"trial_n":107,"min":87,"max":168,"target":"present","response":"present","rt":1295.0000000001,"correct":true,"confidence":5},{"trial_n":108,"min":89,"max":166,"target":"absent","response":"present","rt":1428,"correct":false,"confidence":5},{"trial_n":109,"min":87,"max":168,"target":"present","response":"absent","rt":1171.0000000001,"correct":false,"confidence":3},{"trial_n":110,"min":85,"max":170,"target":"present","response":"present","rt":1974,"correct":true,"confidence":4},{"trial_n":111,"min":85,"max":170,"target":"absent","response":"absent","rt":1328,"correct":true,"confidence":2},{"trial_n":112,"min":86,"max":169,"target":"absent","response":"absent","rt":1266,"correct":true,"confidence":4},{"trial_n":113,"min":86,"max":169,"target":"present","response":"present","rt":1039,"correct":true,"confidence":4},{"trial_n":114,"min":87,"max":168,"target":"present","response":"present","rt":1364.9999999999,"correct":true,"confidence":4},{"trial_n":115,"min":87,"max":168,"target":"present","response":"present","rt":1686.0000000001,"correct":true,"confidence":4},{"trial_n":116,"min":88,"max":167,"target":"absent","response":"absent","rt":1553,"correct":true,"confidence":4},{"trial_n":117,"min":88,"max":167,"target":"absent","response":"present","rt":992,"correct":false,"confidence":4},{"trial_n":118,"min":87,"max":168,"target":"present","response":"present","rt":4530.9999999999,"correct":true,"confidence":2},{"trial_n":119,"min":87,"max":168,"target":"absent","response":"present","rt":959,"correct":false,"confidence":4},{"trial_n":120,"min":86,"max":169,"target":"present","response":"absent","rt":947,"correct":false,"confidence":3},{"trial_n":121,"min":85,"max":170,"target":"absent","response":"present","rt":961,"correct":false,"confidence":4},{"trial_n":122,"min":84,"max":171,"target":"absent","response":"absent","rt":1060,"correct":true,"confidence":4},{"trial_n":123,"min":84,"max":171,"target":"present","response":"present","rt":717,"correct":true,"confidence":4},{"trial_n":124,"min":85,"max":170,"target":"absent","response":"absent","rt":1131,"correct":true,"confidence":4},{"trial_n":125,"min":85,"max":170,"target":"absent","response":"present","rt":1234.9999999999,"correct":false,"confidence":4},{"trial_n":126,"min":84,"max":171,"target":"present","response":"present","rt":1252,"correct":true,"confidence":4},{"trial_n":127,"min":84,"max":171,"target":"absent","response":"absent","rt":1003,"correct":true,"confidence":4},{"trial_n":128,"min":85,"max":170,"target":"absent","response":"present","rt":1073.9999999999,"correct":false,"confidence":4},{"trial_n":129,"min":84,"max":171,"target":"absent","response":"absent","rt":1281,"correct":true,"confidence":1},{"trial_n":130,"min":84,"max":171,"target":"present","response":"present","rt":1440,"correct":true,"confidence":3},{"trial_n":131,"min":85,"max":170,"target":"absent","response":"present","rt":1439,"correct":false,"confidence":3},{"trial_n":132,"min":84,"max":171,"target":"present","response":"present","rt":1179,"correct":true,"confidence":5},{"trial_n":133,"min":84,"max":171,"target":"present","response":"present","rt":934,"correct":true,"confidence":4},{"trial_n":134,"min":85,"max":170,"target":"present","response":"present","rt":1690,"correct":true,"confidence":5},{"trial_n":135,"min":85,"max":170,"target":"present","response":"present","rt":1479.9999999999,"correct":true,"confidence":4},{"trial_n":136,"min":86,"max":169,"target":"absent","response":"present","rt":2761,"correct":false,"confidence":1},{"trial_n":137,"min":85,"max":170,"target":"present","response":"present","rt":3328.0000000001,"correct":true,"confidence":1},{"trial_n":138,"min":85,"max":170,"target":"present","response":"absent","rt":1686,"correct":false,"confidence":2},{"trial_n":139,"min":84,"max":171,"target":"present","response":"present","rt":1683,"correct":true,"confidence":2},{"trial_n":140,"min":84,"max":171,"target":"absent","response":"present","rt":1931.9999999999,"correct":false,"confidence":1}]