[{"trial_n":1,"span":8,"encoder":"04778266","distractor":"04708266","target":"present","response":"present","rt":"4150.3000000007","correct":true,"confidence":-1},{"trial_n":2,"span":8,"encoder":"26752118","distractor":"46752118","target":"present","response":"present","rt":"3040.9000000004","correct":true,"confidence":-1},{"trial_n":3,"span":10,"encoder":"4319489520","distractor":"4319489510","target":"absent","response":"present","rt":"1798.7000000011","correct":false,"confidence":-1},{"trial_n":4,"span":8,"encoder":"71788853","distractor":"71788753","target":"absent","response":"absent","rt":"1211.2999999989","correct":true,"confidence":-1},{"trial_n":5,"span":8,"encoder":"63494583","distractor":"63494573","target":"present","response":"present","rt":"1253.5999999996","correct":true,"confidence":-1},{"trial_n":6,"span":10,"encoder":"3417080090","distractor":"3416080090","target":"present","response":"present","rt":"1417","correct":true,"confidence":-1},{"trial_n":7,"span":10,"encoder":"6407500202","distractor":"6407500212","target":"absent","response":"absent","rt":"1309","correct":true,"confidence":-1},{"trial_n":8,"span":12,"encoder":"238477228825","distractor":"238477218825","target":"absent","response":"absent","rt":"1741.7999999989","correct":true,"confidence":-1},{"trial_n":9,"span":12,"encoder":"689407772898","distractor":"689407972898","target":"absent","response":"present","rt":"1824.1000000015","correct":false,"confidence":-1},{"trial_n":10,"span":10,"encoder":"2299480952","distractor":"2499480952","target":"absent","response":"absent","rt":"421.40000000037","correct":true,"confidence":-1},{"trial_n":11,"span":10,"encoder":"5489632708","distractor":"5489632738","target":"present","response":"present","rt":"668.60000000149","correct":true,"confidence":-1},{"trial_n":12,"span":11,"encoder":"60544155080","distractor":"60544195080","target":"present","response":"absent","rt":"541.09999999963","correct":false,"confidence":-1},{"trial_n":13,"span":10,"encoder":"7948035090","distractor":"7940035090","target":"absent","response":"present","rt":"4606.3000000007","correct":false,"confidence":-1},{"trial_n":14,"span":9,"encoder":"386266583","distractor":"386261583","target":"absent","response":"present","rt":"977.69999999925","correct":false,"confidence":-1},{"trial_n":15,"span":8,"encoder":"05480200","distractor":"05480280","target":"present","response":"absent","rt":"4687.1000000015","correct":false,"confidence":-1},{"trial_n":16,"span":7,"encoder":"7384192","distractor":"7304192","target":"absent","response":"present","rt":"9764.5","correct":false,"confidence":-1},{"trial_n":17,"span":6,"encoder":"629965","distractor":"629995","target":"absent","response":"present","rt":"8233.6999999993","correct":false,"confidence":-1},{"trial_n":18,"span":5,"encoder":"23201","distractor":"23291","target":"absent","response":"absent","rt":"8090.1999999993","correct":true,"confidence":-1},{"trial_n":19,"span":5,"encoder":"08457","distractor":"08157","target":"absent","response":"absent","rt":"7981","correct":true,"confidence":-1},{"trial_n":20,"span":6,"encoder":"265868","distractor":"266868","target":"present","response":"absent","rt":"4639.6999999993","correct":false,"confidence":-1},{"trial_n":21,"span":5,"encoder":"60079","distractor":"20079","target":"absent","response":"absent","rt":"1390.5","correct":true,"confidence":5},{"trial_n":22,"span":5,"encoder":"38233","distractor":"38235","target":"absent","response":"absent","rt":"1084","correct":true,"confidence":5},{"trial_n":23,"span":6,"encoder":"325139","distractor":"325539","target":"present","response":"present","rt":"3240.5","correct":true,"confidence":5},{"trial_n":24,"span":6,"encoder":"514859","distractor":"514259","target":"absent","response":"absent","rt":"3566.9000000004","correct":true,"confidence":5},{"trial_n":25,"span":7,"encoder":"3955978","distractor":"3955971","target":"absent","response":"absent","rt":"4217.0999999996","correct":true,"confidence":5},{"trial_n":26,"span":7,"encoder":"1724980","distractor":"1824980","target":"present","response":"present","rt":"2566.5","correct":true,"confidence":5},{"trial_n":27,"span":8,"encoder":"17900855","distractor":"17900825","target":"absent","response":"absent","rt":"1440.5","correct":true,"confidence":5},{"trial_n":28,"span":8,"encoder":"67878603","distractor":"97878603","target":"present","response":"present","rt":"2194.6999999993","correct":true,"confidence":3},{"trial_n":29,"span":9,"encoder":"978106423","distractor":"977106423","target":"present","response":"present","rt":"3449.0999999996","correct":true,"confidence":4},{"trial_n":30,"span":9,"encoder":"336925112","distractor":"336725112","target":"absent","response":"present","rt":"3288.9000000004","correct":false,"confidence":3},{"trial_n":31,"span":8,"encoder":"11891040","distractor":"11891020","target":"present","response":"present","rt":"2332.4000000004","correct":true,"confidence":5},{"trial_n":32,"span":8,"encoder":"33752046","distractor":"33752146","target":"present","response":"present","rt":"2928.6999999993","correct":true,"confidence":5},{"trial_n":33,"span":9,"encoder":"126636277","distractor":"126606277","target":"absent","response":"present","rt":"2650.9000000004","correct":false,"confidence":3},{"trial_n":34,"span":8,"encoder":"48814844","distractor":"45814844","target":"absent","response":"absent","rt":"1376.9000000004","correct":true,"confidence":5},{"trial_n":35,"span":8,"encoder":"75846224","distractor":"75846274","target":"absent","response":"absent","rt":"1764.8000000007","correct":true,"confidence":5},{"trial_n":36,"span":9,"encoder":"255433589","distractor":"259433589","target":"present","response":"present","rt":"3843.9000000004","correct":true,"confidence":4},{"trial_n":37,"span":9,"encoder":"698534856","distractor":"628534856","target":"absent","response":"present","rt":"3403.5","correct":false,"confidence":5},{"trial_n":38,"span":8,"encoder":"80999275","distractor":"20999275","target":"present","response":"present","rt":"2011.6999999993","correct":true,"confidence":5},{"trial_n":39,"span":8,"encoder":"18765146","distractor":"98765146","target":"present","response":"absent","rt":"3887.1000000015","correct":false,"confidence":3},{"trial_n":40,"span":7,"encoder":"9394456","distractor":"9194456","target":"absent","response":"absent","rt":"7040.9000000004","correct":true,"confidence":3},{"trial_n":41,"span":7,"encoder":"3040092","distractor":"3040792","target":"present","response":"present","rt":"2750.0999999996","correct":true,"confidence":5},{"trial_n":42,"span":8,"encoder":"22766343","distractor":"22766843","target":"present","response":"present","rt":"3158","correct":true,"confidence":5},{"trial_n":43,"span":8,"encoder":"58979274","distractor":"50979274","target":"present","response":"present","rt":"1455.5999999996","correct":true,"confidence":4},{"trial_n":44,"span":9,"encoder":"924410442","distractor":"124410442","target":"absent","response":"absent","rt":"5913.4000000004","correct":true,"confidence":3},{"trial_n":45,"span":9,"encoder":"846463806","distractor":"346463806","target":"present","response":"present","rt":"1648.4000000004","correct":true,"confidence":4},{"trial_n":46,"span":10,"encoder":"9223617321","distractor":"9223607321","target":"present","response":"present","rt":"3042.4000000004","correct":true,"confidence":4},{"trial_n":47,"span":10,"encoder":"3536933555","distractor":"3536973555","target":"present","response":"present","rt":"1225.5","correct":true,"confidence":4},{"trial_n":48,"span":11,"encoder":"13522157505","distractor":"13528157505","target":"present","response":"absent","rt":"3682.5999999996","correct":false,"confidence":3},{"trial_n":49,"span":10,"encoder":"0916204803","distractor":"2916204803","target":"present","response":"present","rt":"2056.5999999996","correct":true,"confidence":3},{"trial_n":50,"span":10,"encoder":"3011709756","distractor":"3061709756","target":"absent","response":"absent","rt":"1627","correct":true,"confidence":5},{"trial_n":51,"span":11,"encoder":"25306281334","distractor":"05306281334","target":"absent","response":"absent","rt":"1918.2000000011","correct":true,"confidence":5},{"trial_n":52,"span":11,"encoder":"80801260304","distractor":"81801260304","target":"present","response":"present","rt":"4017.9000000004","correct":true,"confidence":5},{"trial_n":53,"span":12,"encoder":"900368331152","distractor":"900368331156","target":"absent","response":"present","rt":"2217.2000000011","correct":false,"confidence":4},{"trial_n":54,"span":11,"encoder":"18364063659","distractor":"18364063654","target":"present","response":"present","rt":"4790.5","correct":true,"confidence":3},{"trial_n":55,"span":11,"encoder":"64786799253","distractor":"64786790253","target":"present","response":"present","rt":"1651.7000000011","correct":true,"confidence":3},{"trial_n":56,"span":12,"encoder":"682780951080","distractor":"682740951080","target":"absent","response":"present","rt":"12246.300000001","correct":false,"confidence":3},{"trial_n":57,"span":11,"encoder":"16973225977","distractor":"16973225976","target":"absent","response":"absent","rt":"1520","correct":true,"confidence":5},{"trial_n":58,"span":11,"encoder":"90542794884","distractor":"60542794884","target":"absent","response":"absent","rt":"5067.2999999989","correct":true,"confidence":3},{"trial_n":59,"span":12,"encoder":"282080296573","distractor":"282680296573","target":"present","response":"present","rt":"5153.8000000007","correct":true,"confidence":4},{"trial_n":60,"span":12,"encoder":"996778153223","distractor":"996778143223","target":"present","response":"present","rt":"4437.9000000004","correct":true,"confidence":4},{"trial_n":61,"span":13,"encoder":"0764037752689","distractor":"0764037752683","target":"absent","response":"absent","rt":"1943.6999999993","correct":true,"confidence":5},{"trial_n":62,"span":13,"encoder":"1586739724282","distractor":"1536739724282","target":"present","response":"present","rt":"2033.0999999996","correct":true,"confidence":4},{"trial_n":63,"span":14,"encoder":"77824962414482","distractor":"77824962414472","target":"present","response":"present","rt":"1784.5","correct":true,"confidence":3},{"trial_n":64,"span":14,"encoder":"38222346697614","distractor":"38223346697614","target":"present","response":"present","rt":"4353.1999999993","correct":true,"confidence":3},{"trial_n":65,"span":15,"encoder":"861588004199927","distractor":"861588004899927","target":"absent","response":"present","rt":"1302.7999999989","correct":false,"confidence":2},{"trial_n":66,"span":14,"encoder":"90377945346223","distractor":"90377941346223","target":"absent","response":"present","rt":"1365.0999999996","correct":false,"confidence":3},{"trial_n":67,"span":13,"encoder":"4219337591196","distractor":"4219337991196","target":"present","response":"present","rt":"1416.6000000015","correct":true,"confidence":4},{"trial_n":68,"span":13,"encoder":"1979769804227","distractor":"1979769404227","target":"present","response":"present","rt":"1036.2999999989","correct":true,"confidence":4},{"trial_n":69,"span":14,"encoder":"89827567814367","distractor":"89827567814307","target":"absent","response":"absent","rt":"1842.7999999989","correct":true,"confidence":5},{"trial_n":70,"span":14,"encoder":"35214106689433","distractor":"35214106689423","target":"present","response":"present","rt":"4082.7999999989","correct":true,"confidence":3},{"trial_n":71,"span":8,"encoder":"43891207","distractor":"43801207","target":"present","response":"present","rt":"2911.2000000011","correct":true,"confidence":-1},{"trial_n":72,"span":8,"encoder":"83859903","distractor":"83899903","target":"present","response":"present","rt":"680.19999999925","correct":true,"confidence":-1},{"trial_n":73,"span":9,"encoder":"828778879","distractor":"818778879","target":"absent","response":"present","rt":"317.90000000037","correct":false,"confidence":-1},{"trial_n":74,"span":8,"encoder":"04586908","distractor":"04586909","target":"absent","response":"absent","rt":"547.79999999888","correct":true,"confidence":-1},{"trial_n":75,"span":8,"encoder":"11391170","distractor":"11391171","target":"present","response":"present","rt":"718.30000000075","correct":true,"confidence":-1},{"trial_n":76,"span":9,"encoder":"211917053","distractor":"211947053","target":"present","response":"absent","rt":"452.59999999963","correct":false,"confidence":-1},{"trial_n":77,"span":8,"encoder":"76404492","distractor":"76404442","target":"absent","response":"absent","rt":"453.30000000075","correct":true,"confidence":-1},{"trial_n":78,"span":8,"encoder":"08942348","distractor":"08942948","target":"absent","response":"absent","rt":"719.59999999963","correct":true,"confidence":-1},{"trial_n":79,"span":9,"encoder":"544582651","distractor":"544522651","target":"absent","response":"absent","rt":"16948.4","correct":true,"confidence":-1},{"trial_n":80,"span":9,"encoder":"179084059","distractor":"179484059","target":"present","response":"absent","rt":"20263.299999999","correct":false,"confidence":-1},{"trial_n":81,"span":8,"encoder":"26595126","distractor":"26595326","target":"present","response":"present","rt":"34340","correct":true,"confidence":-1},{"trial_n":82,"span":8,"encoder":"77702839","distractor":"77792839","target":"absent","response":"absent","rt":"12483.199999999","correct":true,"confidence":-1},{"trial_n":83,"span":9,"encoder":"489550488","distractor":"469550488","target":"absent","response":"present","rt":"18844.699999999","correct":false,"confidence":-1},{"trial_n":84,"span":8,"encoder":"52487686","distractor":"52485686","target":"present","response":"absent","rt":"1209.4000000004","correct":false,"confidence":-1},{"trial_n":85,"span":7,"encoder":"1899273","distractor":"1839273","target":"present","response":"present","rt":"773.5","correct":true,"confidence":-1},{"trial_n":86,"span":7,"encoder":"3391808","distractor":"3391802","target":"absent","response":"absent","rt":"7702.1999999993","correct":true,"confidence":-1},{"trial_n":87,"span":8,"encoder":"84290962","distractor":"84290932","target":"present","response":"absent","rt":"14597.300000001","correct":false,"confidence":-1},{"trial_n":88,"span":7,"encoder":"6960389","distractor":"6960369","target":"present","response":"absent","rt":"3341.2999999989","correct":false,"confidence":-1},{"trial_n":89,"span":6,"encoder":"234530","distractor":"234534","target":"absent","response":"present","rt":"561.79999999888","correct":false,"confidence":-1},{"trial_n":90,"span":5,"encoder":"81484","distractor":"81984","target":"present","response":"absent","rt":"679.90000000037","correct":false,"confidence":-1},{"trial_n":91,"span":4,"encoder":"2082","distractor":"2089","target":"present","response":"present","rt":"1890.2000000011","correct":true,"confidence":5},{"trial_n":92,"span":4,"encoder":"5547","distractor":"3547","target":"absent","response":"absent","rt":"1563.6999999993","correct":true,"confidence":5},{"trial_n":93,"span":5,"encoder":"85303","distractor":"86303","target":"present","response":"present","rt":"1624.3999999985","correct":true,"confidence":5},{"trial_n":94,"span":5,"encoder":"87201","distractor":"87208","target":"present","response":"present","rt":"1716.6000000015","correct":true,"confidence":5},{"trial_n":95,"span":6,"encoder":"432412","distractor":"437412","target":"absent","response":"absent","rt":"2242.5","correct":true,"confidence":5},{"trial_n":96,"span":6,"encoder":"705000","distractor":"705020","target":"absent","response":"absent","rt":"2217.5","correct":true,"confidence":5},{"trial_n":97,"span":7,"encoder":"3107064","distractor":"3107069","target":"present","response":"present","rt":"1553.4000000004","correct":true,"confidence":5},{"trial_n":98,"span":7,"encoder":"3126007","distractor":"3126057","target":"present","response":"present","rt":"1725","correct":true,"confidence":5},{"trial_n":99,"span":8,"encoder":"80978525","distractor":"80978545","target":"present","response":"present","rt":"1169","correct":true,"confidence":4},{"trial_n":100,"span":8,"encoder":"27513589","distractor":"27513587","target":"present","response":"present","rt":"1997.4000000004","correct":true,"confidence":5},{"trial_n":101,"span":9,"encoder":"564236436","distractor":"564236036","target":"absent","response":"absent","rt":"1569.0999999996","correct":true,"confidence":5},{"trial_n":102,"span":9,"encoder":"506300619","distractor":"506300612","target":"absent","response":"absent","rt":"1454.2000000011","correct":true,"confidence":5},{"trial_n":103,"span":10,"encoder":"4756469760","distractor":"4756569760","target":"absent","response":"present","rt":"5325.6000000015","correct":false,"confidence":1},{"trial_n":104,"span":9,"encoder":"013651909","distractor":"513651909","target":"present","response":"present","rt":"5547.9000000004","correct":true,"confidence":1},{"trial_n":105,"span":9,"encoder":"823039345","distractor":"823239345","target":"present","response":"present","rt":"3007.9000000004","correct":true,"confidence":4},{"trial_n":106,"span":10,"encoder":"5448503609","distractor":"5440503609","target":"present","response":"present","rt":"4970.5999999996","correct":true,"confidence":1},{"trial_n":107,"span":10,"encoder":"1311230634","distractor":"1310230634","target":"absent","response":"absent","rt":"2148.3999999985","correct":true,"confidence":5},{"trial_n":108,"span":11,"encoder":"28682659616","distractor":"28682609616","target":"absent","response":"absent","rt":"1427.2999999989","correct":true,"confidence":1},{"trial_n":109,"span":11,"encoder":"27405438321","distractor":"27405438331","target":"present","response":"present","rt":"1601.1999999993","correct":true,"confidence":5},{"trial_n":110,"span":12,"encoder":"747802681063","distractor":"747802684063","target":"absent","response":"absent","rt":"3989.2000000011","correct":true,"confidence":2},{"trial_n":111,"span":12,"encoder":"617934209783","distractor":"617936209783","target":"present","response":"absent","rt":"3262.7999999989","correct":false,"confidence":1},{"trial_n":112,"span":11,"encoder":"11952113988","distractor":"15952113988","target":"absent","response":"absent","rt":"869.5","correct":true,"confidence":1},{"trial_n":113,"span":11,"encoder":"37349406078","distractor":"37319406078","target":"absent","response":"present","rt":"1508.5","correct":false,"confidence":1},{"trial_n":114,"span":10,"encoder":"8698412317","distractor":"8694412317","target":"present","response":"absent","rt":"5079.3000000007","correct":false,"confidence":1},{"trial_n":115,"span":9,"encoder":"439171011","distractor":"439671011","target":"absent","response":"absent","rt":"984.40000000037","correct":true,"confidence":1},{"trial_n":116,"span":9,"encoder":"948725172","distractor":"948724172","target":"present","response":"present","rt":"2472.7999999989","correct":true,"confidence":1},{"trial_n":117,"span":10,"encoder":"4539302563","distractor":"1539302563","target":"absent","response":"absent","rt":"4278.8000000007","correct":true,"confidence":3},{"trial_n":118,"span":10,"encoder":"4154159573","distractor":"4154152573","target":"absent","response":"absent","rt":"7205.0999999996","correct":true,"confidence":4},{"trial_n":119,"span":11,"encoder":"29079579105","distractor":"29079529105","target":"absent","response":"absent","rt":"1516.3000000007","correct":true,"confidence":1},{"trial_n":120,"span":11,"encoder":"61165435431","distractor":"41165435431","target":"present","response":"absent","rt":"656","correct":false,"confidence":1},{"trial_n":121,"span":10,"encoder":"7898975624","distractor":"7828975624","target":"present","response":"absent","rt":"620.69999999925","correct":false,"confidence":1},{"trial_n":122,"span":9,"encoder":"316964388","distractor":"316964383","target":"absent","response":"absent","rt":"810.90000000037","correct":true,"confidence":2},{"trial_n":123,"span":9,"encoder":"375097242","distractor":"375057242","target":"absent","response":"absent","rt":"413.19999999925","correct":true,"confidence":2},{"trial_n":124,"span":10,"encoder":"5514700043","distractor":"5594700043","target":"absent","response":"present","rt":"1792.7999999989","correct":false,"confidence":3},{"trial_n":125,"span":9,"encoder":"639390269","distractor":"639340269","target":"absent","response":"absent","rt":"756.29999999888","correct":true,"confidence":3},{"trial_n":126,"span":9,"encoder":"832959615","distractor":"832959515","target":"present","response":"present","rt":"3444.3000000007","correct":true,"confidence":2},{"trial_n":127,"span":10,"encoder":"8122132667","distractor":"8162132667","target":"absent","response":"absent","rt":"1170.1000000015","correct":true,"confidence":3},{"trial_n":128,"span":10,"encoder":"8588639670","distractor":"8588679670","target":"absent","response":"absent","rt":"1424.5999999996","correct":true,"confidence":1},{"trial_n":129,"span":11,"encoder":"58793414629","distractor":"58793414689","target":"present","response":"absent","rt":"832.20000000112","correct":false,"confidence":1},{"trial_n":130,"span":10,"encoder":"4106661462","distractor":"1106661462","target":"present","response":"absent","rt":"3011.5","correct":false,"confidence":1},{"trial_n":131,"span":9,"encoder":"666459628","distractor":"666455628","target":"present","response":"absent","rt":"2999.2999999989","correct":false,"confidence":1},{"trial_n":132,"span":8,"encoder":"65779874","distractor":"65779374","target":"present","response":"absent","rt":"3437.7000000011","correct":false,"confidence":1},{"trial_n":133,"span":7,"encoder":"5554579","distractor":"5574579","target":"present","response":"present","rt":"1926.5999999996","correct":true,"confidence":5},{"trial_n":134,"span":7,"encoder":"6487007","distractor":"6787007","target":"present","response":"present","rt":"3179","correct":true,"confidence":1},{"trial_n":135,"span":8,"encoder":"25859850","distractor":"25659850","target":"absent","response":"present","rt":"1841.3999999985","correct":false,"confidence":1},{"trial_n":136,"span":7,"encoder":"2084469","distractor":"2384469","target":"absent","response":"absent","rt":"1372.5999999996","correct":true,"confidence":4},{"trial_n":137,"span":7,"encoder":"7755280","distractor":"7055280","target":"absent","response":"absent","rt":"1386.5","correct":true,"confidence":5},{"trial_n":138,"span":8,"encoder":"69592588","distractor":"49592588","target":"present","response":"absent","rt":"2646.3999999985","correct":false,"confidence":3},{"trial_n":139,"span":7,"encoder":"2381739","distractor":"7381739","target":"present","response":"absent","rt":"609.29999999888","correct":false,"confidence":1},{"trial_n":140,"span":6,"encoder":"492945","distractor":"492949","target":"absent","response":"absent","rt":"1325.7999999989","correct":true,"confidence":5}]