[{"trial_n":1,"min":25,"max":230,"target":"present","response":"absent","rt":4380.3000000119,"correct":false,"confidence":-1},{"trial_n":2,"min":25,"max":230,"target":"present","response":"present","rt":1347.3000000119,"correct":true,"confidence":-1},{"trial_n":3,"min":25,"max":230,"target":"absent","response":"absent","rt":1430.7999999821,"correct":true,"confidence":-1},{"trial_n":4,"min":41,"max":214,"target":"absent","response":"absent","rt":718.59999999404,"correct":true,"confidence":-1},{"trial_n":5,"min":41,"max":214,"target":"present","response":"present","rt":1035.400000006,"correct":true,"confidence":-1},{"trial_n":6,"min":57,"max":198,"target":"absent","response":"absent","rt":718.09999999404,"correct":true,"confidence":-1},{"trial_n":7,"min":57,"max":198,"target":"present","response":"present","rt":534.79999998212,"correct":true,"confidence":-1},{"trial_n":8,"min":73,"max":182,"target":"absent","response":"absent","rt":610,"correct":true,"confidence":-1},{"trial_n":9,"min":73,"max":182,"target":"absent","response":"absent","rt":561.59999999404,"correct":true,"confidence":-1},{"trial_n":10,"min":89,"max":166,"target":"present","response":"absent","rt":564,"correct":false,"confidence":-1},{"trial_n":11,"min":81,"max":174,"target":"absent","response":"absent","rt":1453.900000006,"correct":true,"confidence":-1},{"trial_n":12,"min":81,"max":174,"target":"absent","response":"present","rt":818.69999998808,"correct":false,"confidence":-1},{"trial_n":13,"min":73,"max":182,"target":"present","response":"present","rt":989.5,"correct":true,"confidence":-1},{"trial_n":14,"min":73,"max":182,"target":"present","response":"present","rt":756.40000000596,"correct":true,"confidence":-1},{"trial_n":15,"min":81,"max":174,"target":"absent","response":"present","rt":826.80000001192,"correct":false,"confidence":-1},{"trial_n":16,"min":73,"max":182,"target":"present","response":"present","rt":838.80000001192,"correct":true,"confidence":-1},{"trial_n":17,"min":73,"max":182,"target":"absent","response":"absent","rt":694.19999998808,"correct":true,"confidence":-1},{"trial_n":18,"min":81,"max":174,"target":"present","response":"present","rt":934,"correct":true,"confidence":-1},{"trial_n":19,"min":81,"max":174,"target":"absent","response":"present","rt":978.09999999404,"correct":false,"confidence":-1},{"trial_n":20,"min":73,"max":182,"target":"present","response":"present","rt":1141.900000006,"correct":true,"confidence":-1},{"trial_n":21,"min":73,"max":182,"target":"present","response":"present","rt":1405.400000006,"correct":true,"confidence":4},{"trial_n":22,"min":77,"max":178,"target":"absent","response":"absent","rt":2771,"correct":true,"confidence":3},{"trial_n":23,"min":77,"max":178,"target":"absent","response":"present","rt":1474.2999999821,"correct":false,"confidence":3},{"trial_n":24,"min":73,"max":182,"target":"absent","response":"absent","rt":1872.599999994,"correct":true,"confidence":4},{"trial_n":25,"min":73,"max":182,"target":"absent","response":"present","rt":1098.099999994,"correct":false,"confidence":4},{"trial_n":26,"min":69,"max":186,"target":"present","response":"present","rt":926.70000001788,"correct":true,"confidence":5},{"trial_n":27,"min":69,"max":186,"target":"present","response":"absent","rt":1452.400000006,"correct":false,"confidence":2},{"trial_n":28,"min":65,"max":190,"target":"absent","response":"present","rt":1708,"correct":false,"confidence":3},{"trial_n":29,"min":61,"max":194,"target":"present","response":"present","rt":969.19999998808,"correct":true,"confidence":5},{"trial_n":30,"min":61,"max":194,"target":"absent","response":"absent","rt":1331.8000000119,"correct":true,"confidence":4},{"trial_n":31,"min":63,"max":192,"target":"absent","response":"absent","rt":1433.6999999881,"correct":true,"confidence":3},{"trial_n":32,"min":63,"max":192,"target":"absent","response":"absent","rt":1016.900000006,"correct":true,"confidence":3},{"trial_n":33,"min":65,"max":190,"target":"present","response":"present","rt":1355,"correct":true,"confidence":4},{"trial_n":34,"min":65,"max":190,"target":"absent","response":"absent","rt":1011.5,"correct":true,"confidence":4},{"trial_n":35,"min":67,"max":188,"target":"present","response":"present","rt":1052,"correct":true,"confidence":5},{"trial_n":36,"min":67,"max":188,"target":"present","response":"present","rt":1019.599999994,"correct":true,"confidence":5},{"trial_n":37,"min":69,"max":186,"target":"absent","response":"present","rt":794.80000001192,"correct":false,"confidence":3},{"trial_n":38,"min":67,"max":188,"target":"absent","response":"absent","rt":1057.6000000238,"correct":true,"confidence":3},{"trial_n":39,"min":67,"max":188,"target":"present","response":"present","rt":1403.8000000119,"correct":true,"confidence":2},{"trial_n":40,"min":69,"max":186,"target":"present","response":"present","rt":1004.3000000119,"correct":true,"confidence":5},{"trial_n":41,"min":69,"max":186,"target":"absent","response":"absent","rt":853,"correct":true,"confidence":3},{"trial_n":42,"min":70,"max":185,"target":"present","response":"present","rt":756.90000000596,"correct":true,"confidence":4},{"trial_n":43,"min":70,"max":185,"target":"absent","response":"absent","rt":3229,"correct":true,"confidence":1},{"trial_n":44,"min":71,"max":184,"target":"present","response":"present","rt":642.59999999404,"correct":true,"confidence":5},{"trial_n":45,"min":71,"max":184,"target":"present","response":"present","rt":699.5,"correct":true,"confidence":4},{"trial_n":46,"min":72,"max":183,"target":"present","response":"present","rt":899.40000000596,"correct":true,"confidence":4},{"trial_n":47,"min":72,"max":183,"target":"absent","response":"absent","rt":824,"correct":true,"confidence":3},{"trial_n":48,"min":73,"max":182,"target":"present","response":"present","rt":2720.1999999881,"correct":true,"confidence":2},{"trial_n":49,"min":73,"max":182,"target":"present","response":"present","rt":853.5,"correct":true,"confidence":4},{"trial_n":50,"min":74,"max":181,"target":"present","response":"present","rt":1754.1999999881,"correct":true,"confidence":4},{"trial_n":51,"min":74,"max":181,"target":"present","response":"absent","rt":1392.1000000238,"correct":false,"confidence":3},{"trial_n":52,"min":73,"max":182,"target":"absent","response":"absent","rt":1032.7999999821,"correct":true,"confidence":2},{"trial_n":53,"min":73,"max":182,"target":"present","response":"absent","rt":1190.7999999821,"correct":false,"confidence":3},{"trial_n":54,"min":72,"max":183,"target":"present","response":"present","rt":744.10000002384,"correct":true,"confidence":4},{"trial_n":55,"min":72,"max":183,"target":"present","response":"present","rt":1788.099999994,"correct":true,"confidence":4},{"trial_n":56,"min":73,"max":182,"target":"present","response":"absent","rt":1243.2999999821,"correct":false,"confidence":2},{"trial_n":57,"min":72,"max":183,"target":"present","response":"present","rt":895.09999999404,"correct":true,"confidence":3},{"trial_n":58,"min":72,"max":183,"target":"absent","response":"absent","rt":832.30000001192,"correct":true,"confidence":4},{"trial_n":59,"min":73,"max":182,"target":"absent","response":"absent","rt":792.20000001788,"correct":true,"confidence":5},{"trial_n":60,"min":73,"max":182,"target":"absent","response":"absent","rt":2528,"correct":true,"confidence":5},{"trial_n":61,"min":74,"max":181,"target":"present","response":"present","rt":1322.5,"correct":true,"confidence":3},{"trial_n":62,"min":74,"max":181,"target":"absent","response":"absent","rt":1050.1999999881,"correct":true,"confidence":4},{"trial_n":63,"min":75,"max":180,"target":"absent","response":"absent","rt":729.90000000596,"correct":true,"confidence":5},{"trial_n":64,"min":75,"max":180,"target":"present","response":"present","rt":1271.2999999821,"correct":true,"confidence":3},{"trial_n":65,"min":76,"max":179,"target":"absent","response":"absent","rt":1386.7999999821,"correct":true,"confidence":1},{"trial_n":66,"min":76,"max":179,"target":"present","response":"present","rt":785.89999997616,"correct":true,"confidence":4},{"trial_n":67,"min":77,"max":178,"target":"absent","response":"absent","rt":846.09999999404,"correct":true,"confidence":4},{"trial_n":68,"min":77,"max":178,"target":"absent","response":"absent","rt":2309.2000000179,"correct":true,"confidence":4},{"trial_n":69,"min":78,"max":177,"target":"absent","response":"absent","rt":854.5,"correct":true,"confidence":4},{"trial_n":70,"min":78,"max":177,"target":"present","response":"present","rt":762.40000000596,"correct":true,"confidence":3},{"trial_n":71,"min":41,"max":214,"target":"present","response":"present","rt":3515.7000000179,"correct":true,"confidence":-1},{"trial_n":72,"min":41,"max":214,"target":"present","response":"present","rt":2233.3000000119,"correct":true,"confidence":-1},{"trial_n":73,"min":57,"max":198,"target":"absent","response":"absent","rt":1902.8000000119,"correct":true,"confidence":-1},{"trial_n":74,"min":57,"max":198,"target":"absent","response":"absent","rt":1595.6999999881,"correct":true,"confidence":-1},{"trial_n":75,"min":73,"max":182,"target":"present","response":"present","rt":914.39999997616,"correct":true,"confidence":-1},{"trial_n":76,"min":73,"max":182,"target":"absent","response":"absent","rt":1086,"correct":true,"confidence":-1},{"trial_n":77,"min":89,"max":166,"target":"absent","response":"absent","rt":2001.900000006,"correct":true,"confidence":-1},{"trial_n":78,"min":89,"max":166,"target":"absent","response":"absent","rt":846.30000001192,"correct":true,"confidence":-1},{"trial_n":79,"min":105,"max":150,"target":"present","response":"absent","rt":631.59999999404,"correct":false,"confidence":-1},{"trial_n":80,"min":89,"max":166,"target":"absent","response":"present","rt":2066.2000000179,"correct":false,"confidence":-1},{"trial_n":81,"min":81,"max":174,"target":"absent","response":"present","rt":859,"correct":false,"confidence":-1},{"trial_n":82,"min":73,"max":182,"target":"absent","response":"absent","rt":1231.1999999881,"correct":true,"confidence":-1},{"trial_n":83,"min":73,"max":182,"target":"present","response":"present","rt":958.60000002384,"correct":true,"confidence":-1},{"trial_n":84,"min":81,"max":174,"target":"absent","response":"present","rt":976,"correct":false,"confidence":-1},{"trial_n":85,"min":73,"max":182,"target":"present","response":"present","rt":1471.6000000238,"correct":true,"confidence":-1},{"trial_n":86,"min":73,"max":182,"target":"absent","response":"absent","rt":1705.099999994,"correct":true,"confidence":-1},{"trial_n":87,"min":81,"max":174,"target":"absent","response":"absent","rt":654.59999999404,"correct":true,"confidence":-1},{"trial_n":88,"min":81,"max":174,"target":"present","response":"absent","rt":549,"correct":false,"confidence":-1},{"trial_n":89,"min":73,"max":182,"target":"present","response":"present","rt":789.5,"correct":true,"confidence":-1},{"trial_n":90,"min":73,"max":182,"target":"absent","response":"present","rt":680.59999999404,"correct":false,"confidence":-1},{"trial_n":91,"min":69,"max":186,"target":"absent","response":"absent","rt":1118.599999994,"correct":true,"confidence":4},{"trial_n":92,"min":69,"max":186,"target":"absent","response":"absent","rt":1294.8000000119,"correct":true,"confidence":5},{"trial_n":93,"min":73,"max":182,"target":"present","response":"present","rt":662.79999998212,"correct":true,"confidence":5},{"trial_n":94,"min":73,"max":182,"target":"present","response":"present","rt":1036.8999999762,"correct":true,"confidence":4},{"trial_n":95,"min":77,"max":178,"target":"present","response":"present","rt":925.09999999404,"correct":true,"confidence":4},{"trial_n":96,"min":77,"max":178,"target":"absent","response":"absent","rt":990.79999998212,"correct":true,"confidence":4},{"trial_n":97,"min":81,"max":174,"target":"present","response":"absent","rt":1302.5,"correct":false,"confidence":2},{"trial_n":98,"min":77,"max":178,"target":"present","response":"present","rt":777.90000000596,"correct":true,"confidence":3},{"trial_n":99,"min":77,"max":178,"target":"present","response":"present","rt":707.30000001192,"correct":true,"confidence":3},{"trial_n":100,"min":81,"max":174,"target":"absent","response":"present","rt":1659.8000000119,"correct":false,"confidence":1},{"trial_n":101,"min":79,"max":176,"target":"present","response":"present","rt":668.59999999404,"correct":true,"confidence":3},{"trial_n":102,"min":79,"max":176,"target":"present","response":"present","rt":1127.3000000119,"correct":true,"confidence":2},{"trial_n":103,"min":81,"max":174,"target":"present","response":"present","rt":944.5,"correct":true,"confidence":3},{"trial_n":104,"min":81,"max":174,"target":"present","response":"present","rt":1117.400000006,"correct":true,"confidence":1},{"trial_n":105,"min":83,"max":172,"target":"present","response":"present","rt":871,"correct":true,"confidence":2},{"trial_n":106,"min":83,"max":172,"target":"absent","response":"present","rt":2045.2999999821,"correct":false,"confidence":1},{"trial_n":107,"min":81,"max":174,"target":"absent","response":"absent","rt":997.09999999404,"correct":true,"confidence":3},{"trial_n":108,"min":81,"max":174,"target":"present","response":"present","rt":713.09999999404,"correct":true,"confidence":4},{"trial_n":109,"min":83,"max":172,"target":"present","response":"absent","rt":1276,"correct":false,"confidence":2},{"trial_n":110,"min":81,"max":174,"target":"present","response":"absent","rt":1404,"correct":false,"confidence":2},{"trial_n":111,"min":80,"max":175,"target":"present","response":"present","rt":1287.3000000119,"correct":true,"confidence":5},{"trial_n":112,"min":80,"max":175,"target":"present","response":"absent","rt":1077.5,"correct":false,"confidence":3},{"trial_n":113,"min":79,"max":176,"target":"absent","response":"absent","rt":1335.099999994,"correct":true,"confidence":3},{"trial_n":114,"min":79,"max":176,"target":"absent","response":"absent","rt":3299.1000000238,"correct":true,"confidence":2},{"trial_n":115,"min":80,"max":175,"target":"absent","response":"absent","rt":1659.400000006,"correct":true,"confidence":1},{"trial_n":116,"min":80,"max":175,"target":"absent","response":"absent","rt":1276.599999994,"correct":true,"confidence":4},{"trial_n":117,"min":81,"max":174,"target":"present","response":"present","rt":1003.900000006,"correct":true,"confidence":4},{"trial_n":118,"min":81,"max":174,"target":"absent","response":"absent","rt":1515.3000000119,"correct":true,"confidence":3},{"trial_n":119,"min":82,"max":173,"target":"present","response":"present","rt":3600.599999994,"correct":true,"confidence":1},{"trial_n":120,"min":82,"max":173,"target":"present","response":"present","rt":1029.1000000238,"correct":true,"confidence":3},{"trial_n":121,"min":83,"max":172,"target":"absent","response":"absent","rt":1690,"correct":true,"confidence":2},{"trial_n":122,"min":83,"max":172,"target":"absent","response":"absent","rt":1042.7000000179,"correct":true,"confidence":3},{"trial_n":123,"min":84,"max":171,"target":"absent","response":"absent","rt":1312,"correct":true,"confidence":3},{"trial_n":124,"min":84,"max":171,"target":"present","response":"absent","rt":3192.599999994,"correct":false,"confidence":1},{"trial_n":125,"min":83,"max":172,"target":"present","response":"absent","rt":1435.099999994,"correct":false,"confidence":1},{"trial_n":126,"min":82,"max":173,"target":"absent","response":"absent","rt":1303.5,"correct":true,"confidence":3},{"trial_n":127,"min":82,"max":173,"target":"absent","response":"absent","rt":915.5,"correct":true,"confidence":3},{"trial_n":128,"min":83,"max":172,"target":"absent","response":"absent","rt":876.80000001192,"correct":true,"confidence":4},{"trial_n":129,"min":83,"max":172,"target":"present","response":"present","rt":1301.8999999762,"correct":true,"confidence":2},{"trial_n":130,"min":84,"max":171,"target":"absent","response":"absent","rt":1802.2000000179,"correct":true,"confidence":4},{"trial_n":131,"min":84,"max":171,"target":"present","response":"present","rt":1763.6000000238,"correct":true,"confidence":3},{"trial_n":132,"min":85,"max":170,"target":"present","response":"present","rt":794.5,"correct":true,"confidence":5},{"trial_n":133,"min":85,"max":170,"target":"absent","response":"absent","rt":1444.1000000238,"correct":true,"confidence":3},{"trial_n":134,"min":86,"max":169,"target":"present","response":"present","rt":987.69999998808,"correct":true,"confidence":3},{"trial_n":135,"min":86,"max":169,"target":"absent","response":"absent","rt":921.30000001192,"correct":true,"confidence":1},{"trial_n":136,"min":87,"max":168,"target":"present","response":"present","rt":784.29999998212,"correct":true,"confidence":3},{"trial_n":137,"min":87,"max":168,"target":"present","response":"present","rt":884.89999997616,"correct":true,"confidence":4},{"trial_n":138,"min":88,"max":167,"target":"absent","response":"absent","rt":1235.1999999881,"correct":true,"confidence":2},{"trial_n":139,"min":88,"max":167,"target":"absent","response":"absent","rt":1581.400000006,"correct":true,"confidence":2},{"trial_n":140,"min":89,"max":166,"target":"present","response":"absent","rt":1409.900000006,"correct":false,"confidence":2}]