[{"trial_n":1,"span":8,"encoder":"54141178","distractor":"54141978","target":"present","response":"present","rt":"7561","correct":true,"confidence":-1},{"trial_n":2,"span":8,"encoder":"84105818","distractor":"14105818","target":"present","response":"present","rt":"3270","correct":true,"confidence":-1},{"trial_n":3,"span":10,"encoder":"9097386530","distractor":"6097386530","target":"absent","response":"present","rt":"4109","correct":false,"confidence":-1},{"trial_n":4,"span":8,"encoder":"50150372","distractor":"50153372","target":"absent","response":"present","rt":"2861","correct":false,"confidence":-1},{"trial_n":5,"span":6,"encoder":"137051","distractor":"137451","target":"present","response":"present","rt":"2521","correct":true,"confidence":-1},{"trial_n":6,"span":6,"encoder":"196162","distractor":"196167","target":"present","response":"present","rt":"2231","correct":true,"confidence":-1},{"trial_n":7,"span":8,"encoder":"03774515","distractor":"93774515","target":"present","response":"absent","rt":"2368","correct":false,"confidence":-1},{"trial_n":8,"span":6,"encoder":"508550","distractor":"502550","target":"absent","response":"absent","rt":"3152","correct":true,"confidence":-1},{"trial_n":9,"span":6,"encoder":"667904","distractor":"667404","target":"absent","response":"absent","rt":"2603","correct":true,"confidence":-1},{"trial_n":10,"span":8,"encoder":"20974365","distractor":"60974365","target":"present","response":"present","rt":"3118","correct":true,"confidence":-1},{"trial_n":11,"span":8,"encoder":"78029733","distractor":"78029833","target":"present","response":"absent","rt":"2144","correct":false,"confidence":-1},{"trial_n":12,"span":7,"encoder":"3397645","distractor":"3397655","target":"absent","response":"absent","rt":"5601","correct":true,"confidence":-1},{"trial_n":13,"span":7,"encoder":"1899327","distractor":"1899347","target":"present","response":"present","rt":"3314","correct":true,"confidence":-1},{"trial_n":14,"span":8,"encoder":"95393380","distractor":"95393390","target":"present","response":"present","rt":"1896","correct":true,"confidence":-1},{"trial_n":15,"span":8,"encoder":"36724910","distractor":"36724919","target":"absent","response":"absent","rt":"2268","correct":true,"confidence":-1},{"trial_n":16,"span":9,"encoder":"225817014","distractor":"225817064","target":"present","response":"absent","rt":"3800","correct":false,"confidence":-1},{"trial_n":17,"span":8,"encoder":"08752662","distractor":"08750662","target":"present","response":"present","rt":"1810","correct":true,"confidence":-1},{"trial_n":18,"span":8,"encoder":"59049860","distractor":"59049890","target":"present","response":"present","rt":"2032","correct":true,"confidence":-1},{"trial_n":19,"span":9,"encoder":"978875510","distractor":"978871510","target":"absent","response":"present","rt":"3441","correct":false,"confidence":-1},{"trial_n":20,"span":8,"encoder":"20235643","distractor":"26235643","target":"absent","response":"present","rt":"2509","correct":false,"confidence":-1},{"trial_n":21,"span":7,"encoder":"2451516","distractor":"2431516","target":"present","response":"present","rt":"3050","correct":true,"confidence":4},{"trial_n":22,"span":7,"encoder":"3019228","distractor":"3019218","target":"absent","response":"present","rt":"2961","correct":false,"confidence":3},{"trial_n":23,"span":6,"encoder":"443968","distractor":"843968","target":"present","response":"present","rt":"3312","correct":true,"confidence":3},{"trial_n":24,"span":6,"encoder":"400515","distractor":"490515","target":"present","response":"present","rt":"4817","correct":true,"confidence":3},{"trial_n":25,"span":7,"encoder":"2392195","distractor":"2392595","target":"present","response":"present","rt":"2947","correct":true,"confidence":4},{"trial_n":26,"span":7,"encoder":"1853054","distractor":"1853074","target":"absent","response":"absent","rt":"4886","correct":true,"confidence":2},{"trial_n":27,"span":8,"encoder":"97793340","distractor":"97793140","target":"absent","response":"present","rt":"2556","correct":false,"confidence":3},{"trial_n":28,"span":7,"encoder":"6829765","distractor":"6829365","target":"present","response":"present","rt":"3261","correct":true,"confidence":2},{"trial_n":29,"span":7,"encoder":"4586171","distractor":"4586131","target":"present","response":"present","rt":"3093.0000000001","correct":true,"confidence":3},{"trial_n":30,"span":8,"encoder":"49783296","distractor":"46783296","target":"absent","response":"present","rt":"3680","correct":false,"confidence":2},{"trial_n":31,"span":7,"encoder":"2257001","distractor":"1257001","target":"present","response":"present","rt":"2390","correct":true,"confidence":3},{"trial_n":32,"span":7,"encoder":"8001243","distractor":"8091243","target":"absent","response":"absent","rt":"2219.0000000001","correct":true,"confidence":3},{"trial_n":33,"span":8,"encoder":"00469062","distractor":"01469062","target":"absent","response":"absent","rt":"2438","correct":true,"confidence":3},{"trial_n":34,"span":8,"encoder":"64569869","distractor":"64569860","target":"absent","response":"absent","rt":"2549.9999999999","correct":true,"confidence":3},{"trial_n":35,"span":9,"encoder":"216984725","distractor":"218984725","target":"present","response":"present","rt":"2574","correct":true,"confidence":3},{"trial_n":36,"span":9,"encoder":"644156201","distractor":"644756201","target":"absent","response":"present","rt":"2080","correct":false,"confidence":3},{"trial_n":37,"span":8,"encoder":"22588404","distractor":"22583404","target":"present","response":"present","rt":"2655","correct":true,"confidence":4},{"trial_n":38,"span":8,"encoder":"99462642","distractor":"99468642","target":"absent","response":"present","rt":"1808","correct":false,"confidence":3},{"trial_n":39,"span":7,"encoder":"7162266","distractor":"7162276","target":"absent","response":"present","rt":"2552","correct":false,"confidence":3},{"trial_n":40,"span":6,"encoder":"913782","distractor":"913742","target":"absent","response":"absent","rt":"2992","correct":true,"confidence":3},{"trial_n":41,"span":6,"encoder":"670637","distractor":"670437","target":"absent","response":"absent","rt":"3521","correct":true,"confidence":3},{"trial_n":42,"span":7,"encoder":"7690621","distractor":"7890621","target":"absent","response":"present","rt":"1610","correct":false,"confidence":4},{"trial_n":43,"span":6,"encoder":"432225","distractor":"431225","target":"present","response":"present","rt":"2035.9999999999","correct":true,"confidence":4},{"trial_n":44,"span":6,"encoder":"251929","distractor":"251129","target":"absent","response":"absent","rt":"3326","correct":true,"confidence":4},{"trial_n":45,"span":7,"encoder":"5730868","distractor":"5730268","target":"absent","response":"present","rt":"5279","correct":false,"confidence":3},{"trial_n":46,"span":6,"encoder":"255637","distractor":"755637","target":"absent","response":"present","rt":"1692","correct":false,"confidence":4},{"trial_n":47,"span":5,"encoder":"14206","distractor":"14201","target":"present","response":"present","rt":"2111.9999999999","correct":true,"confidence":5},{"trial_n":48,"span":5,"encoder":"45449","distractor":"45469","target":"absent","response":"present","rt":"7810","correct":false,"confidence":3},{"trial_n":49,"span":4,"encoder":"5651","distractor":"7651","target":"absent","response":"absent","rt":"2200.0000000001","correct":true,"confidence":5},{"trial_n":50,"span":4,"encoder":"6664","distractor":"6564","target":"absent","response":"absent","rt":"2260","correct":true,"confidence":5},{"trial_n":51,"span":5,"encoder":"14563","distractor":"16563","target":"absent","response":"absent","rt":"2031.9999999999","correct":true,"confidence":3},{"trial_n":52,"span":5,"encoder":"12961","distractor":"13961","target":"absent","response":"absent","rt":"1452.0000000001","correct":true,"confidence":5},{"trial_n":53,"span":6,"encoder":"018280","distractor":"018288","target":"present","response":"present","rt":"2384","correct":true,"confidence":3},{"trial_n":54,"span":6,"encoder":"292833","distractor":"992833","target":"absent","response":"absent","rt":"2157","correct":true,"confidence":5},{"trial_n":55,"span":7,"encoder":"9973520","distractor":"8973520","target":"present","response":"absent","rt":"3708","correct":false,"confidence":3},{"trial_n":56,"span":6,"encoder":"607310","distractor":"667310","target":"absent","response":"present","rt":"3217","correct":false,"confidence":3},{"trial_n":57,"span":5,"encoder":"37094","distractor":"37034","target":"present","response":"present","rt":"2926","correct":true,"confidence":4},{"trial_n":58,"span":5,"encoder":"93892","distractor":"93392","target":"present","response":"present","rt":"2446","correct":true,"confidence":4},{"trial_n":59,"span":6,"encoder":"970257","distractor":"970557","target":"present","response":"present","rt":"5519","correct":true,"confidence":3},{"trial_n":60,"span":6,"encoder":"070439","distractor":"070437","target":"absent","response":"absent","rt":"3131","correct":true,"confidence":3},{"trial_n":61,"span":7,"encoder":"4457062","distractor":"4454062","target":"present","response":"present","rt":"2384","correct":true,"confidence":3},{"trial_n":62,"span":7,"encoder":"9261395","distractor":"9267395","target":"present","response":"absent","rt":"3199","correct":false,"confidence":3},{"trial_n":63,"span":6,"encoder":"303724","distractor":"343724","target":"present","response":"present","rt":"2233","correct":true,"confidence":3},{"trial_n":64,"span":6,"encoder":"868405","distractor":"828405","target":"absent","response":"absent","rt":"3140","correct":true,"confidence":3},{"trial_n":65,"span":7,"encoder":"2889040","distractor":"2849040","target":"present","response":"present","rt":"2305","correct":true,"confidence":4},{"trial_n":66,"span":7,"encoder":"7446728","distractor":"7445728","target":"present","response":"present","rt":"1616","correct":true,"confidence":4},{"trial_n":67,"span":8,"encoder":"28668927","distractor":"28668827","target":"present","response":"present","rt":"1969.9999999999","correct":true,"confidence":4},{"trial_n":68,"span":8,"encoder":"39457374","distractor":"39457074","target":"absent","response":"absent","rt":"2570","correct":true,"confidence":4},{"trial_n":69,"span":9,"encoder":"410552622","distractor":"910552622","target":"present","response":"present","rt":"3175","correct":true,"confidence":3},{"trial_n":70,"span":9,"encoder":"684592042","distractor":"684591042","target":"present","response":"present","rt":"2536.9999999999","correct":true,"confidence":2},{"trial_n":71,"span":8,"encoder":"91234315","distractor":"91234345","target":"present","response":"present","rt":"4216","correct":true,"confidence":-1},{"trial_n":72,"span":8,"encoder":"81575235","distractor":"41575235","target":"present","response":"present","rt":"5189","correct":true,"confidence":-1},{"trial_n":73,"span":9,"encoder":"181608415","distractor":"381608415","target":"absent","response":"absent","rt":"2737","correct":true,"confidence":-1},{"trial_n":74,"span":9,"encoder":"561540762","distractor":"561580762","target":"absent","response":"absent","rt":"4386","correct":true,"confidence":-1},{"trial_n":75,"span":10,"encoder":"3895426056","distractor":"3890426056","target":"present","response":"present","rt":"4941","correct":true,"confidence":-1},{"trial_n":76,"span":10,"encoder":"4764291569","distractor":"4763291569","target":"present","response":"absent","rt":"3785","correct":false,"confidence":-1},{"trial_n":77,"span":9,"encoder":"965057747","distractor":"965057741","target":"absent","response":"absent","rt":"5213","correct":true,"confidence":-1},{"trial_n":78,"span":9,"encoder":"653663660","distractor":"553663660","target":"absent","response":"absent","rt":"7336","correct":true,"confidence":-1},{"trial_n":79,"span":10,"encoder":"5983653781","distractor":"5983453781","target":"absent","response":"absent","rt":"4177","correct":true,"confidence":-1},{"trial_n":80,"span":10,"encoder":"8440342826","distractor":"8440352826","target":"absent","response":"present","rt":"6962","correct":false,"confidence":-1},{"trial_n":81,"span":9,"encoder":"928315159","distractor":"928315109","target":"absent","response":"absent","rt":"2658","correct":true,"confidence":-1},{"trial_n":82,"span":9,"encoder":"490683631","distractor":"490683638","target":"present","response":"present","rt":"2499","correct":true,"confidence":-1},{"trial_n":83,"span":10,"encoder":"8532290054","distractor":"8572290054","target":"present","response":"absent","rt":"3823","correct":false,"confidence":-1},{"trial_n":84,"span":9,"encoder":"899738567","distractor":"899738547","target":"absent","response":"absent","rt":"2145","correct":true,"confidence":-1},{"trial_n":85,"span":9,"encoder":"363250133","distractor":"363259133","target":"present","response":"present","rt":"4820","correct":true,"confidence":-1},{"trial_n":86,"span":10,"encoder":"7087250234","distractor":"7087950234","target":"present","response":"absent","rt":"5618","correct":false,"confidence":-1},{"trial_n":87,"span":9,"encoder":"506041694","distractor":"506001694","target":"absent","response":"absent","rt":"4063","correct":true,"confidence":-1},{"trial_n":88,"span":9,"encoder":"417506127","distractor":"417596127","target":"present","response":"absent","rt":"3538","correct":false,"confidence":-1},{"trial_n":89,"span":8,"encoder":"05052302","distractor":"02052302","target":"absent","response":"absent","rt":"2723","correct":true,"confidence":-1},{"trial_n":90,"span":8,"encoder":"43953491","distractor":"63953491","target":"absent","response":"absent","rt":"3700","correct":true,"confidence":-1},{"trial_n":91,"span":9,"encoder":"105800743","distractor":"125800743","target":"absent","response":"absent","rt":"5401","correct":true,"confidence":2},{"trial_n":92,"span":9,"encoder":"279276458","distractor":"279276450","target":"absent","response":"absent","rt":"4190","correct":true,"confidence":2},{"trial_n":93,"span":10,"encoder":"7773137168","distractor":"7773135168","target":"absent","response":"absent","rt":"4290.0000000001","correct":true,"confidence":3},{"trial_n":94,"span":10,"encoder":"4970132382","distractor":"4970932382","target":"present","response":"present","rt":"4934","correct":true,"confidence":3},{"trial_n":95,"span":11,"encoder":"32368775762","distractor":"32368375762","target":"absent","response":"present","rt":"7733","correct":false,"confidence":3},{"trial_n":96,"span":10,"encoder":"7106901840","distractor":"7106901240","target":"absent","response":"absent","rt":"2573","correct":true,"confidence":4},{"trial_n":97,"span":10,"encoder":"7703711104","distractor":"4703711104","target":"absent","response":"absent","rt":"4049","correct":true,"confidence":3},{"trial_n":98,"span":11,"encoder":"73998588775","distractor":"73398588775","target":"present","response":"present","rt":"4138","correct":true,"confidence":3},{"trial_n":99,"span":11,"encoder":"76415985224","distractor":"76415985204","target":"present","response":"present","rt":"2042.0000000001","correct":true,"confidence":4},{"trial_n":100,"span":12,"encoder":"687465254688","distractor":"687465253688","target":"absent","response":"absent","rt":"3267.0000000001","correct":true,"confidence":4},{"trial_n":101,"span":12,"encoder":"474369135028","distractor":"474369735028","target":"absent","response":"absent","rt":"3951","correct":true,"confidence":4},{"trial_n":102,"span":13,"encoder":"5295747640513","distractor":"5295742640513","target":"present","response":"present","rt":"5015","correct":true,"confidence":3},{"trial_n":103,"span":13,"encoder":"0708648829690","distractor":"0708648129690","target":"absent","response":"present","rt":"7180","correct":false,"confidence":2},{"trial_n":104,"span":12,"encoder":"836261290812","distractor":"836461290812","target":"absent","response":"absent","rt":"6962","correct":true,"confidence":2},{"trial_n":105,"span":12,"encoder":"258429209352","distractor":"268429209352","target":"present","response":"present","rt":"2855","correct":true,"confidence":4},{"trial_n":106,"span":13,"encoder":"7727456844147","distractor":"7727456944147","target":"present","response":"present","rt":"5603","correct":true,"confidence":4},{"trial_n":107,"span":13,"encoder":"8458689173084","distractor":"8458689973084","target":"absent","response":"absent","rt":"5391","correct":true,"confidence":3},{"trial_n":108,"span":14,"encoder":"05096176782965","distractor":"05096166782965","target":"absent","response":"absent","rt":"4588","correct":true,"confidence":4},{"trial_n":109,"span":14,"encoder":"20532212888688","distractor":"20532282888688","target":"present","response":"absent","rt":"17886","correct":false,"confidence":1},{"trial_n":110,"span":13,"encoder":"6509824302176","distractor":"6509854302176","target":"present","response":"absent","rt":"6908","correct":false,"confidence":2},{"trial_n":111,"span":12,"encoder":"026143195642","distractor":"026143195647","target":"absent","response":"present","rt":"4884","correct":false,"confidence":2},{"trial_n":112,"span":11,"encoder":"73817832787","distractor":"73817839787","target":"present","response":"present","rt":"4594","correct":true,"confidence":1},{"trial_n":113,"span":11,"encoder":"21057569133","distractor":"21057589133","target":"present","response":"present","rt":"5821.0000000002","correct":true,"confidence":3},{"trial_n":114,"span":12,"encoder":"630796977916","distractor":"630776977916","target":"present","response":"absent","rt":"6925","correct":false,"confidence":2},{"trial_n":115,"span":11,"encoder":"74975950848","distractor":"74975950838","target":"present","response":"present","rt":"3163","correct":true,"confidence":4},{"trial_n":116,"span":11,"encoder":"65725631191","distractor":"65725631691","target":"absent","response":"absent","rt":"3743","correct":true,"confidence":3},{"trial_n":117,"span":12,"encoder":"203423315433","distractor":"203421315433","target":"present","response":"absent","rt":"6155","correct":false,"confidence":2},{"trial_n":118,"span":11,"encoder":"00510143044","distractor":"00500143044","target":"absent","response":"present","rt":"5483","correct":false,"confidence":3},{"trial_n":119,"span":10,"encoder":"7832732358","distractor":"7832733358","target":"present","response":"present","rt":"4990","correct":true,"confidence":2},{"trial_n":120,"span":10,"encoder":"5636275405","distractor":"5636775405","target":"present","response":"absent","rt":"5455","correct":false,"confidence":1},{"trial_n":121,"span":9,"encoder":"486650376","distractor":"486150376","target":"present","response":"present","rt":"3587","correct":true,"confidence":3},{"trial_n":122,"span":9,"encoder":"894002760","distractor":"854002760","target":"present","response":"present","rt":"3991","correct":true,"confidence":1},{"trial_n":123,"span":10,"encoder":"6624340940","distractor":"6624370940","target":"absent","response":"present","rt":"8066","correct":false,"confidence":2},{"trial_n":124,"span":9,"encoder":"729555672","distractor":"729655672","target":"present","response":"present","rt":"5425","correct":true,"confidence":2},{"trial_n":125,"span":9,"encoder":"004637334","distractor":"024637334","target":"absent","response":"present","rt":"5893","correct":false,"confidence":2},{"trial_n":126,"span":8,"encoder":"13323863","distractor":"16323863","target":"present","response":"present","rt":"2771","correct":true,"confidence":2},{"trial_n":127,"span":8,"encoder":"65929169","distractor":"55929169","target":"present","response":"present","rt":"3679","correct":true,"confidence":2},{"trial_n":128,"span":9,"encoder":"447600579","distractor":"447600559","target":"present","response":"present","rt":"5516","correct":true,"confidence":3},{"trial_n":129,"span":9,"encoder":"899355589","distractor":"899355509","target":"present","response":"present","rt":"4017.0000000002","correct":true,"confidence":3},{"trial_n":130,"span":10,"encoder":"8771898970","distractor":"8771898370","target":"absent","response":"absent","rt":"3726","correct":true,"confidence":3},{"trial_n":131,"span":10,"encoder":"5958087869","distractor":"5938087869","target":"present","response":"present","rt":"3271.0000000002","correct":true,"confidence":3},{"trial_n":132,"span":11,"encoder":"09748231576","distractor":"09748231586","target":"present","response":"present","rt":"4794","correct":true,"confidence":3},{"trial_n":133,"span":11,"encoder":"11331750756","distractor":"31331750756","target":"absent","response":"absent","rt":"5805","correct":true,"confidence":2},{"trial_n":134,"span":12,"encoder":"686119103215","distractor":"686199103215","target":"absent","response":"present","rt":"4509","correct":false,"confidence":2},{"trial_n":135,"span":11,"encoder":"50520811940","distractor":"50580811940","target":"absent","response":"absent","rt":"5142","correct":true,"confidence":2},{"trial_n":136,"span":11,"encoder":"96528213624","distractor":"96528213644","target":"present","response":"present","rt":"10860","correct":true,"confidence":2},{"trial_n":137,"span":12,"encoder":"619899534505","distractor":"619899544505","target":"absent","response":"absent","rt":"2460","correct":true,"confidence":2},{"trial_n":138,"span":12,"encoder":"471203689089","distractor":"471503689089","target":"present","response":"absent","rt":"8010.9999999998","correct":false,"confidence":2},{"trial_n":139,"span":11,"encoder":"50174745622","distractor":"50174745642","target":"present","response":"present","rt":"3624","correct":true,"confidence":2},{"trial_n":140,"span":11,"encoder":"08602856126","distractor":"08202856126","target":"absent","response":"present","rt":"4069","correct":false,"confidence":1}]