[{"trial_n":1,"min":25,"max":230,"target":"present","response":"absent","rt":4020,"correct":false,"confidence":-1},{"trial_n":2,"min":25,"max":230,"target":"present","response":"present","rt":1888,"correct":true,"confidence":-1},{"trial_n":3,"min":25,"max":230,"target":"absent","response":"absent","rt":2069,"correct":true,"confidence":-1},{"trial_n":4,"min":41,"max":214,"target":"absent","response":"absent","rt":1160,"correct":true,"confidence":-1},{"trial_n":5,"min":41,"max":214,"target":"present","response":"present","rt":1218,"correct":true,"confidence":-1},{"trial_n":6,"min":57,"max":198,"target":"present","response":"present","rt":1154,"correct":true,"confidence":-1},{"trial_n":7,"min":57,"max":198,"target":"present","response":"present","rt":1061,"correct":true,"confidence":-1},{"trial_n":8,"min":73,"max":182,"target":"present","response":"present","rt":1002,"correct":true,"confidence":-1},{"trial_n":9,"min":73,"max":182,"target":"present","response":"present","rt":1015,"correct":true,"confidence":-1},{"trial_n":10,"min":89,"max":166,"target":"absent","response":"absent","rt":1440,"correct":true,"confidence":-1},{"trial_n":11,"min":89,"max":166,"target":"absent","response":"absent","rt":1075,"correct":true,"confidence":-1},{"trial_n":12,"min":97,"max":158,"target":"absent","response":"absent","rt":984,"correct":true,"confidence":-1},{"trial_n":13,"min":97,"max":158,"target":"present","response":"present","rt":1556,"correct":true,"confidence":-1},{"trial_n":14,"min":105,"max":150,"target":"present","response":"present","rt":1068,"correct":true,"confidence":-1},{"trial_n":15,"min":105,"max":150,"target":"absent","response":"absent","rt":1138,"correct":true,"confidence":-1},{"trial_n":16,"min":113,"max":142,"target":"present","response":"present","rt":1822,"correct":true,"confidence":-1},{"trial_n":17,"min":113,"max":142,"target":"absent","response":"present","rt":866,"correct":false,"confidence":-1},{"trial_n":18,"min":105,"max":150,"target":"absent","response":"absent","rt":1265,"correct":true,"confidence":-1},{"trial_n":19,"min":105,"max":150,"target":"present","response":"absent","rt":1009,"correct":false,"confidence":-1},{"trial_n":20,"min":97,"max":158,"target":"absent","response":"absent","rt":1013,"correct":true,"confidence":-1},{"trial_n":21,"min":97,"max":158,"target":"present","response":"present","rt":1244,"correct":true,"confidence":3},{"trial_n":22,"min":101,"max":154,"target":"absent","response":"present","rt":1204,"correct":false,"confidence":3},{"trial_n":23,"min":97,"max":158,"target":"present","response":"absent","rt":1916,"correct":false,"confidence":2},{"trial_n":24,"min":93,"max":162,"target":"absent","response":"present","rt":1335,"correct":false,"confidence":3},{"trial_n":25,"min":89,"max":166,"target":"present","response":"absent","rt":2264,"correct":false,"confidence":2},{"trial_n":26,"min":85,"max":170,"target":"present","response":"present","rt":1062,"correct":true,"confidence":3},{"trial_n":27,"min":85,"max":170,"target":"present","response":"present","rt":1121,"correct":true,"confidence":4},{"trial_n":28,"min":89,"max":166,"target":"present","response":"present","rt":1425,"correct":true,"confidence":4},{"trial_n":29,"min":89,"max":166,"target":"absent","response":"present","rt":1158,"correct":false,"confidence":4},{"trial_n":30,"min":85,"max":170,"target":"absent","response":"absent","rt":1412,"correct":true,"confidence":3},{"trial_n":31,"min":85,"max":170,"target":"absent","response":"absent","rt":1375,"correct":true,"confidence":3},{"trial_n":32,"min":87,"max":168,"target":"present","response":"present","rt":1142,"correct":true,"confidence":3},{"trial_n":33,"min":87,"max":168,"target":"absent","response":"present","rt":1077,"correct":false,"confidence":4},{"trial_n":34,"min":85,"max":170,"target":"present","response":"present","rt":1251,"correct":true,"confidence":4},{"trial_n":35,"min":85,"max":170,"target":"absent","response":"present","rt":1409,"correct":false,"confidence":4},{"trial_n":36,"min":83,"max":172,"target":"present","response":"present","rt":1211,"correct":true,"confidence":4},{"trial_n":37,"min":83,"max":172,"target":"absent","response":"present","rt":1181,"correct":false,"confidence":3},{"trial_n":38,"min":81,"max":174,"target":"absent","response":"absent","rt":1225,"correct":true,"confidence":3},{"trial_n":39,"min":81,"max":174,"target":"absent","response":"present","rt":1219,"correct":false,"confidence":2},{"trial_n":40,"min":79,"max":176,"target":"present","response":"present","rt":1012,"correct":true,"confidence":5},{"trial_n":41,"min":79,"max":176,"target":"present","response":"present","rt":1265,"correct":true,"confidence":5},{"trial_n":42,"min":80,"max":175,"target":"present","response":"present","rt":1152,"correct":true,"confidence":5},{"trial_n":43,"min":80,"max":175,"target":"absent","response":"absent","rt":4070,"correct":true,"confidence":3},{"trial_n":44,"min":81,"max":174,"target":"absent","response":"absent","rt":1263,"correct":true,"confidence":3},{"trial_n":45,"min":81,"max":174,"target":"absent","response":"absent","rt":1273,"correct":true,"confidence":4},{"trial_n":46,"min":82,"max":173,"target":"present","response":"absent","rt":1585,"correct":false,"confidence":4},{"trial_n":47,"min":81,"max":174,"target":"present","response":"present","rt":1097,"correct":true,"confidence":3},{"trial_n":48,"min":81,"max":174,"target":"present","response":"present","rt":1021,"correct":true,"confidence":5},{"trial_n":49,"min":82,"max":173,"target":"present","response":"present","rt":1016,"correct":true,"confidence":4},{"trial_n":50,"min":82,"max":173,"target":"absent","response":"present","rt":1077,"correct":false,"confidence":3},{"trial_n":51,"min":81,"max":174,"target":"absent","response":"absent","rt":1408,"correct":true,"confidence":2},{"trial_n":52,"min":81,"max":174,"target":"absent","response":"present","rt":1263,"correct":false,"confidence":3},{"trial_n":53,"min":80,"max":175,"target":"absent","response":"absent","rt":1066,"correct":true,"confidence":5},{"trial_n":54,"min":80,"max":175,"target":"absent","response":"present","rt":1128,"correct":false,"confidence":3},{"trial_n":55,"min":79,"max":176,"target":"present","response":"present","rt":2183,"correct":true,"confidence":4},{"trial_n":56,"min":79,"max":176,"target":"absent","response":"present","rt":1005,"correct":false,"confidence":3},{"trial_n":57,"min":78,"max":177,"target":"absent","response":"present","rt":1669,"correct":false,"confidence":3},{"trial_n":58,"min":77,"max":178,"target":"absent","response":"absent","rt":1143,"correct":true,"confidence":5},{"trial_n":59,"min":77,"max":178,"target":"absent","response":"present","rt":976,"correct":false,"confidence":4},{"trial_n":60,"min":76,"max":179,"target":"present","response":"present","rt":944,"correct":true,"confidence":5},{"trial_n":61,"min":76,"max":179,"target":"present","response":"present","rt":919,"correct":true,"confidence":4},{"trial_n":62,"min":77,"max":178,"target":"present","response":"present","rt":905,"correct":true,"confidence":5},{"trial_n":63,"min":77,"max":178,"target":"present","response":"present","rt":898,"correct":true,"confidence":5},{"trial_n":64,"min":78,"max":177,"target":"present","response":"present","rt":937.00000000003,"correct":true,"confidence":5},{"trial_n":65,"min":78,"max":177,"target":"absent","response":"absent","rt":1223,"correct":true,"confidence":4},{"trial_n":66,"min":79,"max":176,"target":"absent","response":"absent","rt":1283,"correct":true,"confidence":5},{"trial_n":67,"min":79,"max":176,"target":"present","response":"present","rt":976,"correct":true,"confidence":5},{"trial_n":68,"min":80,"max":175,"target":"absent","response":"absent","rt":1477,"correct":true,"confidence":3},{"trial_n":69,"min":80,"max":175,"target":"present","response":"absent","rt":1182,"correct":false,"confidence":3},{"trial_n":70,"min":79,"max":176,"target":"present","response":"present","rt":1179,"correct":true,"confidence":5},{"trial_n":71,"min":41,"max":214,"target":"present","response":"absent","rt":3982,"correct":false,"confidence":-1},{"trial_n":72,"min":41,"max":214,"target":"present","response":"present","rt":2037.9999999999,"correct":true,"confidence":-1},{"trial_n":73,"min":41,"max":214,"target":"absent","response":"absent","rt":1260,"correct":true,"confidence":-1},{"trial_n":74,"min":57,"max":198,"target":"absent","response":"absent","rt":1127,"correct":true,"confidence":-1},{"trial_n":75,"min":57,"max":198,"target":"present","response":"present","rt":902,"correct":true,"confidence":-1},{"trial_n":76,"min":73,"max":182,"target":"absent","response":"absent","rt":909.00000000006,"correct":true,"confidence":-1},{"trial_n":77,"min":73,"max":182,"target":"present","response":"present","rt":989,"correct":true,"confidence":-1},{"trial_n":78,"min":89,"max":166,"target":"absent","response":"absent","rt":1469,"correct":true,"confidence":-1},{"trial_n":79,"min":89,"max":166,"target":"present","response":"present","rt":935,"correct":true,"confidence":-1},{"trial_n":80,"min":105,"max":150,"target":"absent","response":"absent","rt":1309,"correct":true,"confidence":-1},{"trial_n":81,"min":105,"max":150,"target":"absent","response":"present","rt":1797,"correct":false,"confidence":-1},{"trial_n":82,"min":97,"max":158,"target":"present","response":"present","rt":2124,"correct":true,"confidence":-1},{"trial_n":83,"min":97,"max":158,"target":"present","response":"present","rt":1007.0000000001,"correct":true,"confidence":-1},{"trial_n":84,"min":105,"max":150,"target":"absent","response":"present","rt":908,"correct":false,"confidence":-1},{"trial_n":85,"min":97,"max":158,"target":"present","response":"present","rt":1014,"correct":true,"confidence":-1},{"trial_n":86,"min":97,"max":158,"target":"absent","response":"absent","rt":1023,"correct":true,"confidence":-1},{"trial_n":87,"min":105,"max":150,"target":"present","response":"present","rt":966,"correct":true,"confidence":-1},{"trial_n":88,"min":105,"max":150,"target":"absent","response":"present","rt":952,"correct":false,"confidence":-1},{"trial_n":89,"min":97,"max":158,"target":"present","response":"present","rt":1015,"correct":true,"confidence":-1},{"trial_n":90,"min":97,"max":158,"target":"present","response":"present","rt":899,"correct":true,"confidence":-1},{"trial_n":91,"min":101,"max":154,"target":"present","response":"present","rt":1085,"correct":true,"confidence":3},{"trial_n":92,"min":101,"max":154,"target":"absent","response":"present","rt":874,"correct":false,"confidence":4},{"trial_n":93,"min":97,"max":158,"target":"absent","response":"present","rt":1145,"correct":false,"confidence":4},{"trial_n":94,"min":93,"max":162,"target":"present","response":"present","rt":1046.9999999999,"correct":true,"confidence":4},{"trial_n":95,"min":93,"max":162,"target":"absent","response":"present","rt":1055,"correct":false,"confidence":4},{"trial_n":96,"min":89,"max":166,"target":"absent","response":"present","rt":917,"correct":false,"confidence":3},{"trial_n":97,"min":85,"max":170,"target":"present","response":"present","rt":968,"correct":true,"confidence":4},{"trial_n":98,"min":85,"max":170,"target":"absent","response":"present","rt":1037,"correct":false,"confidence":3},{"trial_n":99,"min":81,"max":174,"target":"absent","response":"present","rt":1180.9999999999,"correct":false,"confidence":3},{"trial_n":100,"min":77,"max":178,"target":"absent","response":"absent","rt":1425,"correct":true,"confidence":2},{"trial_n":101,"min":77,"max":178,"target":"absent","response":"absent","rt":1210,"correct":true,"confidence":4},{"trial_n":102,"min":79,"max":176,"target":"present","response":"present","rt":1046,"correct":true,"confidence":5},{"trial_n":103,"min":79,"max":176,"target":"present","response":"present","rt":967,"correct":true,"confidence":5},{"trial_n":104,"min":81,"max":174,"target":"present","response":"present","rt":1236.9999999999,"correct":true,"confidence":5},{"trial_n":105,"min":81,"max":174,"target":"absent","response":"present","rt":1264,"correct":false,"confidence":4},{"trial_n":106,"min":79,"max":176,"target":"absent","response":"absent","rt":1034,"correct":true,"confidence":4},{"trial_n":107,"min":79,"max":176,"target":"present","response":"present","rt":1105,"correct":true,"confidence":5},{"trial_n":108,"min":81,"max":174,"target":"present","response":"present","rt":878,"correct":true,"confidence":3},{"trial_n":109,"min":81,"max":174,"target":"present","response":"present","rt":887,"correct":true,"confidence":4},{"trial_n":110,"min":83,"max":172,"target":"present","response":"present","rt":1187,"correct":true,"confidence":5},{"trial_n":111,"min":83,"max":172,"target":"present","response":"present","rt":2091,"correct":true,"confidence":5},{"trial_n":112,"min":84,"max":171,"target":"present","response":"present","rt":907,"correct":true,"confidence":5},{"trial_n":113,"min":84,"max":171,"target":"absent","response":"absent","rt":1282.9999999999,"correct":true,"confidence":4},{"trial_n":114,"min":85,"max":170,"target":"absent","response":"absent","rt":1902.0000000001,"correct":true,"confidence":3},{"trial_n":115,"min":85,"max":170,"target":"present","response":"present","rt":974.00000000006,"correct":true,"confidence":5},{"trial_n":116,"min":86,"max":169,"target":"absent","response":"present","rt":1243,"correct":false,"confidence":5},{"trial_n":117,"min":85,"max":170,"target":"absent","response":"present","rt":1079,"correct":false,"confidence":5},{"trial_n":118,"min":84,"max":171,"target":"present","response":"present","rt":822,"correct":true,"confidence":5},{"trial_n":119,"min":84,"max":171,"target":"present","response":"present","rt":767,"correct":true,"confidence":5},{"trial_n":120,"min":85,"max":170,"target":"present","response":"present","rt":901,"correct":true,"confidence":4},{"trial_n":121,"min":85,"max":170,"target":"present","response":"present","rt":931.99999999988,"correct":true,"confidence":4},{"trial_n":122,"min":86,"max":169,"target":"absent","response":"absent","rt":1029,"correct":true,"confidence":3},{"trial_n":123,"min":86,"max":169,"target":"present","response":"present","rt":998,"correct":true,"confidence":4},{"trial_n":124,"min":87,"max":168,"target":"absent","response":"present","rt":1055,"correct":false,"confidence":4},{"trial_n":125,"min":86,"max":169,"target":"absent","response":"absent","rt":2276,"correct":true,"confidence":2},{"trial_n":126,"min":86,"max":169,"target":"present","response":"present","rt":911,"correct":true,"confidence":3},{"trial_n":127,"min":87,"max":168,"target":"absent","response":"present","rt":973,"correct":false,"confidence":4},{"trial_n":128,"min":86,"max":169,"target":"present","response":"present","rt":1228,"correct":true,"confidence":4},{"trial_n":129,"min":86,"max":169,"target":"absent","response":"present","rt":1149,"correct":false,"confidence":1},{"trial_n":130,"min":85,"max":170,"target":"present","response":"present","rt":1148,"correct":true,"confidence":5},{"trial_n":131,"min":85,"max":170,"target":"absent","response":"present","rt":944,"correct":false,"confidence":4},{"trial_n":132,"min":84,"max":171,"target":"absent","response":"present","rt":1153,"correct":false,"confidence":3},{"trial_n":133,"min":83,"max":172,"target":"present","response":"present","rt":1085.9999999999,"correct":true,"confidence":5},{"trial_n":134,"min":83,"max":172,"target":"present","response":"present","rt":1132,"correct":true,"confidence":3},{"trial_n":135,"min":84,"max":171,"target":"absent","response":"present","rt":959.99999999988,"correct":false,"confidence":3},{"trial_n":136,"min":83,"max":172,"target":"absent","response":"present","rt":2559,"correct":false,"confidence":1},{"trial_n":137,"min":82,"max":173,"target":"present","response":"present","rt":1175.0000000001,"correct":true,"confidence":5},{"trial_n":138,"min":82,"max":173,"target":"absent","response":"present","rt":1119,"correct":false,"confidence":3},{"trial_n":139,"min":81,"max":174,"target":"present","response":"present","rt":1032,"correct":true,"confidence":4},{"trial_n":140,"min":81,"max":174,"target":"absent","response":"present","rt":1420,"correct":false,"confidence":1}]