[{"trial_n":1,"span":8,"encoder":"27951665","distractor":"27956665","target":"present","response":"present","rt":"6629","correct":true,"confidence":-1},{"trial_n":2,"span":8,"encoder":"35329133","distractor":"35329143","target":"present","response":"absent","rt":"3866","correct":false,"confidence":-1},{"trial_n":3,"span":6,"encoder":"276628","distractor":"286628","target":"absent","response":"absent","rt":"3599","correct":true,"confidence":-1},{"trial_n":4,"span":6,"encoder":"231192","distractor":"211192","target":"absent","response":"absent","rt":"2510","correct":true,"confidence":-1},{"trial_n":5,"span":8,"encoder":"23417126","distractor":"23417176","target":"present","response":"present","rt":"3510","correct":true,"confidence":-1},{"trial_n":6,"span":8,"encoder":"93215749","distractor":"93265749","target":"absent","response":"absent","rt":"3822","correct":true,"confidence":-1},{"trial_n":7,"span":10,"encoder":"6091589223","distractor":"6091569223","target":"absent","response":"absent","rt":"2214","correct":true,"confidence":-1},{"trial_n":8,"span":10,"encoder":"5875568597","distractor":"2875568597","target":"absent","response":"present","rt":"2549","correct":false,"confidence":-1},{"trial_n":9,"span":8,"encoder":"48158742","distractor":"48158712","target":"absent","response":"present","rt":"2950","correct":false,"confidence":-1},{"trial_n":10,"span":6,"encoder":"228098","distractor":"223098","target":"present","response":"present","rt":"6356","correct":true,"confidence":-1},{"trial_n":11,"span":6,"encoder":"219737","distractor":"213737","target":"present","response":"present","rt":"1524","correct":true,"confidence":-1},{"trial_n":12,"span":7,"encoder":"2177063","distractor":"3177063","target":"present","response":"absent","rt":"3122","correct":false,"confidence":-1},{"trial_n":13,"span":6,"encoder":"323529","distractor":"343529","target":"absent","response":"present","rt":"3980","correct":false,"confidence":-1},{"trial_n":14,"span":5,"encoder":"44353","distractor":"44303","target":"absent","response":"present","rt":"15382","correct":false,"confidence":-1},{"trial_n":15,"span":4,"encoder":"4413","distractor":"0413","target":"present","response":"absent","rt":"2109","correct":false,"confidence":-1},{"trial_n":16,"span":3,"encoder":"160","distractor":"150","target":"present","response":"present","rt":"1687","correct":true,"confidence":-1},{"trial_n":17,"span":3,"encoder":"662","distractor":"661","target":"present","response":"absent","rt":"1469","correct":false,"confidence":-1},{"trial_n":18,"span":2,"encoder":"98","distractor":"68","target":"absent","response":"present","rt":"1707","correct":false,"confidence":-1},{"trial_n":19,"span":2,"encoder":"59","distractor":"55","target":"absent","response":"absent","rt":"1258","correct":true,"confidence":-1},{"trial_n":20,"span":2,"encoder":"51","distractor":"58","target":"absent","response":"absent","rt":"909","correct":true,"confidence":-1},{"trial_n":21,"span":3,"encoder":"006","distractor":"086","target":"present","response":"present","rt":"1639","correct":true,"confidence":4},{"trial_n":22,"span":3,"encoder":"456","distractor":"446","target":"present","response":"present","rt":"1114","correct":true,"confidence":5},{"trial_n":23,"span":4,"encoder":"8822","distractor":"8828","target":"absent","response":"present","rt":"3979","correct":false,"confidence":4},{"trial_n":24,"span":3,"encoder":"715","distractor":"725","target":"present","response":"present","rt":"2160","correct":true,"confidence":5},{"trial_n":25,"span":3,"encoder":"643","distractor":"640","target":"absent","response":"absent","rt":"2250","correct":true,"confidence":5},{"trial_n":26,"span":4,"encoder":"5829","distractor":"5827","target":"absent","response":"absent","rt":"7533","correct":true,"confidence":5},{"trial_n":27,"span":4,"encoder":"8181","distractor":"8101","target":"absent","response":"absent","rt":"3094","correct":true,"confidence":5},{"trial_n":28,"span":5,"encoder":"47667","distractor":"47668","target":"present","response":"absent","rt":"3521","correct":false,"confidence":4},{"trial_n":29,"span":4,"encoder":"7766","distractor":"8766","target":"present","response":"absent","rt":"3180.9999999999","correct":false,"confidence":5},{"trial_n":30,"span":3,"encoder":"084","distractor":"054","target":"present","response":"present","rt":"1973","correct":true,"confidence":4},{"trial_n":31,"span":3,"encoder":"563","distractor":"163","target":"present","response":"absent","rt":"1281","correct":false,"confidence":1},{"trial_n":32,"span":2,"encoder":"40","distractor":"49","target":"absent","response":"absent","rt":"3140.0000000019","correct":true,"confidence":5},{"trial_n":33,"span":2,"encoder":"44","distractor":"41","target":"present","response":"present","rt":"5210","correct":true,"confidence":4},{"trial_n":34,"span":3,"encoder":"265","distractor":"264","target":"present","response":"present","rt":"1742.0000000019","correct":true,"confidence":5},{"trial_n":35,"span":3,"encoder":"510","distractor":"540","target":"absent","response":"absent","rt":"2665","correct":true,"confidence":5},{"trial_n":36,"span":4,"encoder":"5800","distractor":"7800","target":"present","response":"absent","rt":"3733","correct":false,"confidence":4},{"trial_n":37,"span":3,"encoder":"294","distractor":"394","target":"absent","response":"absent","rt":"2106","correct":true,"confidence":5},{"trial_n":38,"span":3,"encoder":"145","distractor":"945","target":"present","response":"present","rt":"3130.0000000019","correct":true,"confidence":5},{"trial_n":39,"span":4,"encoder":"7384","distractor":"0384","target":"present","response":"present","rt":"2606","correct":true,"confidence":5},{"trial_n":40,"span":4,"encoder":"9270","distractor":"9275","target":"absent","response":"absent","rt":"3484","correct":true,"confidence":4},{"trial_n":41,"span":5,"encoder":"31737","distractor":"31739","target":"absent","response":"absent","rt":"4512","correct":true,"confidence":5},{"trial_n":42,"span":5,"encoder":"91868","distractor":"92868","target":"present","response":"present","rt":"3919","correct":true,"confidence":4},{"trial_n":43,"span":6,"encoder":"166040","distractor":"168040","target":"present","response":"absent","rt":"4833","correct":false,"confidence":4},{"trial_n":44,"span":5,"encoder":"89927","distractor":"89917","target":"present","response":"absent","rt":"3110","correct":false,"confidence":4},{"trial_n":45,"span":4,"encoder":"5309","distractor":"5329","target":"absent","response":"absent","rt":"2478.9999999981","correct":true,"confidence":5},{"trial_n":46,"span":4,"encoder":"7627","distractor":"7622","target":"present","response":"absent","rt":"3349","correct":false,"confidence":3},{"trial_n":47,"span":3,"encoder":"783","distractor":"788","target":"absent","response":"absent","rt":"1858.0000000019","correct":true,"confidence":5},{"trial_n":48,"span":3,"encoder":"718","distractor":"711","target":"absent","response":"absent","rt":"3227.0000000019","correct":true,"confidence":5},{"trial_n":49,"span":4,"encoder":"5998","distractor":"5992","target":"absent","response":"absent","rt":"2079","correct":true,"confidence":5},{"trial_n":50,"span":4,"encoder":"5980","distractor":"1980","target":"present","response":"present","rt":"2017","correct":true,"confidence":5},{"trial_n":51,"span":5,"encoder":"44000","distractor":"44600","target":"present","response":"absent","rt":"4791.0000000019","correct":false,"confidence":4},{"trial_n":52,"span":4,"encoder":"3927","distractor":"3027","target":"present","response":"present","rt":"2413","correct":true,"confidence":5},{"trial_n":53,"span":4,"encoder":"9211","distractor":"4211","target":"absent","response":"absent","rt":"2099","correct":true,"confidence":5},{"trial_n":54,"span":5,"encoder":"31707","distractor":"11707","target":"present","response":"present","rt":"2436","correct":true,"confidence":5},{"trial_n":55,"span":5,"encoder":"09306","distractor":"09304","target":"absent","response":"absent","rt":"4084","correct":true,"confidence":5},{"trial_n":56,"span":6,"encoder":"882198","distractor":"782198","target":"present","response":"present","rt":"4017","correct":true,"confidence":3},{"trial_n":57,"span":6,"encoder":"976288","distractor":"976488","target":"present","response":"absent","rt":"4317","correct":false,"confidence":3},{"trial_n":58,"span":5,"encoder":"41321","distractor":"41721","target":"present","response":"present","rt":"3537.9999999981","correct":true,"confidence":4},{"trial_n":59,"span":5,"encoder":"23669","distractor":"25669","target":"absent","response":"present","rt":"2546","correct":false,"confidence":4},{"trial_n":60,"span":4,"encoder":"6882","distractor":"6782","target":"present","response":"present","rt":"5292.0000000019","correct":true,"confidence":4},{"trial_n":61,"span":4,"encoder":"9540","distractor":"9549","target":"absent","response":"absent","rt":"2765","correct":true,"confidence":5},{"trial_n":62,"span":5,"encoder":"52182","distractor":"52482","target":"absent","response":"absent","rt":"3247","correct":true,"confidence":5},{"trial_n":63,"span":5,"encoder":"21573","distractor":"21574","target":"present","response":"present","rt":"2446","correct":true,"confidence":5},{"trial_n":64,"span":6,"encoder":"503790","distractor":"501790","target":"absent","response":"absent","rt":"2439","correct":true,"confidence":5},{"trial_n":65,"span":6,"encoder":"653548","distractor":"623548","target":"present","response":"present","rt":"3919","correct":true,"confidence":4},{"trial_n":66,"span":7,"encoder":"4433475","distractor":"4433175","target":"absent","response":"present","rt":"3252.9999999981","correct":false,"confidence":3},{"trial_n":67,"span":6,"encoder":"996307","distractor":"996377","target":"absent","response":"absent","rt":"4849","correct":true,"confidence":3},{"trial_n":68,"span":6,"encoder":"378391","distractor":"372391","target":"absent","response":"present","rt":"2442","correct":false,"confidence":3},{"trial_n":69,"span":5,"encoder":"46635","distractor":"46615","target":"present","response":"present","rt":"2227","correct":true,"confidence":4},{"trial_n":70,"span":5,"encoder":"42157","distractor":"42127","target":"absent","response":"absent","rt":"2937.9999999981","correct":true,"confidence":4},{"trial_n":71,"span":8,"encoder":"47305620","distractor":"47305680","target":"present","response":"present","rt":"8859.0000000019","correct":true,"confidence":-1},{"trial_n":72,"span":8,"encoder":"28251147","distractor":"28451147","target":"present","response":"absent","rt":"1521","correct":false,"confidence":-1},{"trial_n":73,"span":7,"encoder":"1457206","distractor":"1456206","target":"absent","response":"present","rt":"4415","correct":false,"confidence":-1},{"trial_n":74,"span":6,"encoder":"470854","distractor":"470884","target":"absent","response":"absent","rt":"9478","correct":true,"confidence":-1},{"trial_n":75,"span":6,"encoder":"809205","distractor":"809202","target":"present","response":"absent","rt":"4581","correct":false,"confidence":-1},{"trial_n":76,"span":5,"encoder":"19269","distractor":"69269","target":"present","response":"absent","rt":"1226.9999999981","correct":false,"confidence":-1},{"trial_n":77,"span":4,"encoder":"4936","distractor":"2936","target":"absent","response":"absent","rt":"582","correct":true,"confidence":-1},{"trial_n":78,"span":4,"encoder":"3566","distractor":"3564","target":"present","response":"present","rt":"634","correct":true,"confidence":-1},{"trial_n":79,"span":5,"encoder":"21724","distractor":"21774","target":"present","response":"present","rt":"662","correct":true,"confidence":-1},{"trial_n":80,"span":5,"encoder":"99748","distractor":"99798","target":"present","response":"absent","rt":"827.99999999814","correct":false,"confidence":-1},{"trial_n":81,"span":4,"encoder":"4466","distractor":"4766","target":"absent","response":"present","rt":"2655","correct":false,"confidence":-1},{"trial_n":82,"span":3,"encoder":"630","distractor":"636","target":"present","response":"absent","rt":"1230","correct":false,"confidence":-1},{"trial_n":83,"span":2,"encoder":"23","distractor":"33","target":"present","response":"present","rt":"1728","correct":true,"confidence":-1},{"trial_n":84,"span":2,"encoder":"84","distractor":"44","target":"present","response":"present","rt":"861","correct":true,"confidence":-1},{"trial_n":85,"span":3,"encoder":"592","distractor":"542","target":"absent","response":"absent","rt":"1562","correct":true,"confidence":-1},{"trial_n":86,"span":3,"encoder":"496","distractor":"596","target":"present","response":"present","rt":"1235","correct":true,"confidence":-1},{"trial_n":87,"span":4,"encoder":"4705","distractor":"4505","target":"present","response":"present","rt":"1275","correct":true,"confidence":-1},{"trial_n":88,"span":4,"encoder":"1286","distractor":"1266","target":"present","response":"present","rt":"1198.0000000019","correct":true,"confidence":-1},{"trial_n":89,"span":5,"encoder":"66638","distractor":"66668","target":"absent","response":"absent","rt":"3182","correct":true,"confidence":-1},{"trial_n":90,"span":5,"encoder":"81524","distractor":"84524","target":"present","response":"present","rt":"4564","correct":true,"confidence":-1},{"trial_n":91,"span":6,"encoder":"844862","distractor":"144862","target":"absent","response":"absent","rt":"8432","correct":true,"confidence":4},{"trial_n":92,"span":6,"encoder":"034848","distractor":"034842","target":"present","response":"absent","rt":"3479","correct":false,"confidence":4},{"trial_n":93,"span":5,"encoder":"06482","distractor":"46482","target":"absent","response":"absent","rt":"2657.9999999981","correct":true,"confidence":5},{"trial_n":94,"span":5,"encoder":"49541","distractor":"48541","target":"absent","response":"absent","rt":"2721","correct":true,"confidence":4},{"trial_n":95,"span":6,"encoder":"381247","distractor":"381267","target":"present","response":"present","rt":"3437","correct":true,"confidence":4},{"trial_n":96,"span":6,"encoder":"000824","distractor":"000524","target":"absent","response":"absent","rt":"2463","correct":true,"confidence":4},{"trial_n":97,"span":7,"encoder":"8196923","distractor":"8196903","target":"absent","response":"absent","rt":"6674","correct":true,"confidence":4},{"trial_n":98,"span":7,"encoder":"8397591","distractor":"8397593","target":"present","response":"absent","rt":"7385","correct":false,"confidence":4},{"trial_n":99,"span":6,"encoder":"548748","distractor":"848748","target":"absent","response":"present","rt":"2225.9999999981","correct":false,"confidence":4},{"trial_n":100,"span":5,"encoder":"03848","distractor":"03648","target":"present","response":"present","rt":"3081","correct":true,"confidence":4},{"trial_n":101,"span":5,"encoder":"14418","distractor":"14478","target":"present","response":"present","rt":"3042.9999999981","correct":true,"confidence":5},{"trial_n":102,"span":6,"encoder":"749920","distractor":"749930","target":"absent","response":"absent","rt":"2905","correct":true,"confidence":5},{"trial_n":103,"span":6,"encoder":"839917","distractor":"839977","target":"absent","response":"absent","rt":"6203","correct":true,"confidence":4},{"trial_n":104,"span":7,"encoder":"6677155","distractor":"6677135","target":"absent","response":"present","rt":"6065","correct":false,"confidence":4},{"trial_n":105,"span":6,"encoder":"419593","distractor":"409593","target":"present","response":"present","rt":"3337","correct":true,"confidence":4},{"trial_n":106,"span":6,"encoder":"629715","distractor":"629710","target":"present","response":"present","rt":"3074.0000000019","correct":true,"confidence":4},{"trial_n":107,"span":7,"encoder":"7180500","distractor":"7180700","target":"present","response":"present","rt":"2249","correct":true,"confidence":5},{"trial_n":108,"span":7,"encoder":"3559576","distractor":"3579576","target":"absent","response":"absent","rt":"3274","correct":true,"confidence":4},{"trial_n":109,"span":8,"encoder":"41602100","distractor":"41642100","target":"present","response":"present","rt":"4981.0000000019","correct":true,"confidence":4},{"trial_n":110,"span":8,"encoder":"84247521","distractor":"88247521","target":"absent","response":"absent","rt":"2803","correct":true,"confidence":4},{"trial_n":111,"span":9,"encoder":"879584816","distractor":"879584016","target":"absent","response":"absent","rt":"3183","correct":true,"confidence":4},{"trial_n":112,"span":9,"encoder":"941597919","distractor":"941997919","target":"absent","response":"present","rt":"4520","correct":false,"confidence":4},{"trial_n":113,"span":8,"encoder":"05855627","distractor":"65855627","target":"present","response":"present","rt":"3238","correct":true,"confidence":4},{"trial_n":114,"span":8,"encoder":"54407513","distractor":"54407533","target":"present","response":"absent","rt":"5098","correct":false,"confidence":4},{"trial_n":115,"span":7,"encoder":"9220426","distractor":"9220126","target":"absent","response":"absent","rt":"2946","correct":true,"confidence":4},{"trial_n":116,"span":7,"encoder":"9195268","distractor":"3195268","target":"absent","response":"absent","rt":"3292","correct":true,"confidence":5},{"trial_n":117,"span":8,"encoder":"39141916","distractor":"89141916","target":"absent","response":"present","rt":"9986","correct":false,"confidence":4},{"trial_n":118,"span":7,"encoder":"3269022","distractor":"5269022","target":"present","response":"present","rt":"24993","correct":true,"confidence":1},{"trial_n":119,"span":7,"encoder":"3005032","distractor":"3005232","target":"present","response":"present","rt":"2789.0000000019","correct":true,"confidence":4},{"trial_n":120,"span":8,"encoder":"73352366","distractor":"73354366","target":"present","response":"present","rt":"3000","correct":true,"confidence":4},{"trial_n":121,"span":8,"encoder":"13148482","distractor":"13548482","target":"present","response":"present","rt":"5061.0000000019","correct":true,"confidence":2},{"trial_n":122,"span":9,"encoder":"644927563","distractor":"604927563","target":"absent","response":"absent","rt":"1724","correct":true,"confidence":4},{"trial_n":123,"span":9,"encoder":"305412992","distractor":"315412992","target":"absent","response":"absent","rt":"2947.9999999981","correct":true,"confidence":4},{"trial_n":124,"span":10,"encoder":"9448924355","distractor":"5448924355","target":"present","response":"present","rt":"8671","correct":true,"confidence":4},{"trial_n":125,"span":10,"encoder":"4045496283","distractor":"4045486283","target":"present","response":"absent","rt":"19956.999999998","correct":false,"confidence":2},{"trial_n":126,"span":9,"encoder":"144707368","distractor":"184707368","target":"absent","response":"absent","rt":"3358","correct":true,"confidence":3},{"trial_n":127,"span":9,"encoder":"344977495","distractor":"314977495","target":"present","response":"present","rt":"3089","correct":true,"confidence":4},{"trial_n":128,"span":10,"encoder":"4167728252","distractor":"4137728252","target":"absent","response":"absent","rt":"3959","correct":true,"confidence":5},{"trial_n":129,"span":10,"encoder":"1337076192","distractor":"1337075192","target":"absent","response":"absent","rt":"9853.0000000019","correct":true,"confidence":3},{"trial_n":130,"span":11,"encoder":"59123253822","distractor":"59123273822","target":"present","response":"present","rt":"6198.0000000019","correct":true,"confidence":4},{"trial_n":131,"span":11,"encoder":"11858595256","distractor":"11858595254","target":"absent","response":"present","rt":"7671","correct":false,"confidence":2},{"trial_n":132,"span":10,"encoder":"6998987913","distractor":"6998987313","target":"present","response":"absent","rt":"10162","correct":false,"confidence":3},{"trial_n":133,"span":9,"encoder":"295486071","distractor":"292486071","target":"absent","response":"present","rt":"8359","correct":false,"confidence":2},{"trial_n":134,"span":8,"encoder":"79246728","distractor":"79246128","target":"absent","response":"absent","rt":"5899","correct":true,"confidence":3},{"trial_n":135,"span":8,"encoder":"34444697","distractor":"34446697","target":"absent","response":"absent","rt":"6673.9999999981","correct":true,"confidence":4},{"trial_n":136,"span":9,"encoder":"293367542","distractor":"293367541","target":"present","response":"absent","rt":"5411","correct":false,"confidence":3},{"trial_n":137,"span":8,"encoder":"65050383","distractor":"05050383","target":"absent","response":"absent","rt":"4146","correct":true,"confidence":5},{"trial_n":138,"span":8,"encoder":"68041537","distractor":"68941537","target":"absent","response":"absent","rt":"2645","correct":true,"confidence":5},{"trial_n":139,"span":9,"encoder":"907644847","distractor":"107644847","target":"present","response":"present","rt":"1970","correct":true,"confidence":5},{"trial_n":140,"span":9,"encoder":"505633286","distractor":"605633286","target":"absent","response":"absent","rt":"3792","correct":true,"confidence":4}]