[{"trial_n":1,"min":25,"max":230,"target":"present","response":"present","rt":3409.8000000007,"correct":true,"confidence":-1},{"trial_n":2,"min":25,"max":230,"target":"present","response":"absent","rt":257.40000000224,"correct":false,"confidence":-1},{"trial_n":3,"min":9,"max":246,"target":"absent","response":"present","rt":469.30000000075,"correct":false,"confidence":-1},{"trial_n":4,"min":0,"max":255,"target":"absent","response":"absent","rt":510.69999999925,"correct":true,"confidence":-1},{"trial_n":5,"min":0,"max":255,"target":"present","response":"absent","rt":285,"correct":false,"confidence":-1},{"trial_n":6,"min":0,"max":255,"target":"absent","response":"present","rt":440.60000000149,"correct":false,"confidence":-1},{"trial_n":7,"min":0,"max":255,"target":"present","response":"present","rt":991.30000000075,"correct":true,"confidence":-1},{"trial_n":8,"min":0,"max":255,"target":"present","response":"absent","rt":79.800000000745,"correct":false,"confidence":-1},{"trial_n":9,"min":0,"max":255,"target":"absent","response":"present","rt":23.400000002235,"correct":false,"confidence":-1},{"trial_n":10,"min":0,"max":255,"target":"present","response":"absent","rt":44.39999999851,"correct":false,"confidence":-1},{"trial_n":11,"min":0,"max":255,"target":"absent","response":"present","rt":978.29999999702,"correct":false,"confidence":-1},{"trial_n":12,"min":0,"max":255,"target":"absent","response":"absent","rt":49.199999999255,"correct":true,"confidence":-1},{"trial_n":13,"min":0,"max":255,"target":"absent","response":"present","rt":222.39999999851,"correct":false,"confidence":-1},{"trial_n":14,"min":0,"max":255,"target":"present","response":"absent","rt":258.79999999702,"correct":false,"confidence":-1},{"trial_n":15,"min":0,"max":255,"target":"present","response":"present","rt":120.10000000149,"correct":true,"confidence":-1},{"trial_n":16,"min":0,"max":255,"target":"present","response":"absent","rt":254.5,"correct":false,"confidence":-1},{"trial_n":17,"min":0,"max":255,"target":"absent","response":"present","rt":211.69999999925,"correct":false,"confidence":-1},{"trial_n":18,"min":0,"max":255,"target":"absent","response":"absent","rt":228.59999999776,"correct":true,"confidence":-1},{"trial_n":19,"min":0,"max":255,"target":"absent","response":"present","rt":271.39999999851,"correct":false,"confidence":-1},{"trial_n":20,"min":0,"max":255,"target":"absent","response":"absent","rt":232.40000000224,"correct":true,"confidence":-1},{"trial_n":21,"min":0,"max":255,"target":"present","response":"present","rt":365.69999999925,"correct":true,"confidence":5},{"trial_n":22,"min":4,"max":251,"target":"present","response":"present","rt":326.60000000149,"correct":true,"confidence":5},{"trial_n":23,"min":4,"max":251,"target":"present","response":"present","rt":747.60000000149,"correct":true,"confidence":5},{"trial_n":24,"min":8,"max":247,"target":"absent","response":"absent","rt":945,"correct":true,"confidence":5},{"trial_n":25,"min":8,"max":247,"target":"absent","response":"present","rt":968.30000000075,"correct":false,"confidence":3},{"trial_n":26,"min":4,"max":251,"target":"present","response":"present","rt":329.70000000298,"correct":true,"confidence":5},{"trial_n":27,"min":4,"max":251,"target":"present","response":"present","rt":280.89999999851,"correct":true,"confidence":5},{"trial_n":28,"min":8,"max":247,"target":"absent","response":"absent","rt":896.5,"correct":true,"confidence":5},{"trial_n":29,"min":8,"max":247,"target":"absent","response":"absent","rt":321.19999999925,"correct":true,"confidence":5},{"trial_n":30,"min":12,"max":243,"target":"present","response":"present","rt":242.59999999776,"correct":true,"confidence":5},{"trial_n":31,"min":12,"max":243,"target":"present","response":"present","rt":1034.5,"correct":true,"confidence":5},{"trial_n":32,"min":14,"max":241,"target":"absent","response":"absent","rt":412.10000000149,"correct":true,"confidence":5},{"trial_n":33,"min":14,"max":241,"target":"absent","response":"absent","rt":470.30000000075,"correct":true,"confidence":5},{"trial_n":34,"min":16,"max":239,"target":"absent","response":"absent","rt":280,"correct":true,"confidence":5},{"trial_n":35,"min":16,"max":239,"target":"present","response":"present","rt":951.80000000075,"correct":true,"confidence":5},{"trial_n":36,"min":18,"max":237,"target":"present","response":"present","rt":224.29999999702,"correct":true,"confidence":5},{"trial_n":37,"min":18,"max":237,"target":"present","response":"present","rt":306.60000000149,"correct":true,"confidence":5},{"trial_n":38,"min":20,"max":235,"target":"absent","response":"absent","rt":365.59999999776,"correct":true,"confidence":5},{"trial_n":39,"min":20,"max":235,"target":"absent","response":"absent","rt":311.30000000075,"correct":true,"confidence":1},{"trial_n":40,"min":22,"max":233,"target":"present","response":"present","rt":1412.799999997,"correct":true,"confidence":5},{"trial_n":41,"min":22,"max":233,"target":"absent","response":"absent","rt":603.5,"correct":true,"confidence":5},{"trial_n":42,"min":23,"max":232,"target":"present","response":"present","rt":915.30000000075,"correct":true,"confidence":5},{"trial_n":43,"min":23,"max":232,"target":"absent","response":"absent","rt":324.69999999925,"correct":true,"confidence":5},{"trial_n":44,"min":24,"max":231,"target":"present","response":"present","rt":314.10000000149,"correct":true,"confidence":5},{"trial_n":45,"min":24,"max":231,"target":"absent","response":"absent","rt":243.90000000224,"correct":true,"confidence":5},{"trial_n":46,"min":25,"max":230,"target":"present","response":"present","rt":678.30000000075,"correct":true,"confidence":5},{"trial_n":47,"min":25,"max":230,"target":"absent","response":"absent","rt":320.10000000149,"correct":true,"confidence":5},{"trial_n":48,"min":26,"max":229,"target":"absent","response":"absent","rt":304.89999999851,"correct":true,"confidence":5},{"trial_n":49,"min":26,"max":229,"target":"present","response":"present","rt":387.10000000149,"correct":true,"confidence":5},{"trial_n":50,"min":27,"max":228,"target":"absent","response":"absent","rt":280.89999999851,"correct":true,"confidence":5},{"trial_n":51,"min":27,"max":228,"target":"absent","response":"absent","rt":421.79999999702,"correct":true,"confidence":5},{"trial_n":52,"min":28,"max":227,"target":"present","response":"present","rt":369.29999999702,"correct":true,"confidence":5},{"trial_n":53,"min":28,"max":227,"target":"present","response":"present","rt":308.90000000224,"correct":true,"confidence":5},{"trial_n":54,"min":29,"max":226,"target":"present","response":"present","rt":235.5,"correct":true,"confidence":5},{"trial_n":55,"min":29,"max":226,"target":"absent","response":"absent","rt":192.79999999702,"correct":true,"confidence":5},{"trial_n":56,"min":30,"max":225,"target":"present","response":"absent","rt":100.90000000224,"correct":false,"confidence":1},{"trial_n":57,"min":29,"max":226,"target":"absent","response":"absent","rt":424.39999999851,"correct":true,"confidence":5},{"trial_n":58,"min":29,"max":226,"target":"absent","response":"absent","rt":232.5,"correct":true,"confidence":5},{"trial_n":59,"min":30,"max":225,"target":"absent","response":"absent","rt":241.70000000298,"correct":true,"confidence":5},{"trial_n":60,"min":30,"max":225,"target":"present","response":"present","rt":257.60000000149,"correct":true,"confidence":5},{"trial_n":61,"min":31,"max":224,"target":"present","response":"present","rt":796.80000000075,"correct":true,"confidence":5},{"trial_n":62,"min":31,"max":224,"target":"absent","response":"absent","rt":486.40000000224,"correct":true,"confidence":5},{"trial_n":63,"min":32,"max":223,"target":"present","response":"present","rt":264.39999999851,"correct":true,"confidence":5},{"trial_n":64,"min":32,"max":223,"target":"present","response":"present","rt":210.69999999925,"correct":true,"confidence":5},{"trial_n":65,"min":33,"max":222,"target":"present","response":"present","rt":217,"correct":true,"confidence":5},{"trial_n":66,"min":33,"max":222,"target":"present","response":"present","rt":233.10000000149,"correct":true,"confidence":5},{"trial_n":67,"min":34,"max":221,"target":"absent","response":"absent","rt":292.79999999702,"correct":true,"confidence":5},{"trial_n":68,"min":34,"max":221,"target":"absent","response":"absent","rt":233.5,"correct":true,"confidence":5},{"trial_n":69,"min":35,"max":220,"target":"present","response":"present","rt":322.30000000075,"correct":true,"confidence":5},{"trial_n":70,"min":35,"max":220,"target":"present","response":"present","rt":227.5,"correct":true,"confidence":5},{"trial_n":71,"min":41,"max":214,"target":"present","response":"present","rt":4703.200000003,"correct":true,"confidence":-1},{"trial_n":72,"min":41,"max":214,"target":"present","response":"absent","rt":-0.80000000074506,"correct":false,"confidence":-1},{"trial_n":73,"min":25,"max":230,"target":"absent","response":"present","rt":879.20000000298,"correct":false,"confidence":-1},{"trial_n":74,"min":9,"max":246,"target":"absent","response":"absent","rt":447.39999999851,"correct":true,"confidence":-1},{"trial_n":75,"min":9,"max":246,"target":"present","response":"present","rt":289,"correct":true,"confidence":-1},{"trial_n":76,"min":25,"max":230,"target":"present","response":"absent","rt":322.20000000298,"correct":false,"confidence":-1},{"trial_n":77,"min":9,"max":246,"target":"present","response":"present","rt":290.79999999702,"correct":true,"confidence":-1},{"trial_n":78,"min":9,"max":246,"target":"absent","response":"absent","rt":206,"correct":true,"confidence":-1},{"trial_n":79,"min":25,"max":230,"target":"present","response":"present","rt":973.80000000075,"correct":true,"confidence":-1},{"trial_n":80,"min":25,"max":230,"target":"present","response":"absent","rt":383.60000000149,"correct":false,"confidence":-1},{"trial_n":81,"min":17,"max":238,"target":"present","response":"absent","rt":122.5,"correct":false,"confidence":-1},{"trial_n":82,"min":9,"max":246,"target":"absent","response":"present","rt":130,"correct":false,"confidence":-1},{"trial_n":83,"min":1,"max":254,"target":"absent","response":"absent","rt":221.20000000298,"correct":true,"confidence":-1},{"trial_n":84,"min":1,"max":254,"target":"present","response":"present","rt":298.5,"correct":true,"confidence":-1},{"trial_n":85,"min":9,"max":246,"target":"absent","response":"absent","rt":346.80000000075,"correct":true,"confidence":-1},{"trial_n":86,"min":9,"max":246,"target":"present","response":"present","rt":248.39999999851,"correct":true,"confidence":-1},{"trial_n":87,"min":17,"max":238,"target":"absent","response":"absent","rt":499.5,"correct":true,"confidence":-1},{"trial_n":88,"min":17,"max":238,"target":"absent","response":"present","rt":588.40000000224,"correct":false,"confidence":-1},{"trial_n":89,"min":9,"max":246,"target":"present","response":"absent","rt":465.59999999776,"correct":false,"confidence":-1},{"trial_n":90,"min":1,"max":254,"target":"absent","response":"absent","rt":202.80000000075,"correct":true,"confidence":-1},{"trial_n":91,"min":1,"max":254,"target":"present","response":"present","rt":318.20000000298,"correct":true,"confidence":5},{"trial_n":92,"min":5,"max":250,"target":"present","response":"present","rt":286.19999999925,"correct":true,"confidence":5},{"trial_n":93,"min":5,"max":250,"target":"present","response":"present","rt":309.39999999851,"correct":true,"confidence":1},{"trial_n":94,"min":9,"max":246,"target":"absent","response":"absent","rt":487.70000000298,"correct":true,"confidence":5},{"trial_n":95,"min":9,"max":246,"target":"absent","response":"absent","rt":1392.799999997,"correct":true,"confidence":5},{"trial_n":96,"min":13,"max":242,"target":"absent","response":"absent","rt":331.60000000149,"correct":true,"confidence":5},{"trial_n":97,"min":13,"max":242,"target":"absent","response":"absent","rt":246,"correct":true,"confidence":5},{"trial_n":98,"min":17,"max":238,"target":"present","response":"present","rt":173.60000000149,"correct":true,"confidence":1},{"trial_n":99,"min":17,"max":238,"target":"present","response":"present","rt":401.5,"correct":true,"confidence":5},{"trial_n":100,"min":21,"max":234,"target":"absent","response":"absent","rt":349.39999999851,"correct":true,"confidence":5},{"trial_n":101,"min":21,"max":234,"target":"present","response":"present","rt":589.80000000075,"correct":true,"confidence":5},{"trial_n":102,"min":23,"max":232,"target":"present","response":"present","rt":319.60000000149,"correct":true,"confidence":5},{"trial_n":103,"min":23,"max":232,"target":"absent","response":"absent","rt":478.20000000298,"correct":true,"confidence":5},{"trial_n":104,"min":25,"max":230,"target":"present","response":"present","rt":126.69999999925,"correct":true,"confidence":5},{"trial_n":105,"min":25,"max":230,"target":"absent","response":"absent","rt":424.10000000149,"correct":true,"confidence":5},{"trial_n":106,"min":27,"max":228,"target":"absent","response":"absent","rt":922.90000000224,"correct":true,"confidence":5},{"trial_n":107,"min":27,"max":228,"target":"present","response":"present","rt":216,"correct":true,"confidence":5},{"trial_n":108,"min":29,"max":226,"target":"present","response":"present","rt":283.09999999776,"correct":true,"confidence":5},{"trial_n":109,"min":29,"max":226,"target":"absent","response":"absent","rt":217.30000000075,"correct":true,"confidence":5},{"trial_n":110,"min":31,"max":224,"target":"present","response":"present","rt":174.60000000149,"correct":true,"confidence":5},{"trial_n":111,"min":31,"max":224,"target":"present","response":"present","rt":333.80000000075,"correct":true,"confidence":5},{"trial_n":112,"min":32,"max":223,"target":"absent","response":"absent","rt":206.10000000149,"correct":true,"confidence":5},{"trial_n":113,"min":32,"max":223,"target":"present","response":"present","rt":288.30000000075,"correct":true,"confidence":5},{"trial_n":114,"min":33,"max":222,"target":"present","response":"present","rt":795.69999999925,"correct":true,"confidence":5},{"trial_n":115,"min":33,"max":222,"target":"present","response":"present","rt":511.60000000149,"correct":true,"confidence":5},{"trial_n":116,"min":34,"max":221,"target":"present","response":"present","rt":377.80000000075,"correct":true,"confidence":5},{"trial_n":117,"min":34,"max":221,"target":"absent","response":"absent","rt":287.39999999851,"correct":true,"confidence":5},{"trial_n":118,"min":35,"max":220,"target":"absent","response":"absent","rt":473.19999999925,"correct":true,"confidence":5},{"trial_n":119,"min":35,"max":220,"target":"present","response":"present","rt":566.80000000075,"correct":true,"confidence":5},{"trial_n":120,"min":36,"max":219,"target":"absent","response":"absent","rt":316.60000000149,"correct":true,"confidence":5},{"trial_n":121,"min":36,"max":219,"target":"absent","response":"absent","rt":315.69999999925,"correct":true,"confidence":5},{"trial_n":122,"min":37,"max":218,"target":"absent","response":"absent","rt":316.39999999851,"correct":true,"confidence":5},{"trial_n":123,"min":37,"max":218,"target":"present","response":"present","rt":171.20000000298,"correct":true,"confidence":5},{"trial_n":124,"min":38,"max":217,"target":"absent","response":"absent","rt":125.40000000224,"correct":true,"confidence":5},{"trial_n":125,"min":38,"max":217,"target":"absent","response":"absent","rt":170.90000000224,"correct":true,"confidence":5},{"trial_n":126,"min":39,"max":216,"target":"present","response":"present","rt":303.89999999851,"correct":true,"confidence":5},{"trial_n":127,"min":39,"max":216,"target":"present","response":"present","rt":232.10000000149,"correct":true,"confidence":5},{"trial_n":128,"min":40,"max":215,"target":"absent","response":"absent","rt":113.60000000149,"correct":true,"confidence":5},{"trial_n":129,"min":40,"max":215,"target":"present","response":"present","rt":662.80000000075,"correct":true,"confidence":5},{"trial_n":130,"min":41,"max":214,"target":"present","response":"absent","rt":424.80000000075,"correct":false,"confidence":1},{"trial_n":131,"min":40,"max":215,"target":"absent","response":"absent","rt":1160,"correct":true,"confidence":5},{"trial_n":132,"min":40,"max":215,"target":"present","response":"present","rt":248.30000000075,"correct":true,"confidence":5},{"trial_n":133,"min":41,"max":214,"target":"absent","response":"absent","rt":341,"correct":true,"confidence":5},{"trial_n":134,"min":41,"max":214,"target":"absent","response":"absent","rt":380.5,"correct":true,"confidence":5},{"trial_n":135,"min":42,"max":213,"target":"absent","response":"absent","rt":766.19999999925,"correct":true,"confidence":1},{"trial_n":136,"min":42,"max":213,"target":"present","response":"present","rt":652.09999999776,"correct":true,"confidence":5},{"trial_n":137,"min":43,"max":212,"target":"absent","response":"absent","rt":438.30000000075,"correct":true,"confidence":5},{"trial_n":138,"min":43,"max":212,"target":"present","response":"present","rt":338,"correct":true,"confidence":5},{"trial_n":139,"min":44,"max":211,"target":"absent","response":"absent","rt":435.89999999851,"correct":true,"confidence":5},{"trial_n":140,"min":44,"max":211,"target":"absent","response":"absent","rt":189.30000000075,"correct":true,"confidence":5}]