[{"trial_n":1,"n_dots":4.25,"target":"right","response":"right","rt":4870.099999994,"correct":true,"confidence":-1},{"trial_n":2,"n_dots":4.25,"target":"right","response":"right","rt":774.09999999404,"correct":true,"confidence":-1},{"trial_n":3,"n_dots":3.85,"target":"left","response":"left","rt":638,"correct":true,"confidence":-1},{"trial_n":4,"n_dots":3.85,"target":"left","response":"left","rt":347.80000001192,"correct":true,"confidence":-1},{"trial_n":5,"n_dots":3.45,"target":"left","response":"right","rt":623.90000000596,"correct":false,"confidence":-1},{"trial_n":6,"n_dots":3.85,"target":"right","response":"right","rt":373.30000001192,"correct":true,"confidence":-1},{"trial_n":7,"n_dots":3.85,"target":"right","response":"right","rt":435.30000001192,"correct":true,"confidence":-1},{"trial_n":8,"n_dots":3.65,"target":"right","response":"right","rt":521.69999998808,"correct":true,"confidence":-1},{"trial_n":9,"n_dots":3.65,"target":"right","response":"right","rt":750.29999998212,"correct":true,"confidence":-1},{"trial_n":10,"n_dots":3.45,"target":"right","response":"right","rt":577.69999998808,"correct":true,"confidence":-1},{"trial_n":11,"n_dots":3.45,"target":"right","response":"left","rt":733.30000001192,"correct":false,"confidence":-1},{"trial_n":12,"n_dots":3.65,"target":"right","response":"left","rt":503.30000001192,"correct":false,"confidence":-1},{"trial_n":13,"n_dots":3.75,"target":"left","response":"left","rt":312.79999998212,"correct":true,"confidence":-1},{"trial_n":14,"n_dots":3.75,"target":"right","response":"right","rt":395.59999999404,"correct":true,"confidence":-1},{"trial_n":15,"n_dots":3.65,"target":"left","response":"left","rt":753.59999999404,"correct":true,"confidence":-1},{"trial_n":16,"n_dots":3.65,"target":"right","response":"right","rt":410.80000001192,"correct":true,"confidence":-1},{"trial_n":17,"n_dots":3.55,"target":"left","response":"left","rt":319.40000000596,"correct":true,"confidence":-1},{"trial_n":18,"n_dots":3.55,"target":"right","response":"right","rt":703.09999999404,"correct":true,"confidence":-1},{"trial_n":19,"n_dots":3.45,"target":"right","response":"left","rt":1035.6999999881,"correct":false,"confidence":-1},{"trial_n":20,"n_dots":3.55,"target":"left","response":"right","rt":404.30000001192,"correct":false,"confidence":-1},{"trial_n":21,"n_dots":3.65,"target":"left","response":"left","rt":444.5,"correct":true,"confidence":3},{"trial_n":22,"n_dots":3.65,"target":"left","response":"left","rt":574.10000002384,"correct":true,"confidence":3},{"trial_n":23,"n_dots":3.55,"target":"right","response":"right","rt":326.69999998808,"correct":true,"confidence":2},{"trial_n":24,"n_dots":3.55,"target":"right","response":"right","rt":936.79999998212,"correct":true,"confidence":2},{"trial_n":25,"n_dots":3.45,"target":"left","response":"left","rt":573.80000001192,"correct":true,"confidence":3},{"trial_n":26,"n_dots":3.45,"target":"left","response":"right","rt":773,"correct":false,"confidence":3},{"trial_n":27,"n_dots":3.55,"target":"left","response":"left","rt":850.09999999404,"correct":true,"confidence":4},{"trial_n":28,"n_dots":3.55,"target":"right","response":"right","rt":881.09999999404,"correct":true,"confidence":4},{"trial_n":29,"n_dots":3.45,"target":"left","response":"left","rt":711.39999997616,"correct":true,"confidence":2},{"trial_n":30,"n_dots":3.45,"target":"left","response":"left","rt":209.10000002384,"correct":true,"confidence":3},{"trial_n":31,"n_dots":3.35,"target":"right","response":"right","rt":462.09999999404,"correct":true,"confidence":4},{"trial_n":32,"n_dots":3.35,"target":"left","response":"left","rt":2596.400000006,"correct":true,"confidence":1},{"trial_n":33,"n_dots":3.25,"target":"left","response":"left","rt":807.90000000596,"correct":true,"confidence":2},{"trial_n":34,"n_dots":3.25,"target":"right","response":"right","rt":489.80000001192,"correct":true,"confidence":3},{"trial_n":35,"n_dots":3.15,"target":"right","response":"left","rt":1483.400000006,"correct":false,"confidence":2},{"trial_n":36,"n_dots":3.25,"target":"left","response":"left","rt":534.60000002384,"correct":true,"confidence":3},{"trial_n":37,"n_dots":3.25,"target":"right","response":"right","rt":423.20000001788,"correct":true,"confidence":3},{"trial_n":38,"n_dots":3.15,"target":"left","response":"left","rt":628.19999998808,"correct":true,"confidence":3},{"trial_n":39,"n_dots":3.15,"target":"right","response":"right","rt":117,"correct":true,"confidence":4},{"trial_n":40,"n_dots":3.05,"target":"right","response":"right","rt":651.69999998808,"correct":true,"confidence":5},{"trial_n":41,"n_dots":3.05,"target":"right","response":"right","rt":545.70000001788,"correct":true,"confidence":3},{"trial_n":42,"n_dots":2.95,"target":"right","response":"left","rt":802.59999999404,"correct":false,"confidence":3},{"trial_n":43,"n_dots":3.05,"target":"left","response":"left","rt":742.59999999404,"correct":true,"confidence":3},{"trial_n":44,"n_dots":3.05,"target":"left","response":"left","rt":476.39999997616,"correct":true,"confidence":4},{"trial_n":45,"n_dots":2.95,"target":"left","response":"left","rt":390.19999998808,"correct":true,"confidence":4},{"trial_n":46,"n_dots":2.95,"target":"left","response":"left","rt":531.09999999404,"correct":true,"confidence":4},{"trial_n":47,"n_dots":2.85,"target":"right","response":"right","rt":705.39999997616,"correct":true,"confidence":3},{"trial_n":48,"n_dots":2.85,"target":"right","response":"right","rt":639.5,"correct":true,"confidence":2},{"trial_n":49,"n_dots":2.75,"target":"right","response":"left","rt":609.29999998212,"correct":false,"confidence":2},{"trial_n":50,"n_dots":2.85,"target":"right","response":"right","rt":480.59999999404,"correct":true,"confidence":1},{"trial_n":51,"n_dots":2.85,"target":"right","response":"right","rt":446.40000000596,"correct":true,"confidence":3},{"trial_n":52,"n_dots":2.75,"target":"right","response":"left","rt":1178.5,"correct":false,"confidence":2},{"trial_n":53,"n_dots":2.85,"target":"left","response":"left","rt":558.70000001788,"correct":true,"confidence":3},{"trial_n":54,"n_dots":2.85,"target":"left","response":"left","rt":477.40000000596,"correct":true,"confidence":2},{"trial_n":55,"n_dots":2.75,"target":"left","response":"left","rt":408.90000000596,"correct":true,"confidence":3},{"trial_n":56,"n_dots":2.75,"target":"left","response":"right","rt":538.59999999404,"correct":false,"confidence":4},{"trial_n":57,"n_dots":2.85,"target":"right","response":"right","rt":369.70000001788,"correct":true,"confidence":3},{"trial_n":58,"n_dots":2.85,"target":"right","response":"right","rt":712.20000001788,"correct":true,"confidence":3},{"trial_n":59,"n_dots":2.75,"target":"left","response":"right","rt":227.40000000596,"correct":false,"confidence":2},{"trial_n":60,"n_dots":2.85,"target":"right","response":"right","rt":372.5,"correct":true,"confidence":3},{"trial_n":61,"n_dots":2.85,"target":"right","response":"right","rt":356.29999998212,"correct":true,"confidence":3},{"trial_n":62,"n_dots":2.75,"target":"right","response":"left","rt":273.09999999404,"correct":false,"confidence":2},{"trial_n":63,"n_dots":2.85,"target":"right","response":"left","rt":433.80000001192,"correct":false,"confidence":2},{"trial_n":64,"n_dots":2.95,"target":"left","response":"left","rt":463.90000000596,"correct":true,"confidence":3},{"trial_n":65,"n_dots":2.95,"target":"left","response":"left","rt":293.90000000596,"correct":true,"confidence":3},{"trial_n":66,"n_dots":2.85,"target":"right","response":"right","rt":930.59999999404,"correct":true,"confidence":4},{"trial_n":67,"n_dots":2.85,"target":"right","response":"right","rt":393.5,"correct":true,"confidence":3},{"trial_n":68,"n_dots":2.75,"target":"left","response":"left","rt":202.10000002384,"correct":true,"confidence":2},{"trial_n":69,"n_dots":2.75,"target":"right","response":"right","rt":352.90000000596,"correct":true,"confidence":3},{"trial_n":70,"n_dots":2.65,"target":"left","response":"left","rt":686.30000001192,"correct":true,"confidence":3},{"trial_n":71,"n_dots":2.65,"target":"left","response":"left","rt":529.69999998808,"correct":true,"confidence":2},{"trial_n":72,"n_dots":2.55,"target":"right","response":"left","rt":534.90000000596,"correct":false,"confidence":3},{"trial_n":73,"n_dots":2.65,"target":"left","response":"left","rt":438.09999999404,"correct":true,"confidence":2},{"trial_n":74,"n_dots":2.65,"target":"left","response":"left","rt":515.5,"correct":true,"confidence":5},{"trial_n":75,"n_dots":2.55,"target":"right","response":"right","rt":365.5,"correct":true,"confidence":4},{"trial_n":76,"n_dots":2.55,"target":"right","response":"right","rt":785.09999999404,"correct":true,"confidence":3},{"trial_n":77,"n_dots":2.45,"target":"left","response":"left","rt":666.5,"correct":true,"confidence":3},{"trial_n":78,"n_dots":2.45,"target":"right","response":"right","rt":703.40000000596,"correct":true,"confidence":3},{"trial_n":79,"n_dots":2.35,"target":"right","response":"right","rt":775.29999998212,"correct":true,"confidence":4},{"trial_n":80,"n_dots":2.35,"target":"left","response":"right","rt":490.09999999404,"correct":false,"confidence":3},{"trial_n":81,"n_dots":2.45,"target":"right","response":"right","rt":394.20000001788,"correct":true,"confidence":3},{"trial_n":82,"n_dots":2.45,"target":"right","response":"right","rt":433.5,"correct":true,"confidence":3},{"trial_n":83,"n_dots":2.35,"target":"left","response":"right","rt":584.40000000596,"correct":false,"confidence":4},{"trial_n":84,"n_dots":2.45,"target":"right","response":"left","rt":663.69999998808,"correct":false,"confidence":2},{"trial_n":85,"n_dots":2.55,"target":"left","response":"left","rt":1030,"correct":true,"confidence":2},{"trial_n":86,"n_dots":2.55,"target":"right","response":"right","rt":335.69999998808,"correct":true,"confidence":1},{"trial_n":87,"n_dots":2.45,"target":"left","response":"left","rt":617.69999998808,"correct":true,"confidence":3},{"trial_n":88,"n_dots":2.45,"target":"right","response":"right","rt":397.80000001192,"correct":true,"confidence":3},{"trial_n":89,"n_dots":2.35,"target":"right","response":"right","rt":619.40000000596,"correct":true,"confidence":2},{"trial_n":90,"n_dots":2.35,"target":"right","response":"right","rt":540.60000002384,"correct":true,"confidence":3},{"trial_n":91,"n_dots":2.25,"target":"left","response":"left","rt":626.5,"correct":true,"confidence":3},{"trial_n":92,"n_dots":2.25,"target":"left","response":"right","rt":461.59999999404,"correct":false,"confidence":2},{"trial_n":93,"n_dots":2.35,"target":"left","response":"left","rt":681.09999999404,"correct":true,"confidence":2},{"trial_n":94,"n_dots":2.35,"target":"left","response":"left","rt":464,"correct":true,"confidence":2},{"trial_n":95,"n_dots":2.25,"target":"left","response":"left","rt":1185.2000000179,"correct":true,"confidence":3},{"trial_n":96,"n_dots":2.25,"target":"left","response":"right","rt":688.40000000596,"correct":false,"confidence":3},{"trial_n":97,"n_dots":2.35,"target":"left","response":"left","rt":493.79999998212,"correct":true,"confidence":2},{"trial_n":98,"n_dots":2.35,"target":"left","response":"left","rt":588.30000001192,"correct":true,"confidence":4},{"trial_n":99,"n_dots":2.25,"target":"left","response":"right","rt":479.30000001192,"correct":false,"confidence":3},{"trial_n":100,"n_dots":2.35,"target":"right","response":"right","rt":346.30000001192,"correct":true,"confidence":2},{"trial_n":101,"n_dots":2.35,"target":"right","response":"right","rt":601.39999997616,"correct":true,"confidence":2},{"trial_n":102,"n_dots":2.25,"target":"left","response":"right","rt":554,"correct":false,"confidence":2},{"trial_n":103,"n_dots":2.35,"target":"left","response":"left","rt":374.30000001192,"correct":true,"confidence":3},{"trial_n":104,"n_dots":2.35,"target":"left","response":"left","rt":458.70000001788,"correct":true,"confidence":3},{"trial_n":105,"n_dots":2.25,"target":"right","response":"left","rt":517.30000001192,"correct":false,"confidence":2},{"trial_n":106,"n_dots":2.35,"target":"left","response":"left","rt":491,"correct":true,"confidence":2},{"trial_n":107,"n_dots":2.35,"target":"right","response":"right","rt":671.19999998808,"correct":true,"confidence":3},{"trial_n":108,"n_dots":2.25,"target":"left","response":"left","rt":703.40000000596,"correct":true,"confidence":3},{"trial_n":109,"n_dots":2.25,"target":"left","response":"right","rt":1119.6999999881,"correct":false,"confidence":2},{"trial_n":110,"n_dots":2.35,"target":"right","response":"right","rt":2310.2999999821,"correct":true,"confidence":4},{"trial_n":111,"n_dots":2.35,"target":"left","response":"left","rt":163.29999998212,"correct":true,"confidence":3},{"trial_n":112,"n_dots":2.25,"target":"left","response":"left","rt":178.80000001192,"correct":true,"confidence":4},{"trial_n":113,"n_dots":2.25,"target":"right","response":"right","rt":875.30000001192,"correct":true,"confidence":4},{"trial_n":114,"n_dots":2.15,"target":"left","response":"left","rt":655.90000000596,"correct":true,"confidence":3},{"trial_n":115,"n_dots":2.15,"target":"right","response":"right","rt":2686.099999994,"correct":true,"confidence":1},{"trial_n":116,"n_dots":2.05,"target":"right","response":"left","rt":535.20000001788,"correct":false,"confidence":3},{"trial_n":117,"n_dots":2.15,"target":"left","response":"right","rt":524.29999998212,"correct":false,"confidence":1},{"trial_n":118,"n_dots":2.25,"target":"left","response":"left","rt":352,"correct":true,"confidence":2},{"trial_n":119,"n_dots":2.25,"target":"right","response":"right","rt":252.29999998212,"correct":true,"confidence":1},{"trial_n":120,"n_dots":2.15,"target":"left","response":"left","rt":571.59999999404,"correct":true,"confidence":2}]