[{"trial_n":1,"n_dots":4.25,"target":"right","response":"right","rt":2049,"correct":true,"confidence":-1},{"trial_n":2,"n_dots":4.25,"target":"left","response":"left","rt":933,"correct":true,"confidence":-1},{"trial_n":3,"n_dots":3.85,"target":"left","response":"left","rt":860,"correct":true,"confidence":-1},{"trial_n":4,"n_dots":3.85,"target":"right","response":"left","rt":956,"correct":false,"confidence":-1},{"trial_n":5,"n_dots":4.25,"target":"left","response":"left","rt":769,"correct":true,"confidence":-1},{"trial_n":6,"n_dots":4.25,"target":"left","response":"left","rt":792,"correct":true,"confidence":-1},{"trial_n":7,"n_dots":3.85,"target":"right","response":"right","rt":828,"correct":true,"confidence":-1},{"trial_n":8,"n_dots":3.85,"target":"left","response":"left","rt":841.00000000001,"correct":true,"confidence":-1},{"trial_n":9,"n_dots":3.65,"target":"right","response":"right","rt":785,"correct":true,"confidence":-1},{"trial_n":10,"n_dots":3.65,"target":"right","response":"right","rt":605,"correct":true,"confidence":-1},{"trial_n":11,"n_dots":3.45,"target":"right","response":"right","rt":693,"correct":true,"confidence":-1},{"trial_n":12,"n_dots":3.45,"target":"left","response":"left","rt":650,"correct":true,"confidence":-1},{"trial_n":13,"n_dots":3.35,"target":"right","response":"right","rt":685,"correct":true,"confidence":-1},{"trial_n":14,"n_dots":3.35,"target":"right","response":"right","rt":655.99999999999,"correct":true,"confidence":-1},{"trial_n":15,"n_dots":3.25,"target":"right","response":"left","rt":770,"correct":false,"confidence":-1},{"trial_n":16,"n_dots":3.35,"target":"left","response":"left","rt":589,"correct":true,"confidence":-1},{"trial_n":17,"n_dots":3.35,"target":"left","response":"left","rt":930.99999999999,"correct":true,"confidence":-1},{"trial_n":18,"n_dots":3.25,"target":"right","response":"left","rt":690,"correct":false,"confidence":-1},{"trial_n":19,"n_dots":3.35,"target":"left","response":"left","rt":613,"correct":true,"confidence":-1},{"trial_n":20,"n_dots":3.35,"target":"left","response":"left","rt":586,"correct":true,"confidence":-1},{"trial_n":21,"n_dots":3.25,"target":"left","response":"left","rt":636,"correct":true,"confidence":3},{"trial_n":22,"n_dots":3.25,"target":"right","response":"right","rt":705.00000000001,"correct":true,"confidence":5},{"trial_n":23,"n_dots":3.15,"target":"left","response":"left","rt":801,"correct":true,"confidence":4},{"trial_n":24,"n_dots":3.15,"target":"right","response":"left","rt":629.00000000001,"correct":false,"confidence":4},{"trial_n":25,"n_dots":3.25,"target":"right","response":"right","rt":742,"correct":true,"confidence":3},{"trial_n":26,"n_dots":3.25,"target":"left","response":"left","rt":615,"correct":true,"confidence":4},{"trial_n":27,"n_dots":3.15,"target":"right","response":"left","rt":938,"correct":false,"confidence":2},{"trial_n":28,"n_dots":3.25,"target":"left","response":"left","rt":1026,"correct":true,"confidence":3},{"trial_n":29,"n_dots":3.25,"target":"left","response":"left","rt":664,"correct":true,"confidence":4},{"trial_n":30,"n_dots":3.15,"target":"left","response":"left","rt":637,"correct":true,"confidence":4},{"trial_n":31,"n_dots":3.15,"target":"right","response":"right","rt":614,"correct":true,"confidence":4},{"trial_n":32,"n_dots":3.05,"target":"left","response":"left","rt":810,"correct":true,"confidence":4},{"trial_n":33,"n_dots":3.05,"target":"left","response":"left","rt":709.99999999999,"correct":true,"confidence":3},{"trial_n":34,"n_dots":2.95,"target":"left","response":"left","rt":998.00000000001,"correct":true,"confidence":3},{"trial_n":35,"n_dots":2.95,"target":"left","response":"left","rt":989,"correct":true,"confidence":2},{"trial_n":36,"n_dots":2.85,"target":"right","response":"left","rt":907,"correct":false,"confidence":2},{"trial_n":37,"n_dots":2.95,"target":"left","response":"right","rt":1135,"correct":false,"confidence":2},{"trial_n":38,"n_dots":3.05,"target":"left","response":"left","rt":900,"correct":true,"confidence":3},{"trial_n":39,"n_dots":3.05,"target":"left","response":"left","rt":868,"correct":true,"confidence":3},{"trial_n":40,"n_dots":2.95,"target":"right","response":"left","rt":842.99999999997,"correct":false,"confidence":2},{"trial_n":41,"n_dots":3.05,"target":"right","response":"left","rt":780,"correct":false,"confidence":3},{"trial_n":42,"n_dots":3.15,"target":"right","response":"right","rt":1396,"correct":true,"confidence":3},{"trial_n":43,"n_dots":3.15,"target":"right","response":"right","rt":882,"correct":true,"confidence":3},{"trial_n":44,"n_dots":3.05,"target":"right","response":"right","rt":1642,"correct":true,"confidence":3},{"trial_n":45,"n_dots":3.05,"target":"right","response":"right","rt":661,"correct":true,"confidence":3},{"trial_n":46,"n_dots":2.95,"target":"left","response":"left","rt":716,"correct":true,"confidence":3},{"trial_n":47,"n_dots":2.95,"target":"right","response":"right","rt":851.99999999997,"correct":true,"confidence":3},{"trial_n":48,"n_dots":2.85,"target":"left","response":"left","rt":597,"correct":true,"confidence":3},{"trial_n":49,"n_dots":2.85,"target":"right","response":"right","rt":654.00000000003,"correct":true,"confidence":3},{"trial_n":50,"n_dots":2.75,"target":"right","response":"left","rt":819,"correct":false,"confidence":3},{"trial_n":51,"n_dots":2.85,"target":"left","response":"left","rt":1408,"correct":true,"confidence":2},{"trial_n":52,"n_dots":2.85,"target":"right","response":"left","rt":1063,"correct":false,"confidence":2},{"trial_n":53,"n_dots":2.95,"target":"left","response":"left","rt":1255,"correct":true,"confidence":2},{"trial_n":54,"n_dots":2.95,"target":"right","response":"left","rt":1341,"correct":false,"confidence":1},{"trial_n":55,"n_dots":3.05,"target":"right","response":"left","rt":1152,"correct":false,"confidence":1},{"trial_n":56,"n_dots":3.15,"target":"right","response":"right","rt":1461,"correct":true,"confidence":3},{"trial_n":57,"n_dots":3.15,"target":"right","response":"right","rt":1208,"correct":true,"confidence":3},{"trial_n":58,"n_dots":3.05,"target":"right","response":"right","rt":1126,"correct":true,"confidence":3},{"trial_n":59,"n_dots":3.05,"target":"right","response":"right","rt":1035,"correct":true,"confidence":4},{"trial_n":60,"n_dots":2.95,"target":"right","response":"right","rt":976,"correct":true,"confidence":4},{"trial_n":61,"n_dots":2.95,"target":"right","response":"right","rt":874.00000000003,"correct":true,"confidence":3},{"trial_n":62,"n_dots":2.85,"target":"left","response":"left","rt":1008,"correct":true,"confidence":3},{"trial_n":63,"n_dots":2.85,"target":"right","response":"right","rt":917.99999999997,"correct":true,"confidence":3},{"trial_n":64,"n_dots":2.75,"target":"right","response":"right","rt":920,"correct":true,"confidence":3},{"trial_n":65,"n_dots":2.75,"target":"left","response":"right","rt":790.00000000006,"correct":false,"confidence":3},{"trial_n":66,"n_dots":2.85,"target":"left","response":"right","rt":1165,"correct":false,"confidence":2},{"trial_n":67,"n_dots":2.95,"target":"left","response":"right","rt":696,"correct":false,"confidence":3},{"trial_n":68,"n_dots":3.05,"target":"left","response":"right","rt":785,"correct":false,"confidence":3},{"trial_n":69,"n_dots":3.15,"target":"right","response":"right","rt":714,"correct":true,"confidence":3},{"trial_n":70,"n_dots":3.15,"target":"left","response":"right","rt":923,"correct":false,"confidence":2},{"trial_n":71,"n_dots":3.25,"target":"left","response":"right","rt":736,"correct":false,"confidence":2},{"trial_n":72,"n_dots":3.35,"target":"left","response":"left","rt":1048.9999999999,"correct":true,"confidence":3},{"trial_n":73,"n_dots":3.35,"target":"right","response":"left","rt":1218,"correct":false,"confidence":2},{"trial_n":74,"n_dots":3.45,"target":"right","response":"right","rt":746,"correct":true,"confidence":4},{"trial_n":75,"n_dots":3.45,"target":"right","response":"right","rt":689.99999999994,"correct":true,"confidence":4},{"trial_n":76,"n_dots":3.35,"target":"right","response":"right","rt":907.00000000006,"correct":true,"confidence":4},{"trial_n":77,"n_dots":3.35,"target":"right","response":"right","rt":771,"correct":true,"confidence":4},{"trial_n":78,"n_dots":3.25,"target":"right","response":"right","rt":892,"correct":true,"confidence":4},{"trial_n":79,"n_dots":3.25,"target":"right","response":"right","rt":1074,"correct":true,"confidence":3},{"trial_n":80,"n_dots":3.15,"target":"left","response":"right","rt":770,"correct":false,"confidence":3},{"trial_n":81,"n_dots":3.25,"target":"right","response":"right","rt":1269,"correct":true,"confidence":4},{"trial_n":82,"n_dots":3.25,"target":"right","response":"right","rt":821,"correct":true,"confidence":4},{"trial_n":83,"n_dots":3.15,"target":"left","response":"right","rt":1651,"correct":false,"confidence":2},{"trial_n":84,"n_dots":3.25,"target":"left","response":"right","rt":1968.0000000001,"correct":false,"confidence":1},{"trial_n":85,"n_dots":3.35,"target":"right","response":"right","rt":685.99999999994,"correct":true,"confidence":3},{"trial_n":86,"n_dots":3.35,"target":"left","response":"left","rt":764,"correct":true,"confidence":3},{"trial_n":87,"n_dots":3.25,"target":"left","response":"left","rt":1085.0000000001,"correct":true,"confidence":1},{"trial_n":88,"n_dots":3.25,"target":"right","response":"right","rt":839,"correct":true,"confidence":3},{"trial_n":89,"n_dots":3.15,"target":"left","response":"right","rt":1367,"correct":false,"confidence":2},{"trial_n":90,"n_dots":3.25,"target":"right","response":"right","rt":911.99999999994,"correct":true,"confidence":2},{"trial_n":91,"n_dots":3.25,"target":"right","response":"right","rt":1381,"correct":true,"confidence":2},{"trial_n":92,"n_dots":3.15,"target":"right","response":"right","rt":885.00000000006,"correct":true,"confidence":3},{"trial_n":93,"n_dots":3.15,"target":"right","response":"right","rt":1182,"correct":true,"confidence":3},{"trial_n":94,"n_dots":3.05,"target":"left","response":"right","rt":1533,"correct":false,"confidence":2},{"trial_n":95,"n_dots":3.15,"target":"left","response":"right","rt":2349,"correct":false,"confidence":1},{"trial_n":96,"n_dots":3.25,"target":"left","response":"left","rt":1045,"correct":true,"confidence":3},{"trial_n":97,"n_dots":3.25,"target":"left","response":"left","rt":815,"correct":true,"confidence":3},{"trial_n":98,"n_dots":3.15,"target":"left","response":"left","rt":1128,"correct":true,"confidence":4},{"trial_n":99,"n_dots":3.15,"target":"right","response":"right","rt":881,"correct":true,"confidence":3},{"trial_n":100,"n_dots":3.05,"target":"left","response":"left","rt":1365,"correct":true,"confidence":2},{"trial_n":101,"n_dots":3.05,"target":"left","response":"right","rt":1004,"correct":false,"confidence":2},{"trial_n":102,"n_dots":3.15,"target":"right","response":"right","rt":775,"correct":true,"confidence":3},{"trial_n":103,"n_dots":3.15,"target":"left","response":"left","rt":863,"correct":true,"confidence":3},{"trial_n":104,"n_dots":3.05,"target":"left","response":"left","rt":911,"correct":true,"confidence":2},{"trial_n":105,"n_dots":3.05,"target":"left","response":"left","rt":814,"correct":true,"confidence":3},{"trial_n":106,"n_dots":2.95,"target":"left","response":"left","rt":852,"correct":true,"confidence":3},{"trial_n":107,"n_dots":2.95,"target":"left","response":"left","rt":786,"correct":true,"confidence":2},{"trial_n":108,"n_dots":2.85,"target":"right","response":"right","rt":720,"correct":true,"confidence":4},{"trial_n":109,"n_dots":2.85,"target":"right","response":"right","rt":833,"correct":true,"confidence":2},{"trial_n":110,"n_dots":2.75,"target":"right","response":"right","rt":600,"correct":true,"confidence":4},{"trial_n":111,"n_dots":2.75,"target":"left","response":"right","rt":613,"correct":false,"confidence":3},{"trial_n":112,"n_dots":2.85,"target":"left","response":"left","rt":672,"correct":true,"confidence":2},{"trial_n":113,"n_dots":2.85,"target":"left","response":"right","rt":458,"correct":false,"confidence":3},{"trial_n":114,"n_dots":2.95,"target":"left","response":"left","rt":638,"correct":true,"confidence":3},{"trial_n":115,"n_dots":2.95,"target":"right","response":"right","rt":840.00000000006,"correct":true,"confidence":3},{"trial_n":116,"n_dots":2.85,"target":"left","response":"left","rt":2713,"correct":true,"confidence":2},{"trial_n":117,"n_dots":2.85,"target":"right","response":"right","rt":619,"correct":true,"confidence":1},{"trial_n":118,"n_dots":2.75,"target":"right","response":"right","rt":1313,"correct":true,"confidence":2},{"trial_n":119,"n_dots":2.75,"target":"left","response":"left","rt":733,"correct":true,"confidence":2},{"trial_n":120,"n_dots":2.65,"target":"left","response":"left","rt":825,"correct":true,"confidence":2}]