[{"trial_n":1,"span":8,"encoder":"33376978","distractor":"33376378","target":"present","response":"absent","rt":"8950.2999999821","correct":false,"confidence":-1},{"trial_n":2,"span":6,"encoder":"716097","distractor":"716099","target":"present","response":"absent","rt":"5923.7999999821","correct":false,"confidence":-1},{"trial_n":3,"span":4,"encoder":"7965","distractor":"7985","target":"absent","response":"absent","rt":"2840.5","correct":true,"confidence":-1},{"trial_n":4,"span":4,"encoder":"2695","distractor":"2699","target":"absent","response":"absent","rt":"1703.5","correct":true,"confidence":-1},{"trial_n":5,"span":6,"encoder":"512644","distractor":"512614","target":"present","response":"present","rt":"2612","correct":true,"confidence":-1},{"trial_n":6,"span":6,"encoder":"645380","distractor":"645350","target":"present","response":"present","rt":"2303.900000006","correct":true,"confidence":-1},{"trial_n":7,"span":8,"encoder":"67484429","distractor":"67484422","target":"present","response":"present","rt":"2443.7000000179","correct":true,"confidence":-1},{"trial_n":8,"span":8,"encoder":"41992402","distractor":"41922402","target":"present","response":"present","rt":"2471.900000006","correct":true,"confidence":-1},{"trial_n":9,"span":10,"encoder":"8540263721","distractor":"8540223721","target":"present","response":"present","rt":"2909.6000000238","correct":true,"confidence":-1},{"trial_n":10,"span":10,"encoder":"7727951490","distractor":"7777951490","target":"absent","response":"absent","rt":"1936","correct":true,"confidence":-1},{"trial_n":11,"span":12,"encoder":"515554741593","distractor":"615554741593","target":"present","response":"present","rt":"2859.7000000179","correct":true,"confidence":-1},{"trial_n":12,"span":12,"encoder":"208928564114","distractor":"208924564114","target":"absent","response":"present","rt":"2786.6999999881","correct":false,"confidence":-1},{"trial_n":13,"span":11,"encoder":"53850773209","distractor":"53859773209","target":"absent","response":"absent","rt":"4019.2999999821","correct":true,"confidence":-1},{"trial_n":14,"span":11,"encoder":"34943114400","distractor":"34943114403","target":"present","response":"present","rt":"1930.099999994","correct":true,"confidence":-1},{"trial_n":15,"span":12,"encoder":"395693892124","distractor":"390693892124","target":"present","response":"present","rt":"1647.7000000179","correct":true,"confidence":-1},{"trial_n":16,"span":12,"encoder":"221913418838","distractor":"220913418838","target":"absent","response":"present","rt":"1959","correct":false,"confidence":-1},{"trial_n":17,"span":11,"encoder":"93822895177","distractor":"93832895177","target":"present","response":"present","rt":"1327.1000000238","correct":true,"confidence":-1},{"trial_n":18,"span":11,"encoder":"53859983427","distractor":"53759983427","target":"absent","response":"absent","rt":"2076.5","correct":true,"confidence":-1},{"trial_n":19,"span":12,"encoder":"686506598374","distractor":"686506298374","target":"absent","response":"absent","rt":"8229.900000006","correct":true,"confidence":-1},{"trial_n":20,"span":12,"encoder":"211844582120","distractor":"911844582120","target":"present","response":"present","rt":"2204.1000000238","correct":true,"confidence":-1},{"trial_n":21,"span":13,"encoder":"1366027314917","distractor":"1366027314417","target":"present","response":"absent","rt":"6791.1000000238","correct":false,"confidence":3},{"trial_n":22,"span":12,"encoder":"814360790495","distractor":"714360790495","target":"present","response":"present","rt":"4277","correct":true,"confidence":3},{"trial_n":23,"span":12,"encoder":"568934661817","distractor":"568934681817","target":"present","response":"absent","rt":"9682.099999994","correct":false,"confidence":4},{"trial_n":24,"span":11,"encoder":"15715511510","distractor":"15415511510","target":"absent","response":"present","rt":"5205.099999994","correct":false,"confidence":2},{"trial_n":25,"span":10,"encoder":"5997056713","distractor":"5957056713","target":"absent","response":"present","rt":"20589.300000012","correct":false,"confidence":1},{"trial_n":26,"span":9,"encoder":"614331112","distractor":"614333112","target":"absent","response":"present","rt":"4263.6999999881","correct":false,"confidence":4},{"trial_n":27,"span":8,"encoder":"54473760","distractor":"54473740","target":"absent","response":"absent","rt":"4650.400000006","correct":true,"confidence":5},{"trial_n":28,"span":8,"encoder":"88819354","distractor":"88817354","target":"absent","response":"absent","rt":"4206.7000000179","correct":true,"confidence":5},{"trial_n":29,"span":9,"encoder":"624900707","distractor":"624900407","target":"present","response":"present","rt":"2641.7999999821","correct":true,"confidence":4},{"trial_n":30,"span":9,"encoder":"354096417","distractor":"354093417","target":"present","response":"absent","rt":"5013.599999994","correct":false,"confidence":3},{"trial_n":31,"span":8,"encoder":"66006810","distractor":"66006710","target":"absent","response":"absent","rt":"2770.400000006","correct":true,"confidence":4},{"trial_n":32,"span":8,"encoder":"81899843","distractor":"51899843","target":"absent","response":"present","rt":"3899.099999994","correct":false,"confidence":3},{"trial_n":33,"span":7,"encoder":"4363158","distractor":"4363178","target":"absent","response":"absent","rt":"5203.099999994","correct":true,"confidence":4},{"trial_n":34,"span":7,"encoder":"7736887","distractor":"7736882","target":"present","response":"present","rt":"2610.599999994","correct":true,"confidence":5},{"trial_n":35,"span":8,"encoder":"62740092","distractor":"62740192","target":"present","response":"present","rt":"2255.6999999881","correct":true,"confidence":3},{"trial_n":36,"span":8,"encoder":"91255239","distractor":"91755239","target":"absent","response":"present","rt":"3058.900000006","correct":false,"confidence":3},{"trial_n":37,"span":7,"encoder":"6764817","distractor":"6768817","target":"absent","response":"present","rt":"1563.5","correct":false,"confidence":4},{"trial_n":38,"span":6,"encoder":"299187","distractor":"799187","target":"present","response":"present","rt":"2157.900000006","correct":true,"confidence":5},{"trial_n":39,"span":6,"encoder":"082156","distractor":"082116","target":"present","response":"present","rt":"1705","correct":true,"confidence":2},{"trial_n":40,"span":7,"encoder":"8588009","distractor":"8588309","target":"present","response":"present","rt":"2700.5","correct":true,"confidence":4},{"trial_n":41,"span":7,"encoder":"3287113","distractor":"3287163","target":"present","response":"present","rt":"2870","correct":true,"confidence":4},{"trial_n":42,"span":8,"encoder":"24159620","distractor":"24109620","target":"present","response":"present","rt":"3419.099999994","correct":true,"confidence":5},{"trial_n":43,"span":8,"encoder":"15551870","distractor":"15511870","target":"present","response":"present","rt":"2220.6999999881","correct":true,"confidence":5},{"trial_n":44,"span":9,"encoder":"485419466","distractor":"785419466","target":"absent","response":"absent","rt":"3304.400000006","correct":true,"confidence":2},{"trial_n":45,"span":9,"encoder":"520718115","distractor":"520718125","target":"absent","response":"present","rt":"2263.8000000119","correct":false,"confidence":1},{"trial_n":46,"span":8,"encoder":"16610917","distractor":"16610617","target":"absent","response":"absent","rt":"3110.400000006","correct":true,"confidence":3},{"trial_n":47,"span":8,"encoder":"59429904","distractor":"29429904","target":"absent","response":"present","rt":"2168.7000000179","correct":false,"confidence":3},{"trial_n":48,"span":7,"encoder":"0455250","distractor":"0453250","target":"present","response":"present","rt":"3502.5","correct":true,"confidence":4},{"trial_n":49,"span":7,"encoder":"9002432","distractor":"9502432","target":"absent","response":"absent","rt":"3617.400000006","correct":true,"confidence":4},{"trial_n":50,"span":8,"encoder":"62875720","distractor":"62875730","target":"absent","response":"absent","rt":"4530.2000000179","correct":true,"confidence":2},{"trial_n":51,"span":8,"encoder":"56426670","distractor":"56426677","target":"present","response":"absent","rt":"2378.2999999821","correct":false,"confidence":1},{"trial_n":52,"span":7,"encoder":"6238182","distractor":"6038182","target":"present","response":"present","rt":"2963.2000000179","correct":true,"confidence":3},{"trial_n":53,"span":7,"encoder":"4279131","distractor":"4279161","target":"absent","response":"absent","rt":"1489.3999999762","correct":true,"confidence":5},{"trial_n":54,"span":8,"encoder":"05132093","distractor":"05532093","target":"present","response":"absent","rt":"5865.099999994","correct":false,"confidence":2},{"trial_n":55,"span":7,"encoder":"5721366","distractor":"5721316","target":"absent","response":"absent","rt":"3013.5","correct":true,"confidence":2},{"trial_n":56,"span":7,"encoder":"5504681","distractor":"5404681","target":"absent","response":"present","rt":"3249.8000000119","correct":false,"confidence":1},{"trial_n":57,"span":6,"encoder":"541340","distractor":"540340","target":"present","response":"present","rt":"2138.3000000119","correct":true,"confidence":4},{"trial_n":58,"span":6,"encoder":"793418","distractor":"797418","target":"present","response":"present","rt":"1948.8999999762","correct":true,"confidence":4},{"trial_n":59,"span":7,"encoder":"9452642","distractor":"9052642","target":"absent","response":"present","rt":"5429.599999994","correct":false,"confidence":3},{"trial_n":60,"span":6,"encoder":"615797","distractor":"515797","target":"present","response":"absent","rt":"3062.8000000119","correct":false,"confidence":1},{"trial_n":61,"span":5,"encoder":"11070","distractor":"11072","target":"absent","response":"absent","rt":"4804.099999994","correct":true,"confidence":3},{"trial_n":62,"span":5,"encoder":"78678","distractor":"78672","target":"present","response":"present","rt":"2819.5","correct":true,"confidence":2},{"trial_n":63,"span":6,"encoder":"969394","distractor":"961394","target":"absent","response":"absent","rt":"3570.1999999881","correct":true,"confidence":3},{"trial_n":64,"span":6,"encoder":"503808","distractor":"503801","target":"absent","response":"absent","rt":"1698.5","correct":true,"confidence":4},{"trial_n":65,"span":7,"encoder":"0531692","distractor":"0531694","target":"absent","response":"absent","rt":"1475.400000006","correct":true,"confidence":5},{"trial_n":66,"span":7,"encoder":"6765468","distractor":"6765462","target":"absent","response":"absent","rt":"1324.599999994","correct":true,"confidence":5},{"trial_n":67,"span":8,"encoder":"91522820","distractor":"91522120","target":"absent","response":"absent","rt":"2985.8000000119","correct":true,"confidence":3},{"trial_n":68,"span":8,"encoder":"27702282","distractor":"27732282","target":"present","response":"present","rt":"2066.1999999881","correct":true,"confidence":4},{"trial_n":69,"span":9,"encoder":"417640629","distractor":"417640129","target":"present","response":"present","rt":"1553.400000006","correct":true,"confidence":3},{"trial_n":70,"span":9,"encoder":"372045518","distractor":"372445518","target":"present","response":"present","rt":"2867","correct":true,"confidence":4},{"trial_n":71,"span":8,"encoder":"37354506","distractor":"37154506","target":"present","response":"present","rt":"4939.6999999881","correct":true,"confidence":-1},{"trial_n":72,"span":8,"encoder":"12491910","distractor":"18491910","target":"present","response":"present","rt":"2796.3000000119","correct":true,"confidence":-1},{"trial_n":73,"span":9,"encoder":"399495301","distractor":"399495001","target":"absent","response":"absent","rt":"1937","correct":true,"confidence":-1},{"trial_n":74,"span":9,"encoder":"156411874","distractor":"156611874","target":"absent","response":"absent","rt":"3774","correct":true,"confidence":-1},{"trial_n":75,"span":10,"encoder":"2867201357","distractor":"2567201357","target":"present","response":"absent","rt":"5027.900000006","correct":false,"confidence":-1},{"trial_n":76,"span":9,"encoder":"399449908","distractor":"397449908","target":"absent","response":"present","rt":"5102.2999999821","correct":false,"confidence":-1},{"trial_n":77,"span":8,"encoder":"57423205","distractor":"37423205","target":"present","response":"absent","rt":"3576","correct":false,"confidence":-1},{"trial_n":78,"span":7,"encoder":"1837459","distractor":"1837479","target":"present","response":"present","rt":"3550","correct":true,"confidence":-1},{"trial_n":79,"span":7,"encoder":"1626126","distractor":"1426126","target":"absent","response":"present","rt":"3573.1999999881","correct":false,"confidence":-1},{"trial_n":80,"span":6,"encoder":"615393","distractor":"415393","target":"present","response":"present","rt":"2537.7000000179","correct":true,"confidence":-1},{"trial_n":81,"span":6,"encoder":"025868","distractor":"015868","target":"absent","response":"present","rt":"2280.599999994","correct":false,"confidence":-1},{"trial_n":82,"span":5,"encoder":"98027","distractor":"98067","target":"absent","response":"absent","rt":"1778","correct":true,"confidence":-1},{"trial_n":83,"span":5,"encoder":"84975","distractor":"44975","target":"absent","response":"present","rt":"2687.5","correct":false,"confidence":-1},{"trial_n":84,"span":4,"encoder":"8304","distractor":"8364","target":"absent","response":"present","rt":"1538.900000006","correct":false,"confidence":-1},{"trial_n":85,"span":3,"encoder":"790","distractor":"700","target":"present","response":"present","rt":"1507.8999999762","correct":true,"confidence":-1},{"trial_n":86,"span":3,"encoder":"290","distractor":"200","target":"present","response":"present","rt":"869.40000000596","correct":true,"confidence":-1},{"trial_n":87,"span":4,"encoder":"6474","distractor":"6476","target":"absent","response":"absent","rt":"1440","correct":true,"confidence":-1},{"trial_n":88,"span":4,"encoder":"4608","distractor":"4208","target":"absent","response":"absent","rt":"2257.900000006","correct":true,"confidence":-1},{"trial_n":89,"span":5,"encoder":"69833","distractor":"49833","target":"absent","response":"present","rt":"1955.599999994","correct":false,"confidence":-1},{"trial_n":90,"span":4,"encoder":"3878","distractor":"3877","target":"present","response":"present","rt":"1264.7000000179","correct":true,"confidence":-1},{"trial_n":91,"span":4,"encoder":"8459","distractor":"8449","target":"absent","response":"absent","rt":"1812.099999994","correct":true,"confidence":5},{"trial_n":92,"span":5,"encoder":"83195","distractor":"83194","target":"present","response":"present","rt":"2739.3999999762","correct":true,"confidence":5},{"trial_n":93,"span":5,"encoder":"00855","distractor":"00255","target":"present","response":"present","rt":"2953","correct":true,"confidence":3},{"trial_n":94,"span":6,"encoder":"774201","distractor":"704201","target":"absent","response":"absent","rt":"2592.599999994","correct":true,"confidence":3},{"trial_n":95,"span":6,"encoder":"894288","distractor":"894268","target":"present","response":"present","rt":"3800.099999994","correct":true,"confidence":4},{"trial_n":96,"span":7,"encoder":"9598555","distractor":"9698555","target":"present","response":"present","rt":"4907.900000006","correct":true,"confidence":3},{"trial_n":97,"span":7,"encoder":"2527488","distractor":"2927488","target":"present","response":"present","rt":"4707.900000006","correct":true,"confidence":3},{"trial_n":98,"span":8,"encoder":"54619970","distractor":"54618970","target":"present","response":"present","rt":"3123.599999994","correct":true,"confidence":4},{"trial_n":99,"span":8,"encoder":"59966239","distractor":"57966239","target":"absent","response":"present","rt":"3996.400000006","correct":false,"confidence":2},{"trial_n":100,"span":7,"encoder":"1914732","distractor":"0914732","target":"present","response":"present","rt":"2264.7000000179","correct":true,"confidence":4},{"trial_n":101,"span":7,"encoder":"1466179","distractor":"1464179","target":"absent","response":"absent","rt":"5357","correct":true,"confidence":1},{"trial_n":102,"span":8,"encoder":"30803788","distractor":"30803786","target":"absent","response":"absent","rt":"2751.8000000119","correct":true,"confidence":2},{"trial_n":103,"span":8,"encoder":"76807078","distractor":"76007078","target":"present","response":"present","rt":"3015.1999999881","correct":true,"confidence":4},{"trial_n":104,"span":9,"encoder":"010754099","distractor":"030754099","target":"absent","response":"absent","rt":"3763.8000000119","correct":true,"confidence":1},{"trial_n":105,"span":9,"encoder":"568909308","distractor":"562909308","target":"absent","response":"present","rt":"4773.400000006","correct":false,"confidence":2},{"trial_n":106,"span":8,"encoder":"25917627","distractor":"25916627","target":"present","response":"present","rt":"2405.400000006","correct":true,"confidence":1},{"trial_n":107,"span":8,"encoder":"74757530","distractor":"74757330","target":"present","response":"present","rt":"3511.7000000179","correct":true,"confidence":2},{"trial_n":108,"span":9,"encoder":"168899606","distractor":"168890606","target":"absent","response":"absent","rt":"4922.8000000119","correct":true,"confidence":3},{"trial_n":109,"span":9,"encoder":"266093892","distractor":"266093852","target":"present","response":"present","rt":"10195","correct":true,"confidence":3},{"trial_n":110,"span":10,"encoder":"3106744802","distractor":"3106744502","target":"present","response":"present","rt":"2311.1999999881","correct":true,"confidence":4},{"trial_n":111,"span":10,"encoder":"4702917171","distractor":"4762917171","target":"present","response":"present","rt":"4914.1000000238","correct":true,"confidence":2},{"trial_n":112,"span":11,"encoder":"43258987304","distractor":"73258987304","target":"absent","response":"present","rt":"7704.099999994","correct":false,"confidence":2},{"trial_n":113,"span":10,"encoder":"0569654674","distractor":"0569650674","target":"present","response":"present","rt":"3298.1999999881","correct":true,"confidence":3},{"trial_n":114,"span":10,"encoder":"5802437717","distractor":"5002437717","target":"present","response":"present","rt":"4490.6999999881","correct":true,"confidence":3},{"trial_n":115,"span":11,"encoder":"31896780957","distractor":"31596780957","target":"absent","response":"present","rt":"4950.099999994","correct":false,"confidence":3},{"trial_n":116,"span":10,"encoder":"9677589486","distractor":"9677589487","target":"present","response":"absent","rt":"8583.099999994","correct":false,"confidence":3},{"trial_n":117,"span":9,"encoder":"488886923","distractor":"458886923","target":"absent","response":"absent","rt":"5373.2999999821","correct":true,"confidence":3},{"trial_n":118,"span":9,"encoder":"464225296","distractor":"464221296","target":"present","response":"present","rt":"3962.5","correct":true,"confidence":4},{"trial_n":119,"span":10,"encoder":"5990571185","distractor":"5990071185","target":"present","response":"absent","rt":"5512","correct":false,"confidence":3},{"trial_n":120,"span":9,"encoder":"159302984","distractor":"159302983","target":"absent","response":"absent","rt":"1629.8999999762","correct":true,"confidence":4},{"trial_n":121,"span":9,"encoder":"604632557","distractor":"604632527","target":"present","response":"present","rt":"2268.2000000179","correct":true,"confidence":4},{"trial_n":122,"span":10,"encoder":"0914935520","distractor":"0914935220","target":"present","response":"present","rt":"15868.700000018","correct":true,"confidence":1},{"trial_n":123,"span":10,"encoder":"5332280325","distractor":"5332280355","target":"present","response":"present","rt":"5116.599999994","correct":true,"confidence":4},{"trial_n":124,"span":11,"encoder":"45206397461","distractor":"45206397464","target":"absent","response":"absent","rt":"1673.2999999821","correct":true,"confidence":5},{"trial_n":125,"span":11,"encoder":"06690203267","distractor":"06690203264","target":"absent","response":"absent","rt":"2256","correct":true,"confidence":4},{"trial_n":126,"span":12,"encoder":"473014529723","distractor":"473014589723","target":"present","response":"absent","rt":"11104.799999982","correct":false,"confidence":2},{"trial_n":127,"span":11,"encoder":"96807781853","distractor":"46807781853","target":"present","response":"present","rt":"4435.099999994","correct":true,"confidence":3},{"trial_n":128,"span":11,"encoder":"78401641953","distractor":"78403641953","target":"present","response":"present","rt":"6348.599999994","correct":true,"confidence":2},{"trial_n":129,"span":12,"encoder":"134811105312","distractor":"134811105412","target":"absent","response":"absent","rt":"3021.3000000119","correct":true,"confidence":4},{"trial_n":130,"span":12,"encoder":"242700187549","distractor":"242500187549","target":"absent","response":"absent","rt":"4511.7000000179","correct":true,"confidence":3},{"trial_n":131,"span":13,"encoder":"5498193505487","distractor":"5298193505487","target":"absent","response":"absent","rt":"9862.400000006","correct":true,"confidence":1},{"trial_n":132,"span":13,"encoder":"8536003287962","distractor":"7536003287962","target":"absent","response":"absent","rt":"6424.599999994","correct":true,"confidence":3},{"trial_n":133,"span":14,"encoder":"96350391505062","distractor":"96350391502062","target":"absent","response":"absent","rt":"3928.400000006","correct":true,"confidence":4},{"trial_n":134,"span":14,"encoder":"87804525428089","distractor":"87804525428081","target":"absent","response":"absent","rt":"12190.700000018","correct":true,"confidence":3},{"trial_n":135,"span":15,"encoder":"078205516681308","distractor":"008205516681308","target":"present","response":"absent","rt":"8622.1000000238","correct":false,"confidence":1},{"trial_n":136,"span":14,"encoder":"60940413203328","distractor":"60540413203328","target":"absent","response":"present","rt":"4522.5","correct":false,"confidence":1},{"trial_n":137,"span":13,"encoder":"9179948190688","distractor":"9179948190682","target":"absent","response":"absent","rt":"1819.5","correct":true,"confidence":4},{"trial_n":138,"span":13,"encoder":"8453139979144","distractor":"8453139979744","target":"present","response":"present","rt":"2670.900000006","correct":true,"confidence":3},{"trial_n":139,"span":14,"encoder":"74734355884696","distractor":"74734355884656","target":"present","response":"present","rt":"3371","correct":true,"confidence":2},{"trial_n":140,"span":14,"encoder":"91273496091146","distractor":"94273496091146","target":"absent","response":"present","rt":"9072.3999999762","correct":false,"confidence":1}]