[{"trial_n":1,"n_dots":4.25,"target":"left","response":"right","rt":8759,"correct":false,"confidence":-1},{"trial_n":2,"n_dots":4.25,"target":"right","response":"right","rt":3343,"correct":true,"confidence":-1},{"trial_n":3,"n_dots":4.25,"target":"left","response":"left","rt":1222,"correct":true,"confidence":-1},{"trial_n":4,"n_dots":3.85,"target":"left","response":"right","rt":878,"correct":false,"confidence":-1},{"trial_n":5,"n_dots":4.25,"target":"left","response":"left","rt":807,"correct":true,"confidence":-1},{"trial_n":6,"n_dots":4.25,"target":"left","response":"left","rt":1350,"correct":true,"confidence":-1},{"trial_n":7,"n_dots":3.85,"target":"left","response":"left","rt":1204,"correct":true,"confidence":-1},{"trial_n":8,"n_dots":3.85,"target":"left","response":"left","rt":1327,"correct":true,"confidence":-1},{"trial_n":9,"n_dots":3.65,"target":"right","response":"left","rt":1226,"correct":false,"confidence":-1},{"trial_n":10,"n_dots":3.85,"target":"left","response":"right","rt":1046,"correct":false,"confidence":-1},{"trial_n":11,"n_dots":4.05,"target":"left","response":"left","rt":840,"correct":true,"confidence":-1},{"trial_n":12,"n_dots":4.05,"target":"right","response":"right","rt":709,"correct":true,"confidence":-1},{"trial_n":13,"n_dots":3.95,"target":"right","response":"right","rt":182,"correct":true,"confidence":-1},{"trial_n":14,"n_dots":3.95,"target":"right","response":"right","rt":219.00000000001,"correct":true,"confidence":-1},{"trial_n":15,"n_dots":3.85,"target":"right","response":"right","rt":577,"correct":true,"confidence":-1},{"trial_n":16,"n_dots":3.85,"target":"right","response":"right","rt":553.99999999999,"correct":true,"confidence":-1},{"trial_n":17,"n_dots":3.75,"target":"left","response":"right","rt":510,"correct":false,"confidence":-1},{"trial_n":18,"n_dots":3.85,"target":"right","response":"right","rt":415.99999999999,"correct":true,"confidence":-1},{"trial_n":19,"n_dots":3.85,"target":"left","response":"left","rt":815,"correct":true,"confidence":-1},{"trial_n":20,"n_dots":3.75,"target":"left","response":"right","rt":1011,"correct":false,"confidence":-1},{"trial_n":21,"n_dots":3.85,"target":"left","response":"left","rt":659,"correct":true,"confidence":3},{"trial_n":22,"n_dots":3.85,"target":"left","response":"right","rt":814,"correct":false,"confidence":3},{"trial_n":23,"n_dots":3.95,"target":"right","response":"right","rt":729,"correct":true,"confidence":3},{"trial_n":24,"n_dots":3.95,"target":"left","response":"right","rt":910,"correct":false,"confidence":2},{"trial_n":25,"n_dots":4.05,"target":"right","response":"right","rt":399,"correct":true,"confidence":3},{"trial_n":26,"n_dots":4.05,"target":"right","response":"right","rt":573.99999999814,"correct":true,"confidence":4},{"trial_n":27,"n_dots":3.95,"target":"right","response":"right","rt":458,"correct":true,"confidence":4},{"trial_n":28,"n_dots":3.95,"target":"left","response":"left","rt":859,"correct":true,"confidence":3},{"trial_n":29,"n_dots":3.85,"target":"left","response":"left","rt":923,"correct":true,"confidence":4},{"trial_n":30,"n_dots":3.85,"target":"right","response":"right","rt":691,"correct":true,"confidence":3},{"trial_n":31,"n_dots":3.75,"target":"right","response":"right","rt":591,"correct":true,"confidence":3},{"trial_n":32,"n_dots":3.75,"target":"left","response":"right","rt":525,"correct":false,"confidence":3},{"trial_n":33,"n_dots":3.85,"target":"right","response":"right","rt":394,"correct":true,"confidence":3},{"trial_n":34,"n_dots":3.85,"target":"left","response":"left","rt":941,"correct":true,"confidence":3},{"trial_n":35,"n_dots":3.75,"target":"left","response":"right","rt":705,"correct":false,"confidence":3},{"trial_n":36,"n_dots":3.85,"target":"right","response":"right","rt":565,"correct":true,"confidence":3},{"trial_n":37,"n_dots":3.85,"target":"right","response":"left","rt":2821,"correct":false,"confidence":2},{"trial_n":38,"n_dots":3.95,"target":"left","response":"right","rt":552,"correct":false,"confidence":3},{"trial_n":39,"n_dots":4.05,"target":"right","response":"right","rt":490,"correct":true,"confidence":4},{"trial_n":40,"n_dots":4.05,"target":"right","response":"right","rt":591,"correct":true,"confidence":4},{"trial_n":41,"n_dots":3.95,"target":"right","response":"left","rt":1640,"correct":false,"confidence":2},{"trial_n":42,"n_dots":4.05,"target":"left","response":"left","rt":509,"correct":true,"confidence":3},{"trial_n":43,"n_dots":4.05,"target":"right","response":"right","rt":311.00000000186,"correct":true,"confidence":3},{"trial_n":44,"n_dots":3.95,"target":"right","response":"right","rt":397,"correct":true,"confidence":3},{"trial_n":45,"n_dots":3.95,"target":"left","response":"left","rt":1045,"correct":true,"confidence":3},{"trial_n":46,"n_dots":3.85,"target":"right","response":"right","rt":625,"correct":true,"confidence":3},{"trial_n":47,"n_dots":3.85,"target":"left","response":"left","rt":568,"correct":true,"confidence":3},{"trial_n":48,"n_dots":3.75,"target":"left","response":"right","rt":693,"correct":false,"confidence":3},{"trial_n":49,"n_dots":3.85,"target":"left","response":"right","rt":2235,"correct":false,"confidence":2},{"trial_n":50,"n_dots":3.95,"target":"right","response":"right","rt":501.99999999814,"correct":true,"confidence":3},{"trial_n":51,"n_dots":3.95,"target":"left","response":"left","rt":1139,"correct":true,"confidence":3},{"trial_n":52,"n_dots":3.85,"target":"left","response":"right","rt":355,"correct":false,"confidence":3},{"trial_n":53,"n_dots":3.95,"target":"left","response":"left","rt":707,"correct":true,"confidence":3},{"trial_n":54,"n_dots":3.95,"target":"right","response":"right","rt":354.99999999814,"correct":true,"confidence":3},{"trial_n":55,"n_dots":3.85,"target":"left","response":"right","rt":636,"correct":false,"confidence":2},{"trial_n":56,"n_dots":3.95,"target":"right","response":"right","rt":394,"correct":true,"confidence":3},{"trial_n":57,"n_dots":3.95,"target":"left","response":"left","rt":516,"correct":true,"confidence":3},{"trial_n":58,"n_dots":3.85,"target":"left","response":"left","rt":365,"correct":true,"confidence":3},{"trial_n":59,"n_dots":3.85,"target":"left","response":"left","rt":955,"correct":true,"confidence":2},{"trial_n":60,"n_dots":3.75,"target":"right","response":"right","rt":332,"correct":true,"confidence":3},{"trial_n":61,"n_dots":3.75,"target":"right","response":"right","rt":1052,"correct":true,"confidence":4},{"trial_n":62,"n_dots":3.65,"target":"right","response":"right","rt":515,"correct":true,"confidence":4},{"trial_n":63,"n_dots":3.65,"target":"right","response":"right","rt":260,"correct":true,"confidence":4},{"trial_n":64,"n_dots":3.55,"target":"right","response":"right","rt":869,"correct":true,"confidence":4},{"trial_n":65,"n_dots":3.55,"target":"left","response":"left","rt":610,"correct":true,"confidence":4},{"trial_n":66,"n_dots":3.45,"target":"left","response":"left","rt":627,"correct":true,"confidence":4},{"trial_n":67,"n_dots":3.45,"target":"left","response":"left","rt":577,"correct":true,"confidence":3},{"trial_n":68,"n_dots":3.35,"target":"left","response":"right","rt":328.00000000186,"correct":false,"confidence":3},{"trial_n":69,"n_dots":3.45,"target":"right","response":"right","rt":304,"correct":true,"confidence":3},{"trial_n":70,"n_dots":3.45,"target":"left","response":"left","rt":534,"correct":true,"confidence":3},{"trial_n":71,"n_dots":3.35,"target":"right","response":"right","rt":223,"correct":true,"confidence":4},{"trial_n":72,"n_dots":3.35,"target":"left","response":"left","rt":223,"correct":true,"confidence":3},{"trial_n":73,"n_dots":3.25,"target":"left","response":"left","rt":921,"correct":true,"confidence":3},{"trial_n":74,"n_dots":3.25,"target":"right","response":"right","rt":975.00000000186,"correct":true,"confidence":3},{"trial_n":75,"n_dots":3.15,"target":"right","response":"right","rt":605,"correct":true,"confidence":3},{"trial_n":76,"n_dots":3.15,"target":"right","response":"left","rt":811.99999999814,"correct":false,"confidence":2},{"trial_n":77,"n_dots":3.25,"target":"left","response":"right","rt":461,"correct":false,"confidence":3},{"trial_n":78,"n_dots":3.35,"target":"right","response":"right","rt":406,"correct":true,"confidence":3},{"trial_n":79,"n_dots":3.35,"target":"right","response":"right","rt":281,"correct":true,"confidence":3},{"trial_n":80,"n_dots":3.25,"target":"left","response":"left","rt":86,"correct":true,"confidence":3},{"trial_n":81,"n_dots":3.25,"target":"right","response":"right","rt":301,"correct":true,"confidence":3},{"trial_n":82,"n_dots":3.15,"target":"left","response":"left","rt":503,"correct":true,"confidence":3},{"trial_n":83,"n_dots":3.15,"target":"right","response":"right","rt":220,"correct":true,"confidence":3},{"trial_n":84,"n_dots":3.05,"target":"right","response":"right","rt":80,"correct":true,"confidence":4},{"trial_n":85,"n_dots":3.05,"target":"right","response":"right","rt":348,"correct":true,"confidence":4},{"trial_n":86,"n_dots":2.95,"target":"right","response":"right","rt":435,"correct":true,"confidence":4},{"trial_n":87,"n_dots":2.95,"target":"left","response":"left","rt":879,"correct":true,"confidence":4},{"trial_n":88,"n_dots":2.85,"target":"left","response":"right","rt":351.00000000186,"correct":false,"confidence":3},{"trial_n":89,"n_dots":2.95,"target":"left","response":"right","rt":456,"correct":false,"confidence":3},{"trial_n":90,"n_dots":3.05,"target":"left","response":"right","rt":421,"correct":false,"confidence":3},{"trial_n":91,"n_dots":3.15,"target":"left","response":"left","rt":946,"correct":true,"confidence":3},{"trial_n":92,"n_dots":3.15,"target":"right","response":"right","rt":327.00000000186,"correct":true,"confidence":3},{"trial_n":93,"n_dots":3.05,"target":"right","response":"right","rt":384,"correct":true,"confidence":3},{"trial_n":94,"n_dots":3.05,"target":"right","response":"right","rt":232,"correct":true,"confidence":3},{"trial_n":95,"n_dots":2.95,"target":"left","response":"right","rt":263,"correct":false,"confidence":3},{"trial_n":96,"n_dots":3.05,"target":"right","response":"right","rt":381,"correct":true,"confidence":3},{"trial_n":97,"n_dots":3.05,"target":"right","response":"right","rt":102,"correct":true,"confidence":4},{"trial_n":98,"n_dots":2.95,"target":"left","response":"right","rt":387,"correct":false,"confidence":3},{"trial_n":99,"n_dots":3.05,"target":"right","response":"left","rt":672,"correct":false,"confidence":3},{"trial_n":100,"n_dots":3.15,"target":"left","response":"right","rt":1155,"correct":false,"confidence":2},{"trial_n":101,"n_dots":3.25,"target":"left","response":"right","rt":-55,"correct":false,"confidence":3},{"trial_n":102,"n_dots":3.35,"target":"left","response":"left","rt":252,"correct":true,"confidence":3},{"trial_n":103,"n_dots":3.35,"target":"left","response":"left","rt":77,"correct":true,"confidence":3},{"trial_n":104,"n_dots":3.25,"target":"left","response":"right","rt":-19,"correct":false,"confidence":3},{"trial_n":105,"n_dots":3.35,"target":"right","response":"right","rt":425,"correct":true,"confidence":3},{"trial_n":106,"n_dots":3.35,"target":"left","response":"left","rt":449.99999999814,"correct":true,"confidence":3},{"trial_n":107,"n_dots":3.25,"target":"right","response":"right","rt":-48,"correct":true,"confidence":3},{"trial_n":108,"n_dots":3.25,"target":"right","response":"right","rt":226,"correct":true,"confidence":4},{"trial_n":109,"n_dots":3.15,"target":"right","response":"right","rt":-171,"correct":true,"confidence":4},{"trial_n":110,"n_dots":3.15,"target":"right","response":"right","rt":262,"correct":true,"confidence":4},{"trial_n":111,"n_dots":3.05,"target":"right","response":"right","rt":277,"correct":true,"confidence":4},{"trial_n":112,"n_dots":3.05,"target":"left","response":"right","rt":636,"correct":false,"confidence":3},{"trial_n":113,"n_dots":3.15,"target":"right","response":"right","rt":214.00000000186,"correct":true,"confidence":4},{"trial_n":114,"n_dots":3.15,"target":"left","response":"right","rt":-77,"correct":false,"confidence":4},{"trial_n":115,"n_dots":3.25,"target":"right","response":"right","rt":-188,"correct":true,"confidence":4},{"trial_n":116,"n_dots":3.25,"target":"left","response":"right","rt":571,"correct":false,"confidence":4},{"trial_n":117,"n_dots":3.35,"target":"right","response":"right","rt":194.99999999814,"correct":true,"confidence":4},{"trial_n":118,"n_dots":3.35,"target":"left","response":"right","rt":347,"correct":false,"confidence":4},{"trial_n":119,"n_dots":3.45,"target":"right","response":"right","rt":287,"correct":true,"confidence":4},{"trial_n":120,"n_dots":3.45,"target":"right","response":"right","rt":129,"correct":true,"confidence":4}]