[{"trial_n":1,"n_dots":4.25,"target":"left","response":"left","rt":1720.8000000007,"correct":true,"confidence":-1},{"trial_n":2,"n_dots":4.25,"target":"right","response":"right","rt":267.59999999963,"correct":true,"confidence":-1},{"trial_n":3,"n_dots":3.85,"target":"right","response":"left","rt":696.09999999963,"correct":false,"confidence":-1},{"trial_n":4,"n_dots":4.25,"target":"right","response":"right","rt":438.59999999963,"correct":true,"confidence":-1},{"trial_n":5,"n_dots":4.25,"target":"left","response":"left","rt":20.400000000373,"correct":true,"confidence":-1},{"trial_n":6,"n_dots":3.85,"target":"right","response":"right","rt":659.29999999888,"correct":true,"confidence":-1},{"trial_n":7,"n_dots":3.85,"target":"left","response":"left","rt":319.59999999963,"correct":true,"confidence":-1},{"trial_n":8,"n_dots":3.65,"target":"right","response":"right","rt":454.80000000075,"correct":true,"confidence":-1},{"trial_n":9,"n_dots":3.65,"target":"left","response":"left","rt":262.5,"correct":true,"confidence":-1},{"trial_n":10,"n_dots":3.45,"target":"left","response":"right","rt":256.5,"correct":false,"confidence":-1},{"trial_n":11,"n_dots":3.65,"target":"right","response":"right","rt":86.200000001118,"correct":true,"confidence":-1},{"trial_n":12,"n_dots":3.65,"target":"left","response":"left","rt":353.79999999888,"correct":true,"confidence":-1},{"trial_n":13,"n_dots":3.55,"target":"right","response":"left","rt":297.10000000149,"correct":false,"confidence":-1},{"trial_n":14,"n_dots":3.65,"target":"left","response":"left","rt":407.59999999963,"correct":true,"confidence":-1},{"trial_n":15,"n_dots":3.65,"target":"right","response":"right","rt":160.30000000075,"correct":true,"confidence":-1},{"trial_n":16,"n_dots":3.55,"target":"right","response":"left","rt":235.19999999925,"correct":false,"confidence":-1},{"trial_n":17,"n_dots":3.65,"target":"right","response":"right","rt":261.69999999925,"correct":true,"confidence":-1},{"trial_n":18,"n_dots":3.65,"target":"right","response":"left","rt":266.69999999925,"correct":false,"confidence":-1},{"trial_n":19,"n_dots":3.75,"target":"left","response":"right","rt":1084.5,"correct":false,"confidence":-1},{"trial_n":20,"n_dots":3.85,"target":"left","response":"right","rt":21.299999998882,"correct":false,"confidence":-1},{"trial_n":21,"n_dots":3.95,"target":"left","response":"left","rt":368,"correct":true,"confidence":3},{"trial_n":22,"n_dots":3.95,"target":"right","response":"right","rt":116.29999999888,"correct":true,"confidence":3},{"trial_n":23,"n_dots":3.85,"target":"left","response":"left","rt":12.5,"correct":true,"confidence":5},{"trial_n":24,"n_dots":3.85,"target":"left","response":"left","rt":381.59999999963,"correct":true,"confidence":4},{"trial_n":25,"n_dots":3.75,"target":"left","response":"left","rt":20,"correct":true,"confidence":3},{"trial_n":26,"n_dots":3.75,"target":"left","response":"left","rt":303.80000000075,"correct":true,"confidence":3},{"trial_n":27,"n_dots":3.65,"target":"right","response":"right","rt":310.5,"correct":true,"confidence":3},{"trial_n":28,"n_dots":3.65,"target":"right","response":"right","rt":27.800000000745,"correct":true,"confidence":3},{"trial_n":29,"n_dots":3.55,"target":"right","response":"right","rt":97.900000000373,"correct":true,"confidence":2},{"trial_n":30,"n_dots":3.55,"target":"right","response":"left","rt":280.30000000075,"correct":false,"confidence":2},{"trial_n":31,"n_dots":3.65,"target":"left","response":"left","rt":290,"correct":true,"confidence":4},{"trial_n":32,"n_dots":3.65,"target":"right","response":"right","rt":292.5,"correct":true,"confidence":3},{"trial_n":33,"n_dots":3.55,"target":"right","response":"right","rt":103.40000000037,"correct":true,"confidence":3},{"trial_n":34,"n_dots":3.55,"target":"left","response":"right","rt":372,"correct":false,"confidence":3},{"trial_n":35,"n_dots":3.65,"target":"right","response":"right","rt":469.30000000075,"correct":true,"confidence":4},{"trial_n":36,"n_dots":3.65,"target":"right","response":"right","rt":567.59999999963,"correct":true,"confidence":4},{"trial_n":37,"n_dots":3.55,"target":"left","response":"left","rt":28,"correct":true,"confidence":5},{"trial_n":38,"n_dots":3.55,"target":"left","response":"left","rt":943.29999999888,"correct":true,"confidence":3},{"trial_n":39,"n_dots":3.45,"target":"right","response":"right","rt":456.40000000037,"correct":true,"confidence":3},{"trial_n":40,"n_dots":3.45,"target":"left","response":"left","rt":102.90000000037,"correct":true,"confidence":4},{"trial_n":41,"n_dots":3.35,"target":"left","response":"left","rt":306.5,"correct":true,"confidence":4},{"trial_n":42,"n_dots":3.35,"target":"left","response":"right","rt":143.5,"correct":false,"confidence":4},{"trial_n":43,"n_dots":3.45,"target":"right","response":"right","rt":837.5,"correct":true,"confidence":3},{"trial_n":44,"n_dots":3.45,"target":"right","response":"right","rt":145,"correct":true,"confidence":3},{"trial_n":45,"n_dots":3.35,"target":"left","response":"left","rt":76.60000000149,"correct":true,"confidence":3},{"trial_n":46,"n_dots":3.35,"target":"left","response":"left","rt":58.39999999851,"correct":true,"confidence":4},{"trial_n":47,"n_dots":3.25,"target":"right","response":"left","rt":150,"correct":false,"confidence":3},{"trial_n":48,"n_dots":3.35,"target":"left","response":"left","rt":149.09999999963,"correct":true,"confidence":4},{"trial_n":49,"n_dots":3.35,"target":"left","response":"left","rt":226.80000000075,"correct":true,"confidence":4},{"trial_n":50,"n_dots":3.25,"target":"right","response":"left","rt":227.69999999925,"correct":false,"confidence":3},{"trial_n":51,"n_dots":3.35,"target":"left","response":"left","rt":31.200000001118,"correct":true,"confidence":3},{"trial_n":52,"n_dots":3.35,"target":"left","response":"left","rt":319.20000000112,"correct":true,"confidence":4},{"trial_n":53,"n_dots":3.25,"target":"right","response":"right","rt":305.5,"correct":true,"confidence":3},{"trial_n":54,"n_dots":3.25,"target":"right","response":"left","rt":281.90000000037,"correct":false,"confidence":2},{"trial_n":55,"n_dots":3.35,"target":"right","response":"right","rt":370.5,"correct":true,"confidence":3},{"trial_n":56,"n_dots":3.35,"target":"left","response":"right","rt":673,"correct":false,"confidence":2},{"trial_n":57,"n_dots":3.45,"target":"left","response":"left","rt":1159.0999999996,"correct":true,"confidence":3},{"trial_n":58,"n_dots":3.45,"target":"left","response":"left","rt":242.29999999888,"correct":true,"confidence":3},{"trial_n":59,"n_dots":3.35,"target":"right","response":"left","rt":1574.7999999989,"correct":false,"confidence":2},{"trial_n":60,"n_dots":3.45,"target":"right","response":"right","rt":266.5,"correct":true,"confidence":2},{"trial_n":61,"n_dots":3.45,"target":"left","response":"left","rt":1109.9000000004,"correct":true,"confidence":3},{"trial_n":62,"n_dots":3.35,"target":"left","response":"left","rt":198.20000000112,"correct":true,"confidence":2},{"trial_n":63,"n_dots":3.35,"target":"right","response":"right","rt":270.80000000075,"correct":true,"confidence":2},{"trial_n":64,"n_dots":3.25,"target":"right","response":"right","rt":317.79999999888,"correct":true,"confidence":3},{"trial_n":65,"n_dots":3.25,"target":"left","response":"right","rt":5379.6999999993,"correct":false,"confidence":1},{"trial_n":66,"n_dots":3.35,"target":"right","response":"right","rt":523.90000000037,"correct":true,"confidence":3},{"trial_n":67,"n_dots":3.35,"target":"right","response":"right","rt":83.700000001118,"correct":true,"confidence":2},{"trial_n":68,"n_dots":3.25,"target":"left","response":"left","rt":113.5,"correct":true,"confidence":3},{"trial_n":69,"n_dots":3.25,"target":"left","response":"left","rt":332.5,"correct":true,"confidence":3},{"trial_n":70,"n_dots":3.15,"target":"left","response":"left","rt":193.40000000037,"correct":true,"confidence":3},{"trial_n":71,"n_dots":3.15,"target":"left","response":"left","rt":293.5,"correct":true,"confidence":2},{"trial_n":72,"n_dots":3.05,"target":"left","response":"left","rt":279.5,"correct":true,"confidence":3},{"trial_n":73,"n_dots":3.05,"target":"right","response":"right","rt":255.09999999963,"correct":true,"confidence":3},{"trial_n":74,"n_dots":2.95,"target":"right","response":"right","rt":60.700000001118,"correct":true,"confidence":2},{"trial_n":75,"n_dots":2.95,"target":"right","response":"right","rt":138.29999999888,"correct":true,"confidence":3},{"trial_n":76,"n_dots":2.85,"target":"right","response":"right","rt":204.80000000075,"correct":true,"confidence":2},{"trial_n":77,"n_dots":2.85,"target":"right","response":"right","rt":106.79999999888,"correct":true,"confidence":1},{"trial_n":78,"n_dots":2.75,"target":"left","response":"left","rt":691.09999999963,"correct":true,"confidence":3},{"trial_n":79,"n_dots":2.75,"target":"right","response":"right","rt":251.59999999963,"correct":true,"confidence":2},{"trial_n":80,"n_dots":2.65,"target":"left","response":"left","rt":92.099999999627,"correct":true,"confidence":2},{"trial_n":81,"n_dots":2.65,"target":"right","response":"left","rt":268.59999999963,"correct":false,"confidence":1},{"trial_n":82,"n_dots":2.75,"target":"left","response":"right","rt":155.79999999888,"correct":false,"confidence":2},{"trial_n":83,"n_dots":2.85,"target":"right","response":"left","rt":411.30000000075,"correct":false,"confidence":1},{"trial_n":84,"n_dots":2.95,"target":"left","response":"left","rt":244,"correct":true,"confidence":1},{"trial_n":85,"n_dots":2.95,"target":"left","response":"left","rt":253,"correct":true,"confidence":2},{"trial_n":86,"n_dots":2.85,"target":"right","response":"right","rt":432.19999999925,"correct":true,"confidence":2},{"trial_n":87,"n_dots":2.85,"target":"right","response":"left","rt":249.09999999963,"correct":false,"confidence":1},{"trial_n":88,"n_dots":2.95,"target":"right","response":"right","rt":50.200000001118,"correct":true,"confidence":1},{"trial_n":89,"n_dots":2.95,"target":"left","response":"left","rt":75.699999999255,"correct":true,"confidence":1},{"trial_n":90,"n_dots":2.85,"target":"left","response":"right","rt":346.5,"correct":false,"confidence":1},{"trial_n":91,"n_dots":2.95,"target":"right","response":"left","rt":403.69999999925,"correct":false,"confidence":2},{"trial_n":92,"n_dots":3.05,"target":"right","response":"left","rt":410.90000000037,"correct":false,"confidence":1},{"trial_n":93,"n_dots":3.15,"target":"left","response":"left","rt":230.69999999925,"correct":true,"confidence":1},{"trial_n":94,"n_dots":3.15,"target":"right","response":"right","rt":692.90000000037,"correct":true,"confidence":2},{"trial_n":95,"n_dots":3.05,"target":"right","response":"left","rt":110.80000000075,"correct":false,"confidence":2},{"trial_n":96,"n_dots":3.15,"target":"left","response":"right","rt":287.90000000037,"correct":false,"confidence":2},{"trial_n":97,"n_dots":3.25,"target":"left","response":"left","rt":234.30000000075,"correct":true,"confidence":1},{"trial_n":98,"n_dots":3.25,"target":"right","response":"right","rt":412.59999999963,"correct":true,"confidence":1},{"trial_n":99,"n_dots":3.15,"target":"right","response":"right","rt":146,"correct":true,"confidence":1},{"trial_n":100,"n_dots":3.15,"target":"left","response":"left","rt":266.90000000037,"correct":true,"confidence":1},{"trial_n":101,"n_dots":3.05,"target":"right","response":"right","rt":152.30000000075,"correct":true,"confidence":1},{"trial_n":102,"n_dots":3.05,"target":"left","response":"left","rt":328.09999999963,"correct":true,"confidence":1},{"trial_n":103,"n_dots":2.95,"target":"right","response":"right","rt":351,"correct":true,"confidence":1},{"trial_n":104,"n_dots":2.95,"target":"right","response":"right","rt":267.5,"correct":true,"confidence":2},{"trial_n":105,"n_dots":2.85,"target":"right","response":"left","rt":1854.7999999989,"correct":false,"confidence":1},{"trial_n":106,"n_dots":2.95,"target":"left","response":"right","rt":1098,"correct":false,"confidence":1},{"trial_n":107,"n_dots":3.05,"target":"right","response":"right","rt":55.199999999255,"correct":true,"confidence":1},{"trial_n":108,"n_dots":3.05,"target":"right","response":"right","rt":2.3000000007451,"correct":true,"confidence":2},{"trial_n":109,"n_dots":2.95,"target":"right","response":"left","rt":408,"correct":false,"confidence":1},{"trial_n":110,"n_dots":3.05,"target":"left","response":"left","rt":100.69999999925,"correct":true,"confidence":1},{"trial_n":111,"n_dots":3.05,"target":"left","response":"left","rt":487.69999999925,"correct":true,"confidence":1},{"trial_n":112,"n_dots":2.95,"target":"left","response":"left","rt":424.20000000112,"correct":true,"confidence":1},{"trial_n":113,"n_dots":2.95,"target":"left","response":"left","rt":298.59999999963,"correct":true,"confidence":1},{"trial_n":114,"n_dots":2.85,"target":"left","response":"left","rt":74.700000001118,"correct":true,"confidence":2},{"trial_n":115,"n_dots":2.85,"target":"left","response":"left","rt":3.7999999988824,"correct":true,"confidence":1},{"trial_n":116,"n_dots":2.75,"target":"left","response":"left","rt":454.20000000112,"correct":true,"confidence":1},{"trial_n":117,"n_dots":2.75,"target":"right","response":"right","rt":436.70000000112,"correct":true,"confidence":2},{"trial_n":118,"n_dots":2.65,"target":"left","response":"left","rt":408.20000000112,"correct":true,"confidence":1},{"trial_n":119,"n_dots":2.65,"target":"left","response":"left","rt":233.69999999925,"correct":true,"confidence":1},{"trial_n":120,"n_dots":2.55,"target":"right","response":"right","rt":269.29999999888,"correct":true,"confidence":1}]