[{"trial_n":1,"span":8,"encoder":"04917140","distractor":"04917143","target":"present","response":"absent","rt":"6219.400000006","correct":false,"confidence":-1},{"trial_n":2,"span":6,"encoder":"927710","distractor":"927730","target":"present","response":"present","rt":"2274.8000000119","correct":true,"confidence":-1},{"trial_n":3,"span":6,"encoder":"194215","distractor":"114215","target":"absent","response":"absent","rt":"4195.3000000119","correct":true,"confidence":-1},{"trial_n":4,"span":8,"encoder":"79401426","distractor":"79401427","target":"absent","response":"absent","rt":"5477.7999999821","correct":true,"confidence":-1},{"trial_n":5,"span":8,"encoder":"04582263","distractor":"04562263","target":"present","response":"present","rt":"2062.599999994","correct":true,"confidence":-1},{"trial_n":6,"span":10,"encoder":"0158537139","distractor":"0058537139","target":"present","response":"absent","rt":"2480.8999999762","correct":false,"confidence":-1},{"trial_n":7,"span":8,"encoder":"01420957","distractor":"07420957","target":"absent","response":"absent","rt":"3314.1000000238","correct":true,"confidence":-1},{"trial_n":8,"span":8,"encoder":"69860703","distractor":"69860705","target":"present","response":"present","rt":"2363.3999999762","correct":true,"confidence":-1},{"trial_n":9,"span":10,"encoder":"2037725931","distractor":"2067725931","target":"absent","response":"absent","rt":"1934.599999994","correct":true,"confidence":-1},{"trial_n":10,"span":10,"encoder":"0378465234","distractor":"0373465234","target":"present","response":"present","rt":"7810.3000000119","correct":true,"confidence":-1},{"trial_n":11,"span":12,"encoder":"218285627436","distractor":"218285622436","target":"present","response":"present","rt":"3149.7999999821","correct":true,"confidence":-1},{"trial_n":12,"span":12,"encoder":"220077218156","distractor":"220007218156","target":"present","response":"present","rt":"2295.6999999881","correct":true,"confidence":-1},{"trial_n":13,"span":13,"encoder":"2872183177355","distractor":"2872173177355","target":"present","response":"present","rt":"2000.1999999881","correct":true,"confidence":-1},{"trial_n":14,"span":13,"encoder":"6586747974432","distractor":"7586747974432","target":"present","response":"present","rt":"1934.599999994","correct":true,"confidence":-1},{"trial_n":15,"span":14,"encoder":"66391293440255","distractor":"66301293440255","target":"present","response":"present","rt":"2459.7999999821","correct":true,"confidence":-1},{"trial_n":16,"span":14,"encoder":"56036043771292","distractor":"36036043771292","target":"present","response":"absent","rt":"7742.3000000119","correct":false,"confidence":-1},{"trial_n":17,"span":13,"encoder":"8393227778458","distractor":"8393227778452","target":"absent","response":"present","rt":"1844.1999999881","correct":false,"confidence":-1},{"trial_n":18,"span":12,"encoder":"611234151029","distractor":"617234151029","target":"absent","response":"present","rt":"1593.3000000119","correct":false,"confidence":-1},{"trial_n":19,"span":11,"encoder":"80483143342","distractor":"80483143842","target":"absent","response":"present","rt":"2092.7000000179","correct":false,"confidence":-1},{"trial_n":20,"span":10,"encoder":"8904714246","distractor":"8604714246","target":"absent","response":"absent","rt":"2795.2000000179","correct":true,"confidence":-1},{"trial_n":21,"span":10,"encoder":"1262026008","distractor":"1262026006","target":"present","response":"absent","rt":"4885.599999994","correct":false,"confidence":2},{"trial_n":22,"span":9,"encoder":"653042751","distractor":"603042751","target":"present","response":"present","rt":"3385.7999999821","correct":true,"confidence":2},{"trial_n":23,"span":9,"encoder":"112160845","distractor":"112165845","target":"absent","response":"absent","rt":"6785.099999994","correct":true,"confidence":3},{"trial_n":24,"span":10,"encoder":"4317629867","distractor":"4317529867","target":"absent","response":"absent","rt":"4904","correct":true,"confidence":3},{"trial_n":25,"span":10,"encoder":"0425554765","distractor":"0425554735","target":"absent","response":"present","rt":"2989.7000000179","correct":false,"confidence":3},{"trial_n":26,"span":9,"encoder":"373658557","distractor":"373858557","target":"present","response":"present","rt":"2171.5","correct":true,"confidence":3},{"trial_n":27,"span":9,"encoder":"321675147","distractor":"321575147","target":"present","response":"present","rt":"2254.3000000119","correct":true,"confidence":5},{"trial_n":28,"span":10,"encoder":"1340416248","distractor":"1340516248","target":"present","response":"present","rt":"2233.1999999881","correct":true,"confidence":4},{"trial_n":29,"span":10,"encoder":"7665776654","distractor":"6665776654","target":"absent","response":"absent","rt":"5475.6000000238","correct":true,"confidence":4},{"trial_n":30,"span":11,"encoder":"48153344030","distractor":"48158344030","target":"present","response":"present","rt":"3303.1000000238","correct":true,"confidence":3},{"trial_n":31,"span":11,"encoder":"61767673406","distractor":"31767673406","target":"absent","response":"present","rt":"3839.900000006","correct":false,"confidence":2},{"trial_n":32,"span":10,"encoder":"9768771441","distractor":"9568771441","target":"present","response":"present","rt":"1894.1999999881","correct":true,"confidence":3},{"trial_n":33,"span":10,"encoder":"0519931488","distractor":"0511931488","target":"absent","response":"absent","rt":"4549.5","correct":true,"confidence":3},{"trial_n":34,"span":11,"encoder":"71344736627","distractor":"71244736627","target":"present","response":"absent","rt":"5704.2000000179","correct":false,"confidence":2},{"trial_n":35,"span":10,"encoder":"6481770891","distractor":"6481778891","target":"present","response":"present","rt":"2433","correct":true,"confidence":3},{"trial_n":36,"span":10,"encoder":"3952766219","distractor":"3052766219","target":"present","response":"present","rt":"2274","correct":true,"confidence":3},{"trial_n":37,"span":11,"encoder":"89310723059","distractor":"89311723059","target":"present","response":"present","rt":"2240.5","correct":true,"confidence":3},{"trial_n":38,"span":11,"encoder":"38007167770","distractor":"08007167770","target":"absent","response":"absent","rt":"3852.1999999881","correct":true,"confidence":3},{"trial_n":39,"span":12,"encoder":"275648570582","distractor":"275648570382","target":"absent","response":"absent","rt":"4751.3000000119","correct":true,"confidence":3},{"trial_n":40,"span":12,"encoder":"906331455149","distractor":"906931455149","target":"absent","response":"absent","rt":"4641","correct":true,"confidence":5},{"trial_n":41,"span":13,"encoder":"6633228629130","distractor":"5633228629130","target":"absent","response":"absent","rt":"2045.7000000179","correct":true,"confidence":5},{"trial_n":42,"span":13,"encoder":"2522852025552","distractor":"2522852025352","target":"present","response":"absent","rt":"10560.5","correct":false,"confidence":3},{"trial_n":43,"span":12,"encoder":"703614540904","distractor":"703614541904","target":"absent","response":"absent","rt":"2405.8000000119","correct":true,"confidence":4},{"trial_n":44,"span":12,"encoder":"260265644521","distractor":"260263644521","target":"absent","response":"absent","rt":"4825.599999994","correct":true,"confidence":5},{"trial_n":45,"span":13,"encoder":"6481477175887","distractor":"6481477175587","target":"present","response":"present","rt":"2460.5","correct":true,"confidence":3},{"trial_n":46,"span":13,"encoder":"1513133790630","distractor":"1513133797630","target":"present","response":"present","rt":"1978.2999999821","correct":true,"confidence":3},{"trial_n":47,"span":14,"encoder":"56540016119473","distractor":"56540016119073","target":"present","response":"present","rt":"2767.2000000179","correct":true,"confidence":4},{"trial_n":48,"span":14,"encoder":"89685715686661","distractor":"89680715686661","target":"present","response":"present","rt":"2340.3000000119","correct":true,"confidence":3},{"trial_n":49,"span":15,"encoder":"608718462648400","distractor":"608718465648400","target":"absent","response":"present","rt":"2679.2999999821","correct":false,"confidence":3},{"trial_n":50,"span":14,"encoder":"00970536553981","distractor":"06970536553981","target":"absent","response":"absent","rt":"3394.099999994","correct":true,"confidence":4},{"trial_n":51,"span":14,"encoder":"36844917227759","distractor":"36854917227759","target":"absent","response":"absent","rt":"4806","correct":true,"confidence":5},{"trial_n":52,"span":15,"encoder":"818685092075051","distractor":"818685092075071","target":"present","response":"present","rt":"2888.5","correct":true,"confidence":3},{"trial_n":53,"span":15,"encoder":"445316853521925","distractor":"445316893521925","target":"present","response":"present","rt":"4263.6999999881","correct":true,"confidence":2},{"trial_n":54,"span":16,"encoder":"4134235504615153","distractor":"4134235504625153","target":"present","response":"present","rt":"2128.5","correct":true,"confidence":2},{"trial_n":55,"span":16,"encoder":"7074653305821332","distractor":"7074653325821332","target":"absent","response":"absent","rt":"6104.1000000238","correct":true,"confidence":3},{"trial_n":56,"span":17,"encoder":"15166816775125663","distractor":"25166816775125663","target":"absent","response":"present","rt":"12710.199999988","correct":false,"confidence":2},{"trial_n":57,"span":16,"encoder":"4716161688284344","distractor":"4716161688254344","target":"present","response":"present","rt":"2557.7000000179","correct":true,"confidence":3},{"trial_n":58,"span":16,"encoder":"5777332731969150","distractor":"5777932731969150","target":"absent","response":"present","rt":"4288.599999994","correct":false,"confidence":3},{"trial_n":59,"span":15,"encoder":"852478484265732","distractor":"852478484265432","target":"absent","response":"present","rt":"3389.2000000179","correct":false,"confidence":2},{"trial_n":60,"span":14,"encoder":"63557193874874","distractor":"63957193874874","target":"present","response":"present","rt":"2225.3999999762","correct":true,"confidence":2},{"trial_n":61,"span":14,"encoder":"43633018964091","distractor":"43633015964091","target":"absent","response":"present","rt":"2204.6999999881","correct":false,"confidence":2},{"trial_n":62,"span":13,"encoder":"3015378049903","distractor":"3015378043903","target":"absent","response":"present","rt":"1932.3000000119","correct":false,"confidence":3},{"trial_n":63,"span":12,"encoder":"698853131159","distractor":"998853131159","target":"absent","response":"absent","rt":"2846.900000006","correct":true,"confidence":4},{"trial_n":64,"span":12,"encoder":"264140644052","distractor":"264140044052","target":"absent","response":"absent","rt":"3950.3000000119","correct":true,"confidence":4},{"trial_n":65,"span":13,"encoder":"6392923073268","distractor":"6392923075268","target":"absent","response":"absent","rt":"15958.599999994","correct":true,"confidence":2},{"trial_n":66,"span":13,"encoder":"3707969105751","distractor":"3707469105751","target":"absent","response":"absent","rt":"2823.900000006","correct":true,"confidence":4},{"trial_n":67,"span":14,"encoder":"85912191474019","distractor":"85612191474019","target":"present","response":"present","rt":"1788.5","correct":true,"confidence":3},{"trial_n":68,"span":14,"encoder":"25986204228571","distractor":"25286204228571","target":"present","response":"present","rt":"2873","correct":true,"confidence":3},{"trial_n":69,"span":15,"encoder":"217459647574462","distractor":"217459643574462","target":"present","response":"present","rt":"3122.400000006","correct":true,"confidence":3},{"trial_n":70,"span":15,"encoder":"380201777600508","distractor":"380201707600508","target":"absent","response":"present","rt":"1876.7000000179","correct":false,"confidence":3},{"trial_n":71,"span":8,"encoder":"02385464","distractor":"02381464","target":"present","response":"present","rt":"4772.900000006","correct":true,"confidence":-1},{"trial_n":72,"span":8,"encoder":"89284355","distractor":"89254355","target":"present","response":"present","rt":"3253.2999999821","correct":true,"confidence":-1},{"trial_n":73,"span":9,"encoder":"630002503","distractor":"635002503","target":"absent","response":"absent","rt":"2855.099999994","correct":true,"confidence":-1},{"trial_n":74,"span":9,"encoder":"229378748","distractor":"229378048","target":"absent","response":"present","rt":"6231.3000000119","correct":false,"confidence":-1},{"trial_n":75,"span":8,"encoder":"41897633","distractor":"41897603","target":"present","response":"absent","rt":"4019.099999994","correct":false,"confidence":-1},{"trial_n":76,"span":7,"encoder":"5104913","distractor":"5104613","target":"absent","response":"absent","rt":"2458.5","correct":true,"confidence":-1},{"trial_n":77,"span":7,"encoder":"1487314","distractor":"1887314","target":"present","response":"present","rt":"3162.7999999821","correct":true,"confidence":-1},{"trial_n":78,"span":8,"encoder":"39016085","distractor":"39016086","target":"absent","response":"absent","rt":"5665.6999999881","correct":true,"confidence":-1},{"trial_n":79,"span":8,"encoder":"51447344","distractor":"58447344","target":"present","response":"present","rt":"2406.599999994","correct":true,"confidence":-1},{"trial_n":80,"span":9,"encoder":"849068509","distractor":"849668509","target":"present","response":"present","rt":"5050","correct":true,"confidence":-1},{"trial_n":81,"span":9,"encoder":"764302067","distractor":"764402067","target":"present","response":"absent","rt":"6079","correct":false,"confidence":-1},{"trial_n":82,"span":8,"encoder":"34192233","distractor":"34092233","target":"present","response":"present","rt":"2527.1000000238","correct":true,"confidence":-1},{"trial_n":83,"span":8,"encoder":"74625980","distractor":"72625980","target":"absent","response":"absent","rt":"2479.7000000179","correct":true,"confidence":-1},{"trial_n":84,"span":9,"encoder":"761736432","distractor":"161736432","target":"present","response":"present","rt":"2494.900000006","correct":true,"confidence":-1},{"trial_n":85,"span":9,"encoder":"101842345","distractor":"101842395","target":"absent","response":"absent","rt":"3081.2999999821","correct":true,"confidence":-1},{"trial_n":86,"span":10,"encoder":"2158124957","distractor":"2158124157","target":"present","response":"present","rt":"3716.400000006","correct":true,"confidence":-1},{"trial_n":87,"span":10,"encoder":"4303642159","distractor":"4703642159","target":"absent","response":"absent","rt":"2899.5","correct":true,"confidence":-1},{"trial_n":88,"span":11,"encoder":"19985974073","distractor":"19985974173","target":"absent","response":"absent","rt":"4363","correct":true,"confidence":-1},{"trial_n":89,"span":11,"encoder":"67197922496","distractor":"67197922096","target":"absent","response":"absent","rt":"7626.1999999881","correct":true,"confidence":-1},{"trial_n":90,"span":12,"encoder":"870690685868","distractor":"870600685868","target":"present","response":"present","rt":"3984.400000006","correct":true,"confidence":-1},{"trial_n":91,"span":12,"encoder":"391109254505","distractor":"691109254505","target":"present","response":"present","rt":"4158.400000006","correct":true,"confidence":3},{"trial_n":92,"span":13,"encoder":"1895739541788","distractor":"1895739551788","target":"absent","response":"absent","rt":"16396.800000012","correct":true,"confidence":2},{"trial_n":93,"span":13,"encoder":"1372688252408","distractor":"1372688252498","target":"present","response":"present","rt":"5019.8000000119","correct":true,"confidence":4},{"trial_n":94,"span":14,"encoder":"57668359256161","distractor":"57668359256162","target":"present","response":"present","rt":"1456.7000000179","correct":true,"confidence":5},{"trial_n":95,"span":14,"encoder":"28526716363694","distractor":"28626716363694","target":"present","response":"present","rt":"4466.099999994","correct":true,"confidence":3},{"trial_n":96,"span":15,"encoder":"240345286984061","distractor":"280345286984061","target":"absent","response":"present","rt":"8215.900000006","correct":false,"confidence":2},{"trial_n":97,"span":14,"encoder":"08357671270974","distractor":"08357674270974","target":"present","response":"absent","rt":"12906.5","correct":false,"confidence":1},{"trial_n":98,"span":13,"encoder":"1954737395807","distractor":"1954737495807","target":"present","response":"present","rt":"6920.400000006","correct":true,"confidence":4},{"trial_n":99,"span":13,"encoder":"6238575166248","distractor":"3238575166248","target":"absent","response":"absent","rt":"3106.7999999821","correct":true,"confidence":4},{"trial_n":100,"span":14,"encoder":"38136596311823","distractor":"38136597311823","target":"absent","response":"present","rt":"10487.399999976","correct":false,"confidence":1},{"trial_n":101,"span":13,"encoder":"0758785374971","distractor":"0758785374941","target":"absent","response":"absent","rt":"2758.1999999881","correct":true,"confidence":5},{"trial_n":102,"span":13,"encoder":"6475328170048","distractor":"6475328170028","target":"absent","response":"absent","rt":"8213","correct":true,"confidence":1},{"trial_n":103,"span":14,"encoder":"69085222815673","distractor":"69085222815653","target":"present","response":"present","rt":"3621.1999999881","correct":true,"confidence":4},{"trial_n":104,"span":14,"encoder":"35211026020659","distractor":"35211026520659","target":"absent","response":"present","rt":"4131.5","correct":false,"confidence":1},{"trial_n":105,"span":13,"encoder":"5571995996145","distractor":"5571995996185","target":"present","response":"present","rt":"6047.7000000179","correct":true,"confidence":1},{"trial_n":106,"span":13,"encoder":"4490096334213","distractor":"4490090334213","target":"absent","response":"present","rt":"6561.900000006","correct":false,"confidence":1},{"trial_n":107,"span":12,"encoder":"011382101115","distractor":"011385101115","target":"absent","response":"absent","rt":"2866.599999994","correct":true,"confidence":5},{"trial_n":108,"span":12,"encoder":"835229289305","distractor":"805229289305","target":"absent","response":"absent","rt":"2092.8000000119","correct":true,"confidence":5},{"trial_n":109,"span":13,"encoder":"7144742710551","distractor":"7144742710552","target":"absent","response":"absent","rt":"3536.900000006","correct":true,"confidence":5},{"trial_n":110,"span":13,"encoder":"8051195984337","distractor":"8057195984337","target":"present","response":"absent","rt":"3430","correct":false,"confidence":1},{"trial_n":111,"span":12,"encoder":"510164642438","distractor":"510169642438","target":"absent","response":"absent","rt":"2528","correct":true,"confidence":5},{"trial_n":112,"span":12,"encoder":"453554685234","distractor":"753554685234","target":"present","response":"present","rt":"2342.7999999821","correct":true,"confidence":5},{"trial_n":113,"span":13,"encoder":"1572118813652","distractor":"1572718813652","target":"present","response":"absent","rt":"7292","correct":false,"confidence":2},{"trial_n":114,"span":12,"encoder":"346652232900","distractor":"346652232970","target":"present","response":"absent","rt":"4110.5","correct":false,"confidence":1},{"trial_n":115,"span":11,"encoder":"32485281819","distractor":"32485281812","target":"absent","response":"absent","rt":"1531.1999999881","correct":true,"confidence":5},{"trial_n":116,"span":11,"encoder":"02869852329","distractor":"02869852323","target":"absent","response":"present","rt":"6394","correct":false,"confidence":1},{"trial_n":117,"span":10,"encoder":"8066807247","distractor":"8066877247","target":"present","response":"present","rt":"3336.8000000119","correct":true,"confidence":5},{"trial_n":118,"span":10,"encoder":"3819466240","distractor":"3819476240","target":"absent","response":"absent","rt":"3767","correct":true,"confidence":5},{"trial_n":119,"span":11,"encoder":"09939200366","distractor":"09939200566","target":"absent","response":"absent","rt":"6949.3000000119","correct":true,"confidence":1},{"trial_n":120,"span":11,"encoder":"90092273897","distractor":"90092273892","target":"absent","response":"absent","rt":"3675.8000000119","correct":true,"confidence":2},{"trial_n":121,"span":12,"encoder":"504507044797","distractor":"504507044791","target":"absent","response":"absent","rt":"2011.2000000179","correct":true,"confidence":5},{"trial_n":122,"span":12,"encoder":"417404413410","distractor":"417404483410","target":"present","response":"absent","rt":"14936.099999994","correct":false,"confidence":2},{"trial_n":123,"span":11,"encoder":"11241976106","distractor":"11245976106","target":"present","response":"present","rt":"5033.2999999821","correct":true,"confidence":5},{"trial_n":124,"span":11,"encoder":"77036082903","distractor":"07036082903","target":"present","response":"present","rt":"6196.099999994","correct":true,"confidence":4},{"trial_n":125,"span":12,"encoder":"477500127086","distractor":"477500527086","target":"absent","response":"present","rt":"4874.6000000238","correct":false,"confidence":1},{"trial_n":126,"span":11,"encoder":"50371962283","distractor":"50331962283","target":"present","response":"present","rt":"4232.599999994","correct":true,"confidence":5},{"trial_n":127,"span":11,"encoder":"27354621250","distractor":"27354628250","target":"present","response":"absent","rt":"3406.900000006","correct":false,"confidence":1},{"trial_n":128,"span":10,"encoder":"3973821118","distractor":"4973821118","target":"absent","response":"absent","rt":"2488.099999994","correct":true,"confidence":5},{"trial_n":129,"span":10,"encoder":"4676180606","distractor":"4676180607","target":"absent","response":"absent","rt":"1893.7999999821","correct":true,"confidence":5},{"trial_n":130,"span":11,"encoder":"87908669259","distractor":"87108669259","target":"present","response":"present","rt":"3682.3000000119","correct":true,"confidence":5},{"trial_n":131,"span":11,"encoder":"14428167534","distractor":"14428767534","target":"absent","response":"absent","rt":"3319.8999999762","correct":true,"confidence":5},{"trial_n":132,"span":12,"encoder":"855062617966","distractor":"855062317966","target":"present","response":"absent","rt":"15926.199999988","correct":false,"confidence":1},{"trial_n":133,"span":11,"encoder":"25889182659","distractor":"26889182659","target":"present","response":"present","rt":"3290.3000000119","correct":true,"confidence":5},{"trial_n":134,"span":11,"encoder":"08929614813","distractor":"08129614813","target":"present","response":"present","rt":"9592.099999994","correct":true,"confidence":5},{"trial_n":135,"span":12,"encoder":"927442964679","distractor":"927442944679","target":"absent","response":"absent","rt":"2469.8999999762","correct":true,"confidence":1},{"trial_n":136,"span":12,"encoder":"376896543923","distractor":"376896543928","target":"present","response":"present","rt":"5053.8000000119","correct":true,"confidence":4},{"trial_n":137,"span":13,"encoder":"6717081796610","distractor":"6717081796611","target":"absent","response":"absent","rt":"1787.900000006","correct":true,"confidence":4},{"trial_n":138,"span":13,"encoder":"4466072277740","distractor":"4466072297740","target":"present","response":"present","rt":"4363.400000006","correct":true,"confidence":1},{"trial_n":139,"span":14,"encoder":"93473133458643","distractor":"93473133468643","target":"present","response":"absent","rt":"5251.8999999762","correct":false,"confidence":1},{"trial_n":140,"span":13,"encoder":"7759766190744","distractor":"7759766192744","target":"absent","response":"absent","rt":"3958.099999994","correct":true,"confidence":4}]