[{"trial_n":1,"min":25,"max":230,"target":"present","response":"present","rt":7458.2999999523,"correct":true,"confidence":-1},{"trial_n":2,"min":25,"max":230,"target":"present","response":"present","rt":2939,"correct":true,"confidence":-1},{"trial_n":3,"min":41,"max":214,"target":"absent","response":"absent","rt":1687.5,"correct":true,"confidence":-1},{"trial_n":4,"min":41,"max":214,"target":"absent","response":"absent","rt":850.5,"correct":true,"confidence":-1},{"trial_n":5,"min":57,"max":198,"target":"present","response":"present","rt":1019.5,"correct":true,"confidence":-1},{"trial_n":6,"min":57,"max":198,"target":"absent","response":"absent","rt":1451,"correct":true,"confidence":-1},{"trial_n":7,"min":73,"max":182,"target":"absent","response":"absent","rt":668.89999985695,"correct":true,"confidence":-1},{"trial_n":8,"min":73,"max":182,"target":"present","response":"present","rt":1657.1000001431,"correct":true,"confidence":-1},{"trial_n":9,"min":89,"max":166,"target":"present","response":"present","rt":1532,"correct":true,"confidence":-1},{"trial_n":10,"min":89,"max":166,"target":"absent","response":"present","rt":794.90000009537,"correct":false,"confidence":-1},{"trial_n":11,"min":81,"max":174,"target":"present","response":"absent","rt":1031.4000000954,"correct":false,"confidence":-1},{"trial_n":12,"min":73,"max":182,"target":"absent","response":"absent","rt":1163.2000000477,"correct":true,"confidence":-1},{"trial_n":13,"min":73,"max":182,"target":"absent","response":"absent","rt":633.09999990463,"correct":true,"confidence":-1},{"trial_n":14,"min":81,"max":174,"target":"present","response":"present","rt":1881.1999998093,"correct":true,"confidence":-1},{"trial_n":15,"min":81,"max":174,"target":"present","response":"present","rt":980.30000019073,"correct":true,"confidence":-1},{"trial_n":16,"min":89,"max":166,"target":"present","response":"absent","rt":801.10000014305,"correct":false,"confidence":-1},{"trial_n":17,"min":81,"max":174,"target":"present","response":"present","rt":1577.3000001907,"correct":true,"confidence":-1},{"trial_n":18,"min":81,"max":174,"target":"absent","response":"absent","rt":1545,"correct":true,"confidence":-1},{"trial_n":19,"min":89,"max":166,"target":"absent","response":"absent","rt":709.40000009537,"correct":true,"confidence":-1},{"trial_n":20,"min":89,"max":166,"target":"present","response":"present","rt":954.90000009537,"correct":true,"confidence":-1},{"trial_n":21,"min":93,"max":162,"target":"present","response":"absent","rt":1295.9000000954,"correct":false,"confidence":4},{"trial_n":22,"min":89,"max":166,"target":"present","response":"present","rt":2813.8999998569,"correct":true,"confidence":4},{"trial_n":23,"min":89,"max":166,"target":"absent","response":"present","rt":1450.6000001431,"correct":false,"confidence":4},{"trial_n":24,"min":85,"max":170,"target":"absent","response":"absent","rt":777.59999990463,"correct":true,"confidence":3},{"trial_n":25,"min":85,"max":170,"target":"present","response":"present","rt":846.89999985695,"correct":true,"confidence":3},{"trial_n":26,"min":89,"max":166,"target":"absent","response":"present","rt":1345.5,"correct":false,"confidence":4},{"trial_n":27,"min":85,"max":170,"target":"present","response":"absent","rt":3212.5,"correct":false,"confidence":4},{"trial_n":28,"min":81,"max":174,"target":"absent","response":"present","rt":1156.6000001431,"correct":false,"confidence":5},{"trial_n":29,"min":77,"max":178,"target":"absent","response":"absent","rt":2208.5,"correct":true,"confidence":2},{"trial_n":30,"min":77,"max":178,"target":"absent","response":"absent","rt":2023.5,"correct":true,"confidence":3},{"trial_n":31,"min":79,"max":176,"target":"present","response":"absent","rt":114991.79999995,"correct":false,"confidence":3},{"trial_n":32,"min":77,"max":178,"target":"absent","response":"absent","rt":1419.5,"correct":true,"confidence":5},{"trial_n":33,"min":77,"max":178,"target":"present","response":"present","rt":4079.7000000477,"correct":true,"confidence":4},{"trial_n":34,"min":79,"max":176,"target":"absent","response":"absent","rt":1165.2000000477,"correct":true,"confidence":4},{"trial_n":35,"min":79,"max":176,"target":"present","response":"present","rt":866.10000014305,"correct":true,"confidence":5},{"trial_n":36,"min":81,"max":174,"target":"absent","response":"present","rt":1504,"correct":false,"confidence":4},{"trial_n":37,"min":79,"max":176,"target":"absent","response":"absent","rt":663.29999995232,"correct":true,"confidence":5},{"trial_n":38,"min":79,"max":176,"target":"present","response":"present","rt":1993.6000001431,"correct":true,"confidence":3},{"trial_n":39,"min":81,"max":174,"target":"present","response":"present","rt":1329.6000001431,"correct":true,"confidence":3},{"trial_n":40,"min":81,"max":174,"target":"present","response":"present","rt":4390.0999999046,"correct":true,"confidence":4},{"trial_n":41,"min":82,"max":173,"target":"absent","response":"present","rt":1997.7999999523,"correct":false,"confidence":4},{"trial_n":42,"min":81,"max":174,"target":"present","response":"absent","rt":13854.699999809,"correct":false,"confidence":5},{"trial_n":43,"min":80,"max":175,"target":"absent","response":"absent","rt":1251.5999999046,"correct":true,"confidence":5},{"trial_n":44,"min":80,"max":175,"target":"present","response":"absent","rt":1139.0999999046,"correct":false,"confidence":5},{"trial_n":45,"min":79,"max":176,"target":"present","response":"present","rt":1724.8999998569,"correct":true,"confidence":3},{"trial_n":46,"min":79,"max":176,"target":"present","response":"present","rt":1184,"correct":true,"confidence":4},{"trial_n":47,"min":80,"max":175,"target":"absent","response":"absent","rt":1744,"correct":true,"confidence":5},{"trial_n":48,"min":80,"max":175,"target":"absent","response":"absent","rt":3136.1000001431,"correct":true,"confidence":4},{"trial_n":49,"min":81,"max":174,"target":"present","response":"present","rt":3028.7000000477,"correct":true,"confidence":3},{"trial_n":50,"min":81,"max":174,"target":"absent","response":"absent","rt":1136.2999999523,"correct":true,"confidence":5},{"trial_n":51,"min":82,"max":173,"target":"present","response":"present","rt":1214.5,"correct":true,"confidence":5},{"trial_n":52,"min":82,"max":173,"target":"present","response":"absent","rt":1324.5,"correct":false,"confidence":4},{"trial_n":53,"min":81,"max":174,"target":"present","response":"present","rt":911.70000004768,"correct":true,"confidence":4},{"trial_n":54,"min":81,"max":174,"target":"absent","response":"absent","rt":923.60000014305,"correct":true,"confidence":5},{"trial_n":55,"min":82,"max":173,"target":"absent","response":"absent","rt":1305.0999999046,"correct":true,"confidence":4},{"trial_n":56,"min":82,"max":173,"target":"present","response":"absent","rt":7702.6999998093,"correct":false,"confidence":4},{"trial_n":57,"min":81,"max":174,"target":"absent","response":"absent","rt":998.79999995232,"correct":true,"confidence":3},{"trial_n":58,"min":81,"max":174,"target":"absent","response":"present","rt":2133,"correct":false,"confidence":3},{"trial_n":59,"min":80,"max":175,"target":"present","response":"absent","rt":1479.0999999046,"correct":false,"confidence":4},{"trial_n":60,"min":79,"max":176,"target":"absent","response":"absent","rt":887.29999995232,"correct":true,"confidence":5},{"trial_n":61,"min":79,"max":176,"target":"absent","response":"absent","rt":1218.5999999046,"correct":true,"confidence":3},{"trial_n":62,"min":80,"max":175,"target":"present","response":"present","rt":1044.8999998569,"correct":true,"confidence":4},{"trial_n":63,"min":80,"max":175,"target":"absent","response":"present","rt":1085.8999998569,"correct":false,"confidence":2},{"trial_n":64,"min":79,"max":176,"target":"present","response":"absent","rt":1029.9000000954,"correct":false,"confidence":4},{"trial_n":65,"min":78,"max":177,"target":"present","response":"present","rt":1493.9000000954,"correct":true,"confidence":5},{"trial_n":66,"min":78,"max":177,"target":"present","response":"present","rt":1004.7999999523,"correct":true,"confidence":3},{"trial_n":67,"min":79,"max":176,"target":"present","response":"present","rt":1052.3999998569,"correct":true,"confidence":4},{"trial_n":68,"min":79,"max":176,"target":"absent","response":"absent","rt":1794.9000000954,"correct":true,"confidence":3},{"trial_n":69,"min":80,"max":175,"target":"absent","response":"absent","rt":933.20000004768,"correct":true,"confidence":5},{"trial_n":70,"min":80,"max":175,"target":"absent","response":"present","rt":935.10000014305,"correct":false,"confidence":3},{"trial_n":71,"min":41,"max":214,"target":"present","response":"absent","rt":3053.1000001431,"correct":false,"confidence":-1},{"trial_n":72,"min":41,"max":214,"target":"present","response":"present","rt":857.5,"correct":true,"confidence":-1},{"trial_n":73,"min":41,"max":214,"target":"absent","response":"absent","rt":1265.8999998569,"correct":true,"confidence":-1},{"trial_n":74,"min":57,"max":198,"target":"absent","response":"absent","rt":2033.2000000477,"correct":true,"confidence":-1},{"trial_n":75,"min":57,"max":198,"target":"present","response":"present","rt":295.29999995232,"correct":true,"confidence":-1},{"trial_n":76,"min":73,"max":182,"target":"present","response":"present","rt":404.10000014305,"correct":true,"confidence":-1},{"trial_n":77,"min":73,"max":182,"target":"absent","response":"absent","rt":324.89999985695,"correct":true,"confidence":-1},{"trial_n":78,"min":89,"max":166,"target":"absent","response":"absent","rt":282,"correct":true,"confidence":-1},{"trial_n":79,"min":89,"max":166,"target":"absent","response":"present","rt":654.20000004768,"correct":false,"confidence":-1},{"trial_n":80,"min":73,"max":182,"target":"absent","response":"absent","rt":508.29999995232,"correct":true,"confidence":-1},{"trial_n":81,"min":73,"max":182,"target":"absent","response":"absent","rt":290.5,"correct":true,"confidence":-1},{"trial_n":82,"min":81,"max":174,"target":"absent","response":"absent","rt":440.70000004768,"correct":true,"confidence":-1},{"trial_n":83,"min":81,"max":174,"target":"absent","response":"absent","rt":343.89999985695,"correct":true,"confidence":-1},{"trial_n":84,"min":89,"max":166,"target":"present","response":"absent","rt":347.20000004768,"correct":false,"confidence":-1},{"trial_n":85,"min":81,"max":174,"target":"present","response":"present","rt":459.5,"correct":true,"confidence":-1},{"trial_n":86,"min":81,"max":174,"target":"present","response":"absent","rt":409,"correct":false,"confidence":-1},{"trial_n":87,"min":73,"max":182,"target":"absent","response":"absent","rt":1061.9000000954,"correct":true,"confidence":-1},{"trial_n":88,"min":73,"max":182,"target":"present","response":"present","rt":326.29999995232,"correct":true,"confidence":-1},{"trial_n":89,"min":81,"max":174,"target":"absent","response":"absent","rt":485.90000009537,"correct":true,"confidence":-1},{"trial_n":90,"min":81,"max":174,"target":"present","response":"present","rt":440.20000004768,"correct":true,"confidence":-1},{"trial_n":91,"min":85,"max":170,"target":"absent","response":"absent","rt":443.79999995232,"correct":true,"confidence":4},{"trial_n":92,"min":85,"max":170,"target":"absent","response":"absent","rt":304.29999995232,"correct":true,"confidence":5},{"trial_n":93,"min":89,"max":166,"target":"present","response":"absent","rt":91.800000190735,"correct":false,"confidence":3},{"trial_n":94,"min":85,"max":170,"target":"absent","response":"absent","rt":340.20000004768,"correct":true,"confidence":4},{"trial_n":95,"min":85,"max":170,"target":"present","response":"absent","rt":478.90000009537,"correct":false,"confidence":5},{"trial_n":96,"min":81,"max":174,"target":"present","response":"absent","rt":396.5,"correct":false,"confidence":3},{"trial_n":97,"min":77,"max":178,"target":"present","response":"absent","rt":474.79999995232,"correct":false,"confidence":4},{"trial_n":98,"min":73,"max":182,"target":"absent","response":"absent","rt":247.70000004768,"correct":true,"confidence":3},{"trial_n":99,"min":73,"max":182,"target":"absent","response":"absent","rt":520.5,"correct":true,"confidence":4},{"trial_n":100,"min":77,"max":178,"target":"present","response":"present","rt":1563.6000001431,"correct":true,"confidence":2},{"trial_n":101,"min":77,"max":178,"target":"present","response":"present","rt":6946.7000000477,"correct":true,"confidence":4},{"trial_n":102,"min":79,"max":176,"target":"present","response":"absent","rt":344.09999990463,"correct":false,"confidence":3},{"trial_n":103,"min":77,"max":178,"target":"present","response":"absent","rt":243.59999990463,"correct":false,"confidence":4},{"trial_n":104,"min":75,"max":180,"target":"absent","response":"absent","rt":407.59999990463,"correct":true,"confidence":5},{"trial_n":105,"min":75,"max":180,"target":"present","response":"present","rt":401.09999990463,"correct":true,"confidence":4},{"trial_n":106,"min":77,"max":178,"target":"present","response":"present","rt":773.5,"correct":true,"confidence":4},{"trial_n":107,"min":77,"max":178,"target":"absent","response":"absent","rt":438.60000014305,"correct":true,"confidence":5},{"trial_n":108,"min":79,"max":176,"target":"absent","response":"present","rt":1079.7000000477,"correct":false,"confidence":2},{"trial_n":109,"min":77,"max":178,"target":"absent","response":"absent","rt":1286.5,"correct":true,"confidence":5},{"trial_n":110,"min":77,"max":178,"target":"absent","response":"absent","rt":2726.5,"correct":true,"confidence":5},{"trial_n":111,"min":78,"max":177,"target":"present","response":"absent","rt":7128.6000001431,"correct":false,"confidence":5},{"trial_n":112,"min":77,"max":178,"target":"present","response":"present","rt":446.29999995232,"correct":true,"confidence":4},{"trial_n":113,"min":77,"max":178,"target":"absent","response":"absent","rt":698.09999990463,"correct":true,"confidence":4},{"trial_n":114,"min":78,"max":177,"target":"present","response":"present","rt":172.90000009537,"correct":true,"confidence":4},{"trial_n":115,"min":78,"max":177,"target":"absent","response":"present","rt":614.09999990463,"correct":false,"confidence":3},{"trial_n":116,"min":77,"max":178,"target":"present","response":"present","rt":824,"correct":true,"confidence":4},{"trial_n":117,"min":77,"max":178,"target":"present","response":"present","rt":371.70000004768,"correct":true,"confidence":5},{"trial_n":118,"min":78,"max":177,"target":"absent","response":"absent","rt":495.59999990463,"correct":true,"confidence":3},{"trial_n":119,"min":78,"max":177,"target":"present","response":"present","rt":1311.2999999523,"correct":true,"confidence":2},{"trial_n":120,"min":79,"max":176,"target":"absent","response":"absent","rt":596.39999985695,"correct":true,"confidence":4},{"trial_n":121,"min":79,"max":176,"target":"present","response":"present","rt":655.20000004768,"correct":true,"confidence":5},{"trial_n":122,"min":80,"max":175,"target":"absent","response":"absent","rt":380.30000019073,"correct":true,"confidence":4},{"trial_n":123,"min":80,"max":175,"target":"present","response":"present","rt":1226.6999998093,"correct":true,"confidence":4},{"trial_n":124,"min":81,"max":174,"target":"absent","response":"absent","rt":945.29999995232,"correct":true,"confidence":5},{"trial_n":125,"min":81,"max":174,"target":"present","response":"present","rt":755.69999980927,"correct":true,"confidence":3},{"trial_n":126,"min":82,"max":173,"target":"absent","response":"absent","rt":493.29999995232,"correct":true,"confidence":5},{"trial_n":127,"min":82,"max":173,"target":"absent","response":"absent","rt":627.20000004768,"correct":true,"confidence":3},{"trial_n":128,"min":83,"max":172,"target":"present","response":"present","rt":910.09999990463,"correct":true,"confidence":3},{"trial_n":129,"min":83,"max":172,"target":"present","response":"absent","rt":527.70000004768,"correct":false,"confidence":2},{"trial_n":130,"min":82,"max":173,"target":"present","response":"present","rt":399.10000014305,"correct":true,"confidence":5},{"trial_n":131,"min":82,"max":173,"target":"absent","response":"absent","rt":559.60000014305,"correct":true,"confidence":5},{"trial_n":132,"min":83,"max":172,"target":"present","response":"present","rt":362.30000019073,"correct":true,"confidence":3},{"trial_n":133,"min":83,"max":172,"target":"absent","response":"absent","rt":402.20000004768,"correct":true,"confidence":4},{"trial_n":134,"min":84,"max":171,"target":"present","response":"absent","rt":656.70000004768,"correct":false,"confidence":4},{"trial_n":135,"min":83,"max":172,"target":"present","response":"absent","rt":329.20000004768,"correct":false,"confidence":3},{"trial_n":136,"min":82,"max":173,"target":"absent","response":"present","rt":285.70000004768,"correct":false,"confidence":3},{"trial_n":137,"min":81,"max":174,"target":"present","response":"present","rt":942.40000009537,"correct":true,"confidence":5},{"trial_n":138,"min":81,"max":174,"target":"present","response":"present","rt":406,"correct":true,"confidence":4},{"trial_n":139,"min":82,"max":173,"target":"absent","response":"absent","rt":453.29999995232,"correct":true,"confidence":5},{"trial_n":140,"min":82,"max":173,"target":"absent","response":"absent","rt":460.79999995232,"correct":true,"confidence":3}]