[{"trial_n":1,"min":25,"max":230,"target":"present","response":"present","rt":5009.6999999881,"correct":true,"confidence":-1},{"trial_n":2,"min":25,"max":230,"target":"present","response":"present","rt":1152,"correct":true,"confidence":-1},{"trial_n":3,"min":41,"max":214,"target":"absent","response":"absent","rt":1383.2999999821,"correct":true,"confidence":-1},{"trial_n":4,"min":41,"max":214,"target":"absent","response":"absent","rt":1562.400000006,"correct":true,"confidence":-1},{"trial_n":5,"min":57,"max":198,"target":"present","response":"present","rt":749.80000001192,"correct":true,"confidence":-1},{"trial_n":6,"min":57,"max":198,"target":"present","response":"present","rt":975,"correct":true,"confidence":-1},{"trial_n":7,"min":73,"max":182,"target":"present","response":"present","rt":900.90000000596,"correct":true,"confidence":-1},{"trial_n":8,"min":73,"max":182,"target":"present","response":"present","rt":844.59999999404,"correct":true,"confidence":-1},{"trial_n":9,"min":89,"max":166,"target":"present","response":"absent","rt":887,"correct":false,"confidence":-1},{"trial_n":10,"min":73,"max":182,"target":"absent","response":"absent","rt":565.60000002384,"correct":true,"confidence":-1},{"trial_n":11,"min":73,"max":182,"target":"absent","response":"absent","rt":506.80000001192,"correct":true,"confidence":-1},{"trial_n":12,"min":81,"max":174,"target":"absent","response":"absent","rt":438.90000000596,"correct":true,"confidence":-1},{"trial_n":13,"min":81,"max":174,"target":"present","response":"absent","rt":454.19999998808,"correct":false,"confidence":-1},{"trial_n":14,"min":73,"max":182,"target":"present","response":"present","rt":714.09999999404,"correct":true,"confidence":-1},{"trial_n":15,"min":73,"max":182,"target":"absent","response":"absent","rt":1063.2999999821,"correct":true,"confidence":-1},{"trial_n":16,"min":81,"max":174,"target":"present","response":"present","rt":875.90000000596,"correct":true,"confidence":-1},{"trial_n":17,"min":81,"max":174,"target":"present","response":"present","rt":767.40000000596,"correct":true,"confidence":-1},{"trial_n":18,"min":89,"max":166,"target":"absent","response":"absent","rt":743.30000001192,"correct":true,"confidence":-1},{"trial_n":19,"min":89,"max":166,"target":"present","response":"present","rt":728.30000001192,"correct":true,"confidence":-1},{"trial_n":20,"min":97,"max":158,"target":"absent","response":"absent","rt":874.69999998808,"correct":true,"confidence":-1},{"trial_n":21,"min":97,"max":158,"target":"present","response":"absent","rt":705.10000002384,"correct":false,"confidence":3},{"trial_n":22,"min":93,"max":162,"target":"present","response":"present","rt":831,"correct":true,"confidence":3},{"trial_n":23,"min":93,"max":162,"target":"absent","response":"present","rt":817,"correct":false,"confidence":3},{"trial_n":24,"min":89,"max":166,"target":"absent","response":"present","rt":1318.6999999881,"correct":false,"confidence":3},{"trial_n":25,"min":85,"max":170,"target":"present","response":"present","rt":1299.099999994,"correct":true,"confidence":2},{"trial_n":26,"min":85,"max":170,"target":"absent","response":"absent","rt":5467.7000000179,"correct":true,"confidence":2},{"trial_n":27,"min":89,"max":166,"target":"present","response":"absent","rt":1177.1999999881,"correct":false,"confidence":2},{"trial_n":28,"min":85,"max":170,"target":"absent","response":"absent","rt":874.30000001192,"correct":true,"confidence":2},{"trial_n":29,"min":85,"max":170,"target":"present","response":"present","rt":2148.7999999821,"correct":true,"confidence":2},{"trial_n":30,"min":89,"max":166,"target":"present","response":"present","rt":793.80000001192,"correct":true,"confidence":2},{"trial_n":31,"min":89,"max":166,"target":"present","response":"present","rt":836.09999999404,"correct":true,"confidence":2},{"trial_n":32,"min":91,"max":164,"target":"present","response":"absent","rt":865.59999999404,"correct":false,"confidence":2},{"trial_n":33,"min":89,"max":166,"target":"absent","response":"present","rt":828.10000002384,"correct":false,"confidence":2},{"trial_n":34,"min":87,"max":168,"target":"present","response":"present","rt":1008.1000000238,"correct":true,"confidence":2},{"trial_n":35,"min":87,"max":168,"target":"absent","response":"absent","rt":1284.599999994,"correct":true,"confidence":2},{"trial_n":36,"min":89,"max":166,"target":"absent","response":"absent","rt":827.09999999404,"correct":true,"confidence":2},{"trial_n":37,"min":89,"max":166,"target":"present","response":"absent","rt":1018.7999999821,"correct":false,"confidence":2},{"trial_n":38,"min":87,"max":168,"target":"absent","response":"absent","rt":948,"correct":true,"confidence":2},{"trial_n":39,"min":87,"max":168,"target":"absent","response":"absent","rt":745.20000001788,"correct":true,"confidence":2},{"trial_n":40,"min":89,"max":166,"target":"absent","response":"absent","rt":681.59999999404,"correct":true,"confidence":2},{"trial_n":41,"min":89,"max":166,"target":"present","response":"absent","rt":833.79999998212,"correct":false,"confidence":2},{"trial_n":42,"min":88,"max":167,"target":"present","response":"absent","rt":681.90000000596,"correct":false,"confidence":2},{"trial_n":43,"min":87,"max":168,"target":"absent","response":"absent","rt":894.70000001788,"correct":true,"confidence":2},{"trial_n":44,"min":87,"max":168,"target":"present","response":"absent","rt":1054.3000000119,"correct":false,"confidence":2},{"trial_n":45,"min":86,"max":169,"target":"absent","response":"absent","rt":521.09999999404,"correct":true,"confidence":2},{"trial_n":46,"min":86,"max":169,"target":"present","response":"absent","rt":1098.5,"correct":false,"confidence":2},{"trial_n":47,"min":85,"max":170,"target":"present","response":"absent","rt":676.5,"correct":false,"confidence":2},{"trial_n":48,"min":84,"max":171,"target":"absent","response":"absent","rt":676.59999999404,"correct":true,"confidence":2},{"trial_n":49,"min":84,"max":171,"target":"absent","response":"absent","rt":784.40000000596,"correct":true,"confidence":2},{"trial_n":50,"min":85,"max":170,"target":"absent","response":"absent","rt":796.09999999404,"correct":true,"confidence":2},{"trial_n":51,"min":85,"max":170,"target":"present","response":"absent","rt":759.70000001788,"correct":false,"confidence":2},{"trial_n":52,"min":84,"max":171,"target":"absent","response":"absent","rt":615.59999999404,"correct":true,"confidence":2},{"trial_n":53,"min":84,"max":171,"target":"absent","response":"absent","rt":691,"correct":true,"confidence":2},{"trial_n":54,"min":85,"max":170,"target":"absent","response":"absent","rt":704.69999998808,"correct":true,"confidence":2},{"trial_n":55,"min":85,"max":170,"target":"absent","response":"absent","rt":717.79999998212,"correct":true,"confidence":2},{"trial_n":56,"min":86,"max":169,"target":"absent","response":"absent","rt":535.40000000596,"correct":true,"confidence":2},{"trial_n":57,"min":86,"max":169,"target":"present","response":"absent","rt":716.09999999404,"correct":false,"confidence":2},{"trial_n":58,"min":85,"max":170,"target":"present","response":"present","rt":1249.099999994,"correct":true,"confidence":2},{"trial_n":59,"min":85,"max":170,"target":"present","response":"absent","rt":1160.7999999821,"correct":false,"confidence":2},{"trial_n":60,"min":84,"max":171,"target":"present","response":"absent","rt":814.40000000596,"correct":false,"confidence":2},{"trial_n":61,"min":83,"max":172,"target":"present","response":"present","rt":790.30000001192,"correct":true,"confidence":2},{"trial_n":62,"min":83,"max":172,"target":"present","response":"absent","rt":888.30000001192,"correct":false,"confidence":2},{"trial_n":63,"min":82,"max":173,"target":"absent","response":"present","rt":796.40000000596,"correct":false,"confidence":2},{"trial_n":64,"min":81,"max":174,"target":"present","response":"present","rt":1099.6999999881,"correct":true,"confidence":2},{"trial_n":65,"min":81,"max":174,"target":"absent","response":"present","rt":1346.6999999881,"correct":false,"confidence":2},{"trial_n":66,"min":80,"max":175,"target":"absent","response":"absent","rt":864.19999998808,"correct":true,"confidence":2},{"trial_n":67,"min":80,"max":175,"target":"absent","response":"absent","rt":1435.900000006,"correct":true,"confidence":2},{"trial_n":68,"min":81,"max":174,"target":"absent","response":"absent","rt":657.40000000596,"correct":true,"confidence":2},{"trial_n":69,"min":81,"max":174,"target":"absent","response":"absent","rt":721.90000000596,"correct":true,"confidence":2},{"trial_n":70,"min":82,"max":173,"target":"present","response":"present","rt":780.5,"correct":true,"confidence":2},{"trial_n":71,"min":41,"max":214,"target":"present","response":"present","rt":7967.599999994,"correct":true,"confidence":-1},{"trial_n":72,"min":41,"max":214,"target":"present","response":"present","rt":2443.7000000179,"correct":true,"confidence":-1},{"trial_n":73,"min":57,"max":198,"target":"absent","response":"absent","rt":1256.400000006,"correct":true,"confidence":-1},{"trial_n":74,"min":57,"max":198,"target":"absent","response":"absent","rt":1336.7000000179,"correct":true,"confidence":-1},{"trial_n":75,"min":73,"max":182,"target":"present","response":"absent","rt":2015,"correct":false,"confidence":-1},{"trial_n":76,"min":57,"max":198,"target":"absent","response":"absent","rt":916.39999997616,"correct":true,"confidence":-1},{"trial_n":77,"min":57,"max":198,"target":"absent","response":"absent","rt":694.30000001192,"correct":true,"confidence":-1},{"trial_n":78,"min":73,"max":182,"target":"present","response":"present","rt":834.79999998212,"correct":true,"confidence":-1},{"trial_n":79,"min":73,"max":182,"target":"absent","response":"absent","rt":1075.3000000119,"correct":true,"confidence":-1},{"trial_n":80,"min":89,"max":166,"target":"present","response":"present","rt":959.30000001192,"correct":true,"confidence":-1},{"trial_n":81,"min":89,"max":166,"target":"absent","response":"present","rt":910.19999998808,"correct":false,"confidence":-1},{"trial_n":82,"min":81,"max":174,"target":"absent","response":"absent","rt":900.40000000596,"correct":true,"confidence":-1},{"trial_n":83,"min":81,"max":174,"target":"absent","response":"absent","rt":930.59999999404,"correct":true,"confidence":-1},{"trial_n":84,"min":89,"max":166,"target":"absent","response":"present","rt":720.40000000596,"correct":false,"confidence":-1},{"trial_n":85,"min":81,"max":174,"target":"absent","response":"absent","rt":910.90000000596,"correct":true,"confidence":-1},{"trial_n":86,"min":81,"max":174,"target":"absent","response":"absent","rt":594.79999998212,"correct":true,"confidence":-1},{"trial_n":87,"min":89,"max":166,"target":"absent","response":"absent","rt":668.90000000596,"correct":true,"confidence":-1},{"trial_n":88,"min":89,"max":166,"target":"present","response":"present","rt":658.09999999404,"correct":true,"confidence":-1},{"trial_n":89,"min":97,"max":158,"target":"present","response":"present","rt":1061.099999994,"correct":true,"confidence":-1},{"trial_n":90,"min":97,"max":158,"target":"absent","response":"present","rt":531,"correct":false,"confidence":-1},{"trial_n":91,"min":93,"max":162,"target":"absent","response":"present","rt":1489.400000006,"correct":false,"confidence":1},{"trial_n":92,"min":89,"max":166,"target":"present","response":"present","rt":1272.599999994,"correct":true,"confidence":1},{"trial_n":93,"min":89,"max":166,"target":"absent","response":"present","rt":924.90000000596,"correct":false,"confidence":1},{"trial_n":94,"min":85,"max":170,"target":"present","response":"present","rt":843.39999997616,"correct":true,"confidence":2},{"trial_n":95,"min":85,"max":170,"target":"absent","response":"present","rt":969.30000001192,"correct":false,"confidence":2},{"trial_n":96,"min":81,"max":174,"target":"present","response":"present","rt":877.19999998808,"correct":true,"confidence":2},{"trial_n":97,"min":81,"max":174,"target":"present","response":"present","rt":688.59999999404,"correct":true,"confidence":2},{"trial_n":98,"min":85,"max":170,"target":"present","response":"present","rt":923.69999998808,"correct":true,"confidence":2},{"trial_n":99,"min":85,"max":170,"target":"absent","response":"present","rt":845.90000000596,"correct":false,"confidence":1},{"trial_n":100,"min":81,"max":174,"target":"absent","response":"absent","rt":1056.400000006,"correct":true,"confidence":3},{"trial_n":101,"min":81,"max":174,"target":"present","response":"present","rt":807.79999998212,"correct":true,"confidence":3},{"trial_n":102,"min":83,"max":172,"target":"absent","response":"present","rt":763.69999998808,"correct":false,"confidence":2},{"trial_n":103,"min":81,"max":174,"target":"present","response":"present","rt":561.19999998808,"correct":true,"confidence":3},{"trial_n":104,"min":81,"max":174,"target":"present","response":"present","rt":641.19999998808,"correct":true,"confidence":3},{"trial_n":105,"min":83,"max":172,"target":"present","response":"present","rt":767.30000001192,"correct":true,"confidence":3},{"trial_n":106,"min":83,"max":172,"target":"present","response":"present","rt":646.5,"correct":true,"confidence":4},{"trial_n":107,"min":85,"max":170,"target":"present","response":"present","rt":635.30000001192,"correct":true,"confidence":4},{"trial_n":108,"min":85,"max":170,"target":"absent","response":"absent","rt":977.80000001192,"correct":true,"confidence":3},{"trial_n":109,"min":87,"max":168,"target":"absent","response":"present","rt":651.5,"correct":false,"confidence":3},{"trial_n":110,"min":85,"max":170,"target":"absent","response":"present","rt":861.19999998808,"correct":false,"confidence":2},{"trial_n":111,"min":84,"max":171,"target":"present","response":"present","rt":596.30000001192,"correct":true,"confidence":3},{"trial_n":112,"min":84,"max":171,"target":"present","response":"present","rt":512.69999998808,"correct":true,"confidence":3},{"trial_n":113,"min":85,"max":170,"target":"absent","response":"absent","rt":858.09999999404,"correct":true,"confidence":3},{"trial_n":114,"min":85,"max":170,"target":"present","response":"present","rt":1024.1000000238,"correct":true,"confidence":3},{"trial_n":115,"min":86,"max":169,"target":"present","response":"present","rt":614.69999998808,"correct":true,"confidence":3},{"trial_n":116,"min":86,"max":169,"target":"absent","response":"present","rt":665,"correct":false,"confidence":2},{"trial_n":117,"min":85,"max":170,"target":"present","response":"present","rt":727.59999999404,"correct":true,"confidence":2},{"trial_n":118,"min":85,"max":170,"target":"present","response":"present","rt":643.79999998212,"correct":true,"confidence":4},{"trial_n":119,"min":86,"max":169,"target":"present","response":"present","rt":701,"correct":true,"confidence":2},{"trial_n":120,"min":86,"max":169,"target":"absent","response":"present","rt":587.39999997616,"correct":false,"confidence":4},{"trial_n":121,"min":85,"max":170,"target":"present","response":"present","rt":857.09999999404,"correct":true,"confidence":4},{"trial_n":122,"min":85,"max":170,"target":"present","response":"present","rt":609.19999998808,"correct":true,"confidence":2},{"trial_n":123,"min":86,"max":169,"target":"present","response":"present","rt":722.89999997616,"correct":true,"confidence":2},{"trial_n":124,"min":86,"max":169,"target":"present","response":"present","rt":671.90000000596,"correct":true,"confidence":3},{"trial_n":125,"min":87,"max":168,"target":"absent","response":"present","rt":716,"correct":false,"confidence":2},{"trial_n":126,"min":86,"max":169,"target":"present","response":"present","rt":710.90000000596,"correct":true,"confidence":2},{"trial_n":127,"min":86,"max":169,"target":"present","response":"present","rt":525.29999998212,"correct":true,"confidence":3},{"trial_n":128,"min":87,"max":168,"target":"absent","response":"present","rt":737.59999999404,"correct":false,"confidence":2},{"trial_n":129,"min":86,"max":169,"target":"absent","response":"present","rt":679.40000000596,"correct":false,"confidence":2},{"trial_n":130,"min":85,"max":170,"target":"absent","response":"absent","rt":1291.099999994,"correct":true,"confidence":3},{"trial_n":131,"min":85,"max":170,"target":"absent","response":"absent","rt":771.19999998808,"correct":true,"confidence":3},{"trial_n":132,"min":86,"max":169,"target":"absent","response":"present","rt":743.19999998808,"correct":false,"confidence":3},{"trial_n":133,"min":85,"max":170,"target":"absent","response":"present","rt":737.09999999404,"correct":false,"confidence":2},{"trial_n":134,"min":84,"max":171,"target":"present","response":"present","rt":746.69999998808,"correct":true,"confidence":2},{"trial_n":135,"min":84,"max":171,"target":"absent","response":"present","rt":785,"correct":false,"confidence":2},{"trial_n":136,"min":83,"max":172,"target":"present","response":"present","rt":617.30000001192,"correct":true,"confidence":4},{"trial_n":137,"min":83,"max":172,"target":"present","response":"present","rt":566.5,"correct":true,"confidence":4},{"trial_n":138,"min":84,"max":171,"target":"present","response":"absent","rt":1771.5,"correct":false,"confidence":2},{"trial_n":139,"min":83,"max":172,"target":"absent","response":"present","rt":676.20000001788,"correct":false,"confidence":2},{"trial_n":140,"min":82,"max":173,"target":"present","response":"present","rt":518.80000001192,"correct":true,"confidence":5}]