[{"trial_n":1,"min":25,"max":230,"target":"present","response":"absent","rt":7648.5,"correct":false,"confidence":-1},{"trial_n":2,"min":25,"max":230,"target":"present","response":"present","rt":813.19999980927,"correct":true,"confidence":-1},{"trial_n":3,"min":25,"max":230,"target":"absent","response":"absent","rt":737,"correct":true,"confidence":-1},{"trial_n":4,"min":41,"max":214,"target":"absent","response":"absent","rt":937.5,"correct":true,"confidence":-1},{"trial_n":5,"min":41,"max":214,"target":"present","response":"present","rt":509.70000004768,"correct":true,"confidence":-1},{"trial_n":6,"min":57,"max":198,"target":"absent","response":"absent","rt":514.90000009537,"correct":true,"confidence":-1},{"trial_n":7,"min":57,"max":198,"target":"absent","response":"absent","rt":399.09999990463,"correct":true,"confidence":-1},{"trial_n":8,"min":73,"max":182,"target":"absent","response":"absent","rt":424.90000009537,"correct":true,"confidence":-1},{"trial_n":9,"min":73,"max":182,"target":"absent","response":"absent","rt":330.40000009537,"correct":true,"confidence":-1},{"trial_n":10,"min":89,"max":166,"target":"present","response":"absent","rt":265.70000004768,"correct":false,"confidence":-1},{"trial_n":11,"min":81,"max":174,"target":"absent","response":"absent","rt":2078.7999999523,"correct":true,"confidence":-1},{"trial_n":12,"min":81,"max":174,"target":"absent","response":"absent","rt":607.29999995232,"correct":true,"confidence":-1},{"trial_n":13,"min":89,"max":166,"target":"absent","response":"absent","rt":809.5,"correct":true,"confidence":-1},{"trial_n":14,"min":89,"max":166,"target":"present","response":"present","rt":1003.7000000477,"correct":true,"confidence":-1},{"trial_n":15,"min":97,"max":158,"target":"absent","response":"present","rt":3239.7999999523,"correct":false,"confidence":-1},{"trial_n":16,"min":89,"max":166,"target":"absent","response":"absent","rt":733.29999995232,"correct":true,"confidence":-1},{"trial_n":17,"min":89,"max":166,"target":"absent","response":"absent","rt":767.60000014305,"correct":true,"confidence":-1},{"trial_n":18,"min":97,"max":158,"target":"present","response":"absent","rt":634.20000004768,"correct":false,"confidence":-1},{"trial_n":19,"min":89,"max":166,"target":"present","response":"absent","rt":1540.7999999523,"correct":false,"confidence":-1},{"trial_n":20,"min":81,"max":174,"target":"present","response":"absent","rt":739.20000004768,"correct":false,"confidence":-1},{"trial_n":21,"min":77,"max":178,"target":"present","response":"absent","rt":1524.5,"correct":false,"confidence":1},{"trial_n":22,"min":73,"max":182,"target":"absent","response":"present","rt":4074.7000000477,"correct":false,"confidence":1},{"trial_n":23,"min":69,"max":186,"target":"absent","response":"present","rt":1080.5999999046,"correct":false,"confidence":3},{"trial_n":24,"min":65,"max":190,"target":"present","response":"present","rt":1689.2999999523,"correct":true,"confidence":5},{"trial_n":25,"min":65,"max":190,"target":"present","response":"present","rt":896.5,"correct":true,"confidence":5},{"trial_n":26,"min":69,"max":186,"target":"present","response":"present","rt":1541.8999998569,"correct":true,"confidence":5},{"trial_n":27,"min":69,"max":186,"target":"absent","response":"present","rt":2614.1999998093,"correct":false,"confidence":2},{"trial_n":28,"min":65,"max":190,"target":"absent","response":"absent","rt":834.29999995232,"correct":true,"confidence":1},{"trial_n":29,"min":65,"max":190,"target":"present","response":"present","rt":1519.6000001431,"correct":true,"confidence":5},{"trial_n":30,"min":69,"max":186,"target":"present","response":"present","rt":885.79999995232,"correct":true,"confidence":5},{"trial_n":31,"min":69,"max":186,"target":"absent","response":"absent","rt":749,"correct":true,"confidence":1},{"trial_n":32,"min":71,"max":184,"target":"present","response":"present","rt":972.59999990463,"correct":true,"confidence":5},{"trial_n":33,"min":71,"max":184,"target":"absent","response":"absent","rt":338.29999995232,"correct":true,"confidence":2},{"trial_n":34,"min":73,"max":182,"target":"absent","response":"absent","rt":1069.0999999046,"correct":true,"confidence":1},{"trial_n":35,"min":73,"max":182,"target":"present","response":"present","rt":922.59999990463,"correct":true,"confidence":5},{"trial_n":36,"min":75,"max":180,"target":"present","response":"absent","rt":870.40000009537,"correct":false,"confidence":1},{"trial_n":37,"min":73,"max":182,"target":"absent","response":"absent","rt":831.39999985695,"correct":true,"confidence":1},{"trial_n":38,"min":73,"max":182,"target":"present","response":"present","rt":683.89999985695,"correct":true,"confidence":5},{"trial_n":39,"min":75,"max":180,"target":"absent","response":"absent","rt":1386.2000000477,"correct":true,"confidence":3},{"trial_n":40,"min":75,"max":180,"target":"present","response":"present","rt":520.90000009537,"correct":true,"confidence":5},{"trial_n":41,"min":76,"max":179,"target":"present","response":"absent","rt":680.09999990463,"correct":false,"confidence":3},{"trial_n":42,"min":75,"max":180,"target":"present","response":"present","rt":742.29999995232,"correct":true,"confidence":4},{"trial_n":43,"min":75,"max":180,"target":"present","response":"present","rt":734.59999990463,"correct":true,"confidence":5},{"trial_n":44,"min":76,"max":179,"target":"present","response":"present","rt":806.09999990463,"correct":true,"confidence":5},{"trial_n":45,"min":76,"max":179,"target":"absent","response":"absent","rt":446.70000004768,"correct":true,"confidence":3},{"trial_n":46,"min":77,"max":178,"target":"present","response":"present","rt":437.5,"correct":true,"confidence":2},{"trial_n":47,"min":77,"max":178,"target":"present","response":"present","rt":1620.2000000477,"correct":true,"confidence":5},{"trial_n":48,"min":78,"max":177,"target":"present","response":"present","rt":947.59999990463,"correct":true,"confidence":3},{"trial_n":49,"min":78,"max":177,"target":"absent","response":"absent","rt":2075.6000001431,"correct":true,"confidence":2},{"trial_n":50,"min":79,"max":176,"target":"absent","response":"absent","rt":748.90000009537,"correct":true,"confidence":2},{"trial_n":51,"min":79,"max":176,"target":"present","response":"absent","rt":1263.0999999046,"correct":false,"confidence":1},{"trial_n":52,"min":78,"max":177,"target":"absent","response":"absent","rt":697.29999995232,"correct":true,"confidence":3},{"trial_n":53,"min":78,"max":177,"target":"absent","response":"absent","rt":535.29999995232,"correct":true,"confidence":3},{"trial_n":54,"min":79,"max":176,"target":"absent","response":"absent","rt":760.70000004768,"correct":true,"confidence":4},{"trial_n":55,"min":79,"max":176,"target":"absent","response":"absent","rt":726.40000009537,"correct":true,"confidence":2},{"trial_n":56,"min":80,"max":175,"target":"absent","response":"absent","rt":1714.5,"correct":true,"confidence":2},{"trial_n":57,"min":80,"max":175,"target":"present","response":"absent","rt":1616.5999999046,"correct":false,"confidence":1},{"trial_n":58,"min":79,"max":176,"target":"present","response":"absent","rt":430.60000014305,"correct":false,"confidence":1},{"trial_n":59,"min":78,"max":177,"target":"present","response":"present","rt":1024.5999999046,"correct":true,"confidence":4},{"trial_n":60,"min":78,"max":177,"target":"present","response":"absent","rt":608.39999985695,"correct":false,"confidence":2},{"trial_n":61,"min":77,"max":178,"target":"absent","response":"absent","rt":551.60000014305,"correct":true,"confidence":2},{"trial_n":62,"min":77,"max":178,"target":"present","response":"present","rt":961.40000009537,"correct":true,"confidence":5},{"trial_n":63,"min":78,"max":177,"target":"present","response":"present","rt":930.09999990463,"correct":true,"confidence":4},{"trial_n":64,"min":78,"max":177,"target":"absent","response":"absent","rt":1117.5999999046,"correct":true,"confidence":2},{"trial_n":65,"min":79,"max":176,"target":"absent","response":"absent","rt":1222.2000000477,"correct":true,"confidence":1},{"trial_n":66,"min":79,"max":176,"target":"present","response":"absent","rt":550.10000014305,"correct":false,"confidence":3},{"trial_n":67,"min":78,"max":177,"target":"present","response":"present","rt":792.79999995232,"correct":true,"confidence":5},{"trial_n":68,"min":78,"max":177,"target":"absent","response":"absent","rt":492.89999985695,"correct":true,"confidence":3},{"trial_n":69,"min":79,"max":176,"target":"present","response":"present","rt":1078.4000000954,"correct":true,"confidence":5},{"trial_n":70,"min":79,"max":176,"target":"absent","response":"absent","rt":705.90000009537,"correct":true,"confidence":3},{"trial_n":71,"min":41,"max":214,"target":"present","response":"present","rt":6726.1999998093,"correct":true,"confidence":-1},{"trial_n":72,"min":41,"max":214,"target":"present","response":"absent","rt":5262.7999999523,"correct":false,"confidence":-1},{"trial_n":73,"min":25,"max":230,"target":"absent","response":"present","rt":1242.6000001431,"correct":false,"confidence":-1},{"trial_n":74,"min":9,"max":246,"target":"absent","response":"absent","rt":1006.3000001907,"correct":true,"confidence":-1},{"trial_n":75,"min":9,"max":246,"target":"present","response":"present","rt":1719.2999999523,"correct":true,"confidence":-1},{"trial_n":76,"min":25,"max":230,"target":"present","response":"present","rt":1904.7000000477,"correct":true,"confidence":-1},{"trial_n":77,"min":25,"max":230,"target":"present","response":"present","rt":1578.5,"correct":true,"confidence":-1},{"trial_n":78,"min":41,"max":214,"target":"present","response":"present","rt":513.20000004768,"correct":true,"confidence":-1},{"trial_n":79,"min":41,"max":214,"target":"present","response":"present","rt":467.30000019073,"correct":true,"confidence":-1},{"trial_n":80,"min":57,"max":198,"target":"absent","response":"absent","rt":734.29999995232,"correct":true,"confidence":-1},{"trial_n":81,"min":57,"max":198,"target":"present","response":"present","rt":900.5,"correct":true,"confidence":-1},{"trial_n":82,"min":65,"max":190,"target":"absent","response":"absent","rt":726.59999990463,"correct":true,"confidence":-1},{"trial_n":83,"min":65,"max":190,"target":"absent","response":"absent","rt":397.20000004768,"correct":true,"confidence":-1},{"trial_n":84,"min":73,"max":182,"target":"absent","response":"absent","rt":530.79999995232,"correct":true,"confidence":-1},{"trial_n":85,"min":73,"max":182,"target":"absent","response":"present","rt":778.20000004768,"correct":false,"confidence":-1},{"trial_n":86,"min":65,"max":190,"target":"present","response":"present","rt":723.89999985695,"correct":true,"confidence":-1},{"trial_n":87,"min":65,"max":190,"target":"absent","response":"absent","rt":387.09999990463,"correct":true,"confidence":-1},{"trial_n":88,"min":73,"max":182,"target":"present","response":"present","rt":1406.6999998093,"correct":true,"confidence":-1},{"trial_n":89,"min":73,"max":182,"target":"present","response":"present","rt":460.20000004768,"correct":true,"confidence":-1},{"trial_n":90,"min":81,"max":174,"target":"absent","response":"present","rt":577.40000009537,"correct":false,"confidence":-1},{"trial_n":91,"min":77,"max":178,"target":"absent","response":"present","rt":525.09999990463,"correct":false,"confidence":5},{"trial_n":92,"min":73,"max":182,"target":"present","response":"present","rt":386.20000004768,"correct":true,"confidence":5},{"trial_n":93,"min":73,"max":182,"target":"absent","response":"present","rt":965.10000014305,"correct":false,"confidence":3},{"trial_n":94,"min":69,"max":186,"target":"absent","response":"absent","rt":1559.6000001431,"correct":true,"confidence":5},{"trial_n":95,"min":69,"max":186,"target":"absent","response":"absent","rt":1291.7000000477,"correct":true,"confidence":5},{"trial_n":96,"min":73,"max":182,"target":"present","response":"absent","rt":1076.4000000954,"correct":false,"confidence":3},{"trial_n":97,"min":69,"max":186,"target":"absent","response":"present","rt":1792,"correct":false,"confidence":2},{"trial_n":98,"min":65,"max":190,"target":"absent","response":"absent","rt":1588.0999999046,"correct":true,"confidence":3},{"trial_n":99,"min":65,"max":190,"target":"present","response":"present","rt":589.59999990463,"correct":true,"confidence":5},{"trial_n":100,"min":69,"max":186,"target":"absent","response":"absent","rt":2645.3999998569,"correct":true,"confidence":1},{"trial_n":101,"min":69,"max":186,"target":"present","response":"present","rt":618.5,"correct":true,"confidence":5},{"trial_n":102,"min":71,"max":184,"target":"present","response":"present","rt":554,"correct":true,"confidence":5},{"trial_n":103,"min":71,"max":184,"target":"present","response":"present","rt":523.29999995232,"correct":true,"confidence":5},{"trial_n":104,"min":73,"max":182,"target":"present","response":"present","rt":501.10000014305,"correct":true,"confidence":5},{"trial_n":105,"min":73,"max":182,"target":"present","response":"present","rt":621.09999990463,"correct":true,"confidence":5},{"trial_n":106,"min":75,"max":180,"target":"absent","response":"absent","rt":1226.8999998569,"correct":true,"confidence":3},{"trial_n":107,"min":75,"max":180,"target":"present","response":"absent","rt":914.40000009537,"correct":false,"confidence":1},{"trial_n":108,"min":73,"max":182,"target":"absent","response":"absent","rt":2394.2000000477,"correct":true,"confidence":4},{"trial_n":109,"min":73,"max":182,"target":"present","response":"present","rt":1199.5,"correct":true,"confidence":5},{"trial_n":110,"min":75,"max":180,"target":"absent","response":"absent","rt":1041.7999999523,"correct":true,"confidence":2},{"trial_n":111,"min":75,"max":180,"target":"absent","response":"absent","rt":1131.4000000954,"correct":true,"confidence":2},{"trial_n":112,"min":76,"max":179,"target":"absent","response":"absent","rt":769.39999985695,"correct":true,"confidence":3},{"trial_n":113,"min":76,"max":179,"target":"absent","response":"present","rt":1096.3000001907,"correct":false,"confidence":2},{"trial_n":114,"min":75,"max":180,"target":"present","response":"present","rt":656.59999990463,"correct":true,"confidence":3},{"trial_n":115,"min":75,"max":180,"target":"absent","response":"absent","rt":1668.2000000477,"correct":true,"confidence":1},{"trial_n":116,"min":76,"max":179,"target":"absent","response":"present","rt":1179.6000001431,"correct":false,"confidence":1},{"trial_n":117,"min":75,"max":180,"target":"absent","response":"present","rt":832.59999990463,"correct":false,"confidence":1},{"trial_n":118,"min":74,"max":181,"target":"present","response":"present","rt":850.39999985695,"correct":true,"confidence":5},{"trial_n":119,"min":74,"max":181,"target":"present","response":"absent","rt":539.80000019073,"correct":false,"confidence":1},{"trial_n":120,"min":73,"max":182,"target":"absent","response":"absent","rt":1790.2999999523,"correct":true,"confidence":5},{"trial_n":121,"min":73,"max":182,"target":"present","response":"absent","rt":1273,"correct":false,"confidence":1},{"trial_n":122,"min":72,"max":183,"target":"present","response":"present","rt":551.70000004768,"correct":true,"confidence":5},{"trial_n":123,"min":72,"max":183,"target":"present","response":"present","rt":503.90000009537,"correct":true,"confidence":5},{"trial_n":124,"min":73,"max":182,"target":"present","response":"present","rt":433.90000009537,"correct":true,"confidence":5},{"trial_n":125,"min":73,"max":182,"target":"absent","response":"absent","rt":1849.8999998569,"correct":true,"confidence":3},{"trial_n":126,"min":74,"max":181,"target":"present","response":"present","rt":502.5,"correct":true,"confidence":5},{"trial_n":127,"min":74,"max":181,"target":"absent","response":"absent","rt":1391.4000000954,"correct":true,"confidence":4},{"trial_n":128,"min":75,"max":180,"target":"present","response":"present","rt":493.29999995232,"correct":true,"confidence":5},{"trial_n":129,"min":75,"max":180,"target":"absent","response":"absent","rt":2071.1999998093,"correct":true,"confidence":1},{"trial_n":130,"min":76,"max":179,"target":"present","response":"present","rt":816.40000009537,"correct":true,"confidence":1},{"trial_n":131,"min":76,"max":179,"target":"absent","response":"absent","rt":503.29999995232,"correct":true,"confidence":1},{"trial_n":132,"min":77,"max":178,"target":"absent","response":"absent","rt":868.79999995232,"correct":true,"confidence":3},{"trial_n":133,"min":77,"max":178,"target":"present","response":"present","rt":742.39999985695,"correct":true,"confidence":5},{"trial_n":134,"min":78,"max":177,"target":"present","response":"present","rt":535,"correct":true,"confidence":5},{"trial_n":135,"min":78,"max":177,"target":"absent","response":"present","rt":1148.6999998093,"correct":false,"confidence":3},{"trial_n":136,"min":77,"max":178,"target":"absent","response":"present","rt":768.20000004768,"correct":false,"confidence":1},{"trial_n":137,"min":76,"max":179,"target":"present","response":"present","rt":601.59999990463,"correct":true,"confidence":1},{"trial_n":138,"min":76,"max":179,"target":"present","response":"present","rt":796,"correct":true,"confidence":5},{"trial_n":139,"min":77,"max":178,"target":"present","response":"present","rt":585,"correct":true,"confidence":5},{"trial_n":140,"min":77,"max":178,"target":"absent","response":"absent","rt":2022.7999999523,"correct":true,"confidence":1}]