[{"trial_n":1,"span":8,"encoder":"88034554","distractor":"88434554","target":"present","response":"absent","rt":"8828.7999999523","correct":false,"confidence":-1},{"trial_n":2,"span":6,"encoder":"773549","distractor":"778549","target":"present","response":"absent","rt":"234.90000009537","correct":false,"confidence":-1},{"trial_n":3,"span":4,"encoder":"2730","distractor":"2732","target":"absent","response":"present","rt":"598.20000004768","correct":false,"confidence":-1},{"trial_n":4,"span":2,"encoder":"62","distractor":"60","target":"absent","response":"present","rt":"424.29999995232","correct":false,"confidence":-1},{"trial_n":5,"span":2,"encoder":"64","distractor":"14","target":"present","response":"absent","rt":"284.40000009537","correct":false,"confidence":-1},{"trial_n":6,"span":2,"encoder":"84","distractor":"04","target":"absent","response":"present","rt":"321.59999990463","correct":false,"confidence":-1},{"trial_n":7,"span":2,"encoder":"75","distractor":"73","target":"present","response":"absent","rt":"292.90000009537","correct":false,"confidence":-1},{"trial_n":8,"span":2,"encoder":"37","distractor":"35","target":"absent","response":"present","rt":"350.39999985695","correct":false,"confidence":-1},{"trial_n":9,"span":2,"encoder":"09","distractor":"07","target":"absent","response":"present","rt":"1073.9000000954","correct":false,"confidence":-1},{"trial_n":10,"span":2,"encoder":"90","distractor":"93","target":"absent","response":"absent","rt":"163.5","correct":true,"confidence":-1},{"trial_n":11,"span":2,"encoder":"21","distractor":"51","target":"absent","response":"absent","rt":"340.29999995232","correct":true,"confidence":-1},{"trial_n":12,"span":3,"encoder":"684","distractor":"384","target":"absent","response":"absent","rt":"952.29999995232","correct":true,"confidence":-1},{"trial_n":13,"span":3,"encoder":"049","distractor":"249","target":"present","response":"absent","rt":"362.60000014305","correct":false,"confidence":-1},{"trial_n":14,"span":2,"encoder":"95","distractor":"35","target":"present","response":"present","rt":"402.79999995232","correct":true,"confidence":-1},{"trial_n":15,"span":2,"encoder":"88","distractor":"78","target":"present","response":"present","rt":"735.5","correct":true,"confidence":-1},{"trial_n":16,"span":3,"encoder":"509","distractor":"507","target":"present","response":"present","rt":"438.59999990463","correct":true,"confidence":-1},{"trial_n":17,"span":3,"encoder":"626","distractor":"622","target":"absent","response":"present","rt":"371.5","correct":false,"confidence":-1},{"trial_n":18,"span":2,"encoder":"66","distractor":"63","target":"absent","response":"absent","rt":"326047.70000005","correct":true,"confidence":-1},{"trial_n":19,"span":2,"encoder":"50","distractor":"52","target":"absent","response":"absent","rt":"1069.3999998569","correct":true,"confidence":-1},{"trial_n":20,"span":3,"encoder":"374","distractor":"377","target":"absent","response":"absent","rt":"988.10000014305","correct":true,"confidence":-1},{"trial_n":21,"span":3,"encoder":"981","distractor":"991","target":"present","response":"absent","rt":"31351.299999952","correct":false,"confidence":4},{"trial_n":22,"span":2,"encoder":"78","distractor":"75","target":"present","response":"present","rt":"1252.2000000477","correct":true,"confidence":5},{"trial_n":23,"span":2,"encoder":"94","distractor":"54","target":"present","response":"present","rt":"2458","correct":true,"confidence":5},{"trial_n":24,"span":3,"encoder":"081","distractor":"084","target":"present","response":"present","rt":"1936.2000000477","correct":true,"confidence":5},{"trial_n":25,"span":3,"encoder":"675","distractor":"676","target":"absent","response":"present","rt":"4330.2999999523","correct":false,"confidence":2},{"trial_n":26,"span":2,"encoder":"28","distractor":"98","target":"present","response":"present","rt":"2923.9000000954","correct":true,"confidence":3},{"trial_n":27,"span":2,"encoder":"91","distractor":"71","target":"present","response":"present","rt":"2370.5999999046","correct":true,"confidence":5},{"trial_n":28,"span":3,"encoder":"606","distractor":"601","target":"absent","response":"absent","rt":"1430.7000000477","correct":true,"confidence":5},{"trial_n":29,"span":3,"encoder":"641","distractor":"647","target":"absent","response":"absent","rt":"1982.7999999523","correct":true,"confidence":3},{"trial_n":30,"span":4,"encoder":"4119","distractor":"4719","target":"present","response":"present","rt":"1523.9000000954","correct":true,"confidence":3},{"trial_n":31,"span":4,"encoder":"7871","distractor":"7371","target":"present","response":"present","rt":"2528.6999998093","correct":true,"confidence":5},{"trial_n":32,"span":5,"encoder":"85144","distractor":"85194","target":"absent","response":"present","rt":"2120.5999999046","correct":false,"confidence":3},{"trial_n":33,"span":4,"encoder":"1549","distractor":"1849","target":"absent","response":"absent","rt":"1485","correct":true,"confidence":3},{"trial_n":34,"span":4,"encoder":"9427","distractor":"9227","target":"absent","response":"absent","rt":"1302.5","correct":true,"confidence":5},{"trial_n":35,"span":5,"encoder":"86263","distractor":"36263","target":"absent","response":"present","rt":"2378.4000000954","correct":false,"confidence":3},{"trial_n":36,"span":4,"encoder":"7352","distractor":"7312","target":"present","response":"present","rt":"1363.4000000954","correct":true,"confidence":5},{"trial_n":37,"span":4,"encoder":"3779","distractor":"3771","target":"absent","response":"absent","rt":"1020","correct":true,"confidence":5},{"trial_n":38,"span":5,"encoder":"65884","distractor":"45884","target":"present","response":"present","rt":"1126.2999999523","correct":true,"confidence":3},{"trial_n":39,"span":5,"encoder":"69464","distractor":"69467","target":"present","response":"present","rt":"1438.5","correct":true,"confidence":5},{"trial_n":40,"span":6,"encoder":"120210","distractor":"120240","target":"present","response":"absent","rt":"11734.100000143","correct":false,"confidence":2},{"trial_n":41,"span":5,"encoder":"75692","distractor":"75682","target":"present","response":"absent","rt":"5113.9000000954","correct":false,"confidence":1},{"trial_n":42,"span":4,"encoder":"9106","distractor":"9206","target":"present","response":"present","rt":"1244.2999999523","correct":true,"confidence":5},{"trial_n":43,"span":4,"encoder":"2044","distractor":"0044","target":"absent","response":"absent","rt":"1143.8999998569","correct":true,"confidence":5},{"trial_n":44,"span":5,"encoder":"79401","distractor":"79431","target":"present","response":"present","rt":"2310.7000000477","correct":true,"confidence":4},{"trial_n":45,"span":5,"encoder":"33915","distractor":"33919","target":"absent","response":"absent","rt":"1987.8000001907","correct":true,"confidence":3},{"trial_n":46,"span":6,"encoder":"841425","distractor":"845425","target":"absent","response":"absent","rt":"7959.5","correct":true,"confidence":5},{"trial_n":47,"span":6,"encoder":"202757","distractor":"202751","target":"absent","response":"absent","rt":"2310.7999999523","correct":true,"confidence":2},{"trial_n":48,"span":7,"encoder":"8849349","distractor":"8549349","target":"absent","response":"absent","rt":"1811.3999998569","correct":true,"confidence":5},{"trial_n":49,"span":7,"encoder":"8003865","distractor":"8063865","target":"present","response":"present","rt":"1876.2999999523","correct":true,"confidence":4},{"trial_n":50,"span":8,"encoder":"64062864","distractor":"64062814","target":"absent","response":"absent","rt":"3530.2999999523","correct":true,"confidence":3},{"trial_n":51,"span":8,"encoder":"25577699","distractor":"28577699","target":"present","response":"present","rt":"1962.4000000954","correct":true,"confidence":4},{"trial_n":52,"span":9,"encoder":"486766474","distractor":"486736474","target":"present","response":"present","rt":"2479.6000001431","correct":true,"confidence":2},{"trial_n":53,"span":9,"encoder":"537584800","distractor":"537587800","target":"absent","response":"present","rt":"2851.2000000477","correct":false,"confidence":3},{"trial_n":54,"span":8,"encoder":"83794371","distractor":"83794341","target":"absent","response":"absent","rt":"6768.2999999523","correct":true,"confidence":5},{"trial_n":55,"span":8,"encoder":"00872808","distractor":"00872818","target":"present","response":"present","rt":"4444","correct":true,"confidence":3},{"trial_n":56,"span":9,"encoder":"122674808","distractor":"122674608","target":"present","response":"present","rt":"1784.7000000477","correct":true,"confidence":4},{"trial_n":57,"span":9,"encoder":"087850509","distractor":"087850709","target":"present","response":"present","rt":"6482.8999998569","correct":true,"confidence":4},{"trial_n":58,"span":10,"encoder":"9273232319","distractor":"9273232313","target":"present","response":"present","rt":"3058","correct":true,"confidence":5},{"trial_n":59,"span":10,"encoder":"4116938474","distractor":"4116978474","target":"absent","response":"absent","rt":"48792.799999952","correct":true,"confidence":5},{"trial_n":60,"span":11,"encoder":"19561324187","distractor":"19567324187","target":"absent","response":"present","rt":"2220.3000001907","correct":false,"confidence":3},{"trial_n":61,"span":10,"encoder":"3495750671","distractor":"3495450671","target":"absent","response":"present","rt":"1897.5","correct":false,"confidence":5},{"trial_n":62,"span":9,"encoder":"598395378","distractor":"198395378","target":"present","response":"present","rt":"3412.0999999046","correct":true,"confidence":5},{"trial_n":63,"span":9,"encoder":"281021731","distractor":"281021734","target":"absent","response":"absent","rt":"2171.8999998569","correct":true,"confidence":3},{"trial_n":64,"span":10,"encoder":"6429564835","distractor":"6429064835","target":"present","response":"present","rt":"8893.1000001431","correct":true,"confidence":2},{"trial_n":65,"span":10,"encoder":"0533546624","distractor":"0533546628","target":"present","response":"absent","rt":"11898.200000048","correct":false,"confidence":2},{"trial_n":66,"span":9,"encoder":"239889180","distractor":"239189180","target":"absent","response":"present","rt":"1989","correct":false,"confidence":4},{"trial_n":67,"span":8,"encoder":"44159698","distractor":"34159698","target":"present","response":"present","rt":"2540.5","correct":true,"confidence":5},{"trial_n":68,"span":8,"encoder":"68540675","distractor":"68540655","target":"present","response":"absent","rt":"9145.6000001431","correct":false,"confidence":1},{"trial_n":69,"span":7,"encoder":"1182404","distractor":"1182604","target":"absent","response":"present","rt":"3648.7999999523","correct":false,"confidence":5},{"trial_n":70,"span":6,"encoder":"981559","distractor":"911559","target":"present","response":"present","rt":"1989.3000001907","correct":true,"confidence":3},{"trial_n":71,"span":8,"encoder":"03298898","distractor":"03298998","target":"present","response":"absent","rt":"3083.4000000954","correct":false,"confidence":-1},{"trial_n":72,"span":7,"encoder":"8587294","distractor":"8586294","target":"present","response":"present","rt":"585.29999995232","correct":true,"confidence":-1},{"trial_n":73,"span":7,"encoder":"2443373","distractor":"2443343","target":"absent","response":"present","rt":"882.59999990463","correct":false,"confidence":-1},{"trial_n":74,"span":6,"encoder":"970110","distractor":"970100","target":"absent","response":"absent","rt":"536.90000009537","correct":true,"confidence":-1},{"trial_n":75,"span":6,"encoder":"803877","distractor":"803827","target":"present","response":"present","rt":"1226.6000001431","correct":true,"confidence":-1},{"trial_n":76,"span":7,"encoder":"3686795","distractor":"3686785","target":"present","response":"absent","rt":"1297.4000000954","correct":false,"confidence":-1},{"trial_n":77,"span":6,"encoder":"993266","distractor":"953266","target":"present","response":"present","rt":"960.5","correct":true,"confidence":-1},{"trial_n":78,"span":6,"encoder":"273654","distractor":"273652","target":"absent","response":"present","rt":"22067.5","correct":false,"confidence":-1},{"trial_n":79,"span":5,"encoder":"67728","distractor":"67727","target":"absent","response":"absent","rt":"1158","correct":true,"confidence":-1},{"trial_n":80,"span":5,"encoder":"88972","distractor":"88902","target":"present","response":"present","rt":"1683.7000000477","correct":true,"confidence":-1},{"trial_n":81,"span":6,"encoder":"602515","distractor":"602525","target":"present","response":"present","rt":"1676","correct":true,"confidence":-1},{"trial_n":82,"span":6,"encoder":"342222","distractor":"312222","target":"absent","response":"absent","rt":"3627.8999998569","correct":true,"confidence":-1},{"trial_n":83,"span":7,"encoder":"3283441","distractor":"3283445","target":"present","response":"present","rt":"1706.6999998093","correct":true,"confidence":-1},{"trial_n":84,"span":7,"encoder":"2793668","distractor":"2703668","target":"absent","response":"present","rt":"3135.7000000477","correct":false,"confidence":-1},{"trial_n":85,"span":6,"encoder":"613267","distractor":"614267","target":"present","response":"absent","rt":"3489.2999999523","correct":false,"confidence":-1},{"trial_n":86,"span":5,"encoder":"42704","distractor":"42764","target":"absent","response":"absent","rt":"1067.5999999046","correct":true,"confidence":-1},{"trial_n":87,"span":5,"encoder":"46680","distractor":"46684","target":"present","response":"present","rt":"1246.5","correct":true,"confidence":-1},{"trial_n":88,"span":6,"encoder":"096616","distractor":"296616","target":"present","response":"present","rt":"2704","correct":true,"confidence":-1},{"trial_n":89,"span":6,"encoder":"045468","distractor":"045464","target":"absent","response":"absent","rt":"1170.7000000477","correct":true,"confidence":-1},{"trial_n":90,"span":7,"encoder":"9182890","distractor":"9582890","target":"absent","response":"absent","rt":"931.89999985695","correct":true,"confidence":-1},{"trial_n":91,"span":7,"encoder":"1524477","distractor":"1524377","target":"absent","response":"absent","rt":"120314.29999995","correct":true,"confidence":3},{"trial_n":92,"span":8,"encoder":"77770506","distractor":"77370506","target":"present","response":"present","rt":"4596","correct":true,"confidence":5},{"trial_n":93,"span":8,"encoder":"80104098","distractor":"80100098","target":"present","response":"present","rt":"2997.2999999523","correct":true,"confidence":5},{"trial_n":94,"span":9,"encoder":"403904975","distractor":"403904965","target":"absent","response":"absent","rt":"3521.3999998569","correct":true,"confidence":4},{"trial_n":95,"span":9,"encoder":"763979445","distractor":"763979455","target":"present","response":"absent","rt":"2846.6999998093","correct":false,"confidence":2},{"trial_n":96,"span":8,"encoder":"35112656","distractor":"35112659","target":"absent","response":"absent","rt":"1922.5999999046","correct":true,"confidence":5},{"trial_n":97,"span":8,"encoder":"24381620","distractor":"24386620","target":"present","response":"present","rt":"2606.0999999046","correct":true,"confidence":5},{"trial_n":98,"span":9,"encoder":"437389162","distractor":"437389161","target":"absent","response":"absent","rt":"7565.5","correct":true,"confidence":2},{"trial_n":99,"span":9,"encoder":"392045851","distractor":"396045851","target":"present","response":"present","rt":"7212","correct":true,"confidence":3},{"trial_n":100,"span":10,"encoder":"0798151627","distractor":"0898151627","target":"present","response":"absent","rt":"2763.7999999523","correct":false,"confidence":1},{"trial_n":101,"span":9,"encoder":"836237803","distractor":"836037803","target":"present","response":"present","rt":"4949.3999998569","correct":true,"confidence":2},{"trial_n":102,"span":9,"encoder":"188205549","distractor":"188205249","target":"absent","response":"present","rt":"117860.70000005","correct":false,"confidence":3},{"trial_n":103,"span":8,"encoder":"74743527","distractor":"74753527","target":"present","response":"present","rt":"13757.599999905","correct":true,"confidence":5},{"trial_n":104,"span":8,"encoder":"07105758","distractor":"07175758","target":"present","response":"present","rt":"11926","correct":true,"confidence":3},{"trial_n":105,"span":9,"encoder":"564673142","distractor":"514673142","target":"present","response":"present","rt":"2854.7000000477","correct":true,"confidence":5},{"trial_n":106,"span":9,"encoder":"833049828","distractor":"833039828","target":"absent","response":"present","rt":"4641.5","correct":false,"confidence":3},{"trial_n":107,"span":8,"encoder":"18014346","distractor":"18014316","target":"present","response":"absent","rt":"4208.0999999046","correct":false,"confidence":2},{"trial_n":108,"span":7,"encoder":"8761292","distractor":"8761792","target":"present","response":"present","rt":"6318.5","correct":true,"confidence":3},{"trial_n":109,"span":7,"encoder":"6384670","distractor":"6384680","target":"absent","response":"present","rt":"5679.0999999046","correct":false,"confidence":5},{"trial_n":110,"span":6,"encoder":"118946","distractor":"168946","target":"absent","response":"present","rt":"2186.9000000954","correct":false,"confidence":5},{"trial_n":111,"span":5,"encoder":"88800","distractor":"88807","target":"present","response":"present","rt":"4114.5999999046","correct":true,"confidence":2},{"trial_n":112,"span":5,"encoder":"39128","distractor":"39118","target":"absent","response":"present","rt":"3719.3999998569","correct":false,"confidence":4},{"trial_n":113,"span":4,"encoder":"9395","distractor":"9325","target":"present","response":"present","rt":"4291.2000000477","correct":true,"confidence":2},{"trial_n":114,"span":4,"encoder":"1193","distractor":"1693","target":"absent","response":"absent","rt":"4000.8000001907","correct":true,"confidence":4},{"trial_n":115,"span":5,"encoder":"53548","distractor":"23548","target":"absent","response":"present","rt":"3001.7999999523","correct":false,"confidence":2},{"trial_n":116,"span":4,"encoder":"4510","distractor":"2510","target":"present","response":"present","rt":"2056.4000000954","correct":true,"confidence":5},{"trial_n":117,"span":4,"encoder":"7803","distractor":"7863","target":"present","response":"present","rt":"4841","correct":true,"confidence":5},{"trial_n":118,"span":5,"encoder":"23174","distractor":"63174","target":"present","response":"present","rt":"2596.5","correct":true,"confidence":4},{"trial_n":119,"span":5,"encoder":"96662","distractor":"86662","target":"absent","response":"absent","rt":"2586","correct":true,"confidence":4},{"trial_n":120,"span":6,"encoder":"550147","distractor":"551147","target":"present","response":"present","rt":"4581.9000000954","correct":true,"confidence":3},{"trial_n":121,"span":6,"encoder":"635720","distractor":"635620","target":"absent","response":"absent","rt":"2593.9000000954","correct":true,"confidence":2},{"trial_n":122,"span":7,"encoder":"0452179","distractor":"0452177","target":"present","response":"present","rt":"1918.8999998569","correct":true,"confidence":5},{"trial_n":123,"span":7,"encoder":"0221482","distractor":"8221482","target":"present","response":"present","rt":"3288.3000001907","correct":true,"confidence":5},{"trial_n":124,"span":8,"encoder":"45461940","distractor":"45461950","target":"present","response":"present","rt":"2111.1000001431","correct":true,"confidence":4},{"trial_n":125,"span":8,"encoder":"55408030","distractor":"55468030","target":"absent","response":"absent","rt":"2842.7999999523","correct":true,"confidence":5},{"trial_n":126,"span":9,"encoder":"105889117","distractor":"105869117","target":"absent","response":"present","rt":"5173.7999999523","correct":false,"confidence":4},{"trial_n":127,"span":8,"encoder":"12336506","distractor":"12336501","target":"absent","response":"absent","rt":"6463","correct":true,"confidence":5},{"trial_n":128,"span":8,"encoder":"17440921","distractor":"17240921","target":"absent","response":"absent","rt":"4228.7999999523","correct":true,"confidence":2},{"trial_n":129,"span":9,"encoder":"017415811","distractor":"017415801","target":"absent","response":"present","rt":"3459.2999999523","correct":false,"confidence":5},{"trial_n":130,"span":8,"encoder":"78941924","distractor":"78941929","target":"absent","response":"absent","rt":"3806.5","correct":true,"confidence":5},{"trial_n":131,"span":8,"encoder":"10818276","distractor":"10518276","target":"absent","response":"absent","rt":"4518.7999999523","correct":true,"confidence":4},{"trial_n":132,"span":9,"encoder":"276935527","distractor":"276935587","target":"present","response":"present","rt":"2913.2000000477","correct":true,"confidence":5},{"trial_n":133,"span":9,"encoder":"240844235","distractor":"240844245","target":"absent","response":"absent","rt":"4444.5","correct":true,"confidence":5},{"trial_n":134,"span":10,"encoder":"3883021876","distractor":"3883026876","target":"absent","response":"absent","rt":"5722.5999999046","correct":true,"confidence":5},{"trial_n":135,"span":10,"encoder":"3768349316","distractor":"3768343316","target":"present","response":"present","rt":"6153.3999998569","correct":true,"confidence":2},{"trial_n":136,"span":11,"encoder":"93604652120","distractor":"93604651120","target":"absent","response":"absent","rt":"4049.2000000477","correct":true,"confidence":3},{"trial_n":137,"span":11,"encoder":"16208664712","distractor":"16408664712","target":"present","response":"absent","rt":"5251.4000000954","correct":false,"confidence":4},{"trial_n":138,"span":10,"encoder":"4360024307","distractor":"4160024307","target":"present","response":"present","rt":"5841.9000000954","correct":true,"confidence":4},{"trial_n":139,"span":10,"encoder":"7399448949","distractor":"2399448949","target":"absent","response":"present","rt":"3826.2999999523","correct":false,"confidence":4},{"trial_n":140,"span":9,"encoder":"803953239","distractor":"803953289","target":"absent","response":"present","rt":"5599.5","correct":false,"confidence":5}]