[{"trial_n":1,"n_dots":4.25,"target":"left","response":"left","rt":3753.5,"correct":true,"confidence":-1},{"trial_n":2,"n_dots":4.25,"target":"left","response":"left","rt":620.80000001192,"correct":true,"confidence":-1},{"trial_n":3,"n_dots":3.85,"target":"left","response":"left","rt":1319.5,"correct":true,"confidence":-1},{"trial_n":4,"n_dots":3.85,"target":"right","response":"right","rt":358.09999999404,"correct":true,"confidence":-1},{"trial_n":5,"n_dots":3.45,"target":"left","response":"left","rt":475.40000000596,"correct":true,"confidence":-1},{"trial_n":6,"n_dots":3.45,"target":"right","response":"right","rt":744,"correct":true,"confidence":-1},{"trial_n":7,"n_dots":3.05,"target":"right","response":"right","rt":423.79999998212,"correct":true,"confidence":-1},{"trial_n":8,"n_dots":3.05,"target":"left","response":"left","rt":446.69999998808,"correct":true,"confidence":-1},{"trial_n":9,"n_dots":2.85,"target":"left","response":"left","rt":373.09999999404,"correct":true,"confidence":-1},{"trial_n":10,"n_dots":2.85,"target":"right","response":"right","rt":429.40000000596,"correct":true,"confidence":-1},{"trial_n":11,"n_dots":2.65,"target":"right","response":"left","rt":385.69999998808,"correct":false,"confidence":-1},{"trial_n":12,"n_dots":2.85,"target":"left","response":"left","rt":306.89999997616,"correct":true,"confidence":-1},{"trial_n":13,"n_dots":2.85,"target":"right","response":"left","rt":763.60000002384,"correct":false,"confidence":-1},{"trial_n":14,"n_dots":2.95,"target":"left","response":"left","rt":412.60000002384,"correct":true,"confidence":-1},{"trial_n":15,"n_dots":2.95,"target":"right","response":"left","rt":525,"correct":false,"confidence":-1},{"trial_n":16,"n_dots":3.05,"target":"right","response":"right","rt":325.19999998808,"correct":true,"confidence":-1},{"trial_n":17,"n_dots":3.05,"target":"right","response":"right","rt":361.59999999404,"correct":true,"confidence":-1},{"trial_n":18,"n_dots":2.95,"target":"right","response":"right","rt":332.09999999404,"correct":true,"confidence":-1},{"trial_n":19,"n_dots":2.95,"target":"left","response":"left","rt":589.20000001788,"correct":true,"confidence":-1},{"trial_n":20,"n_dots":2.85,"target":"left","response":"left","rt":1172.099999994,"correct":true,"confidence":-1},{"trial_n":21,"n_dots":2.85,"target":"right","response":"left","rt":378.39999997616,"correct":false,"confidence":3},{"trial_n":22,"n_dots":2.95,"target":"left","response":"left","rt":731.90000000596,"correct":true,"confidence":3},{"trial_n":23,"n_dots":2.95,"target":"right","response":"left","rt":2066.099999994,"correct":false,"confidence":2},{"trial_n":24,"n_dots":3.05,"target":"left","response":"right","rt":2230.1999999881,"correct":false,"confidence":2},{"trial_n":25,"n_dots":3.15,"target":"right","response":"left","rt":1646,"correct":false,"confidence":2},{"trial_n":26,"n_dots":3.25,"target":"right","response":"right","rt":922.69999998808,"correct":true,"confidence":3},{"trial_n":27,"n_dots":3.25,"target":"right","response":"right","rt":2102.900000006,"correct":true,"confidence":2},{"trial_n":28,"n_dots":3.15,"target":"right","response":"right","rt":1178.6999999881,"correct":true,"confidence":2},{"trial_n":29,"n_dots":3.15,"target":"left","response":"left","rt":848.69999998808,"correct":true,"confidence":3},{"trial_n":30,"n_dots":3.05,"target":"right","response":"right","rt":1083.7000000179,"correct":true,"confidence":3},{"trial_n":31,"n_dots":3.05,"target":"left","response":"left","rt":691.90000000596,"correct":true,"confidence":3},{"trial_n":32,"n_dots":2.95,"target":"right","response":"right","rt":991.39999997616,"correct":true,"confidence":3},{"trial_n":33,"n_dots":2.95,"target":"left","response":"left","rt":860.09999999404,"correct":true,"confidence":3},{"trial_n":34,"n_dots":2.85,"target":"left","response":"left","rt":897,"correct":true,"confidence":2},{"trial_n":35,"n_dots":2.85,"target":"right","response":"right","rt":727.80000001192,"correct":true,"confidence":3},{"trial_n":36,"n_dots":2.75,"target":"right","response":"left","rt":1207.6999999881,"correct":false,"confidence":2},{"trial_n":37,"n_dots":2.85,"target":"left","response":"left","rt":891.5,"correct":true,"confidence":3},{"trial_n":38,"n_dots":2.85,"target":"right","response":"right","rt":824.90000000596,"correct":true,"confidence":2},{"trial_n":39,"n_dots":2.75,"target":"left","response":"left","rt":770.09999999404,"correct":true,"confidence":2},{"trial_n":40,"n_dots":2.75,"target":"left","response":"left","rt":1651.3000000119,"correct":true,"confidence":2},{"trial_n":41,"n_dots":2.65,"target":"left","response":"left","rt":790.80000001192,"correct":true,"confidence":3},{"trial_n":42,"n_dots":2.65,"target":"left","response":"left","rt":691.30000001192,"correct":true,"confidence":3},{"trial_n":43,"n_dots":2.55,"target":"left","response":"left","rt":841.40000000596,"correct":true,"confidence":3},{"trial_n":44,"n_dots":2.55,"target":"right","response":"right","rt":585.19999998808,"correct":true,"confidence":3},{"trial_n":45,"n_dots":2.45,"target":"right","response":"left","rt":1028.2000000179,"correct":false,"confidence":2},{"trial_n":46,"n_dots":2.55,"target":"right","response":"left","rt":1214.099999994,"correct":false,"confidence":2},{"trial_n":47,"n_dots":2.65,"target":"left","response":"right","rt":701.20000001788,"correct":false,"confidence":2},{"trial_n":48,"n_dots":2.75,"target":"right","response":"right","rt":786.89999997616,"correct":true,"confidence":2},{"trial_n":49,"n_dots":2.75,"target":"right","response":"right","rt":966.5,"correct":true,"confidence":2},{"trial_n":50,"n_dots":2.65,"target":"left","response":"left","rt":915.09999999404,"correct":true,"confidence":2},{"trial_n":51,"n_dots":2.65,"target":"left","response":"left","rt":736.5,"correct":true,"confidence":2},{"trial_n":52,"n_dots":2.55,"target":"left","response":"left","rt":900,"correct":true,"confidence":2},{"trial_n":53,"n_dots":2.55,"target":"right","response":"left","rt":924,"correct":false,"confidence":2},{"trial_n":54,"n_dots":2.65,"target":"right","response":"right","rt":563.69999998808,"correct":true,"confidence":2},{"trial_n":55,"n_dots":2.65,"target":"left","response":"left","rt":755.30000001192,"correct":true,"confidence":2},{"trial_n":56,"n_dots":2.55,"target":"left","response":"left","rt":750.29999998212,"correct":true,"confidence":3},{"trial_n":57,"n_dots":2.55,"target":"right","response":"right","rt":515.5,"correct":true,"confidence":2},{"trial_n":58,"n_dots":2.45,"target":"right","response":"right","rt":535.90000000596,"correct":true,"confidence":2},{"trial_n":59,"n_dots":2.45,"target":"right","response":"left","rt":750.30000001192,"correct":false,"confidence":2},{"trial_n":60,"n_dots":2.55,"target":"left","response":"right","rt":435,"correct":false,"confidence":2},{"trial_n":61,"n_dots":2.65,"target":"left","response":"left","rt":593.29999998212,"correct":true,"confidence":3},{"trial_n":62,"n_dots":2.65,"target":"left","response":"left","rt":618.19999998808,"correct":true,"confidence":2},{"trial_n":63,"n_dots":2.55,"target":"left","response":"left","rt":776.29999998212,"correct":true,"confidence":2},{"trial_n":64,"n_dots":2.55,"target":"right","response":"left","rt":1095.6999999881,"correct":false,"confidence":2},{"trial_n":65,"n_dots":2.65,"target":"right","response":"right","rt":548.59999999404,"correct":true,"confidence":2},{"trial_n":66,"n_dots":2.65,"target":"right","response":"right","rt":883.40000000596,"correct":true,"confidence":2},{"trial_n":67,"n_dots":2.55,"target":"left","response":"left","rt":689.70000001788,"correct":true,"confidence":2},{"trial_n":68,"n_dots":2.55,"target":"left","response":"right","rt":886.39999997616,"correct":false,"confidence":2},{"trial_n":69,"n_dots":2.65,"target":"left","response":"left","rt":550,"correct":true,"confidence":2},{"trial_n":70,"n_dots":2.65,"target":"left","response":"left","rt":725.59999999404,"correct":true,"confidence":2},{"trial_n":71,"n_dots":2.55,"target":"right","response":"left","rt":675.69999998808,"correct":false,"confidence":2},{"trial_n":72,"n_dots":2.65,"target":"right","response":"left","rt":927.59999999404,"correct":false,"confidence":2},{"trial_n":73,"n_dots":2.75,"target":"right","response":"left","rt":873.69999998808,"correct":false,"confidence":2},{"trial_n":74,"n_dots":2.85,"target":"right","response":"left","rt":836.19999998808,"correct":false,"confidence":2},{"trial_n":75,"n_dots":2.95,"target":"left","response":"left","rt":796.10000002384,"correct":true,"confidence":1},{"trial_n":76,"n_dots":2.95,"target":"left","response":"left","rt":1095.3000000119,"correct":true,"confidence":1},{"trial_n":77,"n_dots":2.85,"target":"left","response":"left","rt":797.59999999404,"correct":true,"confidence":2},{"trial_n":78,"n_dots":2.85,"target":"left","response":"left","rt":786.80000001192,"correct":true,"confidence":1},{"trial_n":79,"n_dots":2.75,"target":"right","response":"right","rt":1273.5,"correct":true,"confidence":2},{"trial_n":80,"n_dots":2.75,"target":"left","response":"left","rt":1825.900000006,"correct":true,"confidence":1},{"trial_n":81,"n_dots":2.65,"target":"left","response":"left","rt":977.40000000596,"correct":true,"confidence":1},{"trial_n":82,"n_dots":2.65,"target":"left","response":"left","rt":762.5,"correct":true,"confidence":1},{"trial_n":83,"n_dots":2.55,"target":"right","response":"left","rt":751.70000001788,"correct":false,"confidence":1},{"trial_n":84,"n_dots":2.65,"target":"left","response":"left","rt":717.5,"correct":true,"confidence":1},{"trial_n":85,"n_dots":2.65,"target":"right","response":"right","rt":868.5,"correct":true,"confidence":1},{"trial_n":86,"n_dots":2.55,"target":"left","response":"left","rt":583,"correct":true,"confidence":2},{"trial_n":87,"n_dots":2.55,"target":"right","response":"left","rt":693.59999999404,"correct":false,"confidence":2},{"trial_n":88,"n_dots":2.65,"target":"right","response":"left","rt":1027.7999999821,"correct":false,"confidence":1},{"trial_n":89,"n_dots":2.75,"target":"right","response":"left","rt":1573.7000000179,"correct":false,"confidence":1},{"trial_n":90,"n_dots":2.85,"target":"left","response":"left","rt":1187.8999999762,"correct":true,"confidence":1},{"trial_n":91,"n_dots":2.85,"target":"right","response":"right","rt":550.29999998212,"correct":true,"confidence":1},{"trial_n":92,"n_dots":2.75,"target":"left","response":"left","rt":714.30000001192,"correct":true,"confidence":2},{"trial_n":93,"n_dots":2.75,"target":"left","response":"left","rt":700.69999998808,"correct":true,"confidence":2},{"trial_n":94,"n_dots":2.65,"target":"right","response":"left","rt":642.09999999404,"correct":false,"confidence":2},{"trial_n":95,"n_dots":2.75,"target":"right","response":"right","rt":971.30000001192,"correct":true,"confidence":1},{"trial_n":96,"n_dots":2.75,"target":"left","response":"left","rt":648.69999998808,"correct":true,"confidence":1},{"trial_n":97,"n_dots":2.65,"target":"left","response":"left","rt":852.40000000596,"correct":true,"confidence":1},{"trial_n":98,"n_dots":2.65,"target":"left","response":"left","rt":651.19999998808,"correct":true,"confidence":2},{"trial_n":99,"n_dots":2.55,"target":"left","response":"left","rt":608.20000001788,"correct":true,"confidence":2},{"trial_n":100,"n_dots":2.55,"target":"right","response":"left","rt":1994.5,"correct":false,"confidence":1},{"trial_n":101,"n_dots":2.65,"target":"right","response":"left","rt":635.19999998808,"correct":false,"confidence":1},{"trial_n":102,"n_dots":2.75,"target":"left","response":"left","rt":631.79999998212,"correct":true,"confidence":2},{"trial_n":103,"n_dots":2.75,"target":"right","response":"left","rt":887,"correct":false,"confidence":2},{"trial_n":104,"n_dots":2.85,"target":"right","response":"right","rt":813.60000002384,"correct":true,"confidence":1},{"trial_n":105,"n_dots":2.85,"target":"left","response":"left","rt":714.59999999404,"correct":true,"confidence":2},{"trial_n":106,"n_dots":2.75,"target":"right","response":"left","rt":615.10000002384,"correct":false,"confidence":2},{"trial_n":107,"n_dots":2.85,"target":"right","response":"right","rt":1000.7999999821,"correct":true,"confidence":1},{"trial_n":108,"n_dots":2.85,"target":"left","response":"left","rt":494.30000001192,"correct":true,"confidence":2},{"trial_n":109,"n_dots":2.75,"target":"right","response":"left","rt":749.40000000596,"correct":false,"confidence":2},{"trial_n":110,"n_dots":2.85,"target":"left","response":"left","rt":766,"correct":true,"confidence":1},{"trial_n":111,"n_dots":2.85,"target":"right","response":"right","rt":975.20000001788,"correct":true,"confidence":2},{"trial_n":112,"n_dots":2.75,"target":"left","response":"right","rt":749.90000000596,"correct":false,"confidence":1},{"trial_n":113,"n_dots":2.85,"target":"left","response":"left","rt":646.90000000596,"correct":true,"confidence":2},{"trial_n":114,"n_dots":2.85,"target":"right","response":"left","rt":2219.400000006,"correct":false,"confidence":1},{"trial_n":115,"n_dots":2.95,"target":"right","response":"right","rt":696.29999998212,"correct":true,"confidence":1},{"trial_n":116,"n_dots":2.95,"target":"left","response":"left","rt":601.80000001192,"correct":true,"confidence":2},{"trial_n":117,"n_dots":2.85,"target":"right","response":"right","rt":456.5,"correct":true,"confidence":3},{"trial_n":118,"n_dots":2.85,"target":"right","response":"right","rt":600,"correct":true,"confidence":2},{"trial_n":119,"n_dots":2.75,"target":"right","response":"right","rt":533.29999998212,"correct":true,"confidence":2},{"trial_n":120,"n_dots":2.75,"target":"left","response":"left","rt":1531.8000000119,"correct":true,"confidence":1}]