[{"trial_n":1,"n_dots":4.25,"target":"left","response":"left","rt":3694,"correct":true,"confidence":-1},{"trial_n":2,"n_dots":4.25,"target":"left","response":"left","rt":763,"correct":true,"confidence":-1},{"trial_n":3,"n_dots":3.85,"target":"right","response":"left","rt":722,"correct":false,"confidence":-1},{"trial_n":4,"n_dots":4.25,"target":"right","response":"right","rt":1025,"correct":true,"confidence":-1},{"trial_n":5,"n_dots":4.25,"target":"left","response":"left","rt":735,"correct":true,"confidence":-1},{"trial_n":6,"n_dots":3.85,"target":"right","response":"right","rt":1121,"correct":true,"confidence":-1},{"trial_n":7,"n_dots":3.85,"target":"left","response":"left","rt":945,"correct":true,"confidence":-1},{"trial_n":8,"n_dots":3.65,"target":"left","response":"left","rt":1347,"correct":true,"confidence":-1},{"trial_n":9,"n_dots":3.65,"target":"left","response":"left","rt":789,"correct":true,"confidence":-1},{"trial_n":10,"n_dots":3.45,"target":"left","response":"left","rt":910,"correct":true,"confidence":-1},{"trial_n":11,"n_dots":3.45,"target":"left","response":"left","rt":1014,"correct":true,"confidence":-1},{"trial_n":12,"n_dots":3.25,"target":"left","response":"left","rt":921,"correct":true,"confidence":-1},{"trial_n":13,"n_dots":3.25,"target":"left","response":"left","rt":834,"correct":true,"confidence":-1},{"trial_n":14,"n_dots":3.15,"target":"right","response":"right","rt":832,"correct":true,"confidence":-1},{"trial_n":15,"n_dots":3.15,"target":"left","response":"left","rt":667,"correct":true,"confidence":-1},{"trial_n":16,"n_dots":3.05,"target":"left","response":"left","rt":866,"correct":true,"confidence":-1},{"trial_n":17,"n_dots":3.05,"target":"left","response":"left","rt":939,"correct":true,"confidence":-1},{"trial_n":18,"n_dots":2.95,"target":"left","response":"left","rt":854,"correct":true,"confidence":-1},{"trial_n":19,"n_dots":2.95,"target":"left","response":"left","rt":2991,"correct":true,"confidence":-1},{"trial_n":20,"n_dots":2.85,"target":"left","response":"left","rt":2560,"correct":true,"confidence":-1},{"trial_n":21,"n_dots":2.85,"target":"left","response":"left","rt":2426,"correct":true,"confidence":1},{"trial_n":22,"n_dots":2.75,"target":"left","response":"right","rt":1079,"correct":false,"confidence":1},{"trial_n":23,"n_dots":2.85,"target":"left","response":"left","rt":1089,"correct":true,"confidence":1},{"trial_n":24,"n_dots":2.85,"target":"right","response":"right","rt":766,"correct":true,"confidence":1},{"trial_n":25,"n_dots":2.75,"target":"right","response":"right","rt":822,"correct":true,"confidence":1},{"trial_n":26,"n_dots":2.75,"target":"left","response":"right","rt":891,"correct":false,"confidence":1},{"trial_n":27,"n_dots":2.85,"target":"left","response":"left","rt":999,"correct":true,"confidence":1},{"trial_n":28,"n_dots":2.85,"target":"right","response":"right","rt":735,"correct":true,"confidence":1},{"trial_n":29,"n_dots":2.75,"target":"left","response":"left","rt":1079,"correct":true,"confidence":1},{"trial_n":30,"n_dots":2.75,"target":"left","response":"right","rt":597,"correct":false,"confidence":1},{"trial_n":31,"n_dots":2.85,"target":"right","response":"right","rt":621,"correct":true,"confidence":1},{"trial_n":32,"n_dots":2.85,"target":"left","response":"right","rt":524,"correct":false,"confidence":1},{"trial_n":33,"n_dots":2.95,"target":"right","response":"right","rt":489,"correct":true,"confidence":1},{"trial_n":34,"n_dots":2.95,"target":"right","response":"right","rt":379,"correct":true,"confidence":1},{"trial_n":35,"n_dots":2.85,"target":"right","response":"left","rt":768,"correct":false,"confidence":1},{"trial_n":36,"n_dots":2.95,"target":"right","response":"right","rt":789,"correct":true,"confidence":1},{"trial_n":37,"n_dots":2.95,"target":"right","response":"right","rt":810,"correct":true,"confidence":1},{"trial_n":38,"n_dots":2.85,"target":"right","response":"right","rt":884,"correct":true,"confidence":1},{"trial_n":39,"n_dots":2.85,"target":"left","response":"left","rt":1078,"correct":true,"confidence":1},{"trial_n":40,"n_dots":2.75,"target":"right","response":"left","rt":769,"correct":false,"confidence":1},{"trial_n":41,"n_dots":2.85,"target":"right","response":"right","rt":716,"correct":true,"confidence":1},{"trial_n":42,"n_dots":2.85,"target":"right","response":"right","rt":786,"correct":true,"confidence":1},{"trial_n":43,"n_dots":2.75,"target":"right","response":"right","rt":649,"correct":true,"confidence":1},{"trial_n":44,"n_dots":2.75,"target":"left","response":"left","rt":908,"correct":true,"confidence":1},{"trial_n":45,"n_dots":2.65,"target":"left","response":"right","rt":682,"correct":false,"confidence":1},{"trial_n":46,"n_dots":2.75,"target":"right","response":"left","rt":840,"correct":false,"confidence":1},{"trial_n":47,"n_dots":2.85,"target":"left","response":"right","rt":877,"correct":false,"confidence":1},{"trial_n":48,"n_dots":2.95,"target":"left","response":"left","rt":1193,"correct":true,"confidence":1},{"trial_n":49,"n_dots":2.95,"target":"right","response":"right","rt":1032,"correct":true,"confidence":1},{"trial_n":50,"n_dots":2.85,"target":"right","response":"right","rt":1720,"correct":true,"confidence":1},{"trial_n":51,"n_dots":2.85,"target":"left","response":"left","rt":1941,"correct":true,"confidence":1},{"trial_n":52,"n_dots":2.75,"target":"right","response":"right","rt":1075,"correct":true,"confidence":1},{"trial_n":53,"n_dots":2.75,"target":"left","response":"left","rt":1374,"correct":true,"confidence":1},{"trial_n":54,"n_dots":2.65,"target":"left","response":"left","rt":1194,"correct":true,"confidence":1},{"trial_n":55,"n_dots":2.65,"target":"right","response":"right","rt":1439,"correct":true,"confidence":1},{"trial_n":56,"n_dots":2.55,"target":"left","response":"left","rt":1015,"correct":true,"confidence":1},{"trial_n":57,"n_dots":2.55,"target":"right","response":"right","rt":999,"correct":true,"confidence":1},{"trial_n":58,"n_dots":2.45,"target":"left","response":"left","rt":788,"correct":true,"confidence":1},{"trial_n":59,"n_dots":2.45,"target":"left","response":"right","rt":580,"correct":false,"confidence":1},{"trial_n":60,"n_dots":2.55,"target":"right","response":"right","rt":907,"correct":true,"confidence":1},{"trial_n":61,"n_dots":2.55,"target":"right","response":"left","rt":729,"correct":false,"confidence":1},{"trial_n":62,"n_dots":2.65,"target":"right","response":"right","rt":701,"correct":true,"confidence":1},{"trial_n":63,"n_dots":2.65,"target":"right","response":"left","rt":1223,"correct":false,"confidence":1},{"trial_n":64,"n_dots":2.75,"target":"left","response":"left","rt":781,"correct":true,"confidence":1},{"trial_n":65,"n_dots":2.75,"target":"right","response":"right","rt":822,"correct":true,"confidence":1},{"trial_n":66,"n_dots":2.65,"target":"right","response":"right","rt":867,"correct":true,"confidence":1},{"trial_n":67,"n_dots":2.65,"target":"right","response":"left","rt":744,"correct":false,"confidence":1},{"trial_n":68,"n_dots":2.75,"target":"right","response":"right","rt":1157,"correct":true,"confidence":1},{"trial_n":69,"n_dots":2.75,"target":"right","response":"right","rt":1058,"correct":true,"confidence":1},{"trial_n":70,"n_dots":2.65,"target":"left","response":"right","rt":1161,"correct":false,"confidence":1},{"trial_n":71,"n_dots":2.75,"target":"left","response":"right","rt":965,"correct":false,"confidence":1},{"trial_n":72,"n_dots":2.85,"target":"left","response":"left","rt":792,"correct":true,"confidence":1},{"trial_n":73,"n_dots":2.85,"target":"right","response":"right","rt":828,"correct":true,"confidence":1},{"trial_n":74,"n_dots":2.75,"target":"right","response":"right","rt":1032,"correct":true,"confidence":1},{"trial_n":75,"n_dots":2.75,"target":"right","response":"right","rt":1576,"correct":true,"confidence":1},{"trial_n":76,"n_dots":2.65,"target":"right","response":"right","rt":946,"correct":true,"confidence":1},{"trial_n":77,"n_dots":2.65,"target":"left","response":"left","rt":2331,"correct":true,"confidence":1},{"trial_n":78,"n_dots":2.55,"target":"right","response":"right","rt":852,"correct":true,"confidence":1},{"trial_n":79,"n_dots":2.55,"target":"right","response":"right","rt":827,"correct":true,"confidence":1},{"trial_n":80,"n_dots":2.45,"target":"left","response":"left","rt":851,"correct":true,"confidence":1},{"trial_n":81,"n_dots":2.45,"target":"left","response":"left","rt":1889,"correct":true,"confidence":1},{"trial_n":82,"n_dots":2.35,"target":"right","response":"right","rt":619,"correct":true,"confidence":1},{"trial_n":83,"n_dots":2.35,"target":"right","response":"left","rt":686,"correct":false,"confidence":1},{"trial_n":84,"n_dots":2.45,"target":"right","response":"right","rt":1107,"correct":true,"confidence":1},{"trial_n":85,"n_dots":2.45,"target":"right","response":"right","rt":1272,"correct":true,"confidence":1},{"trial_n":86,"n_dots":2.35,"target":"left","response":"left","rt":1008,"correct":true,"confidence":1},{"trial_n":87,"n_dots":2.35,"target":"left","response":"left","rt":766,"correct":true,"confidence":1},{"trial_n":88,"n_dots":2.25,"target":"right","response":"left","rt":976,"correct":false,"confidence":1},{"trial_n":89,"n_dots":2.35,"target":"left","response":"right","rt":1090,"correct":false,"confidence":1},{"trial_n":90,"n_dots":2.45,"target":"left","response":"right","rt":1326,"correct":false,"confidence":1},{"trial_n":91,"n_dots":2.55,"target":"left","response":"right","rt":2123,"correct":false,"confidence":1},{"trial_n":92,"n_dots":2.65,"target":"right","response":"left","rt":1671,"correct":false,"confidence":1},{"trial_n":93,"n_dots":2.75,"target":"right","response":"right","rt":1661,"correct":true,"confidence":1},{"trial_n":94,"n_dots":2.75,"target":"right","response":"right","rt":1104,"correct":true,"confidence":1},{"trial_n":95,"n_dots":2.65,"target":"left","response":"right","rt":1104,"correct":false,"confidence":1},{"trial_n":96,"n_dots":2.75,"target":"left","response":"left","rt":1170,"correct":true,"confidence":1},{"trial_n":97,"n_dots":2.75,"target":"left","response":"right","rt":1199,"correct":false,"confidence":1},{"trial_n":98,"n_dots":2.85,"target":"left","response":"right","rt":1463,"correct":false,"confidence":1},{"trial_n":99,"n_dots":2.95,"target":"right","response":"right","rt":1053,"correct":true,"confidence":1},{"trial_n":100,"n_dots":2.95,"target":"left","response":"left","rt":1480,"correct":true,"confidence":1},{"trial_n":101,"n_dots":2.85,"target":"right","response":"right","rt":877,"correct":true,"confidence":1},{"trial_n":102,"n_dots":2.85,"target":"right","response":"right","rt":446,"correct":true,"confidence":1},{"trial_n":103,"n_dots":2.75,"target":"right","response":"right","rt":821,"correct":true,"confidence":1},{"trial_n":104,"n_dots":2.75,"target":"right","response":"right","rt":988,"correct":true,"confidence":1},{"trial_n":105,"n_dots":2.65,"target":"right","response":"right","rt":953,"correct":true,"confidence":1},{"trial_n":106,"n_dots":2.65,"target":"left","response":"right","rt":974,"correct":false,"confidence":1},{"trial_n":107,"n_dots":2.75,"target":"left","response":"right","rt":1703,"correct":false,"confidence":1},{"trial_n":108,"n_dots":2.85,"target":"left","response":"left","rt":1454,"correct":true,"confidence":1},{"trial_n":109,"n_dots":2.85,"target":"left","response":"right","rt":1283,"correct":false,"confidence":1},{"trial_n":110,"n_dots":2.95,"target":"left","response":"right","rt":2087,"correct":false,"confidence":1},{"trial_n":111,"n_dots":3.05,"target":"right","response":"right","rt":1078,"correct":true,"confidence":1},{"trial_n":112,"n_dots":3.05,"target":"right","response":"left","rt":973,"correct":false,"confidence":1},{"trial_n":113,"n_dots":3.15,"target":"right","response":"right","rt":826,"correct":true,"confidence":1},{"trial_n":114,"n_dots":3.15,"target":"left","response":"right","rt":795,"correct":false,"confidence":1},{"trial_n":115,"n_dots":3.25,"target":"left","response":"right","rt":1029,"correct":false,"confidence":1},{"trial_n":116,"n_dots":3.35,"target":"right","response":"left","rt":832,"correct":false,"confidence":1},{"trial_n":117,"n_dots":3.45,"target":"right","response":"left","rt":783,"correct":false,"confidence":1},{"trial_n":118,"n_dots":3.55,"target":"right","response":"right","rt":654,"correct":true,"confidence":1},{"trial_n":119,"n_dots":3.55,"target":"left","response":"left","rt":833,"correct":true,"confidence":1},{"trial_n":120,"n_dots":3.45,"target":"right","response":"right","rt":762,"correct":true,"confidence":1}]