[{"trial_n":1,"n_dots":4.25,"target":"left","response":"right","rt":8056.7999999523,"correct":false,"confidence":-1},{"trial_n":2,"n_dots":4.25,"target":"left","response":"left","rt":984,"correct":true,"confidence":-1},{"trial_n":3,"n_dots":4.25,"target":"left","response":"left","rt":652.79999995232,"correct":true,"confidence":-1},{"trial_n":4,"n_dots":3.85,"target":"left","response":"left","rt":1330.7999999523,"correct":true,"confidence":-1},{"trial_n":5,"n_dots":3.85,"target":"right","response":"right","rt":397.79999995232,"correct":true,"confidence":-1},{"trial_n":6,"n_dots":3.45,"target":"left","response":"left","rt":382.89999985695,"correct":true,"confidence":-1},{"trial_n":7,"n_dots":3.45,"target":"left","response":"left","rt":207.29999995232,"correct":true,"confidence":-1},{"trial_n":8,"n_dots":3.25,"target":"right","response":"left","rt":2734.5999999046,"correct":false,"confidence":-1},{"trial_n":9,"n_dots":3.45,"target":"right","response":"right","rt":618,"correct":true,"confidence":-1},{"trial_n":10,"n_dots":3.45,"target":"left","response":"left","rt":572,"correct":true,"confidence":-1},{"trial_n":11,"n_dots":3.25,"target":"left","response":"left","rt":653.30000019073,"correct":true,"confidence":-1},{"trial_n":12,"n_dots":3.25,"target":"right","response":"right","rt":982.79999995232,"correct":true,"confidence":-1},{"trial_n":13,"n_dots":3.15,"target":"right","response":"right","rt":582.60000014305,"correct":true,"confidence":-1},{"trial_n":14,"n_dots":3.15,"target":"right","response":"left","rt":590.5,"correct":false,"confidence":-1},{"trial_n":15,"n_dots":3.25,"target":"left","response":"left","rt":448,"correct":true,"confidence":-1},{"trial_n":16,"n_dots":3.25,"target":"left","response":"left","rt":479.40000009537,"correct":true,"confidence":-1},{"trial_n":17,"n_dots":3.15,"target":"left","response":"left","rt":651,"correct":true,"confidence":-1},{"trial_n":18,"n_dots":3.15,"target":"right","response":"left","rt":451,"correct":false,"confidence":-1},{"trial_n":19,"n_dots":3.25,"target":"right","response":"right","rt":993.59999990463,"correct":true,"confidence":-1},{"trial_n":20,"n_dots":3.25,"target":"left","response":"left","rt":402.70000004768,"correct":true,"confidence":-1},{"trial_n":21,"n_dots":3.15,"target":"right","response":"left","rt":453.10000014305,"correct":false,"confidence":5},{"trial_n":22,"n_dots":3.25,"target":"left","response":"left","rt":653.70000004768,"correct":true,"confidence":5},{"trial_n":23,"n_dots":3.25,"target":"left","response":"left","rt":808.60000014305,"correct":true,"confidence":5},{"trial_n":24,"n_dots":3.15,"target":"right","response":"right","rt":684.40000009537,"correct":true,"confidence":3},{"trial_n":25,"n_dots":3.15,"target":"right","response":"left","rt":504.60000014305,"correct":false,"confidence":5},{"trial_n":26,"n_dots":3.25,"target":"left","response":"left","rt":574.80000019073,"correct":true,"confidence":5},{"trial_n":27,"n_dots":3.25,"target":"right","response":"right","rt":4460.6000001431,"correct":true,"confidence":3},{"trial_n":28,"n_dots":3.15,"target":"left","response":"left","rt":468.40000009537,"correct":true,"confidence":5},{"trial_n":29,"n_dots":3.15,"target":"right","response":"left","rt":569,"correct":false,"confidence":3},{"trial_n":30,"n_dots":3.25,"target":"left","response":"left","rt":568.70000004768,"correct":true,"confidence":5},{"trial_n":31,"n_dots":3.25,"target":"right","response":"right","rt":4660.0999999046,"correct":true,"confidence":2},{"trial_n":32,"n_dots":3.15,"target":"right","response":"right","rt":3543,"correct":true,"confidence":2},{"trial_n":33,"n_dots":3.15,"target":"right","response":"right","rt":4953.7000000477,"correct":true,"confidence":1},{"trial_n":34,"n_dots":3.05,"target":"left","response":"left","rt":356.5,"correct":true,"confidence":5},{"trial_n":35,"n_dots":3.05,"target":"left","response":"left","rt":317.70000004768,"correct":true,"confidence":5},{"trial_n":36,"n_dots":2.95,"target":"right","response":"right","rt":845.59999990463,"correct":true,"confidence":4},{"trial_n":37,"n_dots":2.95,"target":"left","response":"left","rt":508.39999985695,"correct":true,"confidence":3},{"trial_n":38,"n_dots":2.85,"target":"right","response":"right","rt":1415.5,"correct":true,"confidence":3},{"trial_n":39,"n_dots":2.85,"target":"left","response":"left","rt":335,"correct":true,"confidence":4},{"trial_n":40,"n_dots":2.75,"target":"right","response":"left","rt":252,"correct":false,"confidence":4},{"trial_n":41,"n_dots":2.85,"target":"left","response":"left","rt":1249.2000000477,"correct":true,"confidence":1},{"trial_n":42,"n_dots":2.85,"target":"right","response":"left","rt":432.09999990463,"correct":false,"confidence":4},{"trial_n":43,"n_dots":2.95,"target":"left","response":"left","rt":1527.6999998093,"correct":true,"confidence":3},{"trial_n":44,"n_dots":2.95,"target":"left","response":"left","rt":2664.2000000477,"correct":true,"confidence":2},{"trial_n":45,"n_dots":2.85,"target":"right","response":"right","rt":3496.7999999523,"correct":true,"confidence":1},{"trial_n":46,"n_dots":2.85,"target":"left","response":"left","rt":1247.5,"correct":true,"confidence":4},{"trial_n":47,"n_dots":2.75,"target":"left","response":"left","rt":1351.7000000477,"correct":true,"confidence":3},{"trial_n":48,"n_dots":2.75,"target":"left","response":"left","rt":350.5,"correct":true,"confidence":5},{"trial_n":49,"n_dots":2.65,"target":"left","response":"left","rt":1013.3999998569,"correct":true,"confidence":5},{"trial_n":50,"n_dots":2.65,"target":"left","response":"left","rt":1263,"correct":true,"confidence":2},{"trial_n":51,"n_dots":2.55,"target":"right","response":"right","rt":2720.2999999523,"correct":true,"confidence":3},{"trial_n":52,"n_dots":2.55,"target":"left","response":"right","rt":1919.5999999046,"correct":false,"confidence":2},{"trial_n":53,"n_dots":2.65,"target":"left","response":"left","rt":1150.1999998093,"correct":true,"confidence":3},{"trial_n":54,"n_dots":2.65,"target":"right","response":"right","rt":2902.7999999523,"correct":true,"confidence":2},{"trial_n":55,"n_dots":2.55,"target":"right","response":"right","rt":2227.7000000477,"correct":true,"confidence":2},{"trial_n":56,"n_dots":2.55,"target":"right","response":"left","rt":878,"correct":false,"confidence":4},{"trial_n":57,"n_dots":2.65,"target":"right","response":"left","rt":1360.7999999523,"correct":false,"confidence":1},{"trial_n":58,"n_dots":2.75,"target":"right","response":"left","rt":1141.6000001431,"correct":false,"confidence":2},{"trial_n":59,"n_dots":2.85,"target":"right","response":"left","rt":976.70000004768,"correct":false,"confidence":4},{"trial_n":60,"n_dots":2.95,"target":"left","response":"left","rt":854.89999985695,"correct":true,"confidence":5},{"trial_n":61,"n_dots":2.95,"target":"left","response":"left","rt":782.19999980927,"correct":true,"confidence":4},{"trial_n":62,"n_dots":2.85,"target":"right","response":"left","rt":3063,"correct":false,"confidence":1},{"trial_n":63,"n_dots":2.95,"target":"right","response":"left","rt":1820.1999998093,"correct":false,"confidence":1},{"trial_n":64,"n_dots":3.05,"target":"right","response":"right","rt":2089.8999998569,"correct":true,"confidence":1},{"trial_n":65,"n_dots":3.05,"target":"left","response":"left","rt":812.29999995232,"correct":true,"confidence":4},{"trial_n":66,"n_dots":2.95,"target":"left","response":"left","rt":141.5,"correct":true,"confidence":5},{"trial_n":67,"n_dots":2.95,"target":"right","response":"right","rt":1185.5,"correct":true,"confidence":4},{"trial_n":68,"n_dots":2.85,"target":"left","response":"left","rt":820.29999995232,"correct":true,"confidence":4},{"trial_n":69,"n_dots":2.85,"target":"left","response":"left","rt":703.29999995232,"correct":true,"confidence":1},{"trial_n":70,"n_dots":2.75,"target":"left","response":"left","rt":983.29999995232,"correct":true,"confidence":5},{"trial_n":71,"n_dots":2.75,"target":"left","response":"left","rt":914.20000004768,"correct":true,"confidence":5},{"trial_n":72,"n_dots":2.65,"target":"right","response":"left","rt":520.40000009537,"correct":false,"confidence":5},{"trial_n":73,"n_dots":2.75,"target":"left","response":"right","rt":1888.5,"correct":false,"confidence":2},{"trial_n":74,"n_dots":2.85,"target":"right","response":"right","rt":1739.7999999523,"correct":true,"confidence":3},{"trial_n":75,"n_dots":2.85,"target":"right","response":"right","rt":1106.5,"correct":true,"confidence":2},{"trial_n":76,"n_dots":2.75,"target":"left","response":"left","rt":207.59999990463,"correct":true,"confidence":5},{"trial_n":77,"n_dots":2.75,"target":"right","response":"right","rt":3699.9000000954,"correct":true,"confidence":1},{"trial_n":78,"n_dots":2.65,"target":"left","response":"left","rt":362.29999995232,"correct":true,"confidence":3},{"trial_n":79,"n_dots":2.65,"target":"right","response":"left","rt":1116.5999999046,"correct":false,"confidence":2},{"trial_n":80,"n_dots":2.75,"target":"left","response":"left","rt":920.40000009537,"correct":true,"confidence":2},{"trial_n":81,"n_dots":2.75,"target":"right","response":"right","rt":663,"correct":true,"confidence":4},{"trial_n":82,"n_dots":2.65,"target":"right","response":"right","rt":1075.5,"correct":true,"confidence":2},{"trial_n":83,"n_dots":2.65,"target":"right","response":"left","rt":1122.5999999046,"correct":false,"confidence":2},{"trial_n":84,"n_dots":2.75,"target":"right","response":"left","rt":624.09999990463,"correct":false,"confidence":1},{"trial_n":85,"n_dots":2.85,"target":"right","response":"right","rt":1915,"correct":true,"confidence":1},{"trial_n":86,"n_dots":2.85,"target":"right","response":"left","rt":2050.2999999523,"correct":false,"confidence":1},{"trial_n":87,"n_dots":2.95,"target":"right","response":"right","rt":1057.4000000954,"correct":true,"confidence":3},{"trial_n":88,"n_dots":2.95,"target":"left","response":"right","rt":1630.9000000954,"correct":false,"confidence":1},{"trial_n":89,"n_dots":3.05,"target":"left","response":"left","rt":230.40000009537,"correct":true,"confidence":4},{"trial_n":90,"n_dots":3.05,"target":"right","response":"left","rt":1294.8999998569,"correct":false,"confidence":3},{"trial_n":91,"n_dots":3.15,"target":"right","response":"right","rt":996.20000004768,"correct":true,"confidence":1},{"trial_n":92,"n_dots":3.15,"target":"right","response":"right","rt":919.29999995232,"correct":true,"confidence":1},{"trial_n":93,"n_dots":3.05,"target":"right","response":"right","rt":1619.5,"correct":true,"confidence":2},{"trial_n":94,"n_dots":3.05,"target":"right","response":"left","rt":963.70000004768,"correct":false,"confidence":1},{"trial_n":95,"n_dots":3.15,"target":"left","response":"left","rt":670.60000014305,"correct":true,"confidence":4},{"trial_n":96,"n_dots":3.15,"target":"right","response":"left","rt":2000,"correct":false,"confidence":1},{"trial_n":97,"n_dots":3.25,"target":"left","response":"left","rt":782.5,"correct":true,"confidence":5},{"trial_n":98,"n_dots":3.25,"target":"left","response":"left","rt":1355.1000001431,"correct":true,"confidence":3},{"trial_n":99,"n_dots":3.15,"target":"left","response":"left","rt":699.59999990463,"correct":true,"confidence":4},{"trial_n":100,"n_dots":3.15,"target":"left","response":"left","rt":902.79999995232,"correct":true,"confidence":3},{"trial_n":101,"n_dots":3.05,"target":"left","response":"left","rt":467.70000004768,"correct":true,"confidence":5},{"trial_n":102,"n_dots":3.05,"target":"left","response":"left","rt":1437.8000001907,"correct":true,"confidence":5},{"trial_n":103,"n_dots":2.95,"target":"left","response":"left","rt":965,"correct":true,"confidence":5},{"trial_n":104,"n_dots":2.95,"target":"left","response":"right","rt":1357.7999999523,"correct":false,"confidence":1},{"trial_n":105,"n_dots":3.05,"target":"left","response":"left","rt":781.90000009537,"correct":true,"confidence":2},{"trial_n":106,"n_dots":3.05,"target":"left","response":"left","rt":607,"correct":true,"confidence":2},{"trial_n":107,"n_dots":2.95,"target":"right","response":"left","rt":624.20000004768,"correct":false,"confidence":2},{"trial_n":108,"n_dots":3.05,"target":"right","response":"left","rt":560.30000019073,"correct":false,"confidence":3},{"trial_n":109,"n_dots":3.15,"target":"right","response":"left","rt":762.70000004768,"correct":false,"confidence":4},{"trial_n":110,"n_dots":3.25,"target":"left","response":"left","rt":747.20000004768,"correct":true,"confidence":4},{"trial_n":111,"n_dots":3.25,"target":"right","response":"right","rt":2570.5,"correct":true,"confidence":1},{"trial_n":112,"n_dots":3.15,"target":"right","response":"right","rt":1231.6000001431,"correct":true,"confidence":2},{"trial_n":113,"n_dots":3.15,"target":"left","response":"left","rt":890.60000014305,"correct":true,"confidence":1},{"trial_n":114,"n_dots":3.05,"target":"right","response":"right","rt":1302,"correct":true,"confidence":3},{"trial_n":115,"n_dots":3.05,"target":"right","response":"right","rt":1140.0999999046,"correct":true,"confidence":2},{"trial_n":116,"n_dots":2.95,"target":"left","response":"right","rt":1682.2999999523,"correct":false,"confidence":1},{"trial_n":117,"n_dots":3.05,"target":"right","response":"right","rt":1127.0999999046,"correct":true,"confidence":3},{"trial_n":118,"n_dots":3.05,"target":"left","response":"right","rt":3237.2000000477,"correct":false,"confidence":1},{"trial_n":119,"n_dots":3.15,"target":"right","response":"right","rt":1709.5,"correct":true,"confidence":1},{"trial_n":120,"n_dots":3.15,"target":"right","response":"right","rt":900.29999995232,"correct":true,"confidence":1}]