[{"trial_n":1,"span":8,"encoder":"98107978","distractor":"91107978","target":"present","response":"present","rt":"6296.2999999523","correct":true,"confidence":-1},{"trial_n":2,"span":8,"encoder":"48726297","distractor":"48776297","target":"present","response":"absent","rt":"3844.1000001431","correct":false,"confidence":-1},{"trial_n":3,"span":6,"encoder":"339146","distractor":"339145","target":"absent","response":"absent","rt":"5180","correct":true,"confidence":-1},{"trial_n":4,"span":6,"encoder":"299208","distractor":"219208","target":"absent","response":"absent","rt":"4253.5","correct":true,"confidence":-1},{"trial_n":5,"span":8,"encoder":"72249725","distractor":"72249705","target":"present","response":"absent","rt":"4387.2000000477","correct":false,"confidence":-1},{"trial_n":6,"span":6,"encoder":"165514","distractor":"135514","target":"present","response":"present","rt":"2116.7000000477","correct":true,"confidence":-1},{"trial_n":7,"span":6,"encoder":"058271","distractor":"058275","target":"absent","response":"absent","rt":"2292.7000000477","correct":true,"confidence":-1},{"trial_n":8,"span":8,"encoder":"91782077","distractor":"91782087","target":"present","response":"present","rt":"2593.4000000954","correct":true,"confidence":-1},{"trial_n":9,"span":8,"encoder":"33924434","distractor":"33924134","target":"absent","response":"present","rt":"2650.2000000477","correct":false,"confidence":-1},{"trial_n":10,"span":6,"encoder":"597691","distractor":"592691","target":"absent","response":"present","rt":"1948.5","correct":false,"confidence":-1},{"trial_n":11,"span":4,"encoder":"0470","distractor":"0770","target":"present","response":"present","rt":"1592.2999999523","correct":true,"confidence":-1},{"trial_n":12,"span":4,"encoder":"2677","distractor":"2697","target":"absent","response":"absent","rt":"1512.8000001907","correct":true,"confidence":-1},{"trial_n":13,"span":5,"encoder":"41445","distractor":"41475","target":"present","response":"present","rt":"965.5","correct":true,"confidence":-1},{"trial_n":14,"span":5,"encoder":"78034","distractor":"78054","target":"present","response":"present","rt":"1763","correct":true,"confidence":-1},{"trial_n":15,"span":6,"encoder":"780359","distractor":"782359","target":"absent","response":"present","rt":"1440.6999998093","correct":false,"confidence":-1},{"trial_n":16,"span":5,"encoder":"44187","distractor":"44887","target":"absent","response":"absent","rt":"2045.5","correct":true,"confidence":-1},{"trial_n":17,"span":5,"encoder":"56991","distractor":"56995","target":"absent","response":"absent","rt":"1524.2000000477","correct":true,"confidence":-1},{"trial_n":18,"span":6,"encoder":"561890","distractor":"561190","target":"absent","response":"absent","rt":"1326","correct":true,"confidence":-1},{"trial_n":19,"span":6,"encoder":"932233","distractor":"982233","target":"absent","response":"absent","rt":"2385.8000001907","correct":true,"confidence":-1},{"trial_n":20,"span":7,"encoder":"0864879","distractor":"0884879","target":"present","response":"present","rt":"2585.2999999523","correct":true,"confidence":-1},{"trial_n":21,"span":7,"encoder":"4176591","distractor":"2176591","target":"present","response":"present","rt":"2684.2999999523","correct":true,"confidence":3},{"trial_n":22,"span":8,"encoder":"10535616","distractor":"10535619","target":"absent","response":"absent","rt":"3856.5","correct":true,"confidence":4},{"trial_n":23,"span":8,"encoder":"46622806","distractor":"46522806","target":"absent","response":"present","rt":"4215.3999998569","correct":false,"confidence":2},{"trial_n":24,"span":7,"encoder":"0944466","distractor":"8944466","target":"present","response":"present","rt":"3388.1000001431","correct":true,"confidence":2},{"trial_n":25,"span":7,"encoder":"0040564","distractor":"0044564","target":"absent","response":"present","rt":"4466.7999999523","correct":false,"confidence":3},{"trial_n":26,"span":6,"encoder":"208774","distractor":"208764","target":"present","response":"present","rt":"3208.4000000954","correct":true,"confidence":2},{"trial_n":27,"span":6,"encoder":"869410","distractor":"369410","target":"absent","response":"absent","rt":"5119.7000000477","correct":true,"confidence":2},{"trial_n":28,"span":7,"encoder":"3310341","distractor":"6310341","target":"absent","response":"absent","rt":"2147.7000000477","correct":true,"confidence":5},{"trial_n":29,"span":7,"encoder":"2133248","distractor":"2133238","target":"present","response":"present","rt":"5676.5","correct":true,"confidence":1},{"trial_n":30,"span":8,"encoder":"77210767","distractor":"77210777","target":"absent","response":"absent","rt":"2117.5999999046","correct":true,"confidence":5},{"trial_n":31,"span":8,"encoder":"46398734","distractor":"46698734","target":"present","response":"present","rt":"3965.5","correct":true,"confidence":1},{"trial_n":32,"span":9,"encoder":"912571553","distractor":"912971553","target":"present","response":"absent","rt":"3953","correct":false,"confidence":2},{"trial_n":33,"span":8,"encoder":"80116518","distractor":"80146518","target":"present","response":"present","rt":"5390.7999999523","correct":true,"confidence":3},{"trial_n":34,"span":8,"encoder":"73243108","distractor":"73253108","target":"present","response":"present","rt":"2948","correct":true,"confidence":3},{"trial_n":35,"span":9,"encoder":"070961260","distractor":"070961230","target":"absent","response":"absent","rt":"3644.7999999523","correct":true,"confidence":4},{"trial_n":36,"span":9,"encoder":"787899608","distractor":"787899602","target":"absent","response":"absent","rt":"3565.0999999046","correct":true,"confidence":5},{"trial_n":37,"span":10,"encoder":"7364148828","distractor":"7364148822","target":"present","response":"present","rt":"2640.7999999523","correct":true,"confidence":1},{"trial_n":38,"span":10,"encoder":"5050531056","distractor":"5050571056","target":"present","response":"present","rt":"2732.0999999046","correct":true,"confidence":4},{"trial_n":39,"span":11,"encoder":"92839291157","distractor":"92839291151","target":"present","response":"present","rt":"2042.4000000954","correct":true,"confidence":2},{"trial_n":40,"span":11,"encoder":"88916980008","distractor":"82916980008","target":"absent","response":"present","rt":"2802","correct":false,"confidence":2},{"trial_n":41,"span":10,"encoder":"1350711767","distractor":"1350714767","target":"absent","response":"present","rt":"1756.9000000954","correct":false,"confidence":2},{"trial_n":42,"span":9,"encoder":"761449778","distractor":"761549778","target":"present","response":"present","rt":"1708.5999999046","correct":true,"confidence":3},{"trial_n":43,"span":9,"encoder":"882825588","distractor":"882825578","target":"present","response":"present","rt":"2846.0999999046","correct":true,"confidence":5},{"trial_n":44,"span":10,"encoder":"0951291951","distractor":"0971291951","target":"present","response":"absent","rt":"8983.7000000477","correct":false,"confidence":2},{"trial_n":45,"span":9,"encoder":"404102848","distractor":"404102808","target":"present","response":"absent","rt":"6672","correct":false,"confidence":1},{"trial_n":46,"span":8,"encoder":"90150866","distractor":"90153866","target":"absent","response":"present","rt":"5073.7000000477","correct":false,"confidence":2},{"trial_n":47,"span":7,"encoder":"9647510","distractor":"9649510","target":"absent","response":"present","rt":"3540.4000000954","correct":false,"confidence":2},{"trial_n":48,"span":6,"encoder":"250549","distractor":"260549","target":"absent","response":"present","rt":"2935.1000001431","correct":false,"confidence":1},{"trial_n":49,"span":5,"encoder":"59925","distractor":"59905","target":"absent","response":"absent","rt":"2473.3999998569","correct":true,"confidence":5},{"trial_n":50,"span":5,"encoder":"31001","distractor":"31901","target":"absent","response":"absent","rt":"2009","correct":true,"confidence":5},{"trial_n":51,"span":6,"encoder":"787883","distractor":"737883","target":"absent","response":"present","rt":"2256.1000001431","correct":false,"confidence":3},{"trial_n":52,"span":5,"encoder":"67540","distractor":"67544","target":"absent","response":"absent","rt":"1825.5","correct":true,"confidence":5},{"trial_n":53,"span":5,"encoder":"97573","distractor":"57573","target":"present","response":"present","rt":"2742.2999999523","correct":true,"confidence":2},{"trial_n":54,"span":6,"encoder":"486980","distractor":"386980","target":"present","response":"present","rt":"2193.9000000954","correct":true,"confidence":2},{"trial_n":55,"span":6,"encoder":"993432","distractor":"998432","target":"present","response":"present","rt":"2276.6000001431","correct":true,"confidence":5},{"trial_n":56,"span":7,"encoder":"8440795","distractor":"8540795","target":"absent","response":"present","rt":"3631.7999999523","correct":false,"confidence":2},{"trial_n":57,"span":6,"encoder":"262785","distractor":"362785","target":"present","response":"present","rt":"2319.2999999523","correct":true,"confidence":3},{"trial_n":58,"span":6,"encoder":"503621","distractor":"503021","target":"absent","response":"absent","rt":"2320.9000000954","correct":true,"confidence":4},{"trial_n":59,"span":7,"encoder":"5688454","distractor":"5686454","target":"present","response":"present","rt":"1918.2999999523","correct":true,"confidence":3},{"trial_n":60,"span":7,"encoder":"4826634","distractor":"4826934","target":"present","response":"present","rt":"1982.3999998569","correct":true,"confidence":3},{"trial_n":61,"span":8,"encoder":"64196826","distractor":"64197826","target":"present","response":"present","rt":"4261.2000000477","correct":true,"confidence":2},{"trial_n":62,"span":8,"encoder":"24153350","distractor":"26153350","target":"absent","response":"present","rt":"2191","correct":false,"confidence":3},{"trial_n":63,"span":7,"encoder":"7160389","distractor":"7160339","target":"present","response":"present","rt":"2081.8000001907","correct":true,"confidence":3},{"trial_n":64,"span":7,"encoder":"4490261","distractor":"4490201","target":"absent","response":"absent","rt":"2783.7999999523","correct":true,"confidence":2},{"trial_n":65,"span":8,"encoder":"78664344","distractor":"78664644","target":"absent","response":"absent","rt":"6238.8999998569","correct":true,"confidence":1},{"trial_n":66,"span":8,"encoder":"15540257","distractor":"15440257","target":"present","response":"present","rt":"2225.5999999046","correct":true,"confidence":3},{"trial_n":67,"span":9,"encoder":"763957859","distractor":"763657859","target":"present","response":"present","rt":"3544.7999999523","correct":true,"confidence":2},{"trial_n":68,"span":9,"encoder":"535458976","distractor":"535258976","target":"present","response":"absent","rt":"4836","correct":false,"confidence":2},{"trial_n":69,"span":8,"encoder":"59813289","distractor":"49813289","target":"present","response":"present","rt":"1861.5","correct":true,"confidence":2},{"trial_n":70,"span":8,"encoder":"73069815","distractor":"79069815","target":"absent","response":"absent","rt":"5025.5","correct":true,"confidence":1},{"trial_n":71,"span":8,"encoder":"20506899","distractor":"20506809","target":"present","response":"present","rt":"2447.4000000954","correct":true,"confidence":-1},{"trial_n":72,"span":8,"encoder":"00351698","distractor":"00341698","target":"present","response":"absent","rt":"5287.2999999523","correct":false,"confidence":-1},{"trial_n":73,"span":7,"encoder":"9355986","distractor":"6355986","target":"absent","response":"present","rt":"5752.1000001431","correct":false,"confidence":-1},{"trial_n":74,"span":6,"encoder":"159496","distractor":"159486","target":"absent","response":"absent","rt":"1887.7000000477","correct":true,"confidence":-1},{"trial_n":75,"span":6,"encoder":"083844","distractor":"083843","target":"present","response":"present","rt":"1229.8999998569","correct":true,"confidence":-1},{"trial_n":76,"span":7,"encoder":"2677693","distractor":"2677993","target":"absent","response":"absent","rt":"2347.6999998093","correct":true,"confidence":-1},{"trial_n":77,"span":7,"encoder":"9483413","distractor":"9083413","target":"present","response":"absent","rt":"2249.7000000477","correct":false,"confidence":-1},{"trial_n":78,"span":6,"encoder":"952857","distractor":"952856","target":"absent","response":"absent","rt":"2498.7999999523","correct":true,"confidence":-1},{"trial_n":79,"span":6,"encoder":"778031","distractor":"778061","target":"absent","response":"absent","rt":"1541.3999998569","correct":true,"confidence":-1},{"trial_n":80,"span":7,"encoder":"9481644","distractor":"8481644","target":"absent","response":"present","rt":"3215.8999998569","correct":false,"confidence":-1},{"trial_n":81,"span":6,"encoder":"786225","distractor":"786125","target":"present","response":"present","rt":"1698.0999999046","correct":true,"confidence":-1},{"trial_n":82,"span":6,"encoder":"685591","distractor":"685491","target":"absent","response":"absent","rt":"3710.8999998569","correct":true,"confidence":-1},{"trial_n":83,"span":7,"encoder":"1304189","distractor":"1307189","target":"present","response":"absent","rt":"882.79999995232","correct":false,"confidence":-1},{"trial_n":84,"span":6,"encoder":"361507","distractor":"361504","target":"absent","response":"present","rt":"606.20000004768","correct":false,"confidence":-1},{"trial_n":85,"span":5,"encoder":"09822","distractor":"09222","target":"absent","response":"present","rt":"2018.5","correct":false,"confidence":-1},{"trial_n":86,"span":4,"encoder":"8120","distractor":"8160","target":"present","response":"absent","rt":"1264.7999999523","correct":false,"confidence":-1},{"trial_n":87,"span":3,"encoder":"143","distractor":"133","target":"present","response":"present","rt":"1223.2000000477","correct":true,"confidence":-1},{"trial_n":88,"span":3,"encoder":"999","distractor":"989","target":"present","response":"present","rt":"827.90000009537","correct":true,"confidence":-1},{"trial_n":89,"span":4,"encoder":"1520","distractor":"1528","target":"present","response":"present","rt":"1095.9000000954","correct":true,"confidence":-1},{"trial_n":90,"span":4,"encoder":"9839","distractor":"9829","target":"present","response":"present","rt":"1843.2000000477","correct":true,"confidence":-1},{"trial_n":91,"span":5,"encoder":"56413","distractor":"56013","target":"absent","response":"present","rt":"1406.5999999046","correct":false,"confidence":2},{"trial_n":92,"span":4,"encoder":"0619","distractor":"5619","target":"present","response":"present","rt":"3160.7999999523","correct":true,"confidence":1},{"trial_n":93,"span":4,"encoder":"0074","distractor":"0077","target":"absent","response":"absent","rt":"2525.9000000954","correct":true,"confidence":5},{"trial_n":94,"span":5,"encoder":"97044","distractor":"96044","target":"absent","response":"absent","rt":"2635.2000000477","correct":true,"confidence":2},{"trial_n":95,"span":5,"encoder":"97569","distractor":"97549","target":"present","response":"present","rt":"3624.2000000477","correct":true,"confidence":3},{"trial_n":96,"span":6,"encoder":"698833","distractor":"698863","target":"present","response":"present","rt":"1672","correct":true,"confidence":5},{"trial_n":97,"span":6,"encoder":"371404","distractor":"341404","target":"absent","response":"present","rt":"3347.1999998093","correct":false,"confidence":3},{"trial_n":98,"span":5,"encoder":"42166","distractor":"42160","target":"present","response":"present","rt":"1566.0999999046","correct":true,"confidence":5},{"trial_n":99,"span":5,"encoder":"95995","distractor":"95945","target":"present","response":"present","rt":"2272","correct":true,"confidence":5},{"trial_n":100,"span":6,"encoder":"711439","distractor":"711433","target":"absent","response":"absent","rt":"2744.9000000954","correct":true,"confidence":5},{"trial_n":101,"span":6,"encoder":"700055","distractor":"706055","target":"absent","response":"absent","rt":"2724.2000000477","correct":true,"confidence":5},{"trial_n":102,"span":7,"encoder":"1289180","distractor":"1289181","target":"present","response":"present","rt":"1436","correct":true,"confidence":5},{"trial_n":103,"span":7,"encoder":"2322265","distractor":"2392265","target":"present","response":"present","rt":"1862.6000001431","correct":true,"confidence":4},{"trial_n":104,"span":8,"encoder":"67677749","distractor":"67677049","target":"absent","response":"absent","rt":"3287.5","correct":true,"confidence":5},{"trial_n":105,"span":8,"encoder":"47658302","distractor":"47158302","target":"present","response":"present","rt":"7570.7000000477","correct":true,"confidence":1},{"trial_n":106,"span":9,"encoder":"349570615","distractor":"349570611","target":"present","response":"present","rt":"1385.7000000477","correct":true,"confidence":5},{"trial_n":107,"span":9,"encoder":"453668488","distractor":"453678488","target":"absent","response":"present","rt":"4817.8000001907","correct":false,"confidence":1},{"trial_n":108,"span":8,"encoder":"53114180","distractor":"53714180","target":"absent","response":"absent","rt":"3043.4000000954","correct":true,"confidence":3},{"trial_n":109,"span":8,"encoder":"66539064","distractor":"66539054","target":"absent","response":"absent","rt":"2910.5999999046","correct":true,"confidence":4},{"trial_n":110,"span":9,"encoder":"162493535","distractor":"161493535","target":"present","response":"present","rt":"11380.599999905","correct":true,"confidence":1},{"trial_n":111,"span":9,"encoder":"667654725","distractor":"687654725","target":"absent","response":"present","rt":"3602.6000001431","correct":false,"confidence":1},{"trial_n":112,"span":8,"encoder":"62218428","distractor":"62218408","target":"present","response":"present","rt":"4071.3000001907","correct":true,"confidence":3},{"trial_n":113,"span":8,"encoder":"15855649","distractor":"35855649","target":"absent","response":"absent","rt":"3913.9000000954","correct":true,"confidence":1},{"trial_n":114,"span":9,"encoder":"443059063","distractor":"743059063","target":"absent","response":"present","rt":"4283.7000000477","correct":false,"confidence":3},{"trial_n":115,"span":8,"encoder":"64851514","distractor":"24851514","target":"absent","response":"present","rt":"2694","correct":false,"confidence":2},{"trial_n":116,"span":7,"encoder":"6258626","distractor":"6958626","target":"absent","response":"absent","rt":"2201.9000000954","correct":true,"confidence":3},{"trial_n":117,"span":7,"encoder":"4174990","distractor":"1174990","target":"present","response":"present","rt":"3290.1000001431","correct":true,"confidence":4},{"trial_n":118,"span":8,"encoder":"40230490","distractor":"40270490","target":"present","response":"present","rt":"1384.7999999523","correct":true,"confidence":2},{"trial_n":119,"span":8,"encoder":"16660502","distractor":"16665502","target":"present","response":"present","rt":"2254.5999999046","correct":true,"confidence":4},{"trial_n":120,"span":9,"encoder":"611683416","distractor":"611683116","target":"present","response":"absent","rt":"3956.7000000477","correct":false,"confidence":2},{"trial_n":121,"span":8,"encoder":"37976828","distractor":"37996828","target":"present","response":"absent","rt":"2729.5","correct":false,"confidence":3},{"trial_n":122,"span":7,"encoder":"1744141","distractor":"1744121","target":"present","response":"absent","rt":"3759.9000000954","correct":false,"confidence":1},{"trial_n":123,"span":6,"encoder":"475149","distractor":"475148","target":"present","response":"present","rt":"1882.5999999046","correct":true,"confidence":5},{"trial_n":124,"span":6,"encoder":"328020","distractor":"928020","target":"absent","response":"absent","rt":"3159.7999999523","correct":true,"confidence":5},{"trial_n":125,"span":7,"encoder":"5296735","distractor":"5296435","target":"absent","response":"absent","rt":"3771.4000000954","correct":true,"confidence":5},{"trial_n":126,"span":7,"encoder":"8507481","distractor":"8507471","target":"present","response":"present","rt":"3546.7999999523","correct":true,"confidence":5},{"trial_n":127,"span":8,"encoder":"50609165","distractor":"52609165","target":"absent","response":"absent","rt":"3630.2000000477","correct":true,"confidence":3},{"trial_n":128,"span":8,"encoder":"36922881","distractor":"38922881","target":"present","response":"present","rt":"5610.3999998569","correct":true,"confidence":1},{"trial_n":129,"span":9,"encoder":"468900044","distractor":"460900044","target":"absent","response":"absent","rt":"7797.0999999046","correct":true,"confidence":2},{"trial_n":130,"span":9,"encoder":"648563677","distractor":"648863677","target":"absent","response":"absent","rt":"5297.1000001431","correct":true,"confidence":1},{"trial_n":131,"span":10,"encoder":"8695380063","distractor":"8665380063","target":"present","response":"absent","rt":"4312","correct":false,"confidence":1},{"trial_n":132,"span":9,"encoder":"496764595","distractor":"496764535","target":"present","response":"present","rt":"2532.2000000477","correct":true,"confidence":1},{"trial_n":133,"span":9,"encoder":"609847885","distractor":"609247885","target":"absent","response":"absent","rt":"1100.4000000954","correct":true,"confidence":3},{"trial_n":134,"span":10,"encoder":"4154420423","distractor":"4154420453","target":"present","response":"present","rt":"1543.5","correct":true,"confidence":5},{"trial_n":135,"span":10,"encoder":"3856273310","distractor":"3856273311","target":"absent","response":"absent","rt":"1757.3999998569","correct":true,"confidence":5},{"trial_n":136,"span":11,"encoder":"70956702752","distractor":"70956702772","target":"absent","response":"absent","rt":"2461.7000000477","correct":true,"confidence":5},{"trial_n":137,"span":11,"encoder":"95230748730","distractor":"05230748730","target":"present","response":"absent","rt":"5229.5","correct":false,"confidence":1},{"trial_n":138,"span":10,"encoder":"2122475325","distractor":"2122675325","target":"present","response":"absent","rt":"4698.1000001431","correct":false,"confidence":1},{"trial_n":139,"span":9,"encoder":"406612045","distractor":"406612025","target":"absent","response":"present","rt":"4151.7999999523","correct":false,"confidence":1},{"trial_n":140,"span":8,"encoder":"45532601","distractor":"45232601","target":"absent","response":"absent","rt":"3227.1000001431","correct":true,"confidence":3}]