[{"trial_n":1,"min":25,"max":230,"target":"present","response":"present","rt":7175,"correct":true,"confidence":-1},{"trial_n":2,"min":25,"max":230,"target":"present","response":"present","rt":1349,"correct":true,"confidence":-1},{"trial_n":3,"min":41,"max":214,"target":"absent","response":"absent","rt":1453,"correct":true,"confidence":-1},{"trial_n":4,"min":41,"max":214,"target":"absent","response":"absent","rt":1533,"correct":true,"confidence":-1},{"trial_n":5,"min":57,"max":198,"target":"present","response":"present","rt":1210,"correct":true,"confidence":-1},{"trial_n":6,"min":57,"max":198,"target":"absent","response":"absent","rt":1174,"correct":true,"confidence":-1},{"trial_n":7,"min":73,"max":182,"target":"absent","response":"absent","rt":1047,"correct":true,"confidence":-1},{"trial_n":8,"min":73,"max":182,"target":"absent","response":"absent","rt":1104,"correct":true,"confidence":-1},{"trial_n":9,"min":89,"max":166,"target":"present","response":"present","rt":1292,"correct":true,"confidence":-1},{"trial_n":10,"min":89,"max":166,"target":"absent","response":"absent","rt":1390,"correct":true,"confidence":-1},{"trial_n":11,"min":97,"max":158,"target":"present","response":"present","rt":1290,"correct":true,"confidence":-1},{"trial_n":12,"min":97,"max":158,"target":"absent","response":"absent","rt":1129,"correct":true,"confidence":-1},{"trial_n":13,"min":105,"max":150,"target":"present","response":"absent","rt":1131,"correct":false,"confidence":-1},{"trial_n":14,"min":97,"max":158,"target":"present","response":"present","rt":1769,"correct":true,"confidence":-1},{"trial_n":15,"min":97,"max":158,"target":"present","response":"absent","rt":2459,"correct":false,"confidence":-1},{"trial_n":16,"min":89,"max":166,"target":"present","response":"present","rt":1082,"correct":true,"confidence":-1},{"trial_n":17,"min":89,"max":166,"target":"present","response":"present","rt":1260,"correct":true,"confidence":-1},{"trial_n":18,"min":97,"max":158,"target":"present","response":"present","rt":694,"correct":true,"confidence":-1},{"trial_n":19,"min":97,"max":158,"target":"present","response":"absent","rt":2421,"correct":false,"confidence":-1},{"trial_n":20,"min":89,"max":166,"target":"absent","response":"present","rt":1554,"correct":false,"confidence":-1},{"trial_n":21,"min":85,"max":170,"target":"absent","response":"absent","rt":1296,"correct":true,"confidence":5},{"trial_n":22,"min":85,"max":170,"target":"absent","response":"absent","rt":1250,"correct":true,"confidence":3},{"trial_n":23,"min":89,"max":166,"target":"present","response":"present","rt":1503,"correct":true,"confidence":5},{"trial_n":24,"min":89,"max":166,"target":"present","response":"present","rt":1591,"correct":true,"confidence":5},{"trial_n":25,"min":93,"max":162,"target":"present","response":"absent","rt":1201,"correct":false,"confidence":4},{"trial_n":26,"min":89,"max":166,"target":"present","response":"present","rt":1311,"correct":true,"confidence":5},{"trial_n":27,"min":89,"max":166,"target":"absent","response":"present","rt":1449,"correct":false,"confidence":5},{"trial_n":28,"min":85,"max":170,"target":"absent","response":"absent","rt":3283,"correct":true,"confidence":5},{"trial_n":29,"min":85,"max":170,"target":"absent","response":"absent","rt":1593,"correct":true,"confidence":5},{"trial_n":30,"min":89,"max":166,"target":"present","response":"present","rt":1129,"correct":true,"confidence":5},{"trial_n":31,"min":89,"max":166,"target":"present","response":"present","rt":1458,"correct":true,"confidence":5},{"trial_n":32,"min":91,"max":164,"target":"present","response":"present","rt":1067,"correct":true,"confidence":5},{"trial_n":33,"min":91,"max":164,"target":"absent","response":"absent","rt":1336,"correct":true,"confidence":3},{"trial_n":34,"min":93,"max":162,"target":"present","response":"present","rt":1450,"correct":true,"confidence":5},{"trial_n":35,"min":93,"max":162,"target":"absent","response":"absent","rt":2149,"correct":true,"confidence":1},{"trial_n":36,"min":95,"max":160,"target":"absent","response":"absent","rt":1884,"correct":true,"confidence":5},{"trial_n":37,"min":95,"max":160,"target":"absent","response":"absent","rt":1083,"correct":true,"confidence":5},{"trial_n":38,"min":97,"max":158,"target":"present","response":"absent","rt":2440,"correct":false,"confidence":5},{"trial_n":39,"min":95,"max":160,"target":"absent","response":"absent","rt":1723,"correct":true,"confidence":5},{"trial_n":40,"min":95,"max":160,"target":"present","response":"absent","rt":1724,"correct":false,"confidence":5},{"trial_n":41,"min":94,"max":161,"target":"absent","response":"present","rt":1505,"correct":false,"confidence":4},{"trial_n":42,"min":93,"max":162,"target":"present","response":"present","rt":1470,"correct":true,"confidence":3},{"trial_n":43,"min":93,"max":162,"target":"absent","response":"present","rt":1409,"correct":false,"confidence":4},{"trial_n":44,"min":92,"max":163,"target":"present","response":"present","rt":1731,"correct":true,"confidence":3},{"trial_n":45,"min":92,"max":163,"target":"absent","response":"present","rt":1026,"correct":false,"confidence":5},{"trial_n":46,"min":91,"max":164,"target":"present","response":"present","rt":1491,"correct":true,"confidence":5},{"trial_n":47,"min":91,"max":164,"target":"absent","response":"present","rt":1062,"correct":false,"confidence":5},{"trial_n":48,"min":90,"max":165,"target":"absent","response":"present","rt":1148,"correct":false,"confidence":5},{"trial_n":49,"min":89,"max":166,"target":"absent","response":"present","rt":1051,"correct":false,"confidence":5},{"trial_n":50,"min":88,"max":167,"target":"absent","response":"present","rt":1121,"correct":false,"confidence":5},{"trial_n":51,"min":87,"max":168,"target":"absent","response":"absent","rt":2645,"correct":true,"confidence":4},{"trial_n":52,"min":87,"max":168,"target":"absent","response":"present","rt":2076,"correct":false,"confidence":5},{"trial_n":53,"min":86,"max":169,"target":"present","response":"present","rt":1767,"correct":true,"confidence":5},{"trial_n":54,"min":86,"max":169,"target":"present","response":"present","rt":4158,"correct":true,"confidence":4},{"trial_n":55,"min":87,"max":168,"target":"absent","response":"absent","rt":1543,"correct":true,"confidence":5},{"trial_n":56,"min":87,"max":168,"target":"present","response":"present","rt":2001,"correct":true,"confidence":5},{"trial_n":57,"min":88,"max":167,"target":"present","response":"present","rt":1976,"correct":true,"confidence":4},{"trial_n":58,"min":88,"max":167,"target":"absent","response":"present","rt":5261,"correct":false,"confidence":3},{"trial_n":59,"min":87,"max":168,"target":"absent","response":"present","rt":1608,"correct":false,"confidence":4},{"trial_n":60,"min":86,"max":169,"target":"absent","response":"absent","rt":1259,"correct":true,"confidence":5},{"trial_n":61,"min":86,"max":169,"target":"absent","response":"absent","rt":1402,"correct":true,"confidence":1},{"trial_n":62,"min":87,"max":168,"target":"absent","response":"absent","rt":1702,"correct":true,"confidence":3},{"trial_n":63,"min":87,"max":168,"target":"present","response":"present","rt":1361,"correct":true,"confidence":5},{"trial_n":64,"min":88,"max":167,"target":"present","response":"present","rt":1559,"correct":true,"confidence":5},{"trial_n":65,"min":88,"max":167,"target":"present","response":"present","rt":1355,"correct":true,"confidence":5},{"trial_n":66,"min":89,"max":166,"target":"absent","response":"present","rt":1608,"correct":false,"confidence":4},{"trial_n":67,"min":88,"max":167,"target":"present","response":"present","rt":1168,"correct":true,"confidence":5},{"trial_n":68,"min":88,"max":167,"target":"present","response":"present","rt":1312,"correct":true,"confidence":5},{"trial_n":69,"min":89,"max":166,"target":"present","response":"present","rt":2844,"correct":true,"confidence":4},{"trial_n":70,"min":89,"max":166,"target":"present","response":"present","rt":1339,"correct":true,"confidence":5},{"trial_n":71,"min":41,"max":214,"target":"present","response":"present","rt":2969,"correct":true,"confidence":-1},{"trial_n":72,"min":41,"max":214,"target":"present","response":"present","rt":474,"correct":true,"confidence":-1},{"trial_n":73,"min":57,"max":198,"target":"absent","response":"absent","rt":902,"correct":true,"confidence":-1},{"trial_n":74,"min":57,"max":198,"target":"absent","response":"absent","rt":609,"correct":true,"confidence":-1},{"trial_n":75,"min":73,"max":182,"target":"present","response":"present","rt":1476,"correct":true,"confidence":-1},{"trial_n":76,"min":73,"max":182,"target":"present","response":"present","rt":583,"correct":true,"confidence":-1},{"trial_n":77,"min":89,"max":166,"target":"absent","response":"absent","rt":1151,"correct":true,"confidence":-1},{"trial_n":78,"min":89,"max":166,"target":"present","response":"present","rt":983,"correct":true,"confidence":-1},{"trial_n":79,"min":105,"max":150,"target":"absent","response":"absent","rt":2266,"correct":true,"confidence":-1},{"trial_n":80,"min":105,"max":150,"target":"present","response":"absent","rt":783,"correct":false,"confidence":-1},{"trial_n":81,"min":97,"max":158,"target":"absent","response":"present","rt":1168,"correct":false,"confidence":-1},{"trial_n":82,"min":89,"max":166,"target":"present","response":"absent","rt":806,"correct":false,"confidence":-1},{"trial_n":83,"min":81,"max":174,"target":"absent","response":"absent","rt":1059,"correct":true,"confidence":-1},{"trial_n":84,"min":81,"max":174,"target":"present","response":"present","rt":352,"correct":true,"confidence":-1},{"trial_n":85,"min":89,"max":166,"target":"absent","response":"present","rt":743,"correct":false,"confidence":-1},{"trial_n":86,"min":81,"max":174,"target":"absent","response":"absent","rt":464,"correct":true,"confidence":-1},{"trial_n":87,"min":81,"max":174,"target":"absent","response":"present","rt":428,"correct":false,"confidence":-1},{"trial_n":88,"min":73,"max":182,"target":"absent","response":"absent","rt":771,"correct":true,"confidence":-1},{"trial_n":89,"min":73,"max":182,"target":"present","response":"present","rt":502,"correct":true,"confidence":-1},{"trial_n":90,"min":81,"max":174,"target":"present","response":"present","rt":1804,"correct":true,"confidence":-1},{"trial_n":91,"min":81,"max":174,"target":"absent","response":"absent","rt":969,"correct":true,"confidence":1},{"trial_n":92,"min":85,"max":170,"target":"absent","response":"present","rt":993,"correct":false,"confidence":5},{"trial_n":93,"min":81,"max":174,"target":"absent","response":"absent","rt":1358,"correct":true,"confidence":1},{"trial_n":94,"min":81,"max":174,"target":"absent","response":"present","rt":892,"correct":false,"confidence":1},{"trial_n":95,"min":77,"max":178,"target":"absent","response":"absent","rt":1976,"correct":true,"confidence":5},{"trial_n":96,"min":77,"max":178,"target":"present","response":"present","rt":1099,"correct":true,"confidence":5},{"trial_n":97,"min":81,"max":174,"target":"present","response":"present","rt":1016,"correct":true,"confidence":5},{"trial_n":98,"min":81,"max":174,"target":"absent","response":"absent","rt":1046,"correct":true,"confidence":5},{"trial_n":99,"min":85,"max":170,"target":"absent","response":"absent","rt":1518,"correct":true,"confidence":2},{"trial_n":100,"min":85,"max":170,"target":"present","response":"absent","rt":1413,"correct":false,"confidence":1},{"trial_n":101,"min":83,"max":172,"target":"absent","response":"absent","rt":874,"correct":true,"confidence":3},{"trial_n":102,"min":83,"max":172,"target":"present","response":"present","rt":1625,"correct":true,"confidence":5},{"trial_n":103,"min":85,"max":170,"target":"absent","response":"absent","rt":1410,"correct":true,"confidence":5},{"trial_n":104,"min":85,"max":170,"target":"present","response":"present","rt":1849,"correct":true,"confidence":5},{"trial_n":105,"min":87,"max":168,"target":"present","response":"present","rt":1165,"correct":true,"confidence":3},{"trial_n":106,"min":87,"max":168,"target":"absent","response":"absent","rt":1744,"correct":true,"confidence":1},{"trial_n":107,"min":89,"max":166,"target":"present","response":"present","rt":913,"correct":true,"confidence":5},{"trial_n":108,"min":89,"max":166,"target":"present","response":"present","rt":763,"correct":true,"confidence":5},{"trial_n":109,"min":91,"max":164,"target":"absent","response":"absent","rt":1469,"correct":true,"confidence":1},{"trial_n":110,"min":91,"max":164,"target":"absent","response":"absent","rt":1696,"correct":true,"confidence":1},{"trial_n":111,"min":92,"max":163,"target":"present","response":"present","rt":651,"correct":true,"confidence":2},{"trial_n":112,"min":92,"max":163,"target":"absent","response":"absent","rt":1294,"correct":true,"confidence":1},{"trial_n":113,"min":93,"max":162,"target":"absent","response":"absent","rt":982,"correct":true,"confidence":1},{"trial_n":114,"min":93,"max":162,"target":"present","response":"present","rt":299,"correct":true,"confidence":3},{"trial_n":115,"min":94,"max":161,"target":"absent","response":"present","rt":1263,"correct":false,"confidence":1},{"trial_n":116,"min":93,"max":162,"target":"present","response":"absent","rt":1810,"correct":false,"confidence":1},{"trial_n":117,"min":92,"max":163,"target":"present","response":"present","rt":286,"correct":true,"confidence":5},{"trial_n":118,"min":92,"max":163,"target":"absent","response":"absent","rt":1132,"correct":true,"confidence":1},{"trial_n":119,"min":93,"max":162,"target":"absent","response":"present","rt":423,"correct":false,"confidence":5},{"trial_n":120,"min":92,"max":163,"target":"present","response":"present","rt":1050,"correct":true,"confidence":4},{"trial_n":121,"min":92,"max":163,"target":"absent","response":"present","rt":585,"correct":false,"confidence":3},{"trial_n":122,"min":91,"max":164,"target":"present","response":"present","rt":336,"correct":true,"confidence":3},{"trial_n":123,"min":91,"max":164,"target":"present","response":"absent","rt":855,"correct":false,"confidence":4},{"trial_n":124,"min":90,"max":165,"target":"absent","response":"absent","rt":1056,"correct":true,"confidence":4},{"trial_n":125,"min":90,"max":165,"target":"absent","response":"absent","rt":1559,"correct":true,"confidence":1},{"trial_n":126,"min":91,"max":164,"target":"absent","response":"absent","rt":2492,"correct":true,"confidence":1},{"trial_n":127,"min":91,"max":164,"target":"present","response":"present","rt":324,"correct":true,"confidence":5},{"trial_n":128,"min":92,"max":163,"target":"present","response":"present","rt":907,"correct":true,"confidence":5},{"trial_n":129,"min":92,"max":163,"target":"absent","response":"absent","rt":1939,"correct":true,"confidence":1},{"trial_n":130,"min":93,"max":162,"target":"present","response":"present","rt":1099,"correct":true,"confidence":3},{"trial_n":131,"min":93,"max":162,"target":"present","response":"absent","rt":1266,"correct":false,"confidence":1},{"trial_n":132,"min":92,"max":163,"target":"present","response":"present","rt":353,"correct":true,"confidence":5},{"trial_n":133,"min":92,"max":163,"target":"absent","response":"absent","rt":1388,"correct":true,"confidence":1},{"trial_n":134,"min":93,"max":162,"target":"present","response":"present","rt":377,"correct":true,"confidence":1},{"trial_n":135,"min":93,"max":162,"target":"present","response":"present","rt":1764,"correct":true,"confidence":3},{"trial_n":136,"min":94,"max":161,"target":"present","response":"present","rt":2217,"correct":true,"confidence":2},{"trial_n":137,"min":94,"max":161,"target":"present","response":"absent","rt":2330,"correct":false,"confidence":1},{"trial_n":138,"min":93,"max":162,"target":"present","response":"present","rt":748,"correct":true,"confidence":4},{"trial_n":139,"min":93,"max":162,"target":"absent","response":"absent","rt":1307,"correct":true,"confidence":1},{"trial_n":140,"min":94,"max":161,"target":"present","response":"absent","rt":2589,"correct":false,"confidence":1}]