[{"trial_n":1,"span":8,"encoder":"91082981","distractor":"91082983","target":"present","response":"absent","rt":"4844","correct":false,"confidence":-1},{"trial_n":2,"span":6,"encoder":"615628","distractor":"615678","target":"present","response":"present","rt":"2410","correct":true,"confidence":-1},{"trial_n":3,"span":6,"encoder":"225443","distractor":"223443","target":"absent","response":"absent","rt":"2650","correct":true,"confidence":-1},{"trial_n":4,"span":8,"encoder":"56942760","distractor":"56942767","target":"absent","response":"absent","rt":"3519","correct":true,"confidence":-1},{"trial_n":5,"span":8,"encoder":"08660833","distractor":"09660833","target":"present","response":"present","rt":"8044","correct":true,"confidence":-1},{"trial_n":6,"span":10,"encoder":"2702281546","distractor":"2762281546","target":"absent","response":"absent","rt":"5203","correct":true,"confidence":-1},{"trial_n":7,"span":10,"encoder":"7897538086","distractor":"7997538086","target":"absent","response":"absent","rt":"3416","correct":true,"confidence":-1},{"trial_n":8,"span":12,"encoder":"363932608456","distractor":"373932608456","target":"present","response":"present","rt":"5267","correct":true,"confidence":-1},{"trial_n":9,"span":12,"encoder":"367349066107","distractor":"167349066107","target":"present","response":"absent","rt":"3101","correct":false,"confidence":-1},{"trial_n":10,"span":10,"encoder":"2617401490","distractor":"2617401492","target":"present","response":"absent","rt":"2893","correct":false,"confidence":-1},{"trial_n":11,"span":8,"encoder":"08801754","distractor":"08401754","target":"absent","response":"absent","rt":"3060","correct":true,"confidence":-1},{"trial_n":12,"span":8,"encoder":"39546174","distractor":"39566174","target":"present","response":"absent","rt":"3596","correct":false,"confidence":-1},{"trial_n":13,"span":7,"encoder":"0711066","distractor":"0711166","target":"present","response":"present","rt":"1994","correct":true,"confidence":-1},{"trial_n":14,"span":7,"encoder":"2128175","distractor":"2128145","target":"absent","response":"absent","rt":"3086","correct":true,"confidence":-1},{"trial_n":15,"span":8,"encoder":"42408422","distractor":"42408722","target":"absent","response":"absent","rt":"2204","correct":true,"confidence":-1},{"trial_n":16,"span":8,"encoder":"12358790","distractor":"12358290","target":"present","response":"present","rt":"3162","correct":true,"confidence":-1},{"trial_n":17,"span":9,"encoder":"502633081","distractor":"602633081","target":"present","response":"present","rt":"3758","correct":true,"confidence":-1},{"trial_n":18,"span":9,"encoder":"179767417","distractor":"179737417","target":"present","response":"absent","rt":"2284","correct":false,"confidence":-1},{"trial_n":19,"span":8,"encoder":"54074088","distractor":"24074088","target":"present","response":"present","rt":"2353","correct":true,"confidence":-1},{"trial_n":20,"span":8,"encoder":"24476086","distractor":"26476086","target":"present","response":"present","rt":"2417","correct":true,"confidence":-1},{"trial_n":21,"span":9,"encoder":"608926615","distractor":"608426615","target":"present","response":"present","rt":"3769","correct":true,"confidence":2},{"trial_n":22,"span":9,"encoder":"511481923","distractor":"541481923","target":"present","response":"absent","rt":"2308","correct":false,"confidence":4},{"trial_n":23,"span":8,"encoder":"21667693","distractor":"22667693","target":"absent","response":"present","rt":"5459","correct":false,"confidence":3},{"trial_n":24,"span":7,"encoder":"6007779","distractor":"9007779","target":"absent","response":"absent","rt":"1825","correct":true,"confidence":5},{"trial_n":25,"span":7,"encoder":"5175948","distractor":"5175908","target":"absent","response":"present","rt":"3266","correct":false,"confidence":4},{"trial_n":26,"span":6,"encoder":"205982","distractor":"215982","target":"absent","response":"absent","rt":"2394","correct":true,"confidence":4},{"trial_n":27,"span":6,"encoder":"175963","distractor":"175966","target":"absent","response":"absent","rt":"3047","correct":true,"confidence":5},{"trial_n":28,"span":7,"encoder":"0682166","distractor":"0642166","target":"absent","response":"absent","rt":"2618","correct":true,"confidence":5},{"trial_n":29,"span":7,"encoder":"1527176","distractor":"1527276","target":"absent","response":"present","rt":"2788","correct":false,"confidence":3},{"trial_n":30,"span":6,"encoder":"334035","distractor":"334735","target":"absent","response":"absent","rt":"2083","correct":true,"confidence":5},{"trial_n":31,"span":6,"encoder":"097795","distractor":"097395","target":"absent","response":"absent","rt":"2786","correct":true,"confidence":5},{"trial_n":32,"span":7,"encoder":"9358851","distractor":"9350851","target":"absent","response":"absent","rt":"2624","correct":true,"confidence":5},{"trial_n":33,"span":7,"encoder":"7775734","distractor":"9775734","target":"absent","response":"absent","rt":"1793","correct":true,"confidence":5},{"trial_n":34,"span":8,"encoder":"41166134","distractor":"81166134","target":"present","response":"present","rt":"2641","correct":true,"confidence":4},{"trial_n":35,"span":8,"encoder":"02858637","distractor":"02854637","target":"present","response":"present","rt":"3086","correct":true,"confidence":4},{"trial_n":36,"span":9,"encoder":"910540462","distractor":"919540462","target":"present","response":"absent","rt":"3227","correct":false,"confidence":2},{"trial_n":37,"span":8,"encoder":"07186685","distractor":"57186685","target":"absent","response":"absent","rt":"1750","correct":true,"confidence":5},{"trial_n":38,"span":8,"encoder":"88828660","distractor":"88828650","target":"absent","response":"absent","rt":"2625","correct":true,"confidence":5},{"trial_n":39,"span":9,"encoder":"202433893","distractor":"202413893","target":"present","response":"absent","rt":"5175","correct":false,"confidence":3},{"trial_n":40,"span":8,"encoder":"55299067","distractor":"55299037","target":"absent","response":"present","rt":"3005","correct":false,"confidence":4},{"trial_n":41,"span":7,"encoder":"1732925","distractor":"1762925","target":"absent","response":"absent","rt":"1763","correct":true,"confidence":5},{"trial_n":42,"span":7,"encoder":"3601544","distractor":"3601844","target":"absent","response":"absent","rt":"2196","correct":true,"confidence":5},{"trial_n":43,"span":8,"encoder":"71212956","distractor":"71217956","target":"absent","response":"present","rt":"4273","correct":false,"confidence":4},{"trial_n":44,"span":7,"encoder":"4572352","distractor":"4571352","target":"present","response":"present","rt":"5470","correct":true,"confidence":2},{"trial_n":45,"span":7,"encoder":"7862053","distractor":"7862003","target":"present","response":"present","rt":"3965","correct":true,"confidence":5},{"trial_n":46,"span":8,"encoder":"96218193","distractor":"90218193","target":"absent","response":"absent","rt":"3583","correct":true,"confidence":5},{"trial_n":47,"span":8,"encoder":"94828488","distractor":"94828481","target":"present","response":"present","rt":"2893","correct":true,"confidence":3},{"trial_n":48,"span":9,"encoder":"750931788","distractor":"250931788","target":"present","response":"absent","rt":"3961","correct":false,"confidence":2},{"trial_n":49,"span":8,"encoder":"04628529","distractor":"04628589","target":"present","response":"absent","rt":"2074","correct":false,"confidence":2},{"trial_n":50,"span":7,"encoder":"6338069","distractor":"6238069","target":"absent","response":"absent","rt":"2265","correct":true,"confidence":5},{"trial_n":51,"span":7,"encoder":"6424566","distractor":"6484566","target":"present","response":"present","rt":"2510","correct":true,"confidence":5},{"trial_n":52,"span":8,"encoder":"43307958","distractor":"48307958","target":"present","response":"absent","rt":"6335","correct":false,"confidence":4},{"trial_n":53,"span":7,"encoder":"3414369","distractor":"3414364","target":"present","response":"present","rt":"4483","correct":true,"confidence":5},{"trial_n":54,"span":7,"encoder":"6397998","distractor":"6397198","target":"absent","response":"absent","rt":"3966","correct":true,"confidence":5},{"trial_n":55,"span":8,"encoder":"05164350","distractor":"05169350","target":"present","response":"absent","rt":"3186","correct":false,"confidence":3},{"trial_n":56,"span":7,"encoder":"9000765","distractor":"9300765","target":"present","response":"present","rt":"2288","correct":true,"confidence":5},{"trial_n":57,"span":7,"encoder":"7714177","distractor":"7717177","target":"absent","response":"absent","rt":"1766","correct":true,"confidence":5},{"trial_n":58,"span":8,"encoder":"36110276","distractor":"36111276","target":"absent","response":"absent","rt":"2714","correct":true,"confidence":5},{"trial_n":59,"span":8,"encoder":"42803334","distractor":"42803344","target":"present","response":"present","rt":"3115","correct":true,"confidence":5},{"trial_n":60,"span":9,"encoder":"518126178","distractor":"514126178","target":"absent","response":"present","rt":"5179","correct":false,"confidence":3},{"trial_n":61,"span":8,"encoder":"18703461","distractor":"18003461","target":"absent","response":"absent","rt":"2024","correct":true,"confidence":5},{"trial_n":62,"span":8,"encoder":"89507364","distractor":"19507364","target":"present","response":"absent","rt":"3325","correct":false,"confidence":5},{"trial_n":63,"span":7,"encoder":"0510958","distractor":"0010958","target":"absent","response":"absent","rt":"4259","correct":true,"confidence":5},{"trial_n":64,"span":7,"encoder":"4615966","distractor":"4685966","target":"present","response":"present","rt":"4250","correct":true,"confidence":4},{"trial_n":65,"span":8,"encoder":"54593872","distractor":"54593072","target":"present","response":"present","rt":"3019","correct":true,"confidence":5},{"trial_n":66,"span":8,"encoder":"78814165","distractor":"78813165","target":"absent","response":"absent","rt":"2220","correct":true,"confidence":5},{"trial_n":67,"span":9,"encoder":"425061433","distractor":"425061633","target":"present","response":"absent","rt":"5812","correct":false,"confidence":4},{"trial_n":68,"span":8,"encoder":"45205235","distractor":"45245235","target":"present","response":"absent","rt":"1554","correct":false,"confidence":5},{"trial_n":69,"span":7,"encoder":"7572034","distractor":"7972034","target":"present","response":"present","rt":"2641","correct":true,"confidence":5},{"trial_n":70,"span":7,"encoder":"5413697","distractor":"5413677","target":"absent","response":"absent","rt":"2282","correct":true,"confidence":5},{"trial_n":71,"span":8,"encoder":"91471167","distractor":"91471166","target":"present","response":"present","rt":"5897","correct":true,"confidence":-1},{"trial_n":72,"span":8,"encoder":"59536643","distractor":"59566643","target":"present","response":"absent","rt":"5441","correct":false,"confidence":-1},{"trial_n":73,"span":7,"encoder":"7290785","distractor":"7790785","target":"absent","response":"present","rt":"5074","correct":false,"confidence":-1},{"trial_n":74,"span":6,"encoder":"681947","distractor":"681946","target":"absent","response":"absent","rt":"3231","correct":true,"confidence":-1},{"trial_n":75,"span":6,"encoder":"714376","distractor":"714976","target":"present","response":"present","rt":"2782","correct":true,"confidence":-1},{"trial_n":76,"span":7,"encoder":"8965129","distractor":"8965127","target":"present","response":"present","rt":"3245","correct":true,"confidence":-1},{"trial_n":77,"span":7,"encoder":"0798716","distractor":"0798715","target":"absent","response":"absent","rt":"2589","correct":true,"confidence":-1},{"trial_n":78,"span":8,"encoder":"47913960","distractor":"47973960","target":"absent","response":"absent","rt":"4386","correct":true,"confidence":-1},{"trial_n":79,"span":8,"encoder":"04376642","distractor":"03376642","target":"present","response":"absent","rt":"4651","correct":false,"confidence":-1},{"trial_n":80,"span":7,"encoder":"2636923","distractor":"4636923","target":"present","response":"present","rt":"4685","correct":true,"confidence":-1},{"trial_n":81,"span":7,"encoder":"9201005","distractor":"9204005","target":"present","response":"present","rt":"3387","correct":true,"confidence":-1},{"trial_n":82,"span":8,"encoder":"11386896","distractor":"11376896","target":"absent","response":"present","rt":"4655","correct":false,"confidence":-1},{"trial_n":83,"span":7,"encoder":"3040275","distractor":"3048275","target":"absent","response":"absent","rt":"2833","correct":true,"confidence":-1},{"trial_n":84,"span":7,"encoder":"2907297","distractor":"2907299","target":"absent","response":"absent","rt":"4991","correct":true,"confidence":-1},{"trial_n":85,"span":8,"encoder":"74422801","distractor":"74427801","target":"absent","response":"present","rt":"9016","correct":false,"confidence":-1},{"trial_n":86,"span":7,"encoder":"6736324","distractor":"6739324","target":"present","response":"present","rt":"3282","correct":true,"confidence":-1},{"trial_n":87,"span":7,"encoder":"2740004","distractor":"2740054","target":"absent","response":"absent","rt":"2761","correct":true,"confidence":-1},{"trial_n":88,"span":8,"encoder":"69973700","distractor":"99973700","target":"present","response":"present","rt":"3463","correct":true,"confidence":-1},{"trial_n":89,"span":8,"encoder":"66307322","distractor":"06307322","target":"present","response":"present","rt":"3323","correct":true,"confidence":-1},{"trial_n":90,"span":9,"encoder":"853890096","distractor":"853880096","target":"absent","response":"present","rt":"2322","correct":false,"confidence":-1},{"trial_n":91,"span":8,"encoder":"72226256","distractor":"72221256","target":"present","response":"present","rt":"3078","correct":true,"confidence":5},{"trial_n":92,"span":8,"encoder":"26995277","distractor":"26995270","target":"present","response":"present","rt":"4272","correct":true,"confidence":4},{"trial_n":93,"span":9,"encoder":"151341639","distractor":"151341634","target":"absent","response":"absent","rt":"6001","correct":true,"confidence":5},{"trial_n":94,"span":9,"encoder":"883803850","distractor":"083803850","target":"present","response":"present","rt":"5772","correct":true,"confidence":4},{"trial_n":95,"span":10,"encoder":"2478696961","distractor":"2478696361","target":"present","response":"present","rt":"4736","correct":true,"confidence":2},{"trial_n":96,"span":10,"encoder":"3070496684","distractor":"3072496684","target":"absent","response":"absent","rt":"3091","correct":true,"confidence":5},{"trial_n":97,"span":11,"encoder":"93132168356","distractor":"93132168256","target":"absent","response":"absent","rt":"8588","correct":true,"confidence":2},{"trial_n":98,"span":11,"encoder":"39211611602","distractor":"69211611602","target":"present","response":"present","rt":"5023","correct":true,"confidence":2},{"trial_n":99,"span":12,"encoder":"592257732225","distractor":"592257732525","target":"present","response":"present","rt":"5951","correct":true,"confidence":5},{"trial_n":100,"span":12,"encoder":"534404316796","distractor":"234404316796","target":"present","response":"present","rt":"2412","correct":true,"confidence":2},{"trial_n":101,"span":13,"encoder":"2131036320111","distractor":"2131036325111","target":"absent","response":"absent","rt":"8001","correct":true,"confidence":3},{"trial_n":102,"span":13,"encoder":"8799843389996","distractor":"8799843389991","target":"absent","response":"absent","rt":"7069","correct":true,"confidence":1},{"trial_n":103,"span":14,"encoder":"81978501664091","distractor":"81978501666091","target":"absent","response":"present","rt":"19955","correct":false,"confidence":3},{"trial_n":104,"span":13,"encoder":"8327640968182","distractor":"8327640968185","target":"absent","response":"absent","rt":"2664","correct":true,"confidence":5},{"trial_n":105,"span":13,"encoder":"2319897058027","distractor":"2319897058067","target":"present","response":"present","rt":"5645","correct":true,"confidence":3},{"trial_n":106,"span":14,"encoder":"27131968913413","distractor":"27131968914413","target":"absent","response":"absent","rt":"3099","correct":true,"confidence":5},{"trial_n":107,"span":14,"encoder":"29293395889990","distractor":"21293395889990","target":"present","response":"present","rt":"9767","correct":true,"confidence":4},{"trial_n":108,"span":15,"encoder":"961311818577230","distractor":"961311818577220","target":"present","response":"present","rt":"3576","correct":true,"confidence":5},{"trial_n":109,"span":15,"encoder":"745073996800193","distractor":"745075996800193","target":"absent","response":"absent","rt":"5120","correct":true,"confidence":4},{"trial_n":110,"span":16,"encoder":"0540810672029061","distractor":"0540810672029091","target":"present","response":"absent","rt":"15277","correct":false,"confidence":3},{"trial_n":111,"span":15,"encoder":"341766871971645","distractor":"341966871971645","target":"absent","response":"absent","rt":"7604","correct":true,"confidence":1},{"trial_n":112,"span":15,"encoder":"959115869609730","distractor":"959115869609230","target":"present","response":"present","rt":"3715","correct":true,"confidence":5},{"trial_n":113,"span":16,"encoder":"1684977117276863","distractor":"1694977117276863","target":"absent","response":"present","rt":"11422","correct":false,"confidence":3},{"trial_n":114,"span":15,"encoder":"775885821078649","distractor":"775885621078649","target":"present","response":"present","rt":"9067","correct":true,"confidence":5},{"trial_n":115,"span":15,"encoder":"384193584755964","distractor":"384193584755961","target":"present","response":"present","rt":"3658","correct":true,"confidence":4},{"trial_n":116,"span":16,"encoder":"5380887947587774","distractor":"5380887947587775","target":"absent","response":"absent","rt":"3274","correct":true,"confidence":5},{"trial_n":117,"span":16,"encoder":"7913367710344681","distractor":"7213367710344681","target":"absent","response":"absent","rt":"5307","correct":true,"confidence":3},{"trial_n":118,"span":17,"encoder":"50171454460460454","distractor":"50171454460160454","target":"present","response":"absent","rt":"6765","correct":false,"confidence":1},{"trial_n":119,"span":16,"encoder":"8407330048093656","distractor":"8407330548093656","target":"absent","response":"absent","rt":"3841","correct":true,"confidence":4},{"trial_n":120,"span":16,"encoder":"0257379494793591","distractor":"0257379494593591","target":"absent","response":"absent","rt":"5762","correct":true,"confidence":5},{"trial_n":121,"span":17,"encoder":"89654433797016308","distractor":"89654433747016308","target":"absent","response":"absent","rt":"10022","correct":true,"confidence":1},{"trial_n":122,"span":17,"encoder":"93280249456967668","distractor":"93280349456967668","target":"present","response":"present","rt":"8767","correct":true,"confidence":2},{"trial_n":123,"span":18,"encoder":"042906371049653906","distractor":"042906371059653906","target":"present","response":"absent","rt":"4259","correct":false,"confidence":1},{"trial_n":124,"span":17,"encoder":"23943491083722645","distractor":"23946491083722645","target":"present","response":"present","rt":"16492","correct":true,"confidence":2},{"trial_n":125,"span":17,"encoder":"07397445940890751","distractor":"07397445950890751","target":"absent","response":"absent","rt":"7127","correct":true,"confidence":1},{"trial_n":126,"span":18,"encoder":"996058490644282720","distractor":"996058440644282720","target":"absent","response":"present","rt":"6551","correct":false,"confidence":2},{"trial_n":127,"span":17,"encoder":"45006240259966273","distractor":"45006240259666273","target":"absent","response":"present","rt":"7189","correct":false,"confidence":1},{"trial_n":128,"span":16,"encoder":"8235017984331114","distractor":"8235917984331114","target":"present","response":"present","rt":"28163","correct":true,"confidence":1},{"trial_n":129,"span":16,"encoder":"9528385029364534","distractor":"9528385029354534","target":"present","response":"present","rt":"6672","correct":true,"confidence":1},{"trial_n":130,"span":17,"encoder":"23932323442002983","distractor":"23992323442002983","target":"present","response":"present","rt":"9476","correct":true,"confidence":5},{"trial_n":131,"span":17,"encoder":"02318211188781461","distractor":"02418211188781461","target":"absent","response":"absent","rt":"3793","correct":true,"confidence":1},{"trial_n":132,"span":18,"encoder":"775071815534659120","distractor":"735071815534659120","target":"absent","response":"absent","rt":"3162","correct":true,"confidence":5},{"trial_n":133,"span":18,"encoder":"498928190530531396","distractor":"498928190530539396","target":"present","response":"present","rt":"2950","correct":true,"confidence":1},{"trial_n":134,"span":19,"encoder":"1159452055765931188","distractor":"1199452055765931188","target":"absent","response":"absent","rt":"2960","correct":true,"confidence":3},{"trial_n":135,"span":19,"encoder":"3574453663799554754","distractor":"3574450663799554754","target":"present","response":"present","rt":"7862","correct":true,"confidence":2},{"trial_n":136,"span":20,"encoder":"63001390316509621061","distractor":"63001394316509621061","target":"absent","response":"absent","rt":"4283","correct":true,"confidence":1},{"trial_n":137,"span":20,"encoder":"29414541621248487409","distractor":"29414541621228487409","target":"present","response":"absent","rt":"6886","correct":false,"confidence":1},{"trial_n":138,"span":19,"encoder":"1912987371398356141","distractor":"1912687371398356141","target":"absent","response":"absent","rt":"8190","correct":true,"confidence":4},{"trial_n":139,"span":19,"encoder":"4067913474737112033","distractor":"4017913474737112033","target":"present","response":"present","rt":"7137","correct":true,"confidence":4},{"trial_n":140,"span":20,"encoder":"08501563356799558608","distractor":"08561563356799558608","target":"present","response":"absent","rt":"7764","correct":false,"confidence":1}]