[{"trial_n":1,"n_dots":4.25,"target":"right","response":"right","rt":4224.0999999046,"correct":true,"confidence":-1},{"trial_n":2,"n_dots":4.25,"target":"right","response":"right","rt":248.90000009537,"correct":true,"confidence":-1},{"trial_n":3,"n_dots":3.85,"target":"right","response":"left","rt":5889.7999999523,"correct":false,"confidence":-1},{"trial_n":4,"n_dots":4.25,"target":"right","response":"right","rt":229.09999990463,"correct":true,"confidence":-1},{"trial_n":5,"n_dots":4.25,"target":"left","response":"right","rt":119.29999995232,"correct":false,"confidence":-1},{"trial_n":6,"n_dots":4.65,"target":"left","response":"left","rt":264.40000009537,"correct":true,"confidence":-1},{"trial_n":7,"n_dots":4.65,"target":"right","response":"right","rt":1147.7000000477,"correct":true,"confidence":-1},{"trial_n":8,"n_dots":4.45,"target":"left","response":"left","rt":258.90000009537,"correct":true,"confidence":-1},{"trial_n":9,"n_dots":4.45,"target":"left","response":"left","rt":73.899999856949,"correct":true,"confidence":-1},{"trial_n":10,"n_dots":4.25,"target":"right","response":"right","rt":1110.6999998093,"correct":true,"confidence":-1},{"trial_n":11,"n_dots":4.25,"target":"left","response":"right","rt":609.19999980927,"correct":false,"confidence":-1},{"trial_n":12,"n_dots":4.45,"target":"left","response":"left","rt":590.90000009537,"correct":true,"confidence":-1},{"trial_n":13,"n_dots":4.45,"target":"right","response":"right","rt":455.90000009537,"correct":true,"confidence":-1},{"trial_n":14,"n_dots":4.35,"target":"left","response":"left","rt":34.200000047684,"correct":true,"confidence":-1},{"trial_n":15,"n_dots":4.35,"target":"left","response":"left","rt":195,"correct":true,"confidence":-1},{"trial_n":16,"n_dots":4.25,"target":"left","response":"left","rt":87.399999856949,"correct":true,"confidence":-1},{"trial_n":17,"n_dots":4.25,"target":"left","response":"left","rt":18.900000095367,"correct":true,"confidence":-1},{"trial_n":18,"n_dots":4.15,"target":"right","response":"right","rt":188.5,"correct":true,"confidence":-1},{"trial_n":19,"n_dots":4.15,"target":"left","response":"left","rt":661.10000014305,"correct":true,"confidence":-1},{"trial_n":20,"n_dots":4.05,"target":"left","response":"left","rt":121.29999995232,"correct":true,"confidence":-1},{"trial_n":21,"n_dots":4.05,"target":"right","response":"left","rt":98.700000047684,"correct":false,"confidence":3},{"trial_n":22,"n_dots":4.15,"target":"right","response":"left","rt":2427.8000001907,"correct":false,"confidence":3},{"trial_n":23,"n_dots":4.25,"target":"left","response":"left","rt":344.39999985695,"correct":true,"confidence":4},{"trial_n":24,"n_dots":4.25,"target":"left","response":"left","rt":122.70000004768,"correct":true,"confidence":4},{"trial_n":25,"n_dots":4.15,"target":"left","response":"left","rt":275.10000014305,"correct":true,"confidence":4},{"trial_n":26,"n_dots":4.15,"target":"left","response":"left","rt":350.60000014305,"correct":true,"confidence":4},{"trial_n":27,"n_dots":4.05,"target":"right","response":"right","rt":115.90000009537,"correct":true,"confidence":4},{"trial_n":28,"n_dots":4.05,"target":"left","response":"left","rt":200.70000004768,"correct":true,"confidence":4},{"trial_n":29,"n_dots":3.95,"target":"left","response":"left","rt":272.5,"correct":true,"confidence":4},{"trial_n":30,"n_dots":3.95,"target":"right","response":"right","rt":964.20000004768,"correct":true,"confidence":5},{"trial_n":31,"n_dots":3.85,"target":"left","response":"left","rt":676.90000009537,"correct":true,"confidence":5},{"trial_n":32,"n_dots":3.85,"target":"left","response":"left","rt":71,"correct":true,"confidence":5},{"trial_n":33,"n_dots":3.75,"target":"left","response":"left","rt":210.59999990463,"correct":true,"confidence":1},{"trial_n":34,"n_dots":3.75,"target":"right","response":"left","rt":1758.0999999046,"correct":false,"confidence":5},{"trial_n":35,"n_dots":3.85,"target":"right","response":"right","rt":239.79999995232,"correct":true,"confidence":3},{"trial_n":36,"n_dots":3.85,"target":"right","response":"left","rt":63,"correct":false,"confidence":3},{"trial_n":37,"n_dots":3.95,"target":"right","response":"right","rt":918.19999980927,"correct":true,"confidence":2},{"trial_n":38,"n_dots":3.95,"target":"left","response":"left","rt":206.70000004768,"correct":true,"confidence":5},{"trial_n":39,"n_dots":3.85,"target":"right","response":"right","rt":197.69999980927,"correct":true,"confidence":5},{"trial_n":40,"n_dots":3.85,"target":"left","response":"left","rt":1013.2000000477,"correct":true,"confidence":2},{"trial_n":41,"n_dots":3.75,"target":"left","response":"left","rt":877.79999995232,"correct":true,"confidence":4},{"trial_n":42,"n_dots":3.75,"target":"left","response":"left","rt":130.59999990463,"correct":true,"confidence":4},{"trial_n":43,"n_dots":3.65,"target":"right","response":"right","rt":22,"correct":true,"confidence":5},{"trial_n":44,"n_dots":3.65,"target":"right","response":"right","rt":483.59999990463,"correct":true,"confidence":5},{"trial_n":45,"n_dots":3.55,"target":"right","response":"right","rt":65.899999856949,"correct":true,"confidence":4},{"trial_n":46,"n_dots":3.55,"target":"right","response":"right","rt":261.09999990463,"correct":true,"confidence":3},{"trial_n":47,"n_dots":3.45,"target":"right","response":"right","rt":374.5,"correct":true,"confidence":4},{"trial_n":48,"n_dots":3.45,"target":"left","response":"left","rt":1374.1000001431,"correct":true,"confidence":2},{"trial_n":49,"n_dots":3.35,"target":"right","response":"right","rt":529.20000004768,"correct":true,"confidence":4},{"trial_n":50,"n_dots":3.35,"target":"right","response":"left","rt":2414.2999999523,"correct":false,"confidence":2},{"trial_n":51,"n_dots":3.45,"target":"right","response":"right","rt":33,"correct":true,"confidence":4},{"trial_n":52,"n_dots":3.45,"target":"left","response":"left","rt":1621.0999999046,"correct":true,"confidence":2},{"trial_n":53,"n_dots":3.35,"target":"left","response":"right","rt":1613.6000001431,"correct":false,"confidence":2},{"trial_n":54,"n_dots":3.45,"target":"right","response":"right","rt":175.39999985695,"correct":true,"confidence":5},{"trial_n":55,"n_dots":3.45,"target":"right","response":"right","rt":722.90000009537,"correct":true,"confidence":5},{"trial_n":56,"n_dots":3.35,"target":"right","response":"left","rt":1203.2999999523,"correct":false,"confidence":2},{"trial_n":57,"n_dots":3.45,"target":"left","response":"right","rt":1153.0999999046,"correct":false,"confidence":3},{"trial_n":58,"n_dots":3.55,"target":"left","response":"right","rt":981.5,"correct":false,"confidence":2},{"trial_n":59,"n_dots":3.65,"target":"left","response":"right","rt":1460.5999999046,"correct":false,"confidence":4},{"trial_n":60,"n_dots":3.75,"target":"left","response":"left","rt":657.90000009537,"correct":true,"confidence":2},{"trial_n":61,"n_dots":3.75,"target":"left","response":"left","rt":1278.5,"correct":true,"confidence":4},{"trial_n":62,"n_dots":3.65,"target":"left","response":"left","rt":361.10000014305,"correct":true,"confidence":4},{"trial_n":63,"n_dots":3.65,"target":"right","response":"right","rt":488.20000004768,"correct":true,"confidence":4},{"trial_n":64,"n_dots":3.55,"target":"right","response":"right","rt":144,"correct":true,"confidence":4},{"trial_n":65,"n_dots":3.55,"target":"left","response":"left","rt":554.09999990463,"correct":true,"confidence":3},{"trial_n":66,"n_dots":3.45,"target":"left","response":"left","rt":709,"correct":true,"confidence":3},{"trial_n":67,"n_dots":3.45,"target":"right","response":"right","rt":923,"correct":true,"confidence":4},{"trial_n":68,"n_dots":3.35,"target":"left","response":"left","rt":604.40000009537,"correct":true,"confidence":4},{"trial_n":69,"n_dots":3.35,"target":"right","response":"right","rt":807.09999990463,"correct":true,"confidence":3},{"trial_n":70,"n_dots":3.25,"target":"left","response":"left","rt":269.40000009537,"correct":true,"confidence":4},{"trial_n":71,"n_dots":3.25,"target":"left","response":"left","rt":1269.7999999523,"correct":true,"confidence":2},{"trial_n":72,"n_dots":3.15,"target":"left","response":"left","rt":860,"correct":true,"confidence":2},{"trial_n":73,"n_dots":3.15,"target":"left","response":"left","rt":883.39999985695,"correct":true,"confidence":2},{"trial_n":74,"n_dots":3.05,"target":"left","response":"right","rt":1018,"correct":false,"confidence":4},{"trial_n":75,"n_dots":3.15,"target":"right","response":"right","rt":891.80000019073,"correct":true,"confidence":2},{"trial_n":76,"n_dots":3.15,"target":"right","response":"right","rt":579.20000004768,"correct":true,"confidence":5},{"trial_n":77,"n_dots":3.05,"target":"right","response":"right","rt":738.29999995232,"correct":true,"confidence":5},{"trial_n":78,"n_dots":3.05,"target":"right","response":"right","rt":2292.6999998093,"correct":true,"confidence":4},{"trial_n":79,"n_dots":2.95,"target":"right","response":"left","rt":955.09999990463,"correct":false,"confidence":4},{"trial_n":80,"n_dots":3.05,"target":"right","response":"left","rt":1134.1000001431,"correct":false,"confidence":4},{"trial_n":81,"n_dots":3.15,"target":"left","response":"left","rt":367.29999995232,"correct":true,"confidence":4},{"trial_n":82,"n_dots":3.15,"target":"left","response":"left","rt":726.09999990463,"correct":true,"confidence":4},{"trial_n":83,"n_dots":3.05,"target":"right","response":"right","rt":673.20000004768,"correct":true,"confidence":3},{"trial_n":84,"n_dots":3.05,"target":"left","response":"right","rt":871.19999980927,"correct":false,"confidence":2},{"trial_n":85,"n_dots":3.15,"target":"left","response":"left","rt":998.29999995232,"correct":true,"confidence":3},{"trial_n":86,"n_dots":3.15,"target":"right","response":"right","rt":507,"correct":true,"confidence":3},{"trial_n":87,"n_dots":3.05,"target":"right","response":"right","rt":646.79999995232,"correct":true,"confidence":4},{"trial_n":88,"n_dots":3.05,"target":"right","response":"right","rt":717.90000009537,"correct":true,"confidence":4},{"trial_n":89,"n_dots":2.95,"target":"right","response":"right","rt":1014.4000000954,"correct":true,"confidence":2},{"trial_n":90,"n_dots":2.95,"target":"left","response":"right","rt":400.89999985695,"correct":false,"confidence":4},{"trial_n":91,"n_dots":3.05,"target":"right","response":"right","rt":791.60000014305,"correct":true,"confidence":3},{"trial_n":92,"n_dots":3.05,"target":"left","response":"right","rt":145.5,"correct":false,"confidence":2},{"trial_n":93,"n_dots":3.15,"target":"left","response":"left","rt":725.79999995232,"correct":true,"confidence":4},{"trial_n":94,"n_dots":3.15,"target":"right","response":"right","rt":835.5,"correct":true,"confidence":4},{"trial_n":95,"n_dots":3.05,"target":"left","response":"left","rt":495.20000004768,"correct":true,"confidence":5},{"trial_n":96,"n_dots":3.05,"target":"right","response":"right","rt":1426.2999999523,"correct":true,"confidence":3},{"trial_n":97,"n_dots":2.95,"target":"left","response":"left","rt":1308,"correct":true,"confidence":4},{"trial_n":98,"n_dots":2.95,"target":"left","response":"left","rt":1341.9000000954,"correct":true,"confidence":5},{"trial_n":99,"n_dots":2.85,"target":"left","response":"left","rt":682.29999995232,"correct":true,"confidence":5},{"trial_n":100,"n_dots":2.85,"target":"left","response":"left","rt":701.09999990463,"correct":true,"confidence":5},{"trial_n":101,"n_dots":2.75,"target":"left","response":"left","rt":559.40000009537,"correct":true,"confidence":5},{"trial_n":102,"n_dots":2.75,"target":"right","response":"right","rt":1016.3000001907,"correct":true,"confidence":4},{"trial_n":103,"n_dots":2.65,"target":"right","response":"right","rt":313.70000004768,"correct":true,"confidence":4},{"trial_n":104,"n_dots":2.65,"target":"right","response":"left","rt":961.5,"correct":false,"confidence":4},{"trial_n":105,"n_dots":2.75,"target":"right","response":"right","rt":851.40000009537,"correct":true,"confidence":4},{"trial_n":106,"n_dots":2.75,"target":"right","response":"left","rt":840.70000004768,"correct":false,"confidence":3},{"trial_n":107,"n_dots":2.85,"target":"right","response":"right","rt":899.79999995232,"correct":true,"confidence":4},{"trial_n":108,"n_dots":2.85,"target":"left","response":"right","rt":611.5,"correct":false,"confidence":3},{"trial_n":109,"n_dots":2.95,"target":"right","response":"left","rt":612.5,"correct":false,"confidence":2},{"trial_n":110,"n_dots":3.05,"target":"right","response":"right","rt":593.89999985695,"correct":true,"confidence":4},{"trial_n":111,"n_dots":3.05,"target":"left","response":"left","rt":217,"correct":true,"confidence":5},{"trial_n":112,"n_dots":2.95,"target":"right","response":"left","rt":750.79999995232,"correct":false,"confidence":4},{"trial_n":113,"n_dots":3.05,"target":"right","response":"right","rt":767.29999995232,"correct":true,"confidence":5},{"trial_n":114,"n_dots":3.05,"target":"left","response":"left","rt":795.29999995232,"correct":true,"confidence":3},{"trial_n":115,"n_dots":2.95,"target":"left","response":"left","rt":860.09999990463,"correct":true,"confidence":4},{"trial_n":116,"n_dots":2.95,"target":"right","response":"right","rt":432.5,"correct":true,"confidence":3},{"trial_n":117,"n_dots":2.85,"target":"left","response":"left","rt":962.69999980927,"correct":true,"confidence":2},{"trial_n":118,"n_dots":2.85,"target":"right","response":"left","rt":1042.2000000477,"correct":false,"confidence":4},{"trial_n":119,"n_dots":2.95,"target":"right","response":"right","rt":850.80000019073,"correct":true,"confidence":4},{"trial_n":120,"n_dots":2.95,"target":"right","response":"left","rt":798.60000014305,"correct":false,"confidence":3}]