[{"trial_n":1,"span":8,"encoder":"68473423","distractor":"68473923","target":"present","response":"present","rt":"3875.2999999998","correct":true,"confidence":-1},{"trial_n":2,"span":8,"encoder":"03076202","distractor":"03079202","target":"present","response":"present","rt":"2184.8999999999","correct":true,"confidence":-1},{"trial_n":3,"span":10,"encoder":"8767577316","distractor":"8767577326","target":"absent","response":"absent","rt":"2470.7000000002","correct":true,"confidence":-1},{"trial_n":4,"span":10,"encoder":"6252668783","distractor":"6252668789","target":"absent","response":"absent","rt":"1236.2999999998","correct":true,"confidence":-1},{"trial_n":5,"span":12,"encoder":"447715195387","distractor":"447715195787","target":"present","response":"present","rt":"3881.2999999998","correct":true,"confidence":-1},{"trial_n":6,"span":12,"encoder":"583541238737","distractor":"583541238637","target":"present","response":"absent","rt":"1194.0999999996","correct":false,"confidence":-1},{"trial_n":7,"span":10,"encoder":"3914754849","distractor":"3914754844","target":"present","response":"present","rt":"1635.7999999998","correct":true,"confidence":-1},{"trial_n":8,"span":10,"encoder":"3730009075","distractor":"3730069075","target":"absent","response":"present","rt":"17072.3","correct":false,"confidence":-1},{"trial_n":9,"span":8,"encoder":"46371843","distractor":"42371843","target":"present","response":"present","rt":"2263.6999999997","correct":true,"confidence":-1},{"trial_n":10,"span":8,"encoder":"09243182","distractor":"69243182","target":"absent","response":"absent","rt":"1767.8000000003","correct":true,"confidence":-1},{"trial_n":11,"span":10,"encoder":"1364946523","distractor":"2364946523","target":"absent","response":"present","rt":"1451.2000000002","correct":false,"confidence":-1},{"trial_n":12,"span":9,"encoder":"019261853","distractor":"519261853","target":"present","response":"absent","rt":"441.39999999991","correct":false,"confidence":-1},{"trial_n":13,"span":8,"encoder":"19305441","distractor":"19505441","target":"present","response":"present","rt":"487.60000000009","correct":true,"confidence":-1},{"trial_n":14,"span":8,"encoder":"49585059","distractor":"49785059","target":"present","response":"present","rt":"1212.8999999999","correct":true,"confidence":-1},{"trial_n":15,"span":9,"encoder":"996047951","distractor":"996047957","target":"absent","response":"absent","rt":"1649.8999999999","correct":true,"confidence":-1},{"trial_n":16,"span":9,"encoder":"856708541","distractor":"356708541","target":"present","response":"present","rt":"3364.6000000001","correct":true,"confidence":-1},{"trial_n":17,"span":10,"encoder":"9049191419","distractor":"9049391419","target":"present","response":"present","rt":"1673.2999999998","correct":true,"confidence":-1},{"trial_n":18,"span":10,"encoder":"8024353494","distractor":"8034353494","target":"absent","response":"present","rt":"1289.5","correct":false,"confidence":-1},{"trial_n":19,"span":9,"encoder":"641941731","distractor":"641941331","target":"absent","response":"absent","rt":"2274.7000000002","correct":true,"confidence":-1},{"trial_n":20,"span":9,"encoder":"481615246","distractor":"481615646","target":"present","response":"absent","rt":"9123.0999999996","correct":false,"confidence":-1},{"trial_n":21,"span":8,"encoder":"25696151","distractor":"22696151","target":"absent","response":"present","rt":"1327","correct":false,"confidence":5},{"trial_n":22,"span":7,"encoder":"5595688","distractor":"5195688","target":"absent","response":"present","rt":"1298.0999999996","correct":false,"confidence":5},{"trial_n":23,"span":6,"encoder":"809761","distractor":"899761","target":"absent","response":"absent","rt":"1342.0999999996","correct":true,"confidence":5},{"trial_n":24,"span":6,"encoder":"594248","distractor":"794248","target":"present","response":"present","rt":"1024.7999999998","correct":true,"confidence":5},{"trial_n":25,"span":7,"encoder":"1806328","distractor":"1806028","target":"absent","response":"absent","rt":"1686","correct":true,"confidence":5},{"trial_n":26,"span":7,"encoder":"3158689","distractor":"5158689","target":"present","response":"absent","rt":"1368.7000000002","correct":false,"confidence":5},{"trial_n":27,"span":6,"encoder":"268475","distractor":"768475","target":"present","response":"absent","rt":"1234.4000000004","correct":false,"confidence":5},{"trial_n":28,"span":5,"encoder":"27131","distractor":"27133","target":"absent","response":"present","rt":"1239.2999999998","correct":false,"confidence":5},{"trial_n":29,"span":4,"encoder":"7861","distractor":"7261","target":"present","response":"present","rt":"1488.2000000002","correct":true,"confidence":5},{"trial_n":30,"span":4,"encoder":"8522","distractor":"1522","target":"absent","response":"absent","rt":"5107.0999999996","correct":true,"confidence":5},{"trial_n":31,"span":5,"encoder":"64343","distractor":"64303","target":"present","response":"absent","rt":"2516.7000000002","correct":false,"confidence":1},{"trial_n":32,"span":4,"encoder":"2649","distractor":"2644","target":"absent","response":"absent","rt":"1212.5","correct":true,"confidence":4},{"trial_n":33,"span":4,"encoder":"3615","distractor":"7615","target":"absent","response":"absent","rt":"820.40000000037","correct":true,"confidence":5},{"trial_n":34,"span":5,"encoder":"96254","distractor":"91254","target":"present","response":"present","rt":"1448.5","correct":true,"confidence":3},{"trial_n":35,"span":5,"encoder":"47854","distractor":"47454","target":"present","response":"absent","rt":"12002.9","correct":false,"confidence":1},{"trial_n":36,"span":4,"encoder":"5104","distractor":"5164","target":"absent","response":"present","rt":"4879.2000000002","correct":false,"confidence":1},{"trial_n":37,"span":3,"encoder":"543","distractor":"533","target":"present","response":"present","rt":"1608.2000000002","correct":true,"confidence":5},{"trial_n":38,"span":3,"encoder":"742","distractor":"792","target":"absent","response":"absent","rt":"1072.9000000004","correct":true,"confidence":5},{"trial_n":39,"span":4,"encoder":"0996","distractor":"1996","target":"present","response":"absent","rt":"753.29999999981","correct":false,"confidence":1},{"trial_n":40,"span":3,"encoder":"923","distractor":"623","target":"absent","response":"absent","rt":"1099.5","correct":true,"confidence":5},{"trial_n":41,"span":3,"encoder":"703","distractor":"103","target":"present","response":"absent","rt":"5649.5","correct":false,"confidence":1},{"trial_n":42,"span":2,"encoder":"77","distractor":"37","target":"present","response":"present","rt":"1124","correct":true,"confidence":5},{"trial_n":43,"span":2,"encoder":"19","distractor":"09","target":"absent","response":"absent","rt":"972.70000000019","correct":true,"confidence":5},{"trial_n":44,"span":3,"encoder":"846","distractor":"841","target":"absent","response":"absent","rt":"880.90000000037","correct":true,"confidence":5},{"trial_n":45,"span":3,"encoder":"578","distractor":"878","target":"absent","response":"absent","rt":"802.20000000019","correct":true,"confidence":5},{"trial_n":46,"span":4,"encoder":"5708","distractor":"5808","target":"absent","response":"absent","rt":"823","correct":true,"confidence":5},{"trial_n":47,"span":4,"encoder":"2060","distractor":"2030","target":"absent","response":"absent","rt":"1080.5999999996","correct":true,"confidence":5},{"trial_n":48,"span":5,"encoder":"26273","distractor":"26293","target":"present","response":"present","rt":"2338","correct":true,"confidence":5},{"trial_n":49,"span":5,"encoder":"39345","distractor":"33345","target":"present","response":"present","rt":"1452.6999999993","correct":true,"confidence":5},{"trial_n":50,"span":6,"encoder":"522340","distractor":"522360","target":"absent","response":"absent","rt":"1110.6000000006","correct":true,"confidence":1},{"trial_n":51,"span":6,"encoder":"741970","distractor":"748970","target":"present","response":"absent","rt":"1671.4000000004","correct":false,"confidence":1},{"trial_n":52,"span":5,"encoder":"53774","distractor":"13774","target":"present","response":"present","rt":"1232.5","correct":true,"confidence":5},{"trial_n":53,"span":5,"encoder":"05425","distractor":"01425","target":"present","response":"present","rt":"1530.7000000002","correct":true,"confidence":5},{"trial_n":54,"span":6,"encoder":"300065","distractor":"340065","target":"absent","response":"absent","rt":"1307","correct":true,"confidence":5},{"trial_n":55,"span":6,"encoder":"049497","distractor":"049457","target":"absent","response":"present","rt":"1575.4000000004","correct":false,"confidence":4},{"trial_n":56,"span":5,"encoder":"04692","distractor":"04612","target":"present","response":"present","rt":"1488.7999999998","correct":true,"confidence":4},{"trial_n":57,"span":5,"encoder":"56400","distractor":"58400","target":"absent","response":"absent","rt":"1047.3999999994","correct":true,"confidence":4},{"trial_n":58,"span":6,"encoder":"774003","distractor":"770003","target":"absent","response":"absent","rt":"1187.5","correct":true,"confidence":5},{"trial_n":59,"span":6,"encoder":"426037","distractor":"496037","target":"absent","response":"absent","rt":"1236.5999999996","correct":true,"confidence":5},{"trial_n":60,"span":7,"encoder":"8509436","distractor":"8559436","target":"absent","response":"present","rt":"1034.7999999998","correct":false,"confidence":5},{"trial_n":61,"span":6,"encoder":"463687","distractor":"463680","target":"present","response":"present","rt":"1232.2000000002","correct":true,"confidence":4},{"trial_n":62,"span":6,"encoder":"792468","distractor":"792488","target":"present","response":"present","rt":"1035.0999999996","correct":true,"confidence":4},{"trial_n":63,"span":7,"encoder":"9314338","distractor":"2314338","target":"present","response":"present","rt":"3380.8000000007","correct":true,"confidence":5},{"trial_n":64,"span":7,"encoder":"7803341","distractor":"7883341","target":"absent","response":"present","rt":"1150.9000000004","correct":false,"confidence":4},{"trial_n":65,"span":6,"encoder":"001077","distractor":"001017","target":"present","response":"present","rt":"1023.2000000002","correct":true,"confidence":5},{"trial_n":66,"span":6,"encoder":"125399","distractor":"123399","target":"absent","response":"present","rt":"987.29999999981","correct":false,"confidence":5},{"trial_n":67,"span":5,"encoder":"02666","distractor":"02866","target":"present","response":"absent","rt":"3129.4000000004","correct":false,"confidence":4},{"trial_n":68,"span":4,"encoder":"9931","distractor":"9951","target":"present","response":"present","rt":"898.60000000056","correct":true,"confidence":5},{"trial_n":69,"span":4,"encoder":"0808","distractor":"4808","target":"absent","response":"absent","rt":"1098.2999999998","correct":true,"confidence":5},{"trial_n":70,"span":5,"encoder":"91995","distractor":"91994","target":"present","response":"present","rt":"1385.2999999998","correct":true,"confidence":5},{"trial_n":71,"span":8,"encoder":"61889336","distractor":"61869336","target":"present","response":"present","rt":"4709","correct":true,"confidence":-1},{"trial_n":72,"span":8,"encoder":"24544044","distractor":"24544144","target":"present","response":"present","rt":"1352.5","correct":true,"confidence":-1},{"trial_n":73,"span":9,"encoder":"382470095","distractor":"382460095","target":"absent","response":"absent","rt":"3245.6000000006","correct":true,"confidence":-1},{"trial_n":74,"span":9,"encoder":"108200949","distractor":"168200949","target":"absent","response":"absent","rt":"2626.5","correct":true,"confidence":-1},{"trial_n":75,"span":10,"encoder":"7047257664","distractor":"7047257666","target":"present","response":"present","rt":"1377.6999999993","correct":true,"confidence":-1},{"trial_n":76,"span":10,"encoder":"9477558061","distractor":"9477658061","target":"absent","response":"present","rt":"6592","correct":false,"confidence":-1},{"trial_n":77,"span":9,"encoder":"424261370","distractor":"224261370","target":"absent","response":"absent","rt":"1801","correct":true,"confidence":-1},{"trial_n":78,"span":9,"encoder":"690538315","distractor":"990538315","target":"present","response":"present","rt":"1890.7999999998","correct":true,"confidence":-1},{"trial_n":79,"span":10,"encoder":"5211694685","distractor":"5271694685","target":"present","response":"present","rt":"1859.2999999998","correct":true,"confidence":-1},{"trial_n":80,"span":10,"encoder":"3601473748","distractor":"3601073748","target":"present","response":"present","rt":"4832.2000000002","correct":true,"confidence":-1},{"trial_n":81,"span":11,"encoder":"30624743437","distractor":"30624713437","target":"present","response":"absent","rt":"3783.0999999996","correct":false,"confidence":-1},{"trial_n":82,"span":10,"encoder":"0394248679","distractor":"0394241679","target":"absent","response":"present","rt":"919.09999999963","correct":false,"confidence":-1},{"trial_n":83,"span":9,"encoder":"976771929","distractor":"376771929","target":"absent","response":"present","rt":"7610.7000000002","correct":false,"confidence":-1},{"trial_n":84,"span":8,"encoder":"76336316","distractor":"76336317","target":"present","response":"absent","rt":"1242.5","correct":false,"confidence":-1},{"trial_n":85,"span":7,"encoder":"6009425","distractor":"0009425","target":"absent","response":"absent","rt":"1553.3999999994","correct":true,"confidence":-1},{"trial_n":86,"span":7,"encoder":"5848354","distractor":"5848314","target":"absent","response":"absent","rt":"1242.2999999998","correct":true,"confidence":-1},{"trial_n":87,"span":8,"encoder":"52477585","distractor":"52177585","target":"absent","response":"absent","rt":"2398.2999999998","correct":true,"confidence":-1},{"trial_n":88,"span":8,"encoder":"11447310","distractor":"41447310","target":"absent","response":"absent","rt":"2228.5","correct":true,"confidence":-1},{"trial_n":89,"span":9,"encoder":"786920328","distractor":"786970328","target":"present","response":"present","rt":"5447.2999999998","correct":true,"confidence":-1},{"trial_n":90,"span":9,"encoder":"086005906","distractor":"086005206","target":"absent","response":"present","rt":"1819.8000000007","correct":false,"confidence":-1},{"trial_n":91,"span":8,"encoder":"83875836","distractor":"83875806","target":"present","response":"absent","rt":"2383.2999999998","correct":false,"confidence":4},{"trial_n":92,"span":7,"encoder":"1329400","distractor":"1389400","target":"present","response":"absent","rt":"1624.2999999998","correct":false,"confidence":3},{"trial_n":93,"span":6,"encoder":"195341","distractor":"199341","target":"present","response":"absent","rt":"678.39999999944","correct":false,"confidence":1},{"trial_n":94,"span":5,"encoder":"39490","distractor":"37490","target":"absent","response":"absent","rt":"864.69999999925","correct":true,"confidence":3},{"trial_n":95,"span":5,"encoder":"45962","distractor":"45969","target":"present","response":"present","rt":"647.39999999944","correct":true,"confidence":1},{"trial_n":96,"span":6,"encoder":"881715","distractor":"884715","target":"present","response":"absent","rt":"530.5","correct":false,"confidence":4},{"trial_n":97,"span":5,"encoder":"20398","distractor":"21398","target":"absent","response":"present","rt":"719.5","correct":false,"confidence":2},{"trial_n":98,"span":4,"encoder":"4505","distractor":"4545","target":"absent","response":"absent","rt":"1053.4000000004","correct":true,"confidence":4},{"trial_n":99,"span":4,"encoder":"9700","distractor":"9400","target":"present","response":"present","rt":"888.70000000019","correct":true,"confidence":5},{"trial_n":100,"span":5,"encoder":"75032","distractor":"75932","target":"present","response":"present","rt":"1419.8999999994","correct":true,"confidence":4},{"trial_n":101,"span":5,"encoder":"69868","distractor":"69818","target":"absent","response":"absent","rt":"1185.5999999996","correct":true,"confidence":4},{"trial_n":102,"span":6,"encoder":"299837","distractor":"259837","target":"present","response":"present","rt":"2379.4000000004","correct":true,"confidence":5},{"trial_n":103,"span":6,"encoder":"784041","distractor":"784941","target":"absent","response":"present","rt":"1360.7000000002","correct":false,"confidence":1},{"trial_n":104,"span":5,"encoder":"66575","distractor":"62575","target":"absent","response":"absent","rt":"1355.3999999994","correct":true,"confidence":3},{"trial_n":105,"span":5,"encoder":"14476","distractor":"74476","target":"absent","response":"absent","rt":"1451.8000000007","correct":true,"confidence":5},{"trial_n":106,"span":6,"encoder":"363835","distractor":"368835","target":"present","response":"present","rt":"2899.1999999993","correct":true,"confidence":5},{"trial_n":107,"span":6,"encoder":"154211","distractor":"154218","target":"present","response":"present","rt":"1360.2000000002","correct":true,"confidence":4},{"trial_n":108,"span":7,"encoder":"5164030","distractor":"5168030","target":"absent","response":"absent","rt":"1600.2999999998","correct":true,"confidence":5},{"trial_n":109,"span":7,"encoder":"9545165","distractor":"9525165","target":"absent","response":"absent","rt":"4711.3999999994","correct":true,"confidence":4},{"trial_n":110,"span":8,"encoder":"24596028","distractor":"24596098","target":"absent","response":"absent","rt":"9398.1000000006","correct":true,"confidence":1},{"trial_n":111,"span":8,"encoder":"08054017","distractor":"08054019","target":"present","response":"present","rt":"1445.7000000002","correct":true,"confidence":3},{"trial_n":112,"span":9,"encoder":"910659078","distractor":"910669078","target":"absent","response":"absent","rt":"995.39999999944","correct":true,"confidence":1},{"trial_n":113,"span":9,"encoder":"293890088","distractor":"293790088","target":"absent","response":"present","rt":"51722.7","correct":false,"confidence":1},{"trial_n":114,"span":8,"encoder":"88530483","distractor":"88730483","target":"present","response":"absent","rt":"1805.4000000004","correct":false,"confidence":1},{"trial_n":115,"span":7,"encoder":"6056277","distractor":"6056274","target":"present","response":"present","rt":"1379.5","correct":true,"confidence":1},{"trial_n":116,"span":7,"encoder":"3818628","distractor":"7818628","target":"present","response":"absent","rt":"524.29999999981","correct":false,"confidence":4},{"trial_n":117,"span":6,"encoder":"653294","distractor":"653295","target":"absent","response":"absent","rt":"1301.6000000006","correct":true,"confidence":4},{"trial_n":118,"span":6,"encoder":"721100","distractor":"721130","target":"absent","response":"absent","rt":"567.59999999963","correct":true,"confidence":1},{"trial_n":119,"span":7,"encoder":"4284736","distractor":"2284736","target":"absent","response":"absent","rt":"1650.5","correct":true,"confidence":4},{"trial_n":120,"span":7,"encoder":"4657510","distractor":"3657510","target":"absent","response":"absent","rt":"1152.2999999998","correct":true,"confidence":5},{"trial_n":121,"span":8,"encoder":"63633326","distractor":"63630326","target":"present","response":"present","rt":"886.59999999963","correct":true,"confidence":4},{"trial_n":122,"span":8,"encoder":"21797026","distractor":"21797028","target":"absent","response":"present","rt":"646.79999999981","correct":false,"confidence":3},{"trial_n":123,"span":7,"encoder":"2985464","distractor":"2988464","target":"present","response":"absent","rt":"835.40000000037","correct":false,"confidence":5},{"trial_n":124,"span":6,"encoder":"118232","distractor":"318232","target":"absent","response":"present","rt":"1221.2000000002","correct":false,"confidence":5},{"trial_n":125,"span":5,"encoder":"84688","distractor":"84588","target":"absent","response":"absent","rt":"2055.6000000006","correct":true,"confidence":5},{"trial_n":126,"span":5,"encoder":"07755","distractor":"07725","target":"present","response":"present","rt":"2546.7000000002","correct":true,"confidence":4},{"trial_n":127,"span":6,"encoder":"599256","distractor":"399256","target":"present","response":"present","rt":"1920.4000000004","correct":true,"confidence":5},{"trial_n":128,"span":6,"encoder":"798473","distractor":"798475","target":"present","response":"present","rt":"1352.7000000002","correct":true,"confidence":4},{"trial_n":129,"span":7,"encoder":"9770057","distractor":"9070057","target":"present","response":"present","rt":"2136","correct":true,"confidence":5},{"trial_n":130,"span":7,"encoder":"2848127","distractor":"8848127","target":"absent","response":"present","rt":"2060.6000000006","correct":false,"confidence":5},{"trial_n":131,"span":6,"encoder":"516479","distractor":"516879","target":"absent","response":"absent","rt":"1073.3000000007","correct":true,"confidence":4},{"trial_n":132,"span":6,"encoder":"911759","distractor":"917759","target":"present","response":"absent","rt":"821.39999999944","correct":false,"confidence":3},{"trial_n":133,"span":5,"encoder":"91081","distractor":"71081","target":"absent","response":"present","rt":"956.20000000019","correct":false,"confidence":1},{"trial_n":134,"span":4,"encoder":"0318","distractor":"0218","target":"present","response":"present","rt":"1398.7999999998","correct":true,"confidence":5},{"trial_n":135,"span":4,"encoder":"5005","distractor":"5305","target":"absent","response":"absent","rt":"822.70000000019","correct":true,"confidence":5},{"trial_n":136,"span":5,"encoder":"71703","distractor":"71707","target":"present","response":"present","rt":"847.39999999944","correct":true,"confidence":3},{"trial_n":137,"span":5,"encoder":"66034","distractor":"60034","target":"present","response":"present","rt":"2594.5999999996","correct":true,"confidence":3},{"trial_n":138,"span":6,"encoder":"997139","distractor":"997199","target":"present","response":"present","rt":"1869.7999999998","correct":true,"confidence":4},{"trial_n":139,"span":6,"encoder":"898799","distractor":"818799","target":"present","response":"absent","rt":"2106.2999999998","correct":false,"confidence":4},{"trial_n":140,"span":5,"encoder":"60442","distractor":"40442","target":"present","response":"present","rt":"1037","correct":true,"confidence":5}]