[{"trial_n":1,"min":25,"max":230,"target":"present","response":"absent","rt":14818.4,"correct":false,"confidence":-1},{"trial_n":2,"min":25,"max":230,"target":"present","response":"absent","rt":5164.0999999996,"correct":false,"confidence":-1},{"trial_n":3,"min":9,"max":246,"target":"absent","response":"present","rt":1838,"correct":false,"confidence":-1},{"trial_n":4,"min":0,"max":255,"target":"absent","response":"absent","rt":3610.8999999999,"correct":true,"confidence":-1},{"trial_n":5,"min":0,"max":255,"target":"present","response":"present","rt":1333.4000000004,"correct":true,"confidence":-1},{"trial_n":6,"min":16,"max":239,"target":"present","response":"present","rt":786.10000000009,"correct":true,"confidence":-1},{"trial_n":7,"min":16,"max":239,"target":"absent","response":"absent","rt":442.30000000028,"correct":true,"confidence":-1},{"trial_n":8,"min":32,"max":223,"target":"absent","response":"absent","rt":525.10000000009,"correct":true,"confidence":-1},{"trial_n":9,"min":32,"max":223,"target":"present","response":"present","rt":507.5,"correct":true,"confidence":-1},{"trial_n":10,"min":48,"max":207,"target":"absent","response":"absent","rt":638,"correct":true,"confidence":-1},{"trial_n":11,"min":48,"max":207,"target":"absent","response":"absent","rt":392.79999999981,"correct":true,"confidence":-1},{"trial_n":12,"min":56,"max":199,"target":"absent","response":"absent","rt":515.39999999991,"correct":true,"confidence":-1},{"trial_n":13,"min":56,"max":199,"target":"absent","response":"absent","rt":416.79999999981,"correct":true,"confidence":-1},{"trial_n":14,"min":64,"max":191,"target":"present","response":"present","rt":442.89999999991,"correct":true,"confidence":-1},{"trial_n":15,"min":64,"max":191,"target":"absent","response":"absent","rt":444.39999999991,"correct":true,"confidence":-1},{"trial_n":16,"min":72,"max":183,"target":"absent","response":"absent","rt":499.5,"correct":true,"confidence":-1},{"trial_n":17,"min":72,"max":183,"target":"present","response":"present","rt":939.79999999981,"correct":true,"confidence":-1},{"trial_n":18,"min":80,"max":175,"target":"absent","response":"absent","rt":517,"correct":true,"confidence":-1},{"trial_n":19,"min":80,"max":175,"target":"absent","response":"absent","rt":372.60000000009,"correct":true,"confidence":-1},{"trial_n":20,"min":88,"max":167,"target":"absent","response":"absent","rt":409.60000000009,"correct":true,"confidence":-1},{"trial_n":21,"min":88,"max":167,"target":"present","response":"present","rt":776.60000000009,"correct":true,"confidence":5},{"trial_n":22,"min":92,"max":163,"target":"present","response":"present","rt":1118.4000000004,"correct":true,"confidence":1},{"trial_n":23,"min":92,"max":163,"target":"absent","response":"present","rt":1113.6000000001,"correct":false,"confidence":5},{"trial_n":24,"min":88,"max":167,"target":"present","response":"present","rt":3190.6000000001,"correct":true,"confidence":3},{"trial_n":25,"min":88,"max":167,"target":"present","response":"absent","rt":717.59999999963,"correct":false,"confidence":3},{"trial_n":26,"min":84,"max":171,"target":"absent","response":"absent","rt":2453.1999999997,"correct":true,"confidence":5},{"trial_n":27,"min":84,"max":171,"target":"present","response":"absent","rt":2104.6999999997,"correct":false,"confidence":5},{"trial_n":28,"min":80,"max":175,"target":"absent","response":"absent","rt":886.79999999981,"correct":true,"confidence":5},{"trial_n":29,"min":80,"max":175,"target":"present","response":"absent","rt":837.29999999981,"correct":false,"confidence":5},{"trial_n":30,"min":76,"max":179,"target":"present","response":"present","rt":1474,"correct":true,"confidence":4},{"trial_n":31,"min":76,"max":179,"target":"absent","response":"absent","rt":1323,"correct":true,"confidence":4},{"trial_n":32,"min":78,"max":177,"target":"absent","response":"absent","rt":876.89999999991,"correct":true,"confidence":1},{"trial_n":33,"min":78,"max":177,"target":"absent","response":"absent","rt":830.39999999991,"correct":true,"confidence":3},{"trial_n":34,"min":80,"max":175,"target":"absent","response":"absent","rt":598.89999999991,"correct":true,"confidence":3},{"trial_n":35,"min":80,"max":175,"target":"present","response":"present","rt":806.5,"correct":true,"confidence":5},{"trial_n":36,"min":82,"max":173,"target":"present","response":"absent","rt":654.10000000009,"correct":false,"confidence":5},{"trial_n":37,"min":80,"max":175,"target":"present","response":"present","rt":1031.7000000002,"correct":true,"confidence":4},{"trial_n":38,"min":80,"max":175,"target":"absent","response":"absent","rt":628.30000000028,"correct":true,"confidence":5},{"trial_n":39,"min":82,"max":173,"target":"present","response":"present","rt":745.80000000028,"correct":true,"confidence":3},{"trial_n":40,"min":82,"max":173,"target":"present","response":"present","rt":4002.6000000001,"correct":true,"confidence":4},{"trial_n":41,"min":83,"max":172,"target":"absent","response":"absent","rt":755.69999999972,"correct":true,"confidence":1},{"trial_n":42,"min":83,"max":172,"target":"present","response":"present","rt":720.60000000009,"correct":true,"confidence":5},{"trial_n":43,"min":84,"max":171,"target":"present","response":"absent","rt":787.89999999991,"correct":false,"confidence":3},{"trial_n":44,"min":83,"max":172,"target":"absent","response":"present","rt":753.29999999981,"correct":false,"confidence":3},{"trial_n":45,"min":82,"max":173,"target":"absent","response":"absent","rt":619.39999999991,"correct":true,"confidence":4},{"trial_n":46,"min":82,"max":173,"target":"present","response":"absent","rt":1080,"correct":false,"confidence":5},{"trial_n":47,"min":81,"max":174,"target":"absent","response":"absent","rt":782.20000000019,"correct":true,"confidence":5},{"trial_n":48,"min":81,"max":174,"target":"absent","response":"absent","rt":930.70000000019,"correct":true,"confidence":5},{"trial_n":49,"min":82,"max":173,"target":"present","response":"present","rt":811.60000000009,"correct":true,"confidence":3},{"trial_n":50,"min":82,"max":173,"target":"present","response":"absent","rt":613.39999999991,"correct":false,"confidence":5},{"trial_n":51,"min":81,"max":174,"target":"absent","response":"absent","rt":593,"correct":true,"confidence":5},{"trial_n":52,"min":81,"max":174,"target":"absent","response":"absent","rt":661,"correct":true,"confidence":1},{"trial_n":53,"min":82,"max":173,"target":"present","response":"present","rt":920.79999999981,"correct":true,"confidence":5},{"trial_n":54,"min":82,"max":173,"target":"present","response":"present","rt":705.20000000019,"correct":true,"confidence":5},{"trial_n":55,"min":83,"max":172,"target":"present","response":"absent","rt":663.70000000019,"correct":false,"confidence":5},{"trial_n":56,"min":82,"max":173,"target":"present","response":"present","rt":750.10000000009,"correct":true,"confidence":5},{"trial_n":57,"min":82,"max":173,"target":"absent","response":"present","rt":896.70000000019,"correct":false,"confidence":5},{"trial_n":58,"min":81,"max":174,"target":"absent","response":"absent","rt":583.70000000019,"correct":true,"confidence":5},{"trial_n":59,"min":81,"max":174,"target":"absent","response":"present","rt":929.19999999972,"correct":false,"confidence":5},{"trial_n":60,"min":80,"max":175,"target":"present","response":"present","rt":745.79999999981,"correct":true,"confidence":3},{"trial_n":61,"min":80,"max":175,"target":"absent","response":"present","rt":678.09999999963,"correct":false,"confidence":3},{"trial_n":62,"min":79,"max":176,"target":"present","response":"present","rt":903.5,"correct":true,"confidence":4},{"trial_n":63,"min":79,"max":176,"target":"absent","response":"present","rt":678.60000000009,"correct":false,"confidence":5},{"trial_n":64,"min":78,"max":177,"target":"present","response":"present","rt":761.5,"correct":true,"confidence":5},{"trial_n":65,"min":78,"max":177,"target":"present","response":"absent","rt":499.5,"correct":false,"confidence":1},{"trial_n":66,"min":77,"max":178,"target":"present","response":"present","rt":632.70000000019,"correct":true,"confidence":4},{"trial_n":67,"min":77,"max":178,"target":"absent","response":"present","rt":607.69999999972,"correct":false,"confidence":3},{"trial_n":68,"min":76,"max":179,"target":"present","response":"present","rt":756,"correct":true,"confidence":5},{"trial_n":69,"min":76,"max":179,"target":"present","response":"present","rt":620.5,"correct":true,"confidence":5},{"trial_n":70,"min":77,"max":178,"target":"present","response":"present","rt":664.39999999991,"correct":true,"confidence":5},{"trial_n":71,"min":41,"max":214,"target":"present","response":"absent","rt":14916.2,"correct":false,"confidence":-1},{"trial_n":72,"min":41,"max":214,"target":"present","response":"absent","rt":2119.5,"correct":false,"confidence":-1},{"trial_n":73,"min":25,"max":230,"target":"absent","response":"present","rt":3372.8999999999,"correct":false,"confidence":-1},{"trial_n":74,"min":9,"max":246,"target":"absent","response":"absent","rt":791.89999999991,"correct":true,"confidence":-1},{"trial_n":75,"min":9,"max":246,"target":"present","response":"absent","rt":1999.1000000001,"correct":false,"confidence":-1},{"trial_n":76,"min":0,"max":255,"target":"present","response":"present","rt":1036.9000000004,"correct":true,"confidence":-1},{"trial_n":77,"min":0,"max":255,"target":"absent","response":"absent","rt":1019.8000000003,"correct":true,"confidence":-1},{"trial_n":78,"min":16,"max":239,"target":"absent","response":"absent","rt":849.39999999991,"correct":true,"confidence":-1},{"trial_n":79,"min":16,"max":239,"target":"present","response":"present","rt":845.90000000037,"correct":true,"confidence":-1},{"trial_n":80,"min":32,"max":223,"target":"absent","response":"absent","rt":824.60000000009,"correct":true,"confidence":-1},{"trial_n":81,"min":32,"max":223,"target":"present","response":"present","rt":570.29999999981,"correct":true,"confidence":-1},{"trial_n":82,"min":40,"max":215,"target":"absent","response":"absent","rt":655,"correct":true,"confidence":-1},{"trial_n":83,"min":40,"max":215,"target":"absent","response":"present","rt":685.5,"correct":false,"confidence":-1},{"trial_n":84,"min":32,"max":223,"target":"present","response":"present","rt":1146.6000000001,"correct":true,"confidence":-1},{"trial_n":85,"min":32,"max":223,"target":"present","response":"present","rt":802,"correct":true,"confidence":-1},{"trial_n":86,"min":40,"max":215,"target":"absent","response":"absent","rt":878.20000000019,"correct":true,"confidence":-1},{"trial_n":87,"min":40,"max":215,"target":"present","response":"absent","rt":2476.7999999998,"correct":false,"confidence":-1},{"trial_n":88,"min":32,"max":223,"target":"present","response":"present","rt":722.59999999963,"correct":true,"confidence":-1},{"trial_n":89,"min":32,"max":223,"target":"present","response":"present","rt":1033.2999999998,"correct":true,"confidence":-1},{"trial_n":90,"min":40,"max":215,"target":"absent","response":"present","rt":784.69999999972,"correct":false,"confidence":-1},{"trial_n":91,"min":36,"max":219,"target":"absent","response":"absent","rt":760.69999999972,"correct":true,"confidence":5},{"trial_n":92,"min":36,"max":219,"target":"present","response":"present","rt":628.09999999963,"correct":true,"confidence":5},{"trial_n":93,"min":40,"max":215,"target":"present","response":"present","rt":808.29999999981,"correct":true,"confidence":5},{"trial_n":94,"min":40,"max":215,"target":"absent","response":"absent","rt":670.10000000009,"correct":true,"confidence":5},{"trial_n":95,"min":44,"max":211,"target":"absent","response":"absent","rt":498.90000000037,"correct":true,"confidence":5},{"trial_n":96,"min":44,"max":211,"target":"absent","response":"present","rt":1743.2999999998,"correct":false,"confidence":5},{"trial_n":97,"min":40,"max":215,"target":"absent","response":"absent","rt":965.60000000009,"correct":true,"confidence":5},{"trial_n":98,"min":40,"max":215,"target":"present","response":"present","rt":651.70000000019,"correct":true,"confidence":5},{"trial_n":99,"min":44,"max":211,"target":"absent","response":"absent","rt":1345.2000000002,"correct":true,"confidence":5},{"trial_n":100,"min":44,"max":211,"target":"absent","response":"absent","rt":1531.3000000003,"correct":true,"confidence":5},{"trial_n":101,"min":46,"max":209,"target":"absent","response":"absent","rt":605,"correct":true,"confidence":5},{"trial_n":102,"min":46,"max":209,"target":"absent","response":"absent","rt":1017.5999999996,"correct":true,"confidence":3},{"trial_n":103,"min":48,"max":207,"target":"absent","response":"absent","rt":1007.7000000002,"correct":true,"confidence":4},{"trial_n":104,"min":48,"max":207,"target":"absent","response":"absent","rt":1011.5,"correct":true,"confidence":5},{"trial_n":105,"min":50,"max":205,"target":"absent","response":"absent","rt":708.20000000019,"correct":true,"confidence":5},{"trial_n":106,"min":50,"max":205,"target":"absent","response":"absent","rt":708.5,"correct":true,"confidence":5},{"trial_n":107,"min":52,"max":203,"target":"present","response":"present","rt":575,"correct":true,"confidence":5},{"trial_n":108,"min":52,"max":203,"target":"present","response":"present","rt":691.69999999972,"correct":true,"confidence":5},{"trial_n":109,"min":54,"max":201,"target":"present","response":"present","rt":856.79999999981,"correct":true,"confidence":5},{"trial_n":110,"min":54,"max":201,"target":"present","response":"present","rt":488.5,"correct":true,"confidence":5},{"trial_n":111,"min":55,"max":200,"target":"absent","response":"absent","rt":878.5,"correct":true,"confidence":2},{"trial_n":112,"min":55,"max":200,"target":"absent","response":"present","rt":3364.1999999997,"correct":false,"confidence":3},{"trial_n":113,"min":54,"max":201,"target":"present","response":"present","rt":640.60000000009,"correct":true,"confidence":5},{"trial_n":114,"min":54,"max":201,"target":"absent","response":"absent","rt":735.69999999972,"correct":true,"confidence":5},{"trial_n":115,"min":55,"max":200,"target":"present","response":"present","rt":823.39999999991,"correct":true,"confidence":5},{"trial_n":116,"min":55,"max":200,"target":"present","response":"present","rt":440,"correct":true,"confidence":3},{"trial_n":117,"min":56,"max":199,"target":"present","response":"absent","rt":1210.7000000002,"correct":false,"confidence":4},{"trial_n":118,"min":55,"max":200,"target":"present","response":"present","rt":541.10000000009,"correct":true,"confidence":4},{"trial_n":119,"min":55,"max":200,"target":"absent","response":"absent","rt":556.70000000019,"correct":true,"confidence":5},{"trial_n":120,"min":56,"max":199,"target":"present","response":"present","rt":1006.2999999998,"correct":true,"confidence":1},{"trial_n":121,"min":56,"max":199,"target":"absent","response":"absent","rt":669.70000000019,"correct":true,"confidence":5},{"trial_n":122,"min":57,"max":198,"target":"absent","response":"absent","rt":650.5,"correct":true,"confidence":5},{"trial_n":123,"min":57,"max":198,"target":"present","response":"present","rt":592.79999999981,"correct":true,"confidence":5},{"trial_n":124,"min":58,"max":197,"target":"present","response":"present","rt":645.19999999972,"correct":true,"confidence":3},{"trial_n":125,"min":58,"max":197,"target":"present","response":"present","rt":1846,"correct":true,"confidence":1},{"trial_n":126,"min":59,"max":196,"target":"present","response":"present","rt":462.39999999991,"correct":true,"confidence":4},{"trial_n":127,"min":59,"max":196,"target":"present","response":"absent","rt":1200.4000000004,"correct":false,"confidence":3},{"trial_n":128,"min":58,"max":197,"target":"present","response":"present","rt":822.5,"correct":true,"confidence":4},{"trial_n":129,"min":58,"max":197,"target":"present","response":"present","rt":699,"correct":true,"confidence":4},{"trial_n":130,"min":59,"max":196,"target":"absent","response":"absent","rt":923.69999999972,"correct":true,"confidence":5},{"trial_n":131,"min":59,"max":196,"target":"absent","response":"absent","rt":784.5,"correct":true,"confidence":5},{"trial_n":132,"min":60,"max":195,"target":"present","response":"absent","rt":1017.6000000001,"correct":false,"confidence":5},{"trial_n":133,"min":59,"max":196,"target":"present","response":"present","rt":1115.5,"correct":true,"confidence":5},{"trial_n":134,"min":59,"max":196,"target":"absent","response":"absent","rt":642.29999999981,"correct":true,"confidence":4},{"trial_n":135,"min":60,"max":195,"target":"absent","response":"absent","rt":688.29999999981,"correct":true,"confidence":1},{"trial_n":136,"min":60,"max":195,"target":"present","response":"present","rt":1054.3000000003,"correct":true,"confidence":4},{"trial_n":137,"min":61,"max":194,"target":"present","response":"present","rt":628.10000000009,"correct":true,"confidence":5},{"trial_n":138,"min":61,"max":194,"target":"present","response":"present","rt":651.69999999972,"correct":true,"confidence":5},{"trial_n":139,"min":62,"max":193,"target":"absent","response":"absent","rt":629,"correct":true,"confidence":5},{"trial_n":140,"min":62,"max":193,"target":"absent","response":"present","rt":736.20000000019,"correct":false,"confidence":5}]