[{"trial_n":1,"span":8,"encoder":"28317183","distractor":"28317583","target":"present","response":"absent","rt":"6966.2999999523","correct":false,"confidence":-1},{"trial_n":2,"span":6,"encoder":"112251","distractor":"112221","target":"present","response":"present","rt":"2833.6999999881","correct":true,"confidence":-1},{"trial_n":3,"span":6,"encoder":"083603","distractor":"088603","target":"absent","response":"present","rt":"4264.6999999881","correct":false,"confidence":-1},{"trial_n":4,"span":4,"encoder":"7398","distractor":"7399","target":"absent","response":"absent","rt":"4143.3000000119","correct":true,"confidence":-1},{"trial_n":5,"span":4,"encoder":"6285","distractor":"6785","target":"present","response":"present","rt":"2763.8999999762","correct":true,"confidence":-1},{"trial_n":6,"span":6,"encoder":"066675","distractor":"066673","target":"absent","response":"present","rt":"2402.0999999642","correct":false,"confidence":-1},{"trial_n":7,"span":4,"encoder":"6130","distractor":"6132","target":"present","response":"absent","rt":"2724.7000000477","correct":false,"confidence":-1},{"trial_n":8,"span":2,"encoder":"63","distractor":"67","target":"absent","response":"absent","rt":"1952.8000000119","correct":true,"confidence":-1},{"trial_n":9,"span":2,"encoder":"89","distractor":"88","target":"present","response":"present","rt":"1399.3999999762","correct":true,"confidence":-1},{"trial_n":10,"span":4,"encoder":"3192","distractor":"1192","target":"present","response":"present","rt":"1417.0999999642","correct":true,"confidence":-1},{"trial_n":11,"span":4,"encoder":"6092","distractor":"6096","target":"present","response":"present","rt":"2662.4000000358","correct":true,"confidence":-1},{"trial_n":12,"span":5,"encoder":"53080","distractor":"53380","target":"present","response":"present","rt":"2500.8999999762","correct":true,"confidence":-1},{"trial_n":13,"span":5,"encoder":"18459","distractor":"18439","target":"absent","response":"absent","rt":"3521.8000000119","correct":true,"confidence":-1},{"trial_n":14,"span":6,"encoder":"238061","distractor":"238071","target":"absent","response":"absent","rt":"2810.8000000119","correct":true,"confidence":-1},{"trial_n":15,"span":6,"encoder":"638151","distractor":"633151","target":"absent","response":"absent","rt":"1688.1999999881","correct":true,"confidence":-1},{"trial_n":16,"span":7,"encoder":"7855977","distractor":"7855877","target":"absent","response":"absent","rt":"2516.8000000119","correct":true,"confidence":-1},{"trial_n":17,"span":7,"encoder":"9977381","distractor":"9907381","target":"present","response":"present","rt":"2446.6000000238","correct":true,"confidence":-1},{"trial_n":18,"span":8,"encoder":"76223654","distractor":"76223655","target":"absent","response":"absent","rt":"4554.4000000358","correct":true,"confidence":-1},{"trial_n":19,"span":8,"encoder":"84647847","distractor":"84647547","target":"absent","response":"present","rt":"2933.3000000119","correct":false,"confidence":-1},{"trial_n":20,"span":7,"encoder":"8672992","distractor":"9672992","target":"absent","response":"absent","rt":"2545.0999999642","correct":true,"confidence":-1},{"trial_n":21,"span":7,"encoder":"9351837","distractor":"9321837","target":"absent","response":"absent","rt":"2511.8000000119","correct":true,"confidence":5},{"trial_n":22,"span":8,"encoder":"85932079","distractor":"85732079","target":"absent","response":"absent","rt":"5753.5","correct":true,"confidence":3},{"trial_n":23,"span":8,"encoder":"74369070","distractor":"74363070","target":"absent","response":"present","rt":"5363.3999999762","correct":false,"confidence":2},{"trial_n":24,"span":7,"encoder":"8058971","distractor":"8058071","target":"present","response":"present","rt":"3309.3000000119","correct":true,"confidence":4},{"trial_n":25,"span":7,"encoder":"4894991","distractor":"4494991","target":"present","response":"present","rt":"3097.4000000358","correct":true,"confidence":5},{"trial_n":26,"span":8,"encoder":"22755382","distractor":"28755382","target":"present","response":"present","rt":"2041.3999999762","correct":true,"confidence":4},{"trial_n":27,"span":8,"encoder":"55075412","distractor":"55075012","target":"absent","response":"absent","rt":"4587.2999999523","correct":true,"confidence":3},{"trial_n":28,"span":9,"encoder":"546109567","distractor":"546109267","target":"absent","response":"absent","rt":"5912.3000000119","correct":true,"confidence":3},{"trial_n":29,"span":9,"encoder":"015744728","distractor":"011744728","target":"present","response":"present","rt":"5085.1000000238","correct":true,"confidence":4},{"trial_n":30,"span":10,"encoder":"4376431923","distractor":"4376431921","target":"present","response":"present","rt":"5826.5","correct":true,"confidence":2},{"trial_n":31,"span":10,"encoder":"1115539254","distractor":"1110539254","target":"present","response":"present","rt":"3808.8999999762","correct":true,"confidence":5},{"trial_n":32,"span":11,"encoder":"36867419703","distractor":"36867449703","target":"present","response":"present","rt":"7082.8999999762","correct":true,"confidence":4},{"trial_n":33,"span":11,"encoder":"85561866345","distractor":"85561869345","target":"present","response":"present","rt":"4957.8999999762","correct":true,"confidence":4},{"trial_n":34,"span":12,"encoder":"428907969159","distractor":"426907969159","target":"present","response":"absent","rt":"2357","correct":false,"confidence":2},{"trial_n":35,"span":11,"encoder":"56344858108","distractor":"56314858108","target":"absent","response":"absent","rt":"9328.9000000358","correct":true,"confidence":3},{"trial_n":36,"span":11,"encoder":"29522115347","distractor":"29522315347","target":"absent","response":"absent","rt":"3433","correct":true,"confidence":4},{"trial_n":37,"span":12,"encoder":"906954670658","distractor":"906954630658","target":"present","response":"present","rt":"6747.7000000477","correct":true,"confidence":3},{"trial_n":38,"span":12,"encoder":"489680919727","distractor":"489680919737","target":"present","response":"absent","rt":"4078.0999999642","correct":false,"confidence":4},{"trial_n":39,"span":11,"encoder":"77489020338","distractor":"77489020358","target":"absent","response":"absent","rt":"2932.1000000238","correct":true,"confidence":4},{"trial_n":40,"span":11,"encoder":"69679651052","distractor":"69677651052","target":"absent","response":"absent","rt":"7340.5","correct":true,"confidence":3},{"trial_n":41,"span":12,"encoder":"447281074953","distractor":"442281074953","target":"absent","response":"present","rt":"5198.5999999642","correct":false,"confidence":4},{"trial_n":42,"span":11,"encoder":"41176373820","distractor":"51176373820","target":"present","response":"absent","rt":"4099.3999999762","correct":false,"confidence":3},{"trial_n":43,"span":10,"encoder":"1041717676","distractor":"1047717676","target":"absent","response":"absent","rt":"4715.8000000119","correct":true,"confidence":4},{"trial_n":44,"span":10,"encoder":"7467128304","distractor":"7467128303","target":"absent","response":"absent","rt":"2719.6999999881","correct":true,"confidence":5},{"trial_n":45,"span":11,"encoder":"78142538785","distractor":"78142530785","target":"present","response":"present","rt":"4786.4000000358","correct":true,"confidence":4},{"trial_n":46,"span":11,"encoder":"94942578462","distractor":"44942578462","target":"present","response":"present","rt":"8417.7000000477","correct":true,"confidence":4},{"trial_n":47,"span":12,"encoder":"900686586373","distractor":"900686556373","target":"absent","response":"present","rt":"7268.9000000358","correct":false,"confidence":3},{"trial_n":48,"span":11,"encoder":"58625410716","distractor":"58625450716","target":"absent","response":"present","rt":"9113.8999999762","correct":false,"confidence":3},{"trial_n":49,"span":10,"encoder":"2392855135","distractor":"2392815135","target":"absent","response":"absent","rt":"2511.1000000238","correct":true,"confidence":5},{"trial_n":50,"span":10,"encoder":"1803930913","distractor":"1803930983","target":"absent","response":"present","rt":"1846","correct":false,"confidence":3},{"trial_n":51,"span":9,"encoder":"991029241","distractor":"991059241","target":"present","response":"absent","rt":"7828.2000000477","correct":false,"confidence":4},{"trial_n":52,"span":8,"encoder":"74574261","distractor":"74574269","target":"present","response":"absent","rt":"10954.5","correct":false,"confidence":3},{"trial_n":53,"span":7,"encoder":"0463781","distractor":"0468781","target":"present","response":"present","rt":"4548.1000000238","correct":true,"confidence":4},{"trial_n":54,"span":7,"encoder":"7072146","distractor":"7062146","target":"present","response":"present","rt":"2773.3000000119","correct":true,"confidence":5},{"trial_n":55,"span":8,"encoder":"23310360","distractor":"23310760","target":"present","response":"present","rt":"8263.5","correct":true,"confidence":3},{"trial_n":56,"span":8,"encoder":"83595927","distractor":"83545927","target":"absent","response":"absent","rt":"8895.3000000119","correct":true,"confidence":5},{"trial_n":57,"span":9,"encoder":"076943854","distractor":"076943824","target":"absent","response":"absent","rt":"2112","correct":true,"confidence":5},{"trial_n":58,"span":9,"encoder":"279506004","distractor":"249506004","target":"absent","response":"present","rt":"6680.6000000238","correct":false,"confidence":4},{"trial_n":59,"span":8,"encoder":"44011241","distractor":"44211241","target":"absent","response":"present","rt":"2729.9000000358","correct":false,"confidence":5},{"trial_n":60,"span":7,"encoder":"1165569","distractor":"1765569","target":"present","response":"present","rt":"3391.4000000358","correct":true,"confidence":5},{"trial_n":61,"span":7,"encoder":"3031513","distractor":"9031513","target":"present","response":"present","rt":"3824.1000000238","correct":true,"confidence":5},{"trial_n":62,"span":8,"encoder":"39295433","distractor":"39205433","target":"absent","response":"absent","rt":"5579.9000000358","correct":true,"confidence":4},{"trial_n":63,"span":8,"encoder":"48184090","distractor":"48184010","target":"present","response":"absent","rt":"7473.8000000119","correct":false,"confidence":5},{"trial_n":64,"span":7,"encoder":"2179334","distractor":"2129334","target":"absent","response":"absent","rt":"2791.3000000119","correct":true,"confidence":5},{"trial_n":65,"span":7,"encoder":"4008215","distractor":"5008215","target":"present","response":"present","rt":"3190","correct":true,"confidence":4},{"trial_n":66,"span":8,"encoder":"04447956","distractor":"04647956","target":"present","response":"present","rt":"1878.9000000358","correct":true,"confidence":3},{"trial_n":67,"span":8,"encoder":"14611288","distractor":"14611228","target":"absent","response":"absent","rt":"1865.5","correct":true,"confidence":5},{"trial_n":68,"span":9,"encoder":"611673639","distractor":"611673638","target":"present","response":"present","rt":"8978.8000000119","correct":true,"confidence":4},{"trial_n":69,"span":9,"encoder":"885758728","distractor":"085758728","target":"present","response":"absent","rt":"6635","correct":false,"confidence":4},{"trial_n":70,"span":8,"encoder":"10666501","distractor":"10664501","target":"present","response":"present","rt":"2326.8000000119","correct":true,"confidence":5},{"trial_n":71,"span":8,"encoder":"11556525","distractor":"11856525","target":"present","response":"present","rt":"6077.0999999642","correct":true,"confidence":-1},{"trial_n":72,"span":8,"encoder":"74677082","distractor":"84677082","target":"present","response":"present","rt":"5565.3999999762","correct":true,"confidence":-1},{"trial_n":73,"span":9,"encoder":"713366890","distractor":"713866890","target":"absent","response":"absent","rt":"3430.5999999642","correct":true,"confidence":-1},{"trial_n":74,"span":9,"encoder":"822388872","distractor":"825388872","target":"absent","response":"absent","rt":"5309.5","correct":true,"confidence":-1},{"trial_n":75,"span":10,"encoder":"3851187961","distractor":"3351187961","target":"present","response":"present","rt":"4278.2000000477","correct":true,"confidence":-1},{"trial_n":76,"span":10,"encoder":"0408462294","distractor":"0408466294","target":"absent","response":"absent","rt":"1968","correct":true,"confidence":-1},{"trial_n":77,"span":11,"encoder":"12291828416","distractor":"12291828466","target":"present","response":"present","rt":"2722.2000000477","correct":true,"confidence":-1},{"trial_n":78,"span":11,"encoder":"71271717284","distractor":"72271717284","target":"absent","response":"present","rt":"7494.3000000119","correct":false,"confidence":-1},{"trial_n":79,"span":10,"encoder":"8232190571","distractor":"8232100571","target":"present","response":"absent","rt":"4286.3000000119","correct":false,"confidence":-1},{"trial_n":80,"span":9,"encoder":"603962702","distractor":"603962782","target":"absent","response":"absent","rt":"2898.1999999881","correct":true,"confidence":-1},{"trial_n":81,"span":9,"encoder":"930707851","distractor":"980707851","target":"present","response":"absent","rt":"631.90000003576","correct":false,"confidence":-1},{"trial_n":82,"span":8,"encoder":"65692479","distractor":"65652479","target":"present","response":"present","rt":"21208.899999976","correct":true,"confidence":-1},{"trial_n":83,"span":8,"encoder":"20185343","distractor":"20185345","target":"absent","response":"absent","rt":"1829.5","correct":true,"confidence":-1},{"trial_n":84,"span":9,"encoder":"493074122","distractor":"493084122","target":"present","response":"absent","rt":"755.89999997616","correct":false,"confidence":-1},{"trial_n":85,"span":8,"encoder":"84120639","distractor":"80120639","target":"absent","response":"present","rt":"1276","correct":false,"confidence":-1},{"trial_n":86,"span":7,"encoder":"8587502","distractor":"8587508","target":"absent","response":"present","rt":"4624.3000000119","correct":false,"confidence":-1},{"trial_n":87,"span":6,"encoder":"297057","distractor":"297007","target":"absent","response":"present","rt":"1590.7999999523","correct":false,"confidence":-1},{"trial_n":88,"span":5,"encoder":"42049","distractor":"42099","target":"absent","response":"absent","rt":"1960.5","correct":true,"confidence":-1},{"trial_n":89,"span":5,"encoder":"25966","distractor":"24966","target":"present","response":"absent","rt":"5097.6000000238","correct":false,"confidence":-1},{"trial_n":90,"span":4,"encoder":"5056","distractor":"5066","target":"absent","response":"present","rt":"2739.9000000358","correct":false,"confidence":-1},{"trial_n":91,"span":3,"encoder":"449","distractor":"049","target":"absent","response":"absent","rt":"2072.4000000358","correct":true,"confidence":5},{"trial_n":92,"span":3,"encoder":"609","distractor":"602","target":"absent","response":"absent","rt":"2356.4000000358","correct":true,"confidence":5},{"trial_n":93,"span":4,"encoder":"1239","distractor":"1289","target":"absent","response":"absent","rt":"2231.5","correct":true,"confidence":5},{"trial_n":94,"span":4,"encoder":"4985","distractor":"4980","target":"present","response":"present","rt":"1648.5","correct":true,"confidence":5},{"trial_n":95,"span":5,"encoder":"26625","distractor":"26025","target":"present","response":"present","rt":"3442.6000000238","correct":true,"confidence":5},{"trial_n":96,"span":5,"encoder":"38336","distractor":"38316","target":"present","response":"present","rt":"1904.4000000358","correct":true,"confidence":5},{"trial_n":97,"span":6,"encoder":"711195","distractor":"721195","target":"absent","response":"absent","rt":"2837.9000000358","correct":true,"confidence":5},{"trial_n":98,"span":6,"encoder":"349849","distractor":"349847","target":"absent","response":"absent","rt":"3450","correct":true,"confidence":5},{"trial_n":99,"span":7,"encoder":"9035296","distractor":"9038296","target":"absent","response":"absent","rt":"3962.3000000119","correct":true,"confidence":5},{"trial_n":100,"span":7,"encoder":"5807331","distractor":"5807351","target":"absent","response":"absent","rt":"6249.2999999523","correct":true,"confidence":4},{"trial_n":101,"span":8,"encoder":"46316232","distractor":"46315232","target":"present","response":"present","rt":"4270.3999999762","correct":true,"confidence":5},{"trial_n":102,"span":8,"encoder":"63265605","distractor":"63265609","target":"present","response":"absent","rt":"5890.1000000238","correct":false,"confidence":5},{"trial_n":103,"span":7,"encoder":"6572538","distractor":"6572438","target":"present","response":"present","rt":"5357.8000000119","correct":true,"confidence":5},{"trial_n":104,"span":7,"encoder":"2514014","distractor":"2514214","target":"absent","response":"absent","rt":"4543.3000000119","correct":true,"confidence":5},{"trial_n":105,"span":8,"encoder":"44136206","distractor":"44136203","target":"absent","response":"absent","rt":"2045.6999999881","correct":true,"confidence":5},{"trial_n":106,"span":8,"encoder":"97337444","distractor":"97377444","target":"absent","response":"absent","rt":"4574.3999999762","correct":true,"confidence":5},{"trial_n":107,"span":9,"encoder":"137908636","distractor":"137908686","target":"absent","response":"present","rt":"3080.8000000119","correct":false,"confidence":3},{"trial_n":108,"span":8,"encoder":"40512125","distractor":"40515125","target":"present","response":"present","rt":"3151.3000000119","correct":true,"confidence":5},{"trial_n":109,"span":8,"encoder":"02218013","distractor":"62218013","target":"present","response":"present","rt":"8589.1000000238","correct":true,"confidence":4},{"trial_n":110,"span":9,"encoder":"605229734","distractor":"605227734","target":"present","response":"present","rt":"3984","correct":true,"confidence":5},{"trial_n":111,"span":9,"encoder":"485670421","distractor":"485470421","target":"present","response":"present","rt":"5798.1999999881","correct":true,"confidence":5},{"trial_n":112,"span":10,"encoder":"1104134673","distractor":"1504134673","target":"present","response":"present","rt":"10805.100000024","correct":true,"confidence":4},{"trial_n":113,"span":10,"encoder":"9706119820","distractor":"9006119820","target":"present","response":"present","rt":"4941.1999999881","correct":true,"confidence":4},{"trial_n":114,"span":11,"encoder":"65052597478","distractor":"65052397478","target":"absent","response":"absent","rt":"5135.5","correct":true,"confidence":5},{"trial_n":115,"span":11,"encoder":"78569216411","distractor":"78569210411","target":"absent","response":"absent","rt":"4447.0999999642","correct":true,"confidence":2},{"trial_n":116,"span":12,"encoder":"351706901511","distractor":"951706901511","target":"absent","response":"absent","rt":"7064.8000000119","correct":true,"confidence":3},{"trial_n":117,"span":12,"encoder":"529483364738","distractor":"529483334738","target":"present","response":"present","rt":"9154.8999999762","correct":true,"confidence":4},{"trial_n":118,"span":13,"encoder":"5369738300467","distractor":"3369738300467","target":"present","response":"present","rt":"3007.6000000238","correct":true,"confidence":5},{"trial_n":119,"span":13,"encoder":"9146613110077","distractor":"9146613110777","target":"present","response":"present","rt":"1773.6000000238","correct":true,"confidence":5},{"trial_n":120,"span":14,"encoder":"47088935987349","distractor":"47088935987309","target":"present","response":"absent","rt":"9660","correct":false,"confidence":2},{"trial_n":121,"span":13,"encoder":"1591071358953","distractor":"1551071358953","target":"present","response":"present","rt":"11450.799999952","correct":true,"confidence":4},{"trial_n":122,"span":13,"encoder":"4740855176202","distractor":"4740805176202","target":"absent","response":"absent","rt":"2517.2000000477","correct":true,"confidence":5},{"trial_n":123,"span":14,"encoder":"39708410415514","distractor":"39708410315514","target":"present","response":"absent","rt":"10131","correct":false,"confidence":2},{"trial_n":124,"span":13,"encoder":"5395031412279","distractor":"5395051412279","target":"absent","response":"absent","rt":"7534.1000000238","correct":true,"confidence":4},{"trial_n":125,"span":13,"encoder":"5215183767645","distractor":"5215183767641","target":"absent","response":"present","rt":"11102","correct":false,"confidence":1},{"trial_n":126,"span":12,"encoder":"273358372171","distractor":"273358772171","target":"absent","response":"absent","rt":"4529.8999999762","correct":true,"confidence":5},{"trial_n":127,"span":12,"encoder":"697516131519","distractor":"697516131516","target":"absent","response":"absent","rt":"7698.1999999881","correct":true,"confidence":3},{"trial_n":128,"span":13,"encoder":"3244619759056","distractor":"3244619759058","target":"present","response":"absent","rt":"12996.5","correct":false,"confidence":2},{"trial_n":129,"span":12,"encoder":"887577082253","distractor":"887577092253","target":"absent","response":"absent","rt":"4702.3000000119","correct":true,"confidence":5},{"trial_n":130,"span":12,"encoder":"386038449760","distractor":"386038449060","target":"present","response":"present","rt":"8046.8999999762","correct":true,"confidence":3},{"trial_n":131,"span":13,"encoder":"5987304347773","distractor":"5987304347775","target":"present","response":"present","rt":"3956.6000000238","correct":true,"confidence":5},{"trial_n":132,"span":13,"encoder":"0903490032447","distractor":"0993490032447","target":"absent","response":"absent","rt":"3671.8999999762","correct":true,"confidence":5},{"trial_n":133,"span":14,"encoder":"59580501575750","distractor":"59180501575750","target":"absent","response":"absent","rt":"9962.1000000238","correct":true,"confidence":5},{"trial_n":134,"span":14,"encoder":"00971039340139","distractor":"00971039341139","target":"absent","response":"absent","rt":"5339.8000000119","correct":true,"confidence":5},{"trial_n":135,"span":15,"encoder":"413055922492061","distractor":"417055922492061","target":"present","response":"present","rt":"3967.6999999881","correct":true,"confidence":2},{"trial_n":136,"span":15,"encoder":"550958469183650","distractor":"550958449183650","target":"present","response":"absent","rt":"5375.8000000119","correct":false,"confidence":5},{"trial_n":137,"span":14,"encoder":"75458782543599","distractor":"73458782543599","target":"present","response":"present","rt":"5547.1000000238","correct":true,"confidence":5},{"trial_n":138,"span":14,"encoder":"00888072353715","distractor":"00888072453715","target":"present","response":"present","rt":"3783.8999999762","correct":true,"confidence":5},{"trial_n":139,"span":15,"encoder":"454026226759684","distractor":"454026286759684","target":"present","response":"present","rt":"6000.1999999881","correct":true,"confidence":5},{"trial_n":140,"span":15,"encoder":"477268105618963","distractor":"477268205618963","target":"present","response":"absent","rt":"12337.199999988","correct":false,"confidence":3}]