[{"trial_n":1,"min":25,"max":230,"target":"present","response":"present","rt":5154,"correct":true,"confidence":-1},{"trial_n":2,"min":25,"max":230,"target":"present","response":"present","rt":736,"correct":true,"confidence":-1},{"trial_n":3,"min":41,"max":214,"target":"absent","response":"absent","rt":1902,"correct":true,"confidence":-1},{"trial_n":4,"min":41,"max":214,"target":"absent","response":"absent","rt":558,"correct":true,"confidence":-1},{"trial_n":5,"min":57,"max":198,"target":"present","response":"present","rt":1232,"correct":true,"confidence":-1},{"trial_n":6,"min":57,"max":198,"target":"present","response":"absent","rt":1296,"correct":false,"confidence":-1},{"trial_n":7,"min":41,"max":214,"target":"present","response":"present","rt":1401,"correct":true,"confidence":-1},{"trial_n":8,"min":41,"max":214,"target":"present","response":"present","rt":1151,"correct":true,"confidence":-1},{"trial_n":9,"min":57,"max":198,"target":"absent","response":"absent","rt":1378,"correct":true,"confidence":-1},{"trial_n":10,"min":57,"max":198,"target":"absent","response":"absent","rt":653.99999999999,"correct":true,"confidence":-1},{"trial_n":11,"min":65,"max":190,"target":"present","response":"present","rt":1976,"correct":true,"confidence":-1},{"trial_n":12,"min":65,"max":190,"target":"present","response":"present","rt":762,"correct":true,"confidence":-1},{"trial_n":13,"min":73,"max":182,"target":"present","response":"present","rt":2604,"correct":true,"confidence":-1},{"trial_n":14,"min":73,"max":182,"target":"absent","response":"absent","rt":1199,"correct":true,"confidence":-1},{"trial_n":15,"min":81,"max":174,"target":"absent","response":"present","rt":2515,"correct":false,"confidence":-1},{"trial_n":16,"min":73,"max":182,"target":"present","response":"present","rt":883,"correct":true,"confidence":-1},{"trial_n":17,"min":73,"max":182,"target":"absent","response":"absent","rt":1384,"correct":true,"confidence":-1},{"trial_n":18,"min":81,"max":174,"target":"absent","response":"absent","rt":1205,"correct":true,"confidence":-1},{"trial_n":19,"min":81,"max":174,"target":"present","response":"absent","rt":1296,"correct":false,"confidence":-1},{"trial_n":20,"min":73,"max":182,"target":"present","response":"present","rt":1055,"correct":true,"confidence":-1},{"trial_n":21,"min":73,"max":182,"target":"present","response":"present","rt":729.99999999999,"correct":true,"confidence":2},{"trial_n":22,"min":77,"max":178,"target":"absent","response":"present","rt":1395,"correct":false,"confidence":3},{"trial_n":23,"min":73,"max":182,"target":"absent","response":"present","rt":1425,"correct":false,"confidence":3},{"trial_n":24,"min":69,"max":186,"target":"present","response":"present","rt":1532,"correct":true,"confidence":4},{"trial_n":25,"min":69,"max":186,"target":"present","response":"present","rt":1442,"correct":true,"confidence":3},{"trial_n":26,"min":73,"max":182,"target":"absent","response":"absent","rt":3328,"correct":true,"confidence":2},{"trial_n":27,"min":73,"max":182,"target":"absent","response":"present","rt":1126,"correct":false,"confidence":1},{"trial_n":28,"min":69,"max":186,"target":"present","response":"present","rt":1185,"correct":true,"confidence":5},{"trial_n":29,"min":69,"max":186,"target":"present","response":"present","rt":918,"correct":true,"confidence":5},{"trial_n":30,"min":73,"max":182,"target":"absent","response":"absent","rt":1353,"correct":true,"confidence":4},{"trial_n":31,"min":73,"max":182,"target":"absent","response":"absent","rt":1188,"correct":true,"confidence":5},{"trial_n":32,"min":75,"max":180,"target":"present","response":"present","rt":925.00000000003,"correct":true,"confidence":4},{"trial_n":33,"min":75,"max":180,"target":"absent","response":"absent","rt":2446,"correct":true,"confidence":3},{"trial_n":34,"min":77,"max":178,"target":"present","response":"present","rt":949,"correct":true,"confidence":4},{"trial_n":35,"min":77,"max":178,"target":"present","response":"present","rt":1087,"correct":true,"confidence":4},{"trial_n":36,"min":79,"max":176,"target":"present","response":"present","rt":1190,"correct":true,"confidence":4},{"trial_n":37,"min":79,"max":176,"target":"absent","response":"absent","rt":1532,"correct":true,"confidence":4},{"trial_n":38,"min":81,"max":174,"target":"present","response":"present","rt":1088,"correct":true,"confidence":4},{"trial_n":39,"min":81,"max":174,"target":"absent","response":"absent","rt":9423,"correct":true,"confidence":2},{"trial_n":40,"min":83,"max":172,"target":"absent","response":"absent","rt":2912,"correct":true,"confidence":2},{"trial_n":41,"min":83,"max":172,"target":"present","response":"present","rt":1590,"correct":true,"confidence":4},{"trial_n":42,"min":84,"max":171,"target":"present","response":"present","rt":1724,"correct":true,"confidence":3},{"trial_n":43,"min":84,"max":171,"target":"absent","response":"absent","rt":1488,"correct":true,"confidence":5},{"trial_n":44,"min":85,"max":170,"target":"absent","response":"absent","rt":1141,"correct":true,"confidence":5},{"trial_n":45,"min":85,"max":170,"target":"absent","response":"absent","rt":1557,"correct":true,"confidence":4},{"trial_n":46,"min":86,"max":169,"target":"absent","response":"absent","rt":2810,"correct":true,"confidence":3},{"trial_n":47,"min":86,"max":169,"target":"present","response":"present","rt":1726.9999999999,"correct":true,"confidence":3},{"trial_n":48,"min":87,"max":168,"target":"present","response":"present","rt":1609,"correct":true,"confidence":3},{"trial_n":49,"min":87,"max":168,"target":"absent","response":"absent","rt":1243,"correct":true,"confidence":4},{"trial_n":50,"min":88,"max":167,"target":"absent","response":"absent","rt":5354,"correct":true,"confidence":2},{"trial_n":51,"min":88,"max":167,"target":"present","response":"absent","rt":1196,"correct":false,"confidence":4},{"trial_n":52,"min":87,"max":168,"target":"absent","response":"absent","rt":1718,"correct":true,"confidence":4},{"trial_n":53,"min":87,"max":168,"target":"absent","response":"absent","rt":2386,"correct":true,"confidence":3},{"trial_n":54,"min":88,"max":167,"target":"present","response":"absent","rt":2145,"correct":false,"confidence":3},{"trial_n":55,"min":87,"max":168,"target":"absent","response":"absent","rt":1292,"correct":true,"confidence":3},{"trial_n":56,"min":87,"max":168,"target":"present","response":"absent","rt":978,"correct":false,"confidence":3},{"trial_n":57,"min":86,"max":169,"target":"absent","response":"absent","rt":1140.0000000001,"correct":true,"confidence":4},{"trial_n":58,"min":86,"max":169,"target":"present","response":"present","rt":3519,"correct":true,"confidence":3},{"trial_n":59,"min":87,"max":168,"target":"absent","response":"absent","rt":3812,"correct":true,"confidence":2},{"trial_n":60,"min":87,"max":168,"target":"absent","response":"present","rt":1866.0000000001,"correct":false,"confidence":3},{"trial_n":61,"min":86,"max":169,"target":"present","response":"absent","rt":7964,"correct":false,"confidence":2},{"trial_n":62,"min":85,"max":170,"target":"present","response":"present","rt":1378,"correct":true,"confidence":3},{"trial_n":63,"min":85,"max":170,"target":"present","response":"present","rt":3158,"correct":true,"confidence":4},{"trial_n":64,"min":86,"max":169,"target":"absent","response":"present","rt":2312,"correct":false,"confidence":3},{"trial_n":65,"min":85,"max":170,"target":"present","response":"present","rt":1253.0000000001,"correct":true,"confidence":3},{"trial_n":66,"min":85,"max":170,"target":"present","response":"absent","rt":1265.0000000001,"correct":false,"confidence":3},{"trial_n":67,"min":84,"max":171,"target":"absent","response":"absent","rt":1103,"correct":true,"confidence":3},{"trial_n":68,"min":84,"max":171,"target":"absent","response":"absent","rt":1540,"correct":true,"confidence":3},{"trial_n":69,"min":85,"max":170,"target":"present","response":"present","rt":1324.9999999999,"correct":true,"confidence":3},{"trial_n":70,"min":85,"max":170,"target":"absent","response":"absent","rt":1012.9999999999,"correct":true,"confidence":3},{"trial_n":71,"min":41,"max":214,"target":"present","response":"present","rt":2624,"correct":true,"confidence":-1},{"trial_n":72,"min":41,"max":214,"target":"present","response":"present","rt":1157,"correct":true,"confidence":-1},{"trial_n":73,"min":57,"max":198,"target":"absent","response":"absent","rt":1119,"correct":true,"confidence":-1},{"trial_n":74,"min":57,"max":198,"target":"absent","response":"absent","rt":637,"correct":true,"confidence":-1},{"trial_n":75,"min":73,"max":182,"target":"present","response":"present","rt":163.99999999994,"correct":true,"confidence":-1},{"trial_n":76,"min":73,"max":182,"target":"absent","response":"absent","rt":142,"correct":true,"confidence":-1},{"trial_n":77,"min":89,"max":166,"target":"present","response":"present","rt":317,"correct":true,"confidence":-1},{"trial_n":78,"min":89,"max":166,"target":"present","response":"present","rt":449,"correct":true,"confidence":-1},{"trial_n":79,"min":105,"max":150,"target":"present","response":"present","rt":880.00000000006,"correct":true,"confidence":-1},{"trial_n":80,"min":105,"max":150,"target":"absent","response":"absent","rt":298,"correct":true,"confidence":-1},{"trial_n":81,"min":113,"max":142,"target":"absent","response":"absent","rt":349,"correct":true,"confidence":-1},{"trial_n":82,"min":113,"max":142,"target":"absent","response":"present","rt":849,"correct":false,"confidence":-1},{"trial_n":83,"min":105,"max":150,"target":"present","response":"absent","rt":183,"correct":false,"confidence":-1},{"trial_n":84,"min":97,"max":158,"target":"absent","response":"present","rt":232,"correct":false,"confidence":-1},{"trial_n":85,"min":89,"max":166,"target":"present","response":"absent","rt":279,"correct":false,"confidence":-1},{"trial_n":86,"min":81,"max":174,"target":"present","response":"present","rt":89.999999999942,"correct":true,"confidence":-1},{"trial_n":87,"min":81,"max":174,"target":"absent","response":"absent","rt":77,"correct":true,"confidence":-1},{"trial_n":88,"min":89,"max":166,"target":"absent","response":"absent","rt":133.00000000006,"correct":true,"confidence":-1},{"trial_n":89,"min":89,"max":166,"target":"present","response":"absent","rt":137,"correct":false,"confidence":-1},{"trial_n":90,"min":81,"max":174,"target":"present","response":"present","rt":387,"correct":true,"confidence":-1},{"trial_n":91,"min":81,"max":174,"target":"present","response":"present","rt":469.00000000006,"correct":true,"confidence":5},{"trial_n":92,"min":85,"max":170,"target":"present","response":"present","rt":1004.9999999999,"correct":true,"confidence":4},{"trial_n":93,"min":85,"max":170,"target":"absent","response":"present","rt":1637,"correct":false,"confidence":2},{"trial_n":94,"min":81,"max":174,"target":"present","response":"present","rt":770.99999999994,"correct":true,"confidence":4},{"trial_n":95,"min":81,"max":174,"target":"present","response":"present","rt":964,"correct":true,"confidence":3},{"trial_n":96,"min":85,"max":170,"target":"present","response":"present","rt":1008,"correct":true,"confidence":4},{"trial_n":97,"min":85,"max":170,"target":"absent","response":"absent","rt":1637,"correct":true,"confidence":3},{"trial_n":98,"min":89,"max":166,"target":"absent","response":"present","rt":1828,"correct":false,"confidence":2},{"trial_n":99,"min":85,"max":170,"target":"absent","response":"absent","rt":1143,"correct":true,"confidence":3},{"trial_n":100,"min":85,"max":170,"target":"absent","response":"absent","rt":1374,"correct":true,"confidence":2},{"trial_n":101,"min":87,"max":168,"target":"present","response":"present","rt":711.99999999994,"correct":true,"confidence":4},{"trial_n":102,"min":87,"max":168,"target":"absent","response":"present","rt":2399,"correct":false,"confidence":2},{"trial_n":103,"min":85,"max":170,"target":"absent","response":"absent","rt":809.00000000006,"correct":true,"confidence":3},{"trial_n":104,"min":85,"max":170,"target":"present","response":"present","rt":706,"correct":true,"confidence":4},{"trial_n":105,"min":87,"max":168,"target":"absent","response":"absent","rt":985.00000000006,"correct":true,"confidence":3},{"trial_n":106,"min":87,"max":168,"target":"absent","response":"absent","rt":819.99999999994,"correct":true,"confidence":4},{"trial_n":107,"min":89,"max":166,"target":"absent","response":"absent","rt":1846.9999999999,"correct":true,"confidence":2},{"trial_n":108,"min":89,"max":166,"target":"present","response":"absent","rt":1056,"correct":false,"confidence":2},{"trial_n":109,"min":87,"max":168,"target":"present","response":"present","rt":677,"correct":true,"confidence":3},{"trial_n":110,"min":87,"max":168,"target":"absent","response":"absent","rt":1349,"correct":true,"confidence":3},{"trial_n":111,"min":88,"max":167,"target":"absent","response":"absent","rt":969.00000000012,"correct":true,"confidence":3},{"trial_n":112,"min":88,"max":167,"target":"present","response":"absent","rt":2395.9999999999,"correct":false,"confidence":2},{"trial_n":113,"min":87,"max":168,"target":"absent","response":"absent","rt":798.99999999988,"correct":true,"confidence":3},{"trial_n":114,"min":87,"max":168,"target":"present","response":"present","rt":667,"correct":true,"confidence":3},{"trial_n":115,"min":88,"max":167,"target":"absent","response":"absent","rt":760,"correct":true,"confidence":3},{"trial_n":116,"min":88,"max":167,"target":"absent","response":"absent","rt":1052,"correct":true,"confidence":1},{"trial_n":117,"min":89,"max":166,"target":"present","response":"present","rt":2609,"correct":true,"confidence":2},{"trial_n":118,"min":89,"max":166,"target":"present","response":"present","rt":595,"correct":true,"confidence":4},{"trial_n":119,"min":90,"max":165,"target":"present","response":"present","rt":910.00000000012,"correct":true,"confidence":2},{"trial_n":120,"min":90,"max":165,"target":"present","response":"present","rt":751,"correct":true,"confidence":3},{"trial_n":121,"min":91,"max":164,"target":"present","response":"present","rt":839,"correct":true,"confidence":3},{"trial_n":122,"min":91,"max":164,"target":"absent","response":"absent","rt":878,"correct":true,"confidence":2},{"trial_n":123,"min":92,"max":163,"target":"absent","response":"absent","rt":2384,"correct":true,"confidence":3},{"trial_n":124,"min":92,"max":163,"target":"present","response":"absent","rt":888,"correct":false,"confidence":3},{"trial_n":125,"min":91,"max":164,"target":"absent","response":"absent","rt":1285,"correct":true,"confidence":2},{"trial_n":126,"min":91,"max":164,"target":"present","response":"absent","rt":1118.0000000001,"correct":false,"confidence":2},{"trial_n":127,"min":90,"max":165,"target":"present","response":"absent","rt":881.00000000012,"correct":false,"confidence":2},{"trial_n":128,"min":89,"max":166,"target":"absent","response":"absent","rt":988,"correct":true,"confidence":2},{"trial_n":129,"min":89,"max":166,"target":"absent","response":"absent","rt":1457,"correct":true,"confidence":2},{"trial_n":130,"min":90,"max":165,"target":"absent","response":"absent","rt":968.99999999988,"correct":true,"confidence":3},{"trial_n":131,"min":90,"max":165,"target":"absent","response":"absent","rt":1042,"correct":true,"confidence":1},{"trial_n":132,"min":91,"max":164,"target":"present","response":"absent","rt":1163,"correct":false,"confidence":2},{"trial_n":133,"min":90,"max":165,"target":"absent","response":"absent","rt":934,"correct":true,"confidence":2},{"trial_n":134,"min":90,"max":165,"target":"absent","response":"absent","rt":2577,"correct":true,"confidence":2},{"trial_n":135,"min":91,"max":164,"target":"present","response":"absent","rt":1064,"correct":false,"confidence":2},{"trial_n":136,"min":90,"max":165,"target":"present","response":"present","rt":924,"correct":true,"confidence":3},{"trial_n":137,"min":90,"max":165,"target":"present","response":"present","rt":5284,"correct":true,"confidence":2},{"trial_n":138,"min":91,"max":164,"target":"present","response":"present","rt":877,"correct":true,"confidence":3},{"trial_n":139,"min":91,"max":164,"target":"absent","response":"absent","rt":965,"correct":true,"confidence":2},{"trial_n":140,"min":92,"max":163,"target":"present","response":"absent","rt":879,"correct":false,"confidence":2}]