[{"trial_n":1,"n_dots":4.25,"target":"left","response":"left","rt":1652,"correct":true,"confidence":-1},{"trial_n":2,"n_dots":4.25,"target":"right","response":"left","rt":676,"correct":false,"confidence":-1},{"trial_n":3,"n_dots":4.65,"target":"right","response":"right","rt":327.00000000001,"correct":true,"confidence":-1},{"trial_n":4,"n_dots":4.65,"target":"left","response":"left","rt":637,"correct":true,"confidence":-1},{"trial_n":5,"n_dots":4.25,"target":"right","response":"left","rt":586,"correct":false,"confidence":-1},{"trial_n":6,"n_dots":4.65,"target":"right","response":"right","rt":377,"correct":true,"confidence":-1},{"trial_n":7,"n_dots":4.65,"target":"left","response":"left","rt":183,"correct":true,"confidence":-1},{"trial_n":8,"n_dots":4.45,"target":"left","response":"left","rt":280,"correct":true,"confidence":-1},{"trial_n":9,"n_dots":4.45,"target":"right","response":"right","rt":126.99999999999,"correct":true,"confidence":-1},{"trial_n":10,"n_dots":4.25,"target":"right","response":"right","rt":112,"correct":true,"confidence":-1},{"trial_n":11,"n_dots":4.25,"target":"left","response":"left","rt":96,"correct":true,"confidence":-1},{"trial_n":12,"n_dots":4.05,"target":"right","response":"right","rt":40,"correct":true,"confidence":-1},{"trial_n":13,"n_dots":4.05,"target":"left","response":"left","rt":68,"correct":true,"confidence":-1},{"trial_n":14,"n_dots":3.95,"target":"left","response":"left","rt":-68,"correct":true,"confidence":-1},{"trial_n":15,"n_dots":3.95,"target":"left","response":"left","rt":68,"correct":true,"confidence":-1},{"trial_n":16,"n_dots":3.85,"target":"right","response":"right","rt":331,"correct":true,"confidence":-1},{"trial_n":17,"n_dots":3.85,"target":"left","response":"left","rt":505,"correct":true,"confidence":-1},{"trial_n":18,"n_dots":3.75,"target":"right","response":"right","rt":362,"correct":true,"confidence":-1},{"trial_n":19,"n_dots":3.75,"target":"left","response":"right","rt":1842,"correct":false,"confidence":-1},{"trial_n":20,"n_dots":3.85,"target":"right","response":"right","rt":4352,"correct":true,"confidence":-1},{"trial_n":21,"n_dots":3.85,"target":"right","response":"right","rt":46,"correct":true,"confidence":4},{"trial_n":22,"n_dots":3.75,"target":"right","response":"right","rt":475,"correct":true,"confidence":4},{"trial_n":23,"n_dots":3.75,"target":"left","response":"left","rt":498,"correct":true,"confidence":4},{"trial_n":24,"n_dots":3.65,"target":"right","response":"right","rt":434,"correct":true,"confidence":4},{"trial_n":25,"n_dots":3.65,"target":"left","response":"left","rt":-0.9999999999709,"correct":true,"confidence":5},{"trial_n":26,"n_dots":3.55,"target":"left","response":"left","rt":30,"correct":true,"confidence":5},{"trial_n":27,"n_dots":3.55,"target":"right","response":"left","rt":165,"correct":false,"confidence":4},{"trial_n":28,"n_dots":3.65,"target":"left","response":"left","rt":96,"correct":true,"confidence":5},{"trial_n":29,"n_dots":3.65,"target":"left","response":"left","rt":145,"correct":true,"confidence":5},{"trial_n":30,"n_dots":3.55,"target":"left","response":"left","rt":257,"correct":true,"confidence":5},{"trial_n":31,"n_dots":3.55,"target":"left","response":"left","rt":121,"correct":true,"confidence":5},{"trial_n":32,"n_dots":3.45,"target":"left","response":"left","rt":335,"correct":true,"confidence":5},{"trial_n":33,"n_dots":3.45,"target":"right","response":"right","rt":572.99999999997,"correct":true,"confidence":4},{"trial_n":34,"n_dots":3.35,"target":"right","response":"right","rt":732,"correct":true,"confidence":4},{"trial_n":35,"n_dots":3.35,"target":"right","response":"right","rt":499,"correct":true,"confidence":5},{"trial_n":36,"n_dots":3.25,"target":"right","response":"right","rt":-13.999999999942,"correct":true,"confidence":5},{"trial_n":37,"n_dots":3.25,"target":"left","response":"left","rt":889,"correct":true,"confidence":3},{"trial_n":38,"n_dots":3.15,"target":"right","response":"right","rt":266,"correct":true,"confidence":5},{"trial_n":39,"n_dots":3.15,"target":"right","response":"right","rt":586,"correct":true,"confidence":4},{"trial_n":40,"n_dots":3.05,"target":"left","response":"left","rt":546,"correct":true,"confidence":3},{"trial_n":41,"n_dots":3.05,"target":"right","response":"right","rt":31,"correct":true,"confidence":5},{"trial_n":42,"n_dots":2.95,"target":"left","response":"left","rt":100,"correct":true,"confidence":5},{"trial_n":43,"n_dots":2.95,"target":"right","response":"left","rt":17.999999999942,"correct":false,"confidence":3},{"trial_n":44,"n_dots":3.05,"target":"right","response":"right","rt":334,"correct":true,"confidence":3},{"trial_n":45,"n_dots":3.05,"target":"left","response":"left","rt":246,"correct":true,"confidence":4},{"trial_n":46,"n_dots":2.95,"target":"left","response":"left","rt":476,"correct":true,"confidence":3},{"trial_n":47,"n_dots":2.95,"target":"left","response":"left","rt":769,"correct":true,"confidence":2},{"trial_n":48,"n_dots":2.85,"target":"right","response":"right","rt":374,"correct":true,"confidence":3},{"trial_n":49,"n_dots":2.85,"target":"right","response":"left","rt":415,"correct":false,"confidence":2},{"trial_n":50,"n_dots":2.95,"target":"right","response":"right","rt":391.00000000006,"correct":true,"confidence":2},{"trial_n":51,"n_dots":2.95,"target":"left","response":"left","rt":459,"correct":true,"confidence":4},{"trial_n":52,"n_dots":2.85,"target":"left","response":"left","rt":409,"correct":true,"confidence":3},{"trial_n":53,"n_dots":2.85,"target":"right","response":"left","rt":496,"correct":false,"confidence":2},{"trial_n":54,"n_dots":2.95,"target":"right","response":"left","rt":797,"correct":false,"confidence":1},{"trial_n":55,"n_dots":3.05,"target":"right","response":"right","rt":359,"correct":true,"confidence":4},{"trial_n":56,"n_dots":3.05,"target":"left","response":"left","rt":372,"correct":true,"confidence":3},{"trial_n":57,"n_dots":2.95,"target":"right","response":"left","rt":407,"correct":false,"confidence":2},{"trial_n":58,"n_dots":3.05,"target":"right","response":"right","rt":515,"correct":true,"confidence":2},{"trial_n":59,"n_dots":3.05,"target":"right","response":"right","rt":440,"correct":true,"confidence":3},{"trial_n":60,"n_dots":2.95,"target":"left","response":"right","rt":378.00000000006,"correct":false,"confidence":3},{"trial_n":61,"n_dots":3.05,"target":"left","response":"left","rt":229,"correct":true,"confidence":3},{"trial_n":62,"n_dots":3.05,"target":"left","response":"left","rt":156,"correct":true,"confidence":3},{"trial_n":63,"n_dots":2.95,"target":"right","response":"left","rt":716,"correct":false,"confidence":3},{"trial_n":64,"n_dots":3.05,"target":"left","response":"right","rt":335,"correct":false,"confidence":3},{"trial_n":65,"n_dots":3.15,"target":"left","response":"left","rt":478.99999999994,"correct":true,"confidence":3},{"trial_n":66,"n_dots":3.15,"target":"left","response":"left","rt":561.00000000006,"correct":true,"confidence":3},{"trial_n":67,"n_dots":3.05,"target":"left","response":"left","rt":577,"correct":true,"confidence":4},{"trial_n":68,"n_dots":3.05,"target":"right","response":"right","rt":519,"correct":true,"confidence":3},{"trial_n":69,"n_dots":2.95,"target":"left","response":"left","rt":122,"correct":true,"confidence":4},{"trial_n":70,"n_dots":2.95,"target":"right","response":"left","rt":296.99999999994,"correct":false,"confidence":4},{"trial_n":71,"n_dots":3.05,"target":"left","response":"left","rt":91,"correct":true,"confidence":5},{"trial_n":72,"n_dots":3.05,"target":"left","response":"left","rt":637.99999999994,"correct":true,"confidence":3},{"trial_n":73,"n_dots":2.95,"target":"left","response":"left","rt":131,"correct":true,"confidence":5},{"trial_n":74,"n_dots":2.95,"target":"left","response":"left","rt":67,"correct":true,"confidence":5},{"trial_n":75,"n_dots":2.85,"target":"right","response":"left","rt":122.99999999994,"correct":false,"confidence":3},{"trial_n":76,"n_dots":2.95,"target":"left","response":"left","rt":17,"correct":true,"confidence":5},{"trial_n":77,"n_dots":2.95,"target":"left","response":"left","rt":-12,"correct":true,"confidence":5},{"trial_n":78,"n_dots":2.85,"target":"left","response":"left","rt":-6.9999999999418,"correct":true,"confidence":5},{"trial_n":79,"n_dots":2.85,"target":"left","response":"left","rt":101,"correct":true,"confidence":5},{"trial_n":80,"n_dots":2.75,"target":"right","response":"left","rt":325,"correct":false,"confidence":1},{"trial_n":81,"n_dots":2.85,"target":"left","response":"left","rt":839,"correct":true,"confidence":4},{"trial_n":82,"n_dots":2.85,"target":"right","response":"left","rt":-23,"correct":false,"confidence":4},{"trial_n":83,"n_dots":2.95,"target":"left","response":"left","rt":-70.999999999942,"correct":true,"confidence":4},{"trial_n":84,"n_dots":2.95,"target":"left","response":"left","rt":-31,"correct":true,"confidence":2},{"trial_n":85,"n_dots":2.85,"target":"left","response":"left","rt":286,"correct":true,"confidence":3},{"trial_n":86,"n_dots":2.85,"target":"right","response":"left","rt":908,"correct":false,"confidence":2},{"trial_n":87,"n_dots":2.95,"target":"right","response":"left","rt":151,"correct":false,"confidence":2},{"trial_n":88,"n_dots":3.05,"target":"right","response":"left","rt":147,"correct":false,"confidence":3},{"trial_n":89,"n_dots":3.15,"target":"left","response":"left","rt":745,"correct":true,"confidence":3},{"trial_n":90,"n_dots":3.15,"target":"right","response":"left","rt":89.999999999884,"correct":false,"confidence":3},{"trial_n":91,"n_dots":3.25,"target":"right","response":"left","rt":158,"correct":false,"confidence":3},{"trial_n":92,"n_dots":3.35,"target":"right","response":"right","rt":495,"correct":true,"confidence":4},{"trial_n":93,"n_dots":3.35,"target":"left","response":"left","rt":-26,"correct":true,"confidence":4},{"trial_n":94,"n_dots":3.25,"target":"left","response":"left","rt":196,"correct":true,"confidence":2},{"trial_n":95,"n_dots":3.25,"target":"right","response":"left","rt":109,"correct":false,"confidence":2},{"trial_n":96,"n_dots":3.35,"target":"right","response":"right","rt":49,"correct":true,"confidence":3},{"trial_n":97,"n_dots":3.35,"target":"right","response":"right","rt":701,"correct":true,"confidence":2},{"trial_n":98,"n_dots":3.25,"target":"right","response":"right","rt":351,"correct":true,"confidence":4},{"trial_n":99,"n_dots":3.25,"target":"right","response":"right","rt":1001,"correct":true,"confidence":3},{"trial_n":100,"n_dots":3.15,"target":"left","response":"left","rt":59,"correct":true,"confidence":4},{"trial_n":101,"n_dots":3.15,"target":"left","response":"left","rt":336.99999999988,"correct":true,"confidence":3},{"trial_n":102,"n_dots":3.05,"target":"left","response":"left","rt":174,"correct":true,"confidence":4},{"trial_n":103,"n_dots":3.05,"target":"left","response":"left","rt":196,"correct":true,"confidence":3},{"trial_n":104,"n_dots":2.95,"target":"right","response":"left","rt":210.99999999988,"correct":false,"confidence":2},{"trial_n":105,"n_dots":3.05,"target":"left","response":"left","rt":405,"correct":true,"confidence":4},{"trial_n":106,"n_dots":3.05,"target":"right","response":"right","rt":457,"correct":true,"confidence":2},{"trial_n":107,"n_dots":2.95,"target":"right","response":"left","rt":19,"correct":false,"confidence":4},{"trial_n":108,"n_dots":3.05,"target":"right","response":"left","rt":0,"correct":false,"confidence":2},{"trial_n":109,"n_dots":3.15,"target":"left","response":"right","rt":138,"correct":false,"confidence":4},{"trial_n":110,"n_dots":3.25,"target":"right","response":"right","rt":0,"correct":true,"confidence":4},{"trial_n":111,"n_dots":3.25,"target":"right","response":"left","rt":194,"correct":false,"confidence":4},{"trial_n":112,"n_dots":3.35,"target":"left","response":"left","rt":142,"correct":true,"confidence":5},{"trial_n":113,"n_dots":3.35,"target":"left","response":"left","rt":106,"correct":true,"confidence":3},{"trial_n":114,"n_dots":3.25,"target":"left","response":"left","rt":89,"correct":true,"confidence":4},{"trial_n":115,"n_dots":3.25,"target":"right","response":"left","rt":246,"correct":false,"confidence":2},{"trial_n":116,"n_dots":3.35,"target":"right","response":"right","rt":156,"correct":true,"confidence":5},{"trial_n":117,"n_dots":3.35,"target":"right","response":"right","rt":84,"correct":true,"confidence":5},{"trial_n":118,"n_dots":3.25,"target":"right","response":"right","rt":162,"correct":true,"confidence":5},{"trial_n":119,"n_dots":3.25,"target":"left","response":"right","rt":550,"correct":false,"confidence":5},{"trial_n":120,"n_dots":3.35,"target":"right","response":"right","rt":538,"correct":true,"confidence":4}]