[{"trial_n":1,"span":8,"encoder":"01797971","distractor":"01797371","target":"present","response":"present","rt":"6660","correct":true,"confidence":-1},{"trial_n":2,"span":8,"encoder":"71373617","distractor":"71303617","target":"present","response":"absent","rt":"3014","correct":false,"confidence":-1},{"trial_n":3,"span":6,"encoder":"739002","distractor":"339002","target":"absent","response":"absent","rt":"2358","correct":true,"confidence":-1},{"trial_n":4,"span":6,"encoder":"890798","distractor":"840798","target":"absent","response":"absent","rt":"2260","correct":true,"confidence":-1},{"trial_n":5,"span":8,"encoder":"90344564","distractor":"90344364","target":"present","response":"present","rt":"3551","correct":true,"confidence":-1},{"trial_n":6,"span":8,"encoder":"07373956","distractor":"07353956","target":"present","response":"present","rt":"4289","correct":true,"confidence":-1},{"trial_n":7,"span":10,"encoder":"7434355635","distractor":"4434355635","target":"present","response":"absent","rt":"2038","correct":false,"confidence":-1},{"trial_n":8,"span":8,"encoder":"95123614","distractor":"90123614","target":"present","response":"present","rt":"1841","correct":true,"confidence":-1},{"trial_n":9,"span":8,"encoder":"40116250","distractor":"40136250","target":"present","response":"present","rt":"2072","correct":true,"confidence":-1},{"trial_n":10,"span":10,"encoder":"1854789286","distractor":"1054789286","target":"present","response":"absent","rt":"1926","correct":false,"confidence":-1},{"trial_n":11,"span":8,"encoder":"57445673","distractor":"77445673","target":"present","response":"present","rt":"1839","correct":true,"confidence":-1},{"trial_n":12,"span":8,"encoder":"33446433","distractor":"33449433","target":"present","response":"present","rt":"1883","correct":true,"confidence":-1},{"trial_n":13,"span":9,"encoder":"717549152","distractor":"711549152","target":"absent","response":"present","rt":"2057","correct":false,"confidence":-1},{"trial_n":14,"span":8,"encoder":"69380752","distractor":"67380752","target":"absent","response":"present","rt":"1824","correct":false,"confidence":-1},{"trial_n":15,"span":7,"encoder":"5223013","distractor":"5223019","target":"present","response":"present","rt":"1382","correct":true,"confidence":-1},{"trial_n":16,"span":7,"encoder":"8438419","distractor":"8448419","target":"absent","response":"present","rt":"1537","correct":false,"confidence":-1},{"trial_n":17,"span":6,"encoder":"227095","distractor":"227795","target":"present","response":"present","rt":"1263","correct":true,"confidence":-1},{"trial_n":18,"span":6,"encoder":"169321","distractor":"169221","target":"present","response":"present","rt":"1001","correct":true,"confidence":-1},{"trial_n":19,"span":7,"encoder":"6063970","distractor":"6063920","target":"present","response":"present","rt":"1268","correct":true,"confidence":-1},{"trial_n":20,"span":7,"encoder":"8796204","distractor":"8796224","target":"absent","response":"absent","rt":"2265","correct":true,"confidence":-1},{"trial_n":21,"span":8,"encoder":"54365170","distractor":"54325170","target":"present","response":"absent","rt":"3544","correct":false,"confidence":3},{"trial_n":22,"span":7,"encoder":"7070340","distractor":"7075340","target":"present","response":"present","rt":"1909","correct":true,"confidence":4},{"trial_n":23,"span":7,"encoder":"5980621","distractor":"5980651","target":"absent","response":"absent","rt":"2805","correct":true,"confidence":4},{"trial_n":24,"span":8,"encoder":"96740770","distractor":"96740779","target":"absent","response":"present","rt":"5383","correct":false,"confidence":3},{"trial_n":25,"span":7,"encoder":"1446833","distractor":"1446823","target":"present","response":"absent","rt":"4518","correct":false,"confidence":5},{"trial_n":26,"span":6,"encoder":"861630","distractor":"461630","target":"absent","response":"present","rt":"3321","correct":false,"confidence":5},{"trial_n":27,"span":5,"encoder":"72632","distractor":"75632","target":"absent","response":"present","rt":"7909","correct":false,"confidence":4},{"trial_n":28,"span":4,"encoder":"4433","distractor":"4333","target":"absent","response":"absent","rt":"2189","correct":true,"confidence":5},{"trial_n":29,"span":4,"encoder":"9246","distractor":"9241","target":"absent","response":"absent","rt":"1670","correct":true,"confidence":5},{"trial_n":30,"span":5,"encoder":"07222","distractor":"03222","target":"present","response":"present","rt":"1862","correct":true,"confidence":5},{"trial_n":31,"span":5,"encoder":"51330","distractor":"51300","target":"absent","response":"absent","rt":"2239.9999999999","correct":true,"confidence":5},{"trial_n":32,"span":6,"encoder":"548596","distractor":"538596","target":"present","response":"present","rt":"4731","correct":true,"confidence":4},{"trial_n":33,"span":6,"encoder":"571662","distractor":"571062","target":"present","response":"present","rt":"2599","correct":true,"confidence":5},{"trial_n":34,"span":7,"encoder":"3890149","distractor":"3890139","target":"present","response":"present","rt":"3123","correct":true,"confidence":5},{"trial_n":35,"span":7,"encoder":"2347751","distractor":"2344751","target":"absent","response":"absent","rt":"2232.0000000001","correct":true,"confidence":5},{"trial_n":36,"span":8,"encoder":"03406313","distractor":"03006313","target":"absent","response":"absent","rt":"3304","correct":true,"confidence":4},{"trial_n":37,"span":8,"encoder":"42043293","distractor":"42043298","target":"present","response":"present","rt":"2541","correct":true,"confidence":4},{"trial_n":38,"span":9,"encoder":"707239631","distractor":"707299631","target":"present","response":"present","rt":"5459","correct":true,"confidence":3},{"trial_n":39,"span":9,"encoder":"062564402","distractor":"062566402","target":"absent","response":"absent","rt":"3198.0000000001","correct":true,"confidence":3},{"trial_n":40,"span":10,"encoder":"4713944344","distractor":"4713144344","target":"present","response":"present","rt":"2532","correct":true,"confidence":4},{"trial_n":41,"span":10,"encoder":"2428370440","distractor":"2428770440","target":"absent","response":"present","rt":"1923","correct":false,"confidence":3},{"trial_n":42,"span":9,"encoder":"759898557","distractor":"769898557","target":"absent","response":"present","rt":"1610","correct":false,"confidence":3},{"trial_n":43,"span":8,"encoder":"00915204","distractor":"00315204","target":"absent","response":"absent","rt":"2886","correct":true,"confidence":5},{"trial_n":44,"span":8,"encoder":"17355200","distractor":"17355230","target":"present","response":"present","rt":"4300","correct":true,"confidence":4},{"trial_n":45,"span":9,"encoder":"012465457","distractor":"012065457","target":"present","response":"present","rt":"4665","correct":true,"confidence":3},{"trial_n":46,"span":9,"encoder":"593601481","distractor":"523601481","target":"absent","response":"absent","rt":"8920.0000000001","correct":true,"confidence":3},{"trial_n":47,"span":10,"encoder":"9176219880","distractor":"0176219880","target":"present","response":"present","rt":"3012","correct":true,"confidence":4},{"trial_n":48,"span":10,"encoder":"2061930445","distractor":"2071930445","target":"absent","response":"present","rt":"8015","correct":false,"confidence":2},{"trial_n":49,"span":9,"encoder":"108195231","distractor":"508195231","target":"absent","response":"present","rt":"3642","correct":false,"confidence":4},{"trial_n":50,"span":8,"encoder":"13459771","distractor":"13450771","target":"present","response":"present","rt":"1862","correct":true,"confidence":5},{"trial_n":51,"span":8,"encoder":"94730059","distractor":"94730049","target":"absent","response":"present","rt":"1982","correct":false,"confidence":4},{"trial_n":52,"span":7,"encoder":"7225761","distractor":"1225761","target":"present","response":"absent","rt":"6434.9999999999","correct":false,"confidence":3},{"trial_n":53,"span":6,"encoder":"012704","distractor":"812704","target":"absent","response":"absent","rt":"1486","correct":true,"confidence":5},{"trial_n":54,"span":6,"encoder":"827924","distractor":"827824","target":"absent","response":"absent","rt":"2801.0000000001","correct":true,"confidence":5},{"trial_n":55,"span":7,"encoder":"8987429","distractor":"4987429","target":"absent","response":"absent","rt":"3766","correct":true,"confidence":4},{"trial_n":56,"span":7,"encoder":"6016693","distractor":"6816693","target":"present","response":"present","rt":"2698","correct":true,"confidence":5},{"trial_n":57,"span":8,"encoder":"28256994","distractor":"38256994","target":"present","response":"absent","rt":"1716","correct":false,"confidence":5},{"trial_n":58,"span":7,"encoder":"5865527","distractor":"5865557","target":"absent","response":"absent","rt":"2361","correct":true,"confidence":5},{"trial_n":59,"span":7,"encoder":"7419872","distractor":"7419812","target":"present","response":"present","rt":"2448","correct":true,"confidence":5},{"trial_n":60,"span":8,"encoder":"37279353","distractor":"37209353","target":"absent","response":"absent","rt":"2495","correct":true,"confidence":5},{"trial_n":61,"span":8,"encoder":"66617460","distractor":"16617460","target":"absent","response":"absent","rt":"2459","correct":true,"confidence":4},{"trial_n":62,"span":9,"encoder":"879424426","distractor":"879444426","target":"present","response":"absent","rt":"2110.9999999999","correct":false,"confidence":3},{"trial_n":63,"span":8,"encoder":"39122320","distractor":"49122320","target":"present","response":"present","rt":"2779","correct":true,"confidence":4},{"trial_n":64,"span":8,"encoder":"09256219","distractor":"09206219","target":"absent","response":"absent","rt":"4101","correct":true,"confidence":2},{"trial_n":65,"span":9,"encoder":"828875842","distractor":"828825842","target":"absent","response":"absent","rt":"2047","correct":true,"confidence":4},{"trial_n":66,"span":9,"encoder":"966657945","distractor":"967657945","target":"absent","response":"absent","rt":"2174.0000000001","correct":true,"confidence":5},{"trial_n":67,"span":10,"encoder":"0672926277","distractor":"0602926277","target":"absent","response":"present","rt":"5582","correct":false,"confidence":3},{"trial_n":68,"span":9,"encoder":"730561309","distractor":"730561209","target":"absent","response":"absent","rt":"2119","correct":true,"confidence":5},{"trial_n":69,"span":9,"encoder":"005243862","distractor":"045243862","target":"present","response":"present","rt":"3402.9999999999","correct":true,"confidence":3},{"trial_n":70,"span":10,"encoder":"1155626562","distractor":"1155626568","target":"present","response":"present","rt":"3606","correct":true,"confidence":5},{"trial_n":71,"span":8,"encoder":"33898057","distractor":"53898057","target":"present","response":"present","rt":"2110","correct":true,"confidence":-1},{"trial_n":72,"span":8,"encoder":"70041885","distractor":"30041885","target":"present","response":"present","rt":"2449","correct":true,"confidence":-1},{"trial_n":73,"span":9,"encoder":"363124208","distractor":"353124208","target":"absent","response":"absent","rt":"3057","correct":true,"confidence":-1},{"trial_n":74,"span":9,"encoder":"840547514","distractor":"840547614","target":"absent","response":"present","rt":"1952","correct":false,"confidence":-1},{"trial_n":75,"span":8,"encoder":"83304079","distractor":"83304075","target":"present","response":"present","rt":"1333.9999999999","correct":true,"confidence":-1},{"trial_n":76,"span":8,"encoder":"18347294","distractor":"18347284","target":"present","response":"present","rt":"2069","correct":true,"confidence":-1},{"trial_n":77,"span":9,"encoder":"323209027","distractor":"323209025","target":"present","response":"present","rt":"1484.9999999999","correct":true,"confidence":-1},{"trial_n":78,"span":9,"encoder":"340683235","distractor":"340684235","target":"present","response":"present","rt":"2991","correct":true,"confidence":-1},{"trial_n":79,"span":10,"encoder":"1817909498","distractor":"1817919498","target":"absent","response":"present","rt":"1717","correct":false,"confidence":-1},{"trial_n":80,"span":9,"encoder":"582746013","distractor":"572746013","target":"absent","response":"present","rt":"2559.9999999999","correct":false,"confidence":-1},{"trial_n":81,"span":8,"encoder":"41777385","distractor":"41277385","target":"absent","response":"present","rt":"3550.0000000001","correct":false,"confidence":-1},{"trial_n":82,"span":7,"encoder":"4662948","distractor":"4662908","target":"present","response":"present","rt":"2040","correct":true,"confidence":-1},{"trial_n":83,"span":7,"encoder":"2188912","distractor":"5188912","target":"absent","response":"absent","rt":"1949","correct":true,"confidence":-1},{"trial_n":84,"span":8,"encoder":"35489207","distractor":"25489207","target":"present","response":"present","rt":"8062","correct":true,"confidence":-1},{"trial_n":85,"span":8,"encoder":"79901389","distractor":"79901380","target":"absent","response":"absent","rt":"1421","correct":true,"confidence":-1},{"trial_n":86,"span":9,"encoder":"387699200","distractor":"387699230","target":"present","response":"present","rt":"2762","correct":true,"confidence":-1},{"trial_n":87,"span":9,"encoder":"324767863","distractor":"321767863","target":"absent","response":"absent","rt":"2819","correct":true,"confidence":-1},{"trial_n":88,"span":10,"encoder":"8251604912","distractor":"8251604922","target":"present","response":"present","rt":"2071.0000000001","correct":true,"confidence":-1},{"trial_n":89,"span":10,"encoder":"6082257583","distractor":"6082257582","target":"present","response":"present","rt":"1979.9999999999","correct":true,"confidence":-1},{"trial_n":90,"span":11,"encoder":"46584216773","distractor":"46584216753","target":"absent","response":"absent","rt":"3523","correct":true,"confidence":-1},{"trial_n":91,"span":11,"encoder":"87730398174","distractor":"87730398374","target":"present","response":"present","rt":"2239","correct":true,"confidence":4},{"trial_n":92,"span":12,"encoder":"837574602486","distractor":"837574602686","target":"present","response":"present","rt":"4638.0000000002","correct":true,"confidence":3},{"trial_n":93,"span":12,"encoder":"561380188884","distractor":"561480188884","target":"present","response":"present","rt":"5311.9999999998","correct":true,"confidence":3},{"trial_n":94,"span":13,"encoder":"8881433126828","distractor":"8881433106828","target":"present","response":"present","rt":"6481","correct":true,"confidence":2},{"trial_n":95,"span":13,"encoder":"3367531465745","distractor":"3367581465745","target":"present","response":"absent","rt":"3830","correct":false,"confidence":3},{"trial_n":96,"span":12,"encoder":"373460579252","distractor":"373460479252","target":"absent","response":"absent","rt":"15711","correct":true,"confidence":2},{"trial_n":97,"span":12,"encoder":"687395696714","distractor":"683395696714","target":"present","response":"present","rt":"5964","correct":true,"confidence":2},{"trial_n":98,"span":13,"encoder":"8152494912560","distractor":"8152494914560","target":"absent","response":"absent","rt":"3179","correct":true,"confidence":4},{"trial_n":99,"span":13,"encoder":"4929216704407","distractor":"4929216704417","target":"present","response":"present","rt":"2265","correct":true,"confidence":3},{"trial_n":100,"span":14,"encoder":"29937677135709","distractor":"29947677135709","target":"absent","response":"absent","rt":"10224","correct":true,"confidence":2},{"trial_n":101,"span":14,"encoder":"20157133524591","distractor":"20657133524591","target":"present","response":"present","rt":"3667","correct":true,"confidence":2},{"trial_n":102,"span":15,"encoder":"932932009272536","distractor":"932912009272536","target":"absent","response":"absent","rt":"8796","correct":true,"confidence":3},{"trial_n":103,"span":15,"encoder":"318891363269140","distractor":"318891363269040","target":"present","response":"present","rt":"3793","correct":true,"confidence":4},{"trial_n":104,"span":16,"encoder":"7672498139323370","distractor":"7672498139323170","target":"present","response":"present","rt":"1829","correct":true,"confidence":4},{"trial_n":105,"span":16,"encoder":"0440830116784391","distractor":"0440830116784394","target":"absent","response":"absent","rt":"2499","correct":true,"confidence":5},{"trial_n":106,"span":17,"encoder":"53244849524563726","distractor":"53244849528563726","target":"present","response":"present","rt":"7680","correct":true,"confidence":2},{"trial_n":107,"span":17,"encoder":"16910215923708577","distractor":"16910205923708577","target":"absent","response":"present","rt":"7597","correct":false,"confidence":4},{"trial_n":108,"span":16,"encoder":"2503559117293750","distractor":"2503959117293750","target":"absent","response":"present","rt":"5680","correct":false,"confidence":2},{"trial_n":109,"span":15,"encoder":"843609290156594","distractor":"843609290056594","target":"present","response":"absent","rt":"6852","correct":false,"confidence":4},{"trial_n":110,"span":14,"encoder":"70134603528199","distractor":"70134603522199","target":"present","response":"present","rt":"3119","correct":true,"confidence":2},{"trial_n":111,"span":14,"encoder":"70465083198809","distractor":"70465083198806","target":"absent","response":"absent","rt":"2141","correct":true,"confidence":5},{"trial_n":112,"span":15,"encoder":"614282280455772","distractor":"614282280459772","target":"absent","response":"absent","rt":"2731.9999999998","correct":true,"confidence":5},{"trial_n":113,"span":15,"encoder":"383546744747275","distractor":"393546744747275","target":"absent","response":"absent","rt":"8546","correct":true,"confidence":4},{"trial_n":114,"span":16,"encoder":"0642290854418947","distractor":"0642290854418987","target":"absent","response":"present","rt":"4972","correct":false,"confidence":3},{"trial_n":115,"span":15,"encoder":"648221138554939","distractor":"646221138554939","target":"present","response":"absent","rt":"17985","correct":false,"confidence":4},{"trial_n":116,"span":14,"encoder":"13398136375169","distractor":"13398136315169","target":"absent","response":"present","rt":"7997","correct":false,"confidence":2},{"trial_n":117,"span":13,"encoder":"3419828170469","distractor":"3419858170469","target":"absent","response":"absent","rt":"3430","correct":true,"confidence":2},{"trial_n":118,"span":13,"encoder":"8285558899898","distractor":"8285558899798","target":"present","response":"present","rt":"6313","correct":true,"confidence":3},{"trial_n":119,"span":14,"encoder":"32130261610158","distractor":"32130261610157","target":"present","response":"present","rt":"1289","correct":true,"confidence":5},{"trial_n":120,"span":14,"encoder":"33450620453737","distractor":"33457620453737","target":"absent","response":"absent","rt":"8348","correct":true,"confidence":2},{"trial_n":121,"span":15,"encoder":"339495259776512","distractor":"339495259776511","target":"absent","response":"absent","rt":"1492.0000000002","correct":true,"confidence":5},{"trial_n":122,"span":15,"encoder":"491653325018213","distractor":"491653325078213","target":"present","response":"present","rt":"4241.9999999998","correct":true,"confidence":3},{"trial_n":123,"span":16,"encoder":"0862757150448541","distractor":"0862777150448541","target":"absent","response":"present","rt":"2290","correct":false,"confidence":2},{"trial_n":124,"span":15,"encoder":"896724858722875","distractor":"896724858222875","target":"present","response":"present","rt":"2062","correct":true,"confidence":4},{"trial_n":125,"span":15,"encoder":"141166517125446","distractor":"141166517125466","target":"present","response":"present","rt":"1841.9999999998","correct":true,"confidence":5},{"trial_n":126,"span":16,"encoder":"6125571348469359","distractor":"6125571348969359","target":"absent","response":"present","rt":"6561","correct":false,"confidence":2},{"trial_n":127,"span":15,"encoder":"039332364325637","distractor":"039332364375637","target":"absent","response":"present","rt":"17545","correct":false,"confidence":2},{"trial_n":128,"span":14,"encoder":"29544803962717","distractor":"28544803962717","target":"present","response":"absent","rt":"11284","correct":false,"confidence":3},{"trial_n":129,"span":13,"encoder":"0362259607820","distractor":"0162259607820","target":"present","response":"absent","rt":"4592.0000000002","correct":false,"confidence":2},{"trial_n":130,"span":12,"encoder":"009972067858","distractor":"004972067858","target":"present","response":"present","rt":"3310","correct":true,"confidence":5},{"trial_n":131,"span":12,"encoder":"458666551898","distractor":"458676551898","target":"absent","response":"absent","rt":"4469.0000000002","correct":true,"confidence":4},{"trial_n":132,"span":13,"encoder":"6093929662376","distractor":"6093969662376","target":"absent","response":"present","rt":"5044","correct":false,"confidence":2},{"trial_n":133,"span":12,"encoder":"996831390469","distractor":"996831990469","target":"present","response":"present","rt":"7767","correct":true,"confidence":2},{"trial_n":134,"span":12,"encoder":"908817277024","distractor":"908817270024","target":"absent","response":"absent","rt":"2251.9999999998","correct":true,"confidence":4},{"trial_n":135,"span":13,"encoder":"2573099427240","distractor":"2573099827240","target":"absent","response":"absent","rt":"6103","correct":true,"confidence":3},{"trial_n":136,"span":13,"encoder":"7023553389039","distractor":"7023553389339","target":"absent","response":"absent","rt":"1861.0000000002","correct":true,"confidence":5},{"trial_n":137,"span":14,"encoder":"52328766402236","distractor":"52328760402236","target":"present","response":"absent","rt":"3987","correct":false,"confidence":2},{"trial_n":138,"span":13,"encoder":"1867261440791","distractor":"1867861440791","target":"present","response":"absent","rt":"4284.0000000002","correct":false,"confidence":2},{"trial_n":139,"span":12,"encoder":"188547105313","distractor":"188587105313","target":"absent","response":"present","rt":"5426","correct":false,"confidence":2},{"trial_n":140,"span":11,"encoder":"89675797038","distractor":"87675797038","target":"absent","response":"absent","rt":"4561","correct":true,"confidence":3}]