[{"trial_n":1,"n_dots":4.25,"target":"left","response":"left","rt":783.10000000009,"correct":true,"confidence":-1},{"trial_n":2,"n_dots":4.25,"target":"left","response":"left","rt":706,"correct":true,"confidence":-1},{"trial_n":3,"n_dots":3.85,"target":"right","response":"right","rt":942.79999999981,"correct":true,"confidence":-1},{"trial_n":4,"n_dots":3.85,"target":"right","response":"right","rt":809.79999999981,"correct":true,"confidence":-1},{"trial_n":5,"n_dots":3.45,"target":"left","response":"left","rt":593.60000000009,"correct":true,"confidence":-1},{"trial_n":6,"n_dots":3.45,"target":"right","response":"left","rt":1148.5999999996,"correct":false,"confidence":-1},{"trial_n":7,"n_dots":3.85,"target":"left","response":"right","rt":1180.2000000002,"correct":false,"confidence":-1},{"trial_n":8,"n_dots":4.05,"target":"right","response":"right","rt":1245.8999999999,"correct":true,"confidence":-1},{"trial_n":9,"n_dots":4.05,"target":"right","response":"left","rt":1337.8999999999,"correct":false,"confidence":-1},{"trial_n":10,"n_dots":4.25,"target":"left","response":"left","rt":541.39999999991,"correct":true,"confidence":-1},{"trial_n":11,"n_dots":4.25,"target":"right","response":"right","rt":749.89999999991,"correct":true,"confidence":-1},{"trial_n":12,"n_dots":4.05,"target":"left","response":"left","rt":494.80000000028,"correct":true,"confidence":-1},{"trial_n":13,"n_dots":4.05,"target":"right","response":"right","rt":660.59999999963,"correct":true,"confidence":-1},{"trial_n":14,"n_dots":3.95,"target":"right","response":"left","rt":841.10000000009,"correct":false,"confidence":-1},{"trial_n":15,"n_dots":4.05,"target":"left","response":"left","rt":450.5,"correct":true,"confidence":-1},{"trial_n":16,"n_dots":4.05,"target":"right","response":"right","rt":615.79999999981,"correct":true,"confidence":-1},{"trial_n":17,"n_dots":3.95,"target":"right","response":"left","rt":492.70000000019,"correct":false,"confidence":-1},{"trial_n":18,"n_dots":4.05,"target":"right","response":"right","rt":555.30000000028,"correct":true,"confidence":-1},{"trial_n":19,"n_dots":4.05,"target":"left","response":"left","rt":609.60000000009,"correct":true,"confidence":-1},{"trial_n":20,"n_dots":3.95,"target":"right","response":"right","rt":492.39999999991,"correct":true,"confidence":-1},{"trial_n":21,"n_dots":3.95,"target":"right","response":"right","rt":749.80000000028,"correct":true,"confidence":4},{"trial_n":22,"n_dots":3.85,"target":"left","response":"left","rt":583.70000000019,"correct":true,"confidence":5},{"trial_n":23,"n_dots":3.85,"target":"left","response":"left","rt":453.09999999963,"correct":true,"confidence":5},{"trial_n":24,"n_dots":3.75,"target":"left","response":"left","rt":593.29999999981,"correct":true,"confidence":5},{"trial_n":25,"n_dots":3.75,"target":"right","response":"left","rt":1084.6000000001,"correct":false,"confidence":5},{"trial_n":26,"n_dots":3.85,"target":"right","response":"right","rt":799.09999999963,"correct":true,"confidence":5},{"trial_n":27,"n_dots":3.85,"target":"right","response":"right","rt":563,"correct":true,"confidence":5},{"trial_n":28,"n_dots":3.75,"target":"right","response":"right","rt":609.30000000028,"correct":true,"confidence":5},{"trial_n":29,"n_dots":3.75,"target":"right","response":"left","rt":797.20000000019,"correct":false,"confidence":5},{"trial_n":30,"n_dots":3.85,"target":"left","response":"left","rt":664.70000000019,"correct":true,"confidence":5},{"trial_n":31,"n_dots":3.85,"target":"right","response":"right","rt":1995.6000000001,"correct":true,"confidence":1},{"trial_n":32,"n_dots":3.75,"target":"left","response":"left","rt":560.79999999981,"correct":true,"confidence":5},{"trial_n":33,"n_dots":3.75,"target":"left","response":"left","rt":800.10000000009,"correct":true,"confidence":4},{"trial_n":34,"n_dots":3.65,"target":"left","response":"left","rt":1322.3999999999,"correct":true,"confidence":3},{"trial_n":35,"n_dots":3.65,"target":"left","response":"left","rt":488.70000000019,"correct":true,"confidence":2},{"trial_n":36,"n_dots":3.55,"target":"left","response":"left","rt":472,"correct":true,"confidence":5},{"trial_n":37,"n_dots":3.55,"target":"left","response":"left","rt":700.39999999991,"correct":true,"confidence":3},{"trial_n":38,"n_dots":3.45,"target":"right","response":"right","rt":473.89999999991,"correct":true,"confidence":5},{"trial_n":39,"n_dots":3.45,"target":"right","response":"left","rt":606.10000000009,"correct":false,"confidence":4},{"trial_n":40,"n_dots":3.55,"target":"left","response":"left","rt":561.10000000009,"correct":true,"confidence":5},{"trial_n":41,"n_dots":3.55,"target":"right","response":"right","rt":462.79999999981,"correct":true,"confidence":5},{"trial_n":42,"n_dots":3.45,"target":"right","response":"left","rt":560.30000000028,"correct":false,"confidence":5},{"trial_n":43,"n_dots":3.55,"target":"right","response":"right","rt":383.60000000009,"correct":true,"confidence":5},{"trial_n":44,"n_dots":3.55,"target":"left","response":"left","rt":316.89999999991,"correct":true,"confidence":5},{"trial_n":45,"n_dots":3.45,"target":"right","response":"left","rt":1353.5,"correct":false,"confidence":5},{"trial_n":46,"n_dots":3.55,"target":"right","response":"right","rt":135.80000000028,"correct":true,"confidence":5},{"trial_n":47,"n_dots":3.55,"target":"left","response":"left","rt":624,"correct":true,"confidence":5},{"trial_n":48,"n_dots":3.45,"target":"right","response":"right","rt":571.90000000037,"correct":true,"confidence":5},{"trial_n":49,"n_dots":3.45,"target":"right","response":"right","rt":573.19999999972,"correct":true,"confidence":5},{"trial_n":50,"n_dots":3.35,"target":"right","response":"right","rt":488,"correct":true,"confidence":5},{"trial_n":51,"n_dots":3.35,"target":"right","response":"right","rt":764.60000000009,"correct":true,"confidence":5},{"trial_n":52,"n_dots":3.25,"target":"right","response":"left","rt":560.80000000028,"correct":false,"confidence":5},{"trial_n":53,"n_dots":3.35,"target":"left","response":"right","rt":367.89999999991,"correct":false,"confidence":5},{"trial_n":54,"n_dots":3.45,"target":"left","response":"left","rt":346.79999999981,"correct":true,"confidence":5},{"trial_n":55,"n_dots":3.45,"target":"right","response":"left","rt":1107.0999999996,"correct":false,"confidence":5},{"trial_n":56,"n_dots":3.55,"target":"right","response":"left","rt":656,"correct":false,"confidence":5},{"trial_n":57,"n_dots":3.65,"target":"left","response":"right","rt":415.09999999963,"correct":false,"confidence":5},{"trial_n":58,"n_dots":3.75,"target":"left","response":"left","rt":363.69999999972,"correct":true,"confidence":5},{"trial_n":59,"n_dots":3.75,"target":"right","response":"left","rt":71.199999999721,"correct":false,"confidence":5},{"trial_n":60,"n_dots":3.85,"target":"right","response":"right","rt":68.5,"correct":true,"confidence":5},{"trial_n":61,"n_dots":3.85,"target":"right","response":"left","rt":369.79999999981,"correct":false,"confidence":5},{"trial_n":62,"n_dots":3.95,"target":"right","response":"left","rt":23.400000000373,"correct":false,"confidence":5},{"trial_n":63,"n_dots":4.05,"target":"right","response":"right","rt":220.60000000009,"correct":true,"confidence":5},{"trial_n":64,"n_dots":4.05,"target":"left","response":"left","rt":264.69999999972,"correct":true,"confidence":5},{"trial_n":65,"n_dots":3.95,"target":"left","response":"left","rt":594.29999999981,"correct":true,"confidence":5},{"trial_n":66,"n_dots":3.95,"target":"left","response":"left","rt":805.30000000028,"correct":true,"confidence":5},{"trial_n":67,"n_dots":3.85,"target":"left","response":"left","rt":4.3000000002794,"correct":true,"confidence":5},{"trial_n":68,"n_dots":3.85,"target":"right","response":"right","rt":460.10000000009,"correct":true,"confidence":5},{"trial_n":69,"n_dots":3.75,"target":"left","response":"left","rt":476.20000000019,"correct":true,"confidence":5},{"trial_n":70,"n_dots":3.75,"target":"left","response":"left","rt":1472.7999999998,"correct":true,"confidence":1},{"trial_n":71,"n_dots":3.65,"target":"right","response":"left","rt":479.20000000019,"correct":false,"confidence":5},{"trial_n":72,"n_dots":3.75,"target":"right","response":"right","rt":730.29999999981,"correct":true,"confidence":5},{"trial_n":73,"n_dots":3.75,"target":"left","response":"left","rt":72.899999999907,"correct":true,"confidence":5},{"trial_n":74,"n_dots":3.65,"target":"right","response":"left","rt":99.600000000093,"correct":false,"confidence":5},{"trial_n":75,"n_dots":3.75,"target":"left","response":"left","rt":86.899999999907,"correct":true,"confidence":5},{"trial_n":76,"n_dots":3.75,"target":"right","response":"right","rt":244.60000000009,"correct":true,"confidence":5},{"trial_n":77,"n_dots":3.65,"target":"left","response":"left","rt":1.1999999997206,"correct":true,"confidence":5},{"trial_n":78,"n_dots":3.65,"target":"right","response":"left","rt":828.89999999991,"correct":false,"confidence":5},{"trial_n":79,"n_dots":3.75,"target":"left","response":"left","rt":102.80000000028,"correct":true,"confidence":5},{"trial_n":80,"n_dots":3.75,"target":"left","response":"right","rt":2451.2999999998,"correct":false,"confidence":1},{"trial_n":81,"n_dots":3.85,"target":"right","response":"right","rt":323.5,"correct":true,"confidence":5},{"trial_n":82,"n_dots":3.85,"target":"left","response":"left","rt":379.10000000009,"correct":true,"confidence":5},{"trial_n":83,"n_dots":3.75,"target":"right","response":"right","rt":115.40000000037,"correct":true,"confidence":5},{"trial_n":84,"n_dots":3.75,"target":"left","response":"left","rt":605,"correct":true,"confidence":5},{"trial_n":85,"n_dots":3.65,"target":"right","response":"right","rt":140.20000000019,"correct":true,"confidence":5},{"trial_n":86,"n_dots":3.65,"target":"left","response":"left","rt":90,"correct":true,"confidence":5},{"trial_n":87,"n_dots":3.55,"target":"left","response":"left","rt":517.19999999972,"correct":true,"confidence":5},{"trial_n":88,"n_dots":3.55,"target":"left","response":"right","rt":366.79999999981,"correct":false,"confidence":3},{"trial_n":89,"n_dots":3.65,"target":"right","response":"right","rt":558.89999999991,"correct":true,"confidence":4},{"trial_n":90,"n_dots":3.65,"target":"right","response":"right","rt":155.70000000019,"correct":true,"confidence":4},{"trial_n":91,"n_dots":3.55,"target":"left","response":"right","rt":417.5,"correct":false,"confidence":5},{"trial_n":92,"n_dots":3.65,"target":"left","response":"left","rt":376.69999999972,"correct":true,"confidence":5},{"trial_n":93,"n_dots":3.65,"target":"left","response":"left","rt":396.30000000028,"correct":true,"confidence":5},{"trial_n":94,"n_dots":3.55,"target":"right","response":"right","rt":484.89999999991,"correct":true,"confidence":1},{"trial_n":95,"n_dots":3.55,"target":"right","response":"right","rt":593.5,"correct":true,"confidence":5},{"trial_n":96,"n_dots":3.45,"target":"left","response":"right","rt":2615.6000000001,"correct":false,"confidence":1},{"trial_n":97,"n_dots":3.55,"target":"left","response":"right","rt":842.09999999963,"correct":false,"confidence":5},{"trial_n":98,"n_dots":3.65,"target":"left","response":"left","rt":444,"correct":true,"confidence":5},{"trial_n":99,"n_dots":3.65,"target":"left","response":"left","rt":110.60000000009,"correct":true,"confidence":5},{"trial_n":100,"n_dots":3.55,"target":"left","response":"left","rt":371.30000000028,"correct":true,"confidence":4},{"trial_n":101,"n_dots":3.55,"target":"right","response":"right","rt":100.60000000009,"correct":true,"confidence":5},{"trial_n":102,"n_dots":3.45,"target":"left","response":"left","rt":76.599999999627,"correct":true,"confidence":5},{"trial_n":103,"n_dots":3.45,"target":"left","response":"right","rt":358.29999999981,"correct":false,"confidence":3},{"trial_n":104,"n_dots":3.55,"target":"left","response":"left","rt":44.700000000186,"correct":true,"confidence":5},{"trial_n":105,"n_dots":3.55,"target":"right","response":"right","rt":8.3999999999069,"correct":true,"confidence":5},{"trial_n":106,"n_dots":3.45,"target":"right","response":"right","rt":162,"correct":true,"confidence":1},{"trial_n":107,"n_dots":3.45,"target":"left","response":"left","rt":404.60000000009,"correct":true,"confidence":5},{"trial_n":108,"n_dots":3.35,"target":"left","response":"left","rt":160.89999999991,"correct":true,"confidence":5},{"trial_n":109,"n_dots":3.35,"target":"right","response":"right","rt":234.10000000009,"correct":true,"confidence":4},{"trial_n":110,"n_dots":3.25,"target":"right","response":"left","rt":275.19999999972,"correct":false,"confidence":5},{"trial_n":111,"n_dots":3.35,"target":"left","response":"right","rt":300.10000000009,"correct":false,"confidence":5},{"trial_n":112,"n_dots":3.45,"target":"left","response":"right","rt":249.70000000019,"correct":false,"confidence":5},{"trial_n":113,"n_dots":3.55,"target":"left","response":"right","rt":182.5,"correct":false,"confidence":3},{"trial_n":114,"n_dots":3.65,"target":"left","response":"left","rt":65.600000000093,"correct":true,"confidence":3},{"trial_n":115,"n_dots":3.65,"target":"right","response":"right","rt":139.79999999981,"correct":true,"confidence":3},{"trial_n":116,"n_dots":3.55,"target":"left","response":"right","rt":19,"correct":false,"confidence":3},{"trial_n":117,"n_dots":3.65,"target":"left","response":"left","rt":48.5,"correct":true,"confidence":3},{"trial_n":118,"n_dots":3.65,"target":"right","response":"right","rt":308,"correct":true,"confidence":2},{"trial_n":119,"n_dots":3.55,"target":"right","response":"left","rt":369.19999999972,"correct":false,"confidence":1},{"trial_n":120,"n_dots":3.65,"target":"right","response":"right","rt":417.59999999963,"correct":true,"confidence":4}]