[{"trial_n":1,"n_dots":4.25,"target":"right","response":"right","rt":4149.5999999642,"correct":true,"confidence":-1},{"trial_n":2,"n_dots":4.25,"target":"left","response":"left","rt":1240.3000000119,"correct":true,"confidence":-1},{"trial_n":3,"n_dots":3.85,"target":"left","response":"left","rt":789.10000002384,"correct":true,"confidence":-1},{"trial_n":4,"n_dots":3.85,"target":"right","response":"left","rt":959.5,"correct":false,"confidence":-1},{"trial_n":5,"n_dots":4.25,"target":"left","response":"left","rt":690.69999998808,"correct":true,"confidence":-1},{"trial_n":6,"n_dots":4.25,"target":"right","response":"right","rt":1358.6000000238,"correct":true,"confidence":-1},{"trial_n":7,"n_dots":3.85,"target":"right","response":"right","rt":1420.8999999762,"correct":true,"confidence":-1},{"trial_n":8,"n_dots":3.85,"target":"left","response":"left","rt":653.5,"correct":true,"confidence":-1},{"trial_n":9,"n_dots":3.65,"target":"left","response":"left","rt":554.30000001192,"correct":true,"confidence":-1},{"trial_n":10,"n_dots":3.65,"target":"right","response":"right","rt":792.79999995232,"correct":true,"confidence":-1},{"trial_n":11,"n_dots":3.45,"target":"left","response":"left","rt":529.70000004768,"correct":true,"confidence":-1},{"trial_n":12,"n_dots":3.45,"target":"left","response":"left","rt":700.80000001192,"correct":true,"confidence":-1},{"trial_n":13,"n_dots":3.35,"target":"right","response":"left","rt":887.30000001192,"correct":false,"confidence":-1},{"trial_n":14,"n_dots":3.45,"target":"right","response":"left","rt":1157.0999999642,"correct":false,"confidence":-1},{"trial_n":15,"n_dots":3.55,"target":"left","response":"left","rt":771.30000001192,"correct":true,"confidence":-1},{"trial_n":16,"n_dots":3.55,"target":"right","response":"right","rt":700.60000002384,"correct":true,"confidence":-1},{"trial_n":17,"n_dots":3.45,"target":"left","response":"left","rt":1009.8999999762,"correct":true,"confidence":-1},{"trial_n":18,"n_dots":3.45,"target":"left","response":"left","rt":429.60000002384,"correct":true,"confidence":-1},{"trial_n":19,"n_dots":3.35,"target":"right","response":"right","rt":908.40000003576,"correct":true,"confidence":-1},{"trial_n":20,"n_dots":3.35,"target":"left","response":"left","rt":502.89999997616,"correct":true,"confidence":-1},{"trial_n":21,"n_dots":3.25,"target":"right","response":"left","rt":788.39999997616,"correct":false,"confidence":3},{"trial_n":22,"n_dots":3.35,"target":"right","response":"left","rt":734.19999998808,"correct":false,"confidence":4},{"trial_n":23,"n_dots":3.45,"target":"right","response":"right","rt":948.89999997616,"correct":true,"confidence":3},{"trial_n":24,"n_dots":3.45,"target":"left","response":"left","rt":667.19999998808,"correct":true,"confidence":3},{"trial_n":25,"n_dots":3.35,"target":"left","response":"left","rt":656.59999996424,"correct":true,"confidence":5},{"trial_n":26,"n_dots":3.35,"target":"right","response":"right","rt":1002.8999999762,"correct":true,"confidence":2},{"trial_n":27,"n_dots":3.25,"target":"right","response":"right","rt":1044.2999999523,"correct":true,"confidence":3},{"trial_n":28,"n_dots":3.25,"target":"right","response":"left","rt":1418.2000000477,"correct":false,"confidence":2},{"trial_n":29,"n_dots":3.35,"target":"left","response":"left","rt":1030.4000000358,"correct":true,"confidence":4},{"trial_n":30,"n_dots":3.35,"target":"right","response":"right","rt":1005.2999999523,"correct":true,"confidence":2},{"trial_n":31,"n_dots":3.25,"target":"left","response":"left","rt":815.40000003576,"correct":true,"confidence":4},{"trial_n":32,"n_dots":3.25,"target":"right","response":"left","rt":837.20000004768,"correct":false,"confidence":4},{"trial_n":33,"n_dots":3.35,"target":"right","response":"right","rt":773.40000003576,"correct":true,"confidence":2},{"trial_n":34,"n_dots":3.35,"target":"left","response":"left","rt":631.60000002384,"correct":true,"confidence":3},{"trial_n":35,"n_dots":3.25,"target":"left","response":"left","rt":603.60000002384,"correct":true,"confidence":4},{"trial_n":36,"n_dots":3.25,"target":"right","response":"right","rt":797,"correct":true,"confidence":4},{"trial_n":37,"n_dots":3.15,"target":"right","response":"right","rt":973.10000002384,"correct":true,"confidence":3},{"trial_n":38,"n_dots":3.15,"target":"left","response":"left","rt":431.30000001192,"correct":true,"confidence":5},{"trial_n":39,"n_dots":3.05,"target":"left","response":"left","rt":793.39999997616,"correct":true,"confidence":3},{"trial_n":40,"n_dots":3.05,"target":"right","response":"right","rt":1004,"correct":true,"confidence":4},{"trial_n":41,"n_dots":2.95,"target":"left","response":"right","rt":1177.3000000119,"correct":false,"confidence":3},{"trial_n":42,"n_dots":3.05,"target":"right","response":"left","rt":929.10000002384,"correct":false,"confidence":3},{"trial_n":43,"n_dots":3.15,"target":"left","response":"left","rt":1651.3000000119,"correct":true,"confidence":3},{"trial_n":44,"n_dots":3.15,"target":"right","response":"right","rt":900.39999997616,"correct":true,"confidence":2},{"trial_n":45,"n_dots":3.05,"target":"right","response":"left","rt":1048.6000000238,"correct":false,"confidence":3},{"trial_n":46,"n_dots":3.15,"target":"right","response":"right","rt":2194.1000000238,"correct":true,"confidence":1},{"trial_n":47,"n_dots":3.15,"target":"left","response":"left","rt":929.19999998808,"correct":true,"confidence":3},{"trial_n":48,"n_dots":3.05,"target":"left","response":"left","rt":344.19999998808,"correct":true,"confidence":5},{"trial_n":49,"n_dots":3.05,"target":"left","response":"left","rt":1933,"correct":true,"confidence":4},{"trial_n":50,"n_dots":2.95,"target":"left","response":"left","rt":1118.1999999881,"correct":true,"confidence":4},{"trial_n":51,"n_dots":2.95,"target":"right","response":"right","rt":2485.5,"correct":true,"confidence":1},{"trial_n":52,"n_dots":2.85,"target":"right","response":"right","rt":1026.2000000477,"correct":true,"confidence":1},{"trial_n":53,"n_dots":2.85,"target":"right","response":"right","rt":1287.5,"correct":true,"confidence":1},{"trial_n":54,"n_dots":2.75,"target":"left","response":"left","rt":765.20000004768,"correct":true,"confidence":4},{"trial_n":55,"n_dots":2.75,"target":"right","response":"right","rt":787.30000001192,"correct":true,"confidence":4},{"trial_n":56,"n_dots":2.65,"target":"right","response":"left","rt":761.09999996424,"correct":false,"confidence":4},{"trial_n":57,"n_dots":2.75,"target":"right","response":"right","rt":864.19999998808,"correct":true,"confidence":3},{"trial_n":58,"n_dots":2.75,"target":"right","response":"left","rt":1038,"correct":false,"confidence":1},{"trial_n":59,"n_dots":2.85,"target":"left","response":"left","rt":740.59999996424,"correct":true,"confidence":4},{"trial_n":60,"n_dots":2.85,"target":"left","response":"left","rt":1027.6999999881,"correct":true,"confidence":4},{"trial_n":61,"n_dots":2.75,"target":"right","response":"right","rt":732.5,"correct":true,"confidence":4},{"trial_n":62,"n_dots":2.75,"target":"left","response":"left","rt":738.09999996424,"correct":true,"confidence":3},{"trial_n":63,"n_dots":2.65,"target":"right","response":"right","rt":1503.1000000238,"correct":true,"confidence":2},{"trial_n":64,"n_dots":2.65,"target":"right","response":"right","rt":741.80000001192,"correct":true,"confidence":3},{"trial_n":65,"n_dots":2.55,"target":"left","response":"left","rt":701.69999998808,"correct":true,"confidence":5},{"trial_n":66,"n_dots":2.55,"target":"left","response":"left","rt":1159.6999999881,"correct":true,"confidence":3},{"trial_n":67,"n_dots":2.45,"target":"right","response":"right","rt":2418.7000000477,"correct":true,"confidence":1},{"trial_n":68,"n_dots":2.45,"target":"left","response":"left","rt":661.69999998808,"correct":true,"confidence":4},{"trial_n":69,"n_dots":2.35,"target":"left","response":"left","rt":1570.5999999642,"correct":true,"confidence":1},{"trial_n":70,"n_dots":2.35,"target":"right","response":"right","rt":889.5,"correct":true,"confidence":3},{"trial_n":71,"n_dots":2.25,"target":"right","response":"left","rt":1242.5,"correct":false,"confidence":4},{"trial_n":72,"n_dots":2.35,"target":"left","response":"left","rt":1024.3999999762,"correct":true,"confidence":4},{"trial_n":73,"n_dots":2.35,"target":"left","response":"right","rt":866.19999998808,"correct":false,"confidence":3},{"trial_n":74,"n_dots":2.45,"target":"left","response":"right","rt":2226.6999999881,"correct":false,"confidence":1},{"trial_n":75,"n_dots":2.55,"target":"left","response":"left","rt":1060.0999999642,"correct":true,"confidence":5},{"trial_n":76,"n_dots":2.55,"target":"right","response":"right","rt":904.30000001192,"correct":true,"confidence":2},{"trial_n":77,"n_dots":2.45,"target":"left","response":"right","rt":907.29999995232,"correct":false,"confidence":4},{"trial_n":78,"n_dots":2.55,"target":"right","response":"left","rt":1217.1999999881,"correct":false,"confidence":3},{"trial_n":79,"n_dots":2.65,"target":"right","response":"right","rt":1592.7000000477,"correct":true,"confidence":1},{"trial_n":80,"n_dots":2.65,"target":"right","response":"left","rt":1514.5,"correct":false,"confidence":1},{"trial_n":81,"n_dots":2.75,"target":"left","response":"left","rt":657.09999996424,"correct":true,"confidence":4},{"trial_n":82,"n_dots":2.75,"target":"right","response":"right","rt":1073,"correct":true,"confidence":3},{"trial_n":83,"n_dots":2.65,"target":"right","response":"left","rt":1520.0999999642,"correct":false,"confidence":3},{"trial_n":84,"n_dots":2.75,"target":"right","response":"right","rt":792.10000002384,"correct":true,"confidence":4},{"trial_n":85,"n_dots":2.75,"target":"left","response":"left","rt":1142.8999999762,"correct":true,"confidence":3},{"trial_n":86,"n_dots":2.65,"target":"right","response":"right","rt":843.80000001192,"correct":true,"confidence":3},{"trial_n":87,"n_dots":2.65,"target":"left","response":"left","rt":735.69999998808,"correct":true,"confidence":3},{"trial_n":88,"n_dots":2.55,"target":"right","response":"right","rt":630.70000004768,"correct":true,"confidence":5},{"trial_n":89,"n_dots":2.55,"target":"right","response":"right","rt":1615.9000000358,"correct":true,"confidence":2},{"trial_n":90,"n_dots":2.45,"target":"right","response":"right","rt":1353.5999999642,"correct":true,"confidence":3},{"trial_n":91,"n_dots":2.45,"target":"left","response":"left","rt":654,"correct":true,"confidence":4},{"trial_n":92,"n_dots":2.35,"target":"right","response":"left","rt":850.60000002384,"correct":false,"confidence":4},{"trial_n":93,"n_dots":2.45,"target":"right","response":"right","rt":866.40000003576,"correct":true,"confidence":3},{"trial_n":94,"n_dots":2.45,"target":"right","response":"left","rt":1063.6000000238,"correct":false,"confidence":3},{"trial_n":95,"n_dots":2.55,"target":"left","response":"right","rt":737,"correct":false,"confidence":4},{"trial_n":96,"n_dots":2.65,"target":"right","response":"right","rt":1605.6999999881,"correct":true,"confidence":3},{"trial_n":97,"n_dots":2.65,"target":"left","response":"left","rt":1013.5999999642,"correct":true,"confidence":4},{"trial_n":98,"n_dots":2.55,"target":"right","response":"right","rt":2600.6999999881,"correct":true,"confidence":1},{"trial_n":99,"n_dots":2.55,"target":"left","response":"left","rt":845.30000001192,"correct":true,"confidence":5},{"trial_n":100,"n_dots":2.45,"target":"right","response":"left","rt":934.59999996424,"correct":false,"confidence":4},{"trial_n":101,"n_dots":2.55,"target":"right","response":"right","rt":978.19999998808,"correct":true,"confidence":1},{"trial_n":102,"n_dots":2.55,"target":"left","response":"left","rt":586.39999997616,"correct":true,"confidence":5},{"trial_n":103,"n_dots":2.45,"target":"right","response":"left","rt":708.60000002384,"correct":false,"confidence":5},{"trial_n":104,"n_dots":2.55,"target":"left","response":"left","rt":764.90000003576,"correct":true,"confidence":5},{"trial_n":105,"n_dots":2.55,"target":"left","response":"left","rt":967.40000003576,"correct":true,"confidence":4},{"trial_n":106,"n_dots":2.45,"target":"left","response":"right","rt":985.19999998808,"correct":false,"confidence":4},{"trial_n":107,"n_dots":2.55,"target":"right","response":"left","rt":899,"correct":false,"confidence":4},{"trial_n":108,"n_dots":2.65,"target":"left","response":"left","rt":603.10000002384,"correct":true,"confidence":3},{"trial_n":109,"n_dots":2.65,"target":"right","response":"left","rt":991.70000004768,"correct":false,"confidence":5},{"trial_n":110,"n_dots":2.75,"target":"left","response":"left","rt":1181.5,"correct":true,"confidence":3},{"trial_n":111,"n_dots":2.75,"target":"left","response":"right","rt":1161,"correct":false,"confidence":2},{"trial_n":112,"n_dots":2.85,"target":"left","response":"right","rt":1637.7999999523,"correct":false,"confidence":2},{"trial_n":113,"n_dots":2.95,"target":"right","response":"right","rt":1298.1000000238,"correct":true,"confidence":4},{"trial_n":114,"n_dots":2.95,"target":"left","response":"left","rt":1121.6000000238,"correct":true,"confidence":3},{"trial_n":115,"n_dots":2.85,"target":"left","response":"left","rt":1089.6999999881,"correct":true,"confidence":3},{"trial_n":116,"n_dots":2.85,"target":"left","response":"left","rt":834.30000001192,"correct":true,"confidence":3},{"trial_n":117,"n_dots":2.75,"target":"left","response":"right","rt":806.5,"correct":false,"confidence":4},{"trial_n":118,"n_dots":2.85,"target":"left","response":"left","rt":1204.1999999881,"correct":true,"confidence":2},{"trial_n":119,"n_dots":2.85,"target":"left","response":"left","rt":980.19999998808,"correct":true,"confidence":2},{"trial_n":120,"n_dots":2.75,"target":"left","response":"right","rt":1660.9000000358,"correct":false,"confidence":4}]