[{"trial_n":1,"min":25,"max":230,"target":"present","response":"absent","rt":11413,"correct":false,"confidence":-1},{"trial_n":2,"min":25,"max":230,"target":"present","response":"present","rt":3229,"correct":true,"confidence":-1},{"trial_n":3,"min":25,"max":230,"target":"absent","response":"present","rt":3118,"correct":false,"confidence":-1},{"trial_n":4,"min":9,"max":246,"target":"absent","response":"present","rt":1510,"correct":false,"confidence":-1},{"trial_n":5,"min":0,"max":255,"target":"present","response":"present","rt":3162,"correct":true,"confidence":-1},{"trial_n":6,"min":0,"max":255,"target":"absent","response":"absent","rt":1053,"correct":true,"confidence":-1},{"trial_n":7,"min":16,"max":239,"target":"present","response":"present","rt":781,"correct":true,"confidence":-1},{"trial_n":8,"min":16,"max":239,"target":"present","response":"present","rt":1339,"correct":true,"confidence":-1},{"trial_n":9,"min":32,"max":223,"target":"absent","response":"absent","rt":715,"correct":true,"confidence":-1},{"trial_n":10,"min":32,"max":223,"target":"present","response":"present","rt":1081,"correct":true,"confidence":-1},{"trial_n":11,"min":40,"max":215,"target":"present","response":"present","rt":736,"correct":true,"confidence":-1},{"trial_n":12,"min":40,"max":215,"target":"absent","response":"absent","rt":619.99999999999,"correct":true,"confidence":-1},{"trial_n":13,"min":48,"max":207,"target":"absent","response":"absent","rt":1004,"correct":true,"confidence":-1},{"trial_n":14,"min":48,"max":207,"target":"absent","response":"absent","rt":854,"correct":true,"confidence":-1},{"trial_n":15,"min":56,"max":199,"target":"present","response":"absent","rt":2342,"correct":false,"confidence":-1},{"trial_n":16,"min":48,"max":207,"target":"present","response":"present","rt":508.00000000001,"correct":true,"confidence":-1},{"trial_n":17,"min":48,"max":207,"target":"absent","response":"absent","rt":370,"correct":true,"confidence":-1},{"trial_n":18,"min":56,"max":199,"target":"present","response":"present","rt":289,"correct":true,"confidence":-1},{"trial_n":19,"min":56,"max":199,"target":"absent","response":"absent","rt":342,"correct":true,"confidence":-1},{"trial_n":20,"min":64,"max":191,"target":"absent","response":"absent","rt":320,"correct":true,"confidence":-1},{"trial_n":21,"min":64,"max":191,"target":"absent","response":"absent","rt":534.00000000001,"correct":true,"confidence":5},{"trial_n":22,"min":68,"max":187,"target":"absent","response":"absent","rt":639,"correct":true,"confidence":5},{"trial_n":23,"min":68,"max":187,"target":"absent","response":"absent","rt":383,"correct":true,"confidence":5},{"trial_n":24,"min":72,"max":183,"target":"absent","response":"absent","rt":704,"correct":true,"confidence":5},{"trial_n":25,"min":72,"max":183,"target":"absent","response":"absent","rt":477,"correct":true,"confidence":5},{"trial_n":26,"min":76,"max":179,"target":"absent","response":"absent","rt":319,"correct":true,"confidence":5},{"trial_n":27,"min":76,"max":179,"target":"present","response":"absent","rt":253.99999999999,"correct":false,"confidence":5},{"trial_n":28,"min":72,"max":183,"target":"absent","response":"absent","rt":1557,"correct":true,"confidence":5},{"trial_n":29,"min":72,"max":183,"target":"absent","response":"absent","rt":361,"correct":true,"confidence":5},{"trial_n":30,"min":76,"max":179,"target":"present","response":"absent","rt":2371,"correct":false,"confidence":3},{"trial_n":31,"min":74,"max":181,"target":"present","response":"absent","rt":1061,"correct":false,"confidence":5},{"trial_n":32,"min":72,"max":183,"target":"absent","response":"absent","rt":286,"correct":true,"confidence":5},{"trial_n":33,"min":72,"max":183,"target":"absent","response":"absent","rt":472,"correct":true,"confidence":5},{"trial_n":34,"min":74,"max":181,"target":"present","response":"present","rt":1697,"correct":true,"confidence":3},{"trial_n":35,"min":74,"max":181,"target":"present","response":"present","rt":1214,"correct":true,"confidence":3},{"trial_n":36,"min":76,"max":179,"target":"present","response":"absent","rt":575,"correct":false,"confidence":5},{"trial_n":37,"min":74,"max":181,"target":"present","response":"present","rt":824,"correct":true,"confidence":4},{"trial_n":38,"min":74,"max":181,"target":"present","response":"absent","rt":2533,"correct":false,"confidence":5},{"trial_n":39,"min":72,"max":183,"target":"present","response":"present","rt":1060,"correct":true,"confidence":3},{"trial_n":40,"min":72,"max":183,"target":"absent","response":"absent","rt":1092,"correct":true,"confidence":5},{"trial_n":41,"min":73,"max":182,"target":"absent","response":"absent","rt":952,"correct":true,"confidence":5},{"trial_n":42,"min":73,"max":182,"target":"present","response":"present","rt":716.99999999997,"correct":true,"confidence":4},{"trial_n":43,"min":74,"max":181,"target":"absent","response":"absent","rt":688,"correct":true,"confidence":5},{"trial_n":44,"min":74,"max":181,"target":"present","response":"present","rt":953,"correct":true,"confidence":3},{"trial_n":45,"min":75,"max":180,"target":"present","response":"present","rt":967,"correct":true,"confidence":4},{"trial_n":46,"min":75,"max":180,"target":"present","response":"absent","rt":1795,"correct":false,"confidence":5},{"trial_n":47,"min":74,"max":181,"target":"present","response":"present","rt":688,"correct":true,"confidence":5},{"trial_n":48,"min":74,"max":181,"target":"present","response":"present","rt":889,"correct":true,"confidence":5},{"trial_n":49,"min":75,"max":180,"target":"present","response":"present","rt":608.00000000003,"correct":true,"confidence":4},{"trial_n":50,"min":75,"max":180,"target":"present","response":"present","rt":986,"correct":true,"confidence":5},{"trial_n":51,"min":76,"max":179,"target":"absent","response":"absent","rt":711,"correct":true,"confidence":5},{"trial_n":52,"min":76,"max":179,"target":"present","response":"absent","rt":626,"correct":false,"confidence":5},{"trial_n":53,"min":75,"max":180,"target":"present","response":"present","rt":546,"correct":true,"confidence":4},{"trial_n":54,"min":75,"max":180,"target":"absent","response":"absent","rt":618,"correct":true,"confidence":5},{"trial_n":55,"min":76,"max":179,"target":"present","response":"absent","rt":489.99999999997,"correct":false,"confidence":5},{"trial_n":56,"min":75,"max":180,"target":"absent","response":"absent","rt":472.99999999997,"correct":true,"confidence":5},{"trial_n":57,"min":75,"max":180,"target":"absent","response":"absent","rt":762,"correct":true,"confidence":5},{"trial_n":58,"min":76,"max":179,"target":"absent","response":"absent","rt":429,"correct":true,"confidence":5},{"trial_n":59,"min":76,"max":179,"target":"present","response":"absent","rt":1358,"correct":false,"confidence":3},{"trial_n":60,"min":75,"max":180,"target":"present","response":"absent","rt":441,"correct":false,"confidence":4},{"trial_n":61,"min":74,"max":181,"target":"present","response":"absent","rt":516.00000000003,"correct":false,"confidence":5},{"trial_n":62,"min":73,"max":182,"target":"absent","response":"absent","rt":637,"correct":true,"confidence":4},{"trial_n":63,"min":73,"max":182,"target":"present","response":"absent","rt":250.99999999997,"correct":false,"confidence":3},{"trial_n":64,"min":72,"max":183,"target":"present","response":"present","rt":714,"correct":true,"confidence":4},{"trial_n":65,"min":72,"max":183,"target":"absent","response":"absent","rt":397,"correct":true,"confidence":5},{"trial_n":66,"min":73,"max":182,"target":"present","response":"present","rt":742,"correct":true,"confidence":4},{"trial_n":67,"min":73,"max":182,"target":"absent","response":"absent","rt":621,"correct":true,"confidence":5},{"trial_n":68,"min":74,"max":181,"target":"absent","response":"absent","rt":475.00000000003,"correct":true,"confidence":5},{"trial_n":69,"min":74,"max":181,"target":"absent","response":"absent","rt":320,"correct":true,"confidence":5},{"trial_n":70,"min":75,"max":180,"target":"absent","response":"absent","rt":406.00000000003,"correct":true,"confidence":5},{"trial_n":71,"min":41,"max":214,"target":"present","response":"absent","rt":7276,"correct":false,"confidence":-1},{"trial_n":72,"min":41,"max":214,"target":"present","response":"present","rt":1234.0000000001,"correct":true,"confidence":-1},{"trial_n":73,"min":41,"max":214,"target":"absent","response":"absent","rt":881,"correct":true,"confidence":-1},{"trial_n":74,"min":57,"max":198,"target":"absent","response":"absent","rt":464,"correct":true,"confidence":-1},{"trial_n":75,"min":57,"max":198,"target":"present","response":"present","rt":515.99999999994,"correct":true,"confidence":-1},{"trial_n":76,"min":73,"max":182,"target":"absent","response":"absent","rt":659,"correct":true,"confidence":-1},{"trial_n":77,"min":73,"max":182,"target":"absent","response":"present","rt":381,"correct":false,"confidence":-1},{"trial_n":78,"min":57,"max":198,"target":"present","response":"present","rt":958,"correct":true,"confidence":-1},{"trial_n":79,"min":57,"max":198,"target":"present","response":"present","rt":634,"correct":true,"confidence":-1},{"trial_n":80,"min":73,"max":182,"target":"present","response":"present","rt":724,"correct":true,"confidence":-1},{"trial_n":81,"min":73,"max":182,"target":"present","response":"present","rt":233,"correct":true,"confidence":-1},{"trial_n":82,"min":81,"max":174,"target":"present","response":"present","rt":537.99999999994,"correct":true,"confidence":-1},{"trial_n":83,"min":81,"max":174,"target":"absent","response":"absent","rt":578,"correct":true,"confidence":-1},{"trial_n":84,"min":89,"max":166,"target":"absent","response":"absent","rt":674.99999999994,"correct":true,"confidence":-1},{"trial_n":85,"min":89,"max":166,"target":"present","response":"present","rt":963.00000000006,"correct":true,"confidence":-1},{"trial_n":86,"min":97,"max":158,"target":"absent","response":"absent","rt":2472,"correct":true,"confidence":-1},{"trial_n":87,"min":97,"max":158,"target":"present","response":"present","rt":632,"correct":true,"confidence":-1},{"trial_n":88,"min":105,"max":150,"target":"present","response":"present","rt":650,"correct":true,"confidence":-1},{"trial_n":89,"min":105,"max":150,"target":"absent","response":"present","rt":1297,"correct":false,"confidence":-1},{"trial_n":90,"min":97,"max":158,"target":"present","response":"present","rt":614,"correct":true,"confidence":-1},{"trial_n":91,"min":97,"max":158,"target":"absent","response":"present","rt":1340.0000000001,"correct":false,"confidence":3},{"trial_n":92,"min":93,"max":162,"target":"present","response":"absent","rt":3442.9999999999,"correct":false,"confidence":3},{"trial_n":93,"min":89,"max":166,"target":"absent","response":"present","rt":1179,"correct":false,"confidence":3},{"trial_n":94,"min":85,"max":170,"target":"absent","response":"present","rt":839,"correct":false,"confidence":3},{"trial_n":95,"min":81,"max":174,"target":"present","response":"absent","rt":550,"correct":false,"confidence":3},{"trial_n":96,"min":77,"max":178,"target":"absent","response":"absent","rt":699,"correct":true,"confidence":4},{"trial_n":97,"min":77,"max":178,"target":"absent","response":"absent","rt":838,"correct":true,"confidence":5},{"trial_n":98,"min":81,"max":174,"target":"absent","response":"absent","rt":656,"correct":true,"confidence":5},{"trial_n":99,"min":81,"max":174,"target":"absent","response":"absent","rt":534,"correct":true,"confidence":5},{"trial_n":100,"min":85,"max":170,"target":"present","response":"present","rt":628,"correct":true,"confidence":5},{"trial_n":101,"min":85,"max":170,"target":"absent","response":"absent","rt":630,"correct":true,"confidence":4},{"trial_n":102,"min":87,"max":168,"target":"absent","response":"present","rt":741,"correct":false,"confidence":4},{"trial_n":103,"min":85,"max":170,"target":"present","response":"present","rt":417,"correct":true,"confidence":4},{"trial_n":104,"min":85,"max":170,"target":"absent","response":"present","rt":654,"correct":false,"confidence":4},{"trial_n":105,"min":83,"max":172,"target":"absent","response":"absent","rt":614,"correct":true,"confidence":4},{"trial_n":106,"min":83,"max":172,"target":"present","response":"present","rt":372,"correct":true,"confidence":4},{"trial_n":107,"min":85,"max":170,"target":"absent","response":"present","rt":956.00000000006,"correct":false,"confidence":3},{"trial_n":108,"min":83,"max":172,"target":"absent","response":"absent","rt":802,"correct":true,"confidence":4},{"trial_n":109,"min":83,"max":172,"target":"absent","response":"absent","rt":1155,"correct":true,"confidence":4},{"trial_n":110,"min":85,"max":170,"target":"present","response":"present","rt":503,"correct":true,"confidence":4},{"trial_n":111,"min":85,"max":170,"target":"absent","response":"absent","rt":853.99999999994,"correct":true,"confidence":5},{"trial_n":112,"min":86,"max":169,"target":"present","response":"present","rt":1191,"correct":true,"confidence":4},{"trial_n":113,"min":86,"max":169,"target":"absent","response":"absent","rt":609.99999999994,"correct":true,"confidence":4},{"trial_n":114,"min":87,"max":168,"target":"present","response":"present","rt":578,"correct":true,"confidence":4},{"trial_n":115,"min":87,"max":168,"target":"absent","response":"absent","rt":1918,"correct":true,"confidence":4},{"trial_n":116,"min":88,"max":167,"target":"absent","response":"absent","rt":1148,"correct":true,"confidence":4},{"trial_n":117,"min":88,"max":167,"target":"present","response":"present","rt":526.00000000006,"correct":true,"confidence":5},{"trial_n":118,"min":89,"max":166,"target":"absent","response":"present","rt":863,"correct":false,"confidence":5},{"trial_n":119,"min":88,"max":167,"target":"present","response":"present","rt":999,"correct":true,"confidence":1},{"trial_n":120,"min":88,"max":167,"target":"present","response":"absent","rt":2617,"correct":false,"confidence":2},{"trial_n":121,"min":87,"max":168,"target":"absent","response":"absent","rt":715,"correct":true,"confidence":4},{"trial_n":122,"min":87,"max":168,"target":"absent","response":"absent","rt":1570,"correct":true,"confidence":4},{"trial_n":123,"min":88,"max":167,"target":"present","response":"absent","rt":1392,"correct":false,"confidence":4},{"trial_n":124,"min":87,"max":168,"target":"present","response":"present","rt":848,"correct":true,"confidence":3},{"trial_n":125,"min":87,"max":168,"target":"absent","response":"present","rt":937,"correct":false,"confidence":3},{"trial_n":126,"min":86,"max":169,"target":"present","response":"absent","rt":2622.9999999999,"correct":false,"confidence":4},{"trial_n":127,"min":85,"max":170,"target":"present","response":"present","rt":674,"correct":true,"confidence":4},{"trial_n":128,"min":85,"max":170,"target":"present","response":"present","rt":1455,"correct":true,"confidence":2},{"trial_n":129,"min":86,"max":169,"target":"present","response":"present","rt":1417.0000000001,"correct":true,"confidence":2},{"trial_n":130,"min":86,"max":169,"target":"present","response":"present","rt":926,"correct":true,"confidence":4},{"trial_n":131,"min":87,"max":168,"target":"absent","response":"absent","rt":6755,"correct":true,"confidence":4},{"trial_n":132,"min":87,"max":168,"target":"present","response":"absent","rt":2646.9999999999,"correct":false,"confidence":3},{"trial_n":133,"min":86,"max":169,"target":"present","response":"present","rt":828,"correct":true,"confidence":3},{"trial_n":134,"min":86,"max":169,"target":"absent","response":"present","rt":753,"correct":false,"confidence":3},{"trial_n":135,"min":85,"max":170,"target":"present","response":"present","rt":1128.0000000001,"correct":true,"confidence":3},{"trial_n":136,"min":85,"max":170,"target":"present","response":"absent","rt":4685.0000000001,"correct":false,"confidence":2},{"trial_n":137,"min":84,"max":171,"target":"absent","response":"present","rt":838.00000000012,"correct":false,"confidence":1},{"trial_n":138,"min":83,"max":172,"target":"absent","response":"present","rt":559,"correct":false,"confidence":1},{"trial_n":139,"min":82,"max":173,"target":"present","response":"present","rt":754,"correct":true,"confidence":3},{"trial_n":140,"min":82,"max":173,"target":"present","response":"present","rt":532,"correct":true,"confidence":5}]