[{"trial_n":1,"min":25,"max":230,"target":"present","response":"absent","rt":7086.3999999762,"correct":false,"confidence":-1},{"trial_n":2,"min":25,"max":230,"target":"present","response":"present","rt":2951.5,"correct":true,"confidence":-1},{"trial_n":3,"min":25,"max":230,"target":"absent","response":"absent","rt":883.80000001192,"correct":true,"confidence":-1},{"trial_n":4,"min":41,"max":214,"target":"absent","response":"absent","rt":741.60000002384,"correct":true,"confidence":-1},{"trial_n":5,"min":41,"max":214,"target":"present","response":"present","rt":1228.5999999642,"correct":true,"confidence":-1},{"trial_n":6,"min":57,"max":198,"target":"present","response":"present","rt":1019,"correct":true,"confidence":-1},{"trial_n":7,"min":57,"max":198,"target":"absent","response":"absent","rt":452,"correct":true,"confidence":-1},{"trial_n":8,"min":73,"max":182,"target":"absent","response":"absent","rt":441.19999998808,"correct":true,"confidence":-1},{"trial_n":9,"min":73,"max":182,"target":"present","response":"present","rt":674.60000002384,"correct":true,"confidence":-1},{"trial_n":10,"min":89,"max":166,"target":"present","response":"present","rt":989.80000001192,"correct":true,"confidence":-1},{"trial_n":11,"min":89,"max":166,"target":"absent","response":"absent","rt":502.29999995232,"correct":true,"confidence":-1},{"trial_n":12,"min":97,"max":158,"target":"present","response":"absent","rt":735.69999998808,"correct":false,"confidence":-1},{"trial_n":13,"min":89,"max":166,"target":"absent","response":"absent","rt":757.5,"correct":true,"confidence":-1},{"trial_n":14,"min":89,"max":166,"target":"present","response":"absent","rt":574.80000001192,"correct":false,"confidence":-1},{"trial_n":15,"min":81,"max":174,"target":"absent","response":"present","rt":919.90000003576,"correct":false,"confidence":-1},{"trial_n":16,"min":73,"max":182,"target":"present","response":"present","rt":838,"correct":true,"confidence":-1},{"trial_n":17,"min":73,"max":182,"target":"absent","response":"absent","rt":1215.2999999523,"correct":true,"confidence":-1},{"trial_n":18,"min":81,"max":174,"target":"absent","response":"absent","rt":783,"correct":true,"confidence":-1},{"trial_n":19,"min":81,"max":174,"target":"present","response":"present","rt":747.60000002384,"correct":true,"confidence":-1},{"trial_n":20,"min":89,"max":166,"target":"absent","response":"absent","rt":1761.4000000358,"correct":true,"confidence":-1},{"trial_n":21,"min":89,"max":166,"target":"absent","response":"present","rt":949.09999996424,"correct":false,"confidence":3},{"trial_n":22,"min":85,"max":170,"target":"present","response":"present","rt":820.69999998808,"correct":true,"confidence":4},{"trial_n":23,"min":85,"max":170,"target":"absent","response":"absent","rt":1149.3000000119,"correct":true,"confidence":2},{"trial_n":24,"min":89,"max":166,"target":"absent","response":"present","rt":761.60000002384,"correct":false,"confidence":4},{"trial_n":25,"min":85,"max":170,"target":"present","response":"present","rt":837.29999995232,"correct":true,"confidence":3},{"trial_n":26,"min":85,"max":170,"target":"present","response":"present","rt":662.19999998808,"correct":true,"confidence":3},{"trial_n":27,"min":89,"max":166,"target":"absent","response":"absent","rt":943.60000002384,"correct":true,"confidence":3},{"trial_n":28,"min":89,"max":166,"target":"absent","response":"absent","rt":1342.8000000119,"correct":true,"confidence":3},{"trial_n":29,"min":93,"max":162,"target":"absent","response":"present","rt":854.10000002384,"correct":false,"confidence":3},{"trial_n":30,"min":89,"max":166,"target":"present","response":"present","rt":1739.1000000238,"correct":true,"confidence":4},{"trial_n":31,"min":89,"max":166,"target":"present","response":"present","rt":919.39999997616,"correct":true,"confidence":3},{"trial_n":32,"min":91,"max":164,"target":"present","response":"present","rt":587.40000003576,"correct":true,"confidence":4},{"trial_n":33,"min":91,"max":164,"target":"present","response":"absent","rt":1715.1999999881,"correct":false,"confidence":1},{"trial_n":34,"min":89,"max":166,"target":"absent","response":"present","rt":868.09999996424,"correct":false,"confidence":3},{"trial_n":35,"min":87,"max":168,"target":"absent","response":"absent","rt":683,"correct":true,"confidence":4},{"trial_n":36,"min":87,"max":168,"target":"absent","response":"present","rt":1278.5,"correct":false,"confidence":4},{"trial_n":37,"min":85,"max":170,"target":"absent","response":"absent","rt":808.90000003576,"correct":true,"confidence":3},{"trial_n":38,"min":85,"max":170,"target":"present","response":"present","rt":681.30000001192,"correct":true,"confidence":4},{"trial_n":39,"min":87,"max":168,"target":"present","response":"present","rt":872,"correct":true,"confidence":4},{"trial_n":40,"min":87,"max":168,"target":"absent","response":"present","rt":1785.3000000119,"correct":false,"confidence":3},{"trial_n":41,"min":86,"max":169,"target":"absent","response":"absent","rt":877.89999997616,"correct":true,"confidence":2},{"trial_n":42,"min":86,"max":169,"target":"absent","response":"present","rt":4013,"correct":false,"confidence":3},{"trial_n":43,"min":85,"max":170,"target":"absent","response":"present","rt":1155.3999999762,"correct":false,"confidence":2},{"trial_n":44,"min":84,"max":171,"target":"present","response":"present","rt":735.39999997616,"correct":true,"confidence":5},{"trial_n":45,"min":84,"max":171,"target":"present","response":"present","rt":665.80000001192,"correct":true,"confidence":4},{"trial_n":46,"min":85,"max":170,"target":"present","response":"present","rt":779.5,"correct":true,"confidence":4},{"trial_n":47,"min":85,"max":170,"target":"present","response":"present","rt":1068.1000000238,"correct":true,"confidence":4},{"trial_n":48,"min":86,"max":169,"target":"absent","response":"absent","rt":655.40000003576,"correct":true,"confidence":4},{"trial_n":49,"min":86,"max":169,"target":"absent","response":"absent","rt":775.89999997616,"correct":true,"confidence":3},{"trial_n":50,"min":87,"max":168,"target":"present","response":"present","rt":693.39999997616,"correct":true,"confidence":3},{"trial_n":51,"min":87,"max":168,"target":"present","response":"present","rt":1520.2999999523,"correct":true,"confidence":4},{"trial_n":52,"min":88,"max":167,"target":"present","response":"present","rt":978.39999997616,"correct":true,"confidence":3},{"trial_n":53,"min":88,"max":167,"target":"absent","response":"absent","rt":819.19999998808,"correct":true,"confidence":3},{"trial_n":54,"min":89,"max":166,"target":"present","response":"present","rt":904.89999997616,"correct":true,"confidence":3},{"trial_n":55,"min":89,"max":166,"target":"present","response":"present","rt":1484.8000000119,"correct":true,"confidence":3},{"trial_n":56,"min":90,"max":165,"target":"present","response":"absent","rt":2307.8999999762,"correct":false,"confidence":2},{"trial_n":57,"min":89,"max":166,"target":"absent","response":"present","rt":2601,"correct":false,"confidence":3},{"trial_n":58,"min":88,"max":167,"target":"present","response":"absent","rt":1049.3999999762,"correct":false,"confidence":3},{"trial_n":59,"min":87,"max":168,"target":"present","response":"present","rt":1033.0999999642,"correct":true,"confidence":3},{"trial_n":60,"min":87,"max":168,"target":"absent","response":"absent","rt":1407.5999999642,"correct":true,"confidence":2},{"trial_n":61,"min":88,"max":167,"target":"present","response":"absent","rt":1467.1999999881,"correct":false,"confidence":3},{"trial_n":62,"min":87,"max":168,"target":"absent","response":"absent","rt":1543.6999999881,"correct":true,"confidence":2},{"trial_n":63,"min":87,"max":168,"target":"present","response":"present","rt":893.69999998808,"correct":true,"confidence":4},{"trial_n":64,"min":88,"max":167,"target":"present","response":"absent","rt":906.20000004768,"correct":false,"confidence":2},{"trial_n":65,"min":87,"max":168,"target":"absent","response":"absent","rt":957.60000002384,"correct":true,"confidence":2},{"trial_n":66,"min":87,"max":168,"target":"absent","response":"absent","rt":784.70000004768,"correct":true,"confidence":2},{"trial_n":67,"min":88,"max":167,"target":"absent","response":"absent","rt":713.59999996424,"correct":true,"confidence":1},{"trial_n":68,"min":88,"max":167,"target":"present","response":"present","rt":958.5,"correct":true,"confidence":1},{"trial_n":69,"min":89,"max":166,"target":"present","response":"present","rt":2131.6999999881,"correct":true,"confidence":3},{"trial_n":70,"min":89,"max":166,"target":"absent","response":"absent","rt":1629.4000000358,"correct":true,"confidence":1},{"trial_n":71,"min":41,"max":214,"target":"present","response":"present","rt":4067.1999999881,"correct":true,"confidence":-1},{"trial_n":72,"min":41,"max":214,"target":"present","response":"present","rt":1842,"correct":true,"confidence":-1},{"trial_n":73,"min":57,"max":198,"target":"absent","response":"present","rt":488.20000004768,"correct":false,"confidence":-1},{"trial_n":74,"min":41,"max":214,"target":"absent","response":"absent","rt":536.90000003576,"correct":true,"confidence":-1},{"trial_n":75,"min":41,"max":214,"target":"present","response":"absent","rt":446.60000002384,"correct":false,"confidence":-1},{"trial_n":76,"min":25,"max":230,"target":"present","response":"present","rt":636.40000003576,"correct":true,"confidence":-1},{"trial_n":77,"min":25,"max":230,"target":"absent","response":"absent","rt":459.10000002384,"correct":true,"confidence":-1},{"trial_n":78,"min":41,"max":214,"target":"absent","response":"absent","rt":1085.3999999762,"correct":true,"confidence":-1},{"trial_n":79,"min":41,"max":214,"target":"absent","response":"present","rt":780.5,"correct":false,"confidence":-1},{"trial_n":80,"min":25,"max":230,"target":"present","response":"absent","rt":954.60000002384,"correct":false,"confidence":-1},{"trial_n":81,"min":17,"max":238,"target":"present","response":"present","rt":863,"correct":true,"confidence":-1},{"trial_n":82,"min":17,"max":238,"target":"present","response":"present","rt":806.10000002384,"correct":true,"confidence":-1},{"trial_n":83,"min":25,"max":230,"target":"present","response":"present","rt":911.60000002384,"correct":true,"confidence":-1},{"trial_n":84,"min":25,"max":230,"target":"absent","response":"absent","rt":323.10000002384,"correct":true,"confidence":-1},{"trial_n":85,"min":33,"max":222,"target":"absent","response":"absent","rt":301.70000004768,"correct":true,"confidence":-1},{"trial_n":86,"min":33,"max":222,"target":"present","response":"present","rt":548.40000003576,"correct":true,"confidence":-1},{"trial_n":87,"min":41,"max":214,"target":"present","response":"present","rt":586.89999997616,"correct":true,"confidence":-1},{"trial_n":88,"min":41,"max":214,"target":"present","response":"present","rt":830.70000004768,"correct":true,"confidence":-1},{"trial_n":89,"min":49,"max":206,"target":"present","response":"absent","rt":254.20000004768,"correct":false,"confidence":-1},{"trial_n":90,"min":41,"max":214,"target":"present","response":"present","rt":654,"correct":true,"confidence":-1},{"trial_n":91,"min":41,"max":214,"target":"absent","response":"absent","rt":956.39999997616,"correct":true,"confidence":5},{"trial_n":92,"min":45,"max":210,"target":"absent","response":"absent","rt":500,"correct":true,"confidence":5},{"trial_n":93,"min":45,"max":210,"target":"absent","response":"absent","rt":861.19999998808,"correct":true,"confidence":1},{"trial_n":94,"min":49,"max":206,"target":"absent","response":"present","rt":3708.8000000119,"correct":false,"confidence":3},{"trial_n":95,"min":45,"max":210,"target":"present","response":"present","rt":532.60000002384,"correct":true,"confidence":4},{"trial_n":96,"min":45,"max":210,"target":"present","response":"present","rt":589.09999996424,"correct":true,"confidence":5},{"trial_n":97,"min":49,"max":206,"target":"absent","response":"absent","rt":407.5,"correct":true,"confidence":5},{"trial_n":98,"min":49,"max":206,"target":"present","response":"present","rt":385.5,"correct":true,"confidence":5},{"trial_n":99,"min":53,"max":202,"target":"absent","response":"absent","rt":883.80000001192,"correct":true,"confidence":5},{"trial_n":100,"min":53,"max":202,"target":"absent","response":"absent","rt":541.30000001192,"correct":true,"confidence":5},{"trial_n":101,"min":55,"max":200,"target":"present","response":"present","rt":510,"correct":true,"confidence":5},{"trial_n":102,"min":55,"max":200,"target":"absent","response":"absent","rt":576.69999998808,"correct":true,"confidence":5},{"trial_n":103,"min":57,"max":198,"target":"present","response":"present","rt":700.69999998808,"correct":true,"confidence":5},{"trial_n":104,"min":57,"max":198,"target":"absent","response":"absent","rt":571.39999997616,"correct":true,"confidence":5},{"trial_n":105,"min":59,"max":196,"target":"absent","response":"absent","rt":589.69999998808,"correct":true,"confidence":5},{"trial_n":106,"min":59,"max":196,"target":"present","response":"present","rt":264.5,"correct":true,"confidence":5},{"trial_n":107,"min":61,"max":194,"target":"present","response":"present","rt":581,"correct":true,"confidence":5},{"trial_n":108,"min":61,"max":194,"target":"absent","response":"absent","rt":629.09999996424,"correct":true,"confidence":5},{"trial_n":109,"min":63,"max":192,"target":"present","response":"present","rt":377.5,"correct":true,"confidence":5},{"trial_n":110,"min":63,"max":192,"target":"present","response":"present","rt":370.10000002384,"correct":true,"confidence":5},{"trial_n":111,"min":64,"max":191,"target":"present","response":"present","rt":384.69999998808,"correct":true,"confidence":5},{"trial_n":112,"min":64,"max":191,"target":"absent","response":"absent","rt":215.89999997616,"correct":true,"confidence":5},{"trial_n":113,"min":65,"max":190,"target":"absent","response":"absent","rt":452.80000001192,"correct":true,"confidence":5},{"trial_n":114,"min":65,"max":190,"target":"absent","response":"absent","rt":445.80000001192,"correct":true,"confidence":5},{"trial_n":115,"min":66,"max":189,"target":"absent","response":"absent","rt":583.09999996424,"correct":true,"confidence":5},{"trial_n":116,"min":66,"max":189,"target":"absent","response":"absent","rt":326.10000002384,"correct":true,"confidence":5},{"trial_n":117,"min":67,"max":188,"target":"present","response":"present","rt":321.59999996424,"correct":true,"confidence":5},{"trial_n":118,"min":67,"max":188,"target":"absent","response":"absent","rt":560.5,"correct":true,"confidence":5},{"trial_n":119,"min":68,"max":187,"target":"present","response":"present","rt":478,"correct":true,"confidence":5},{"trial_n":120,"min":68,"max":187,"target":"present","response":"present","rt":379.19999998808,"correct":true,"confidence":5},{"trial_n":121,"min":69,"max":186,"target":"present","response":"present","rt":594.60000002384,"correct":true,"confidence":5},{"trial_n":122,"min":69,"max":186,"target":"absent","response":"absent","rt":854.80000001192,"correct":true,"confidence":5},{"trial_n":123,"min":70,"max":185,"target":"absent","response":"present","rt":710.20000004768,"correct":false,"confidence":4},{"trial_n":124,"min":69,"max":186,"target":"absent","response":"absent","rt":616.09999996424,"correct":true,"confidence":5},{"trial_n":125,"min":69,"max":186,"target":"present","response":"present","rt":336.10000002384,"correct":true,"confidence":5},{"trial_n":126,"min":70,"max":185,"target":"present","response":"present","rt":672.60000002384,"correct":true,"confidence":4},{"trial_n":127,"min":70,"max":185,"target":"present","response":"present","rt":903,"correct":true,"confidence":5},{"trial_n":128,"min":71,"max":184,"target":"absent","response":"absent","rt":763.39999997616,"correct":true,"confidence":4},{"trial_n":129,"min":71,"max":184,"target":"present","response":"present","rt":284,"correct":true,"confidence":5},{"trial_n":130,"min":72,"max":183,"target":"absent","response":"absent","rt":488.29999995232,"correct":true,"confidence":5},{"trial_n":131,"min":72,"max":183,"target":"absent","response":"absent","rt":732.30000001192,"correct":true,"confidence":4},{"trial_n":132,"min":73,"max":182,"target":"present","response":"present","rt":185.20000004768,"correct":true,"confidence":5},{"trial_n":133,"min":73,"max":182,"target":"absent","response":"absent","rt":546.5,"correct":true,"confidence":5},{"trial_n":134,"min":74,"max":181,"target":"present","response":"present","rt":212.90000003576,"correct":true,"confidence":5},{"trial_n":135,"min":74,"max":181,"target":"present","response":"present","rt":461.10000002384,"correct":true,"confidence":5},{"trial_n":136,"min":75,"max":180,"target":"absent","response":"absent","rt":410.80000001192,"correct":true,"confidence":4},{"trial_n":137,"min":75,"max":180,"target":"absent","response":"absent","rt":581.5,"correct":true,"confidence":4},{"trial_n":138,"min":76,"max":179,"target":"absent","response":"absent","rt":903.69999998808,"correct":true,"confidence":4},{"trial_n":139,"min":76,"max":179,"target":"present","response":"present","rt":241.60000002384,"correct":true,"confidence":4},{"trial_n":140,"min":77,"max":178,"target":"present","response":"present","rt":379.60000002384,"correct":true,"confidence":5}]