[{"trial_n":1,"n_dots":4.25,"target":"right","response":"left","rt":22760.699999999,"correct":false,"confidence":-1},{"trial_n":2,"n_dots":4.25,"target":"left","response":"right","rt":3588,"correct":false,"confidence":-1},{"trial_n":3,"n_dots":4.65,"target":"right","response":"left","rt":1834.1999999993,"correct":false,"confidence":-1},{"trial_n":4,"n_dots":5.05,"target":"left","response":"right","rt":201.89999999851,"correct":false,"confidence":-1},{"trial_n":5,"n_dots":5.45,"target":"right","response":"left","rt":274.39999999851,"correct":false,"confidence":-1},{"trial_n":6,"n_dots":5.743,"target":"left","response":"right","rt":224.19999999925,"correct":false,"confidence":-1},{"trial_n":7,"n_dots":5.743,"target":"left","response":"left","rt":183.80000000075,"correct":true,"confidence":-1},{"trial_n":8,"n_dots":5.743,"target":"right","response":"right","rt":83.89999999851,"correct":true,"confidence":-1},{"trial_n":9,"n_dots":5.543,"target":"right","response":"left","rt":128.10000000149,"correct":false,"confidence":-1},{"trial_n":10,"n_dots":5.743,"target":"right","response":"right","rt":281.09999999776,"correct":true,"confidence":-1},{"trial_n":11,"n_dots":5.743,"target":"right","response":"right","rt":255.80000000075,"correct":true,"confidence":-1},{"trial_n":12,"n_dots":5.543,"target":"left","response":"left","rt":223.60000000149,"correct":true,"confidence":-1},{"trial_n":13,"n_dots":5.543,"target":"left","response":"right","rt":297.90000000224,"correct":false,"confidence":-1},{"trial_n":14,"n_dots":5.643,"target":"right","response":"left","rt":151.09999999776,"correct":false,"confidence":-1},{"trial_n":15,"n_dots":5.743,"target":"left","response":"right","rt":169.40000000224,"correct":false,"confidence":-1},{"trial_n":16,"n_dots":5.743,"target":"left","response":"left","rt":538.89999999851,"correct":true,"confidence":-1},{"trial_n":17,"n_dots":5.743,"target":"left","response":"left","rt":502.69999999925,"correct":true,"confidence":-1},{"trial_n":18,"n_dots":5.643,"target":"left","response":"left","rt":250.80000000075,"correct":true,"confidence":-1},{"trial_n":19,"n_dots":5.643,"target":"right","response":"left","rt":296.10000000149,"correct":false,"confidence":-1},{"trial_n":20,"n_dots":5.743,"target":"right","response":"right","rt":82.199999999255,"correct":true,"confidence":-1},{"trial_n":21,"n_dots":5.743,"target":"left","response":"left","rt":180.20000000298,"correct":true,"confidence":3},{"trial_n":22,"n_dots":5.643,"target":"left","response":"left","rt":184.60000000149,"correct":true,"confidence":3},{"trial_n":23,"n_dots":5.643,"target":"right","response":"right","rt":348.89999999851,"correct":true,"confidence":2},{"trial_n":24,"n_dots":5.543,"target":"left","response":"left","rt":297,"correct":true,"confidence":2},{"trial_n":25,"n_dots":5.543,"target":"left","response":"left","rt":390.19999999925,"correct":true,"confidence":2},{"trial_n":26,"n_dots":5.443,"target":"left","response":"left","rt":195.89999999851,"correct":true,"confidence":2},{"trial_n":27,"n_dots":5.443,"target":"right","response":"left","rt":151,"correct":false,"confidence":2},{"trial_n":28,"n_dots":5.543,"target":"left","response":"right","rt":561.69999999925,"correct":false,"confidence":2},{"trial_n":29,"n_dots":5.643,"target":"left","response":"left","rt":99.10000000149,"correct":true,"confidence":2},{"trial_n":30,"n_dots":5.643,"target":"right","response":"right","rt":584.60000000149,"correct":true,"confidence":2},{"trial_n":31,"n_dots":5.543,"target":"left","response":"left","rt":369.69999999925,"correct":true,"confidence":2},{"trial_n":32,"n_dots":5.543,"target":"left","response":"left","rt":278.19999999925,"correct":true,"confidence":2},{"trial_n":33,"n_dots":5.443,"target":"right","response":"left","rt":709.30000000075,"correct":false,"confidence":1},{"trial_n":34,"n_dots":5.543,"target":"left","response":"left","rt":45.300000000745,"correct":true,"confidence":2},{"trial_n":35,"n_dots":5.543,"target":"left","response":"left","rt":280.89999999851,"correct":true,"confidence":1},{"trial_n":36,"n_dots":5.443,"target":"right","response":"left","rt":275.10000000149,"correct":false,"confidence":1},{"trial_n":37,"n_dots":5.543,"target":"right","response":"right","rt":120,"correct":true,"confidence":1},{"trial_n":38,"n_dots":5.543,"target":"right","response":"left","rt":251.80000000075,"correct":false,"confidence":1},{"trial_n":39,"n_dots":5.643,"target":"right","response":"left","rt":28.60000000149,"correct":false,"confidence":1},{"trial_n":40,"n_dots":5.743,"target":"right","response":"right","rt":344.5,"correct":true,"confidence":1},{"trial_n":41,"n_dots":5.743,"target":"right","response":"right","rt":236.69999999925,"correct":true,"confidence":1},{"trial_n":42,"n_dots":5.643,"target":"right","response":"right","rt":91.39999999851,"correct":true,"confidence":1},{"trial_n":43,"n_dots":5.643,"target":"left","response":"left","rt":63.300000000745,"correct":true,"confidence":1},{"trial_n":44,"n_dots":5.543,"target":"left","response":"left","rt":152.09999999776,"correct":true,"confidence":1},{"trial_n":45,"n_dots":5.543,"target":"left","response":"left","rt":268.30000000075,"correct":true,"confidence":1},{"trial_n":46,"n_dots":5.443,"target":"left","response":"left","rt":517.10000000149,"correct":true,"confidence":1},{"trial_n":47,"n_dots":5.443,"target":"left","response":"left","rt":112.19999999925,"correct":true,"confidence":1},{"trial_n":48,"n_dots":5.343,"target":"left","response":"left","rt":1107.1999999993,"correct":true,"confidence":1},{"trial_n":49,"n_dots":5.343,"target":"right","response":"left","rt":86.10000000149,"correct":false,"confidence":1},{"trial_n":50,"n_dots":5.443,"target":"right","response":"left","rt":84.099999997765,"correct":false,"confidence":1},{"trial_n":51,"n_dots":5.543,"target":"left","response":"left","rt":365,"correct":true,"confidence":1},{"trial_n":52,"n_dots":5.543,"target":"right","response":"left","rt":262.30000000075,"correct":false,"confidence":1},{"trial_n":53,"n_dots":5.643,"target":"left","response":"left","rt":87.199999999255,"correct":true,"confidence":1},{"trial_n":54,"n_dots":5.643,"target":"right","response":"left","rt":275.30000000075,"correct":false,"confidence":1},{"trial_n":55,"n_dots":5.743,"target":"right","response":"left","rt":111.80000000075,"correct":false,"confidence":1},{"trial_n":56,"n_dots":5.743,"target":"right","response":"right","rt":120.19999999925,"correct":true,"confidence":1},{"trial_n":57,"n_dots":5.743,"target":"right","response":"left","rt":303.69999999925,"correct":false,"confidence":1},{"trial_n":58,"n_dots":5.743,"target":"right","response":"left","rt":247.39999999851,"correct":false,"confidence":1},{"trial_n":59,"n_dots":5.743,"target":"left","response":"left","rt":118,"correct":true,"confidence":1},{"trial_n":60,"n_dots":5.743,"target":"right","response":"left","rt":26.900000002235,"correct":false,"confidence":1},{"trial_n":61,"n_dots":5.743,"target":"right","response":"left","rt":49.699999999255,"correct":false,"confidence":1},{"trial_n":62,"n_dots":5.743,"target":"right","response":"left","rt":69.900000002235,"correct":false,"confidence":1},{"trial_n":63,"n_dots":5.743,"target":"left","response":"left","rt":29.39999999851,"correct":true,"confidence":1},{"trial_n":64,"n_dots":5.743,"target":"right","response":"left","rt":76.5,"correct":false,"confidence":1},{"trial_n":65,"n_dots":5.743,"target":"right","response":"left","rt":55.699999999255,"correct":false,"confidence":1},{"trial_n":66,"n_dots":5.743,"target":"right","response":"left","rt":45.199999999255,"correct":false,"confidence":1},{"trial_n":67,"n_dots":5.743,"target":"left","response":"left","rt":158.30000000075,"correct":true,"confidence":1},{"trial_n":68,"n_dots":5.743,"target":"left","response":"left","rt":418,"correct":true,"confidence":1},{"trial_n":69,"n_dots":5.643,"target":"right","response":"left","rt":110.19999999925,"correct":false,"confidence":1},{"trial_n":70,"n_dots":5.743,"target":"left","response":"left","rt":45.89999999851,"correct":true,"confidence":1},{"trial_n":71,"n_dots":5.743,"target":"right","response":"left","rt":214.80000000075,"correct":false,"confidence":1},{"trial_n":72,"n_dots":5.743,"target":"right","response":"left","rt":186.90000000224,"correct":false,"confidence":1},{"trial_n":73,"n_dots":5.743,"target":"left","response":"left","rt":633.80000000075,"correct":true,"confidence":1},{"trial_n":74,"n_dots":5.743,"target":"left","response":"left","rt":462.20000000298,"correct":true,"confidence":1},{"trial_n":75,"n_dots":5.643,"target":"right","response":"left","rt":132.30000000075,"correct":false,"confidence":1},{"trial_n":76,"n_dots":5.743,"target":"right","response":"left","rt":186.60000000149,"correct":false,"confidence":1},{"trial_n":77,"n_dots":5.743,"target":"left","response":"left","rt":42.89999999851,"correct":true,"confidence":1},{"trial_n":78,"n_dots":5.743,"target":"right","response":"left","rt":141.69999999925,"correct":false,"confidence":1},{"trial_n":79,"n_dots":5.743,"target":"left","response":"left","rt":59.70000000298,"correct":true,"confidence":1},{"trial_n":80,"n_dots":5.743,"target":"left","response":"left","rt":188.79999999702,"correct":true,"confidence":1},{"trial_n":81,"n_dots":5.643,"target":"left","response":"left","rt":9,"correct":true,"confidence":1},{"trial_n":82,"n_dots":5.643,"target":"right","response":"left","rt":3.5999999977648,"correct":false,"confidence":1},{"trial_n":83,"n_dots":5.743,"target":"left","response":"left","rt":130.5,"correct":true,"confidence":1},{"trial_n":84,"n_dots":5.743,"target":"left","response":"left","rt":122.60000000149,"correct":true,"confidence":1},{"trial_n":85,"n_dots":5.643,"target":"right","response":"left","rt":88,"correct":false,"confidence":1},{"trial_n":86,"n_dots":5.743,"target":"left","response":"left","rt":69.599999997765,"correct":true,"confidence":1},{"trial_n":87,"n_dots":5.743,"target":"right","response":"left","rt":22.199999999255,"correct":false,"confidence":1},{"trial_n":88,"n_dots":5.743,"target":"right","response":"left","rt":71.39999999851,"correct":false,"confidence":1},{"trial_n":89,"n_dots":5.743,"target":"left","response":"left","rt":137.80000000075,"correct":true,"confidence":1},{"trial_n":90,"n_dots":5.743,"target":"right","response":"left","rt":91,"correct":false,"confidence":1},{"trial_n":91,"n_dots":5.743,"target":"right","response":"left","rt":6.1999999992549,"correct":false,"confidence":1},{"trial_n":92,"n_dots":5.743,"target":"right","response":"left","rt":1.8000000007451,"correct":false,"confidence":1},{"trial_n":93,"n_dots":5.743,"target":"right","response":"left","rt":87.10000000149,"correct":false,"confidence":1},{"trial_n":94,"n_dots":5.743,"target":"right","response":"left","rt":31.60000000149,"correct":false,"confidence":1},{"trial_n":95,"n_dots":5.743,"target":"left","response":"left","rt":60.39999999851,"correct":true,"confidence":1},{"trial_n":96,"n_dots":5.743,"target":"left","response":"left","rt":181.5,"correct":true,"confidence":1},{"trial_n":97,"n_dots":5.643,"target":"left","response":"left","rt":142.10000000149,"correct":true,"confidence":1},{"trial_n":98,"n_dots":5.643,"target":"left","response":"left","rt":160.59999999776,"correct":true,"confidence":1},{"trial_n":99,"n_dots":5.543,"target":"left","response":"left","rt":316.89999999851,"correct":true,"confidence":1},{"trial_n":100,"n_dots":5.543,"target":"right","response":"left","rt":51.199999999255,"correct":false,"confidence":1},{"trial_n":101,"n_dots":5.643,"target":"left","response":"right","rt":250,"correct":false,"confidence":1},{"trial_n":102,"n_dots":5.743,"target":"left","response":"right","rt":550.19999999925,"correct":false,"confidence":1},{"trial_n":103,"n_dots":5.743,"target":"left","response":"right","rt":22.39999999851,"correct":false,"confidence":1},{"trial_n":104,"n_dots":5.743,"target":"right","response":"right","rt":28.400000002235,"correct":true,"confidence":1},{"trial_n":105,"n_dots":5.743,"target":"right","response":"right","rt":333.09999999776,"correct":true,"confidence":1},{"trial_n":106,"n_dots":5.643,"target":"right","response":"right","rt":123.59999999776,"correct":true,"confidence":1},{"trial_n":107,"n_dots":5.643,"target":"right","response":"right","rt":8.8000000007451,"correct":true,"confidence":1},{"trial_n":108,"n_dots":5.543,"target":"left","response":"right","rt":150.89999999851,"correct":false,"confidence":1},{"trial_n":109,"n_dots":5.643,"target":"right","response":"right","rt":66,"correct":true,"confidence":1},{"trial_n":110,"n_dots":5.643,"target":"left","response":"right","rt":87.5,"correct":false,"confidence":1},{"trial_n":111,"n_dots":5.743,"target":"left","response":"right","rt":74.10000000149,"correct":false,"confidence":1},{"trial_n":112,"n_dots":5.743,"target":"left","response":"right","rt":65.699999999255,"correct":false,"confidence":1},{"trial_n":113,"n_dots":5.743,"target":"left","response":"right","rt":209.30000000075,"correct":false,"confidence":1},{"trial_n":114,"n_dots":5.743,"target":"left","response":"right","rt":135.10000000149,"correct":false,"confidence":1},{"trial_n":115,"n_dots":5.743,"target":"right","response":"right","rt":328.80000000075,"correct":true,"confidence":1},{"trial_n":116,"n_dots":5.743,"target":"right","response":"right","rt":53.800000000745,"correct":true,"confidence":1},{"trial_n":117,"n_dots":5.643,"target":"right","response":"right","rt":127.69999999925,"correct":true,"confidence":1},{"trial_n":118,"n_dots":5.643,"target":"right","response":"right","rt":316.69999999925,"correct":true,"confidence":1},{"trial_n":119,"n_dots":5.543,"target":"left","response":"right","rt":92.199999999255,"correct":false,"confidence":1},{"trial_n":120,"n_dots":5.643,"target":"left","response":"right","rt":121.30000000075,"correct":false,"confidence":1}]