[{"trial_n":1,"span":8,"encoder":"47791594","distractor":"47791294","target":"present","response":"present","rt":"3745.8000000007","correct":true,"confidence":-1},{"trial_n":2,"span":8,"encoder":"04497081","distractor":"04497061","target":"present","response":"present","rt":"1231.1000000015","correct":true,"confidence":-1},{"trial_n":3,"span":10,"encoder":"6439877411","distractor":"6439872411","target":"absent","response":"absent","rt":"3030.4000000022","correct":true,"confidence":-1},{"trial_n":4,"span":10,"encoder":"7514799251","distractor":"7514299251","target":"absent","response":"absent","rt":"2015","correct":true,"confidence":-1},{"trial_n":5,"span":12,"encoder":"239389811717","distractor":"239689811717","target":"present","response":"present","rt":"2432.6000000015","correct":true,"confidence":-1},{"trial_n":6,"span":12,"encoder":"377777405688","distractor":"377777425688","target":"absent","response":"present","rt":"2192.299999997","correct":false,"confidence":-1},{"trial_n":7,"span":10,"encoder":"1639693630","distractor":"1739693630","target":"present","response":"absent","rt":"1970.6000000015","correct":false,"confidence":-1},{"trial_n":8,"span":8,"encoder":"50893095","distractor":"50897095","target":"absent","response":"present","rt":"2244.8999999985","correct":false,"confidence":-1},{"trial_n":9,"span":6,"encoder":"385324","distractor":"385321","target":"present","response":"present","rt":"1399.6000000015","correct":true,"confidence":-1},{"trial_n":10,"span":6,"encoder":"157115","distractor":"157113","target":"absent","response":"absent","rt":"2086.3999999985","correct":true,"confidence":-1},{"trial_n":11,"span":8,"encoder":"11174166","distractor":"11574166","target":"absent","response":"present","rt":"1383.1000000015","correct":false,"confidence":-1},{"trial_n":12,"span":7,"encoder":"8333838","distractor":"8313838","target":"absent","response":"present","rt":"1574.5","correct":false,"confidence":-1},{"trial_n":13,"span":6,"encoder":"038955","distractor":"038952","target":"absent","response":"absent","rt":"1966.6999999993","correct":true,"confidence":-1},{"trial_n":14,"span":6,"encoder":"835290","distractor":"855290","target":"present","response":"present","rt":"1884.799999997","correct":true,"confidence":-1},{"trial_n":15,"span":7,"encoder":"2014573","distractor":"2014579","target":"absent","response":"present","rt":"2519","correct":false,"confidence":-1},{"trial_n":16,"span":6,"encoder":"749835","distractor":"749035","target":"present","response":"present","rt":"2079.4000000022","correct":true,"confidence":-1},{"trial_n":17,"span":6,"encoder":"491292","distractor":"494292","target":"absent","response":"present","rt":"4327.3000000007","correct":false,"confidence":-1},{"trial_n":18,"span":5,"encoder":"10677","distractor":"30677","target":"present","response":"present","rt":"1332.6999999993","correct":true,"confidence":-1},{"trial_n":19,"span":5,"encoder":"84717","distractor":"84817","target":"present","response":"present","rt":"1452.6000000015","correct":true,"confidence":-1},{"trial_n":20,"span":6,"encoder":"134550","distractor":"134555","target":"absent","response":"absent","rt":"1579.6999999993","correct":true,"confidence":-1},{"trial_n":21,"span":6,"encoder":"349478","distractor":"349475","target":"absent","response":"absent","rt":"1201.8000000007","correct":true,"confidence":4},{"trial_n":22,"span":7,"encoder":"8769429","distractor":"8709429","target":"present","response":"present","rt":"2931.5","correct":true,"confidence":4},{"trial_n":23,"span":7,"encoder":"4837635","distractor":"6837635","target":"absent","response":"present","rt":"1789.6000000015","correct":false,"confidence":3},{"trial_n":24,"span":6,"encoder":"520543","distractor":"520143","target":"present","response":"present","rt":"2691.1000000015","correct":true,"confidence":3},{"trial_n":25,"span":6,"encoder":"247214","distractor":"247274","target":"present","response":"present","rt":"1368.8000000007","correct":true,"confidence":4},{"trial_n":26,"span":7,"encoder":"8731662","distractor":"8737662","target":"absent","response":"present","rt":"1488.9000000022","correct":false,"confidence":3},{"trial_n":27,"span":6,"encoder":"683428","distractor":"683420","target":"absent","response":"absent","rt":"2050.299999997","correct":true,"confidence":5},{"trial_n":28,"span":6,"encoder":"091389","distractor":"091386","target":"absent","response":"absent","rt":"2305.6999999993","correct":true,"confidence":4},{"trial_n":29,"span":7,"encoder":"3409187","distractor":"3439187","target":"present","response":"present","rt":"2411.799999997","correct":true,"confidence":4},{"trial_n":30,"span":7,"encoder":"6933262","distractor":"6933260","target":"present","response":"present","rt":"2002.9000000022","correct":true,"confidence":5},{"trial_n":31,"span":8,"encoder":"93879329","distractor":"93875329","target":"present","response":"present","rt":"2291.299999997","correct":true,"confidence":4},{"trial_n":32,"span":8,"encoder":"94304497","distractor":"94904497","target":"present","response":"present","rt":"1630.6999999993","correct":true,"confidence":4},{"trial_n":33,"span":9,"encoder":"714804558","distractor":"714804518","target":"absent","response":"absent","rt":"1651.1999999993","correct":true,"confidence":3},{"trial_n":34,"span":9,"encoder":"033681775","distractor":"033581775","target":"present","response":"present","rt":"1555.700000003","correct":true,"confidence":4},{"trial_n":35,"span":10,"encoder":"1760632189","distractor":"9760632189","target":"absent","response":"present","rt":"3177.8999999985","correct":false,"confidence":2},{"trial_n":36,"span":9,"encoder":"482660266","distractor":"432660266","target":"absent","response":"present","rt":"1210","correct":false,"confidence":4},{"trial_n":37,"span":8,"encoder":"00087467","distractor":"00087465","target":"present","response":"present","rt":"1272.8000000007","correct":true,"confidence":4},{"trial_n":38,"span":8,"encoder":"73598212","distractor":"73548212","target":"present","response":"present","rt":"1722.5999999978","correct":true,"confidence":4},{"trial_n":39,"span":9,"encoder":"730298556","distractor":"790298556","target":"absent","response":"present","rt":"1215.3000000007","correct":false,"confidence":4},{"trial_n":40,"span":8,"encoder":"01128248","distractor":"01128258","target":"absent","response":"present","rt":"1506.5999999978","correct":false,"confidence":4},{"trial_n":41,"span":7,"encoder":"8176412","distractor":"8176402","target":"present","response":"present","rt":"1221.6000000015","correct":true,"confidence":3},{"trial_n":42,"span":7,"encoder":"7415225","distractor":"7415222","target":"present","response":"absent","rt":"7942.1000000015","correct":false,"confidence":2},{"trial_n":43,"span":6,"encoder":"517935","distractor":"517932","target":"present","response":"present","rt":"1871","correct":true,"confidence":5},{"trial_n":44,"span":6,"encoder":"889430","distractor":"889030","target":"absent","response":"present","rt":"1594.9000000022","correct":false,"confidence":4},{"trial_n":45,"span":5,"encoder":"52042","distractor":"52942","target":"present","response":"present","rt":"1710.8000000007","correct":true,"confidence":3},{"trial_n":46,"span":5,"encoder":"55422","distractor":"55522","target":"absent","response":"present","rt":"1618.6999999993","correct":false,"confidence":4},{"trial_n":47,"span":4,"encoder":"3359","distractor":"3319","target":"present","response":"present","rt":"1615.6999999993","correct":true,"confidence":4},{"trial_n":48,"span":4,"encoder":"8377","distractor":"8374","target":"present","response":"present","rt":"1415.9000000022","correct":true,"confidence":1},{"trial_n":49,"span":5,"encoder":"38374","distractor":"08374","target":"absent","response":"present","rt":"1411.9000000022","correct":false,"confidence":3},{"trial_n":50,"span":4,"encoder":"1443","distractor":"8443","target":"present","response":"present","rt":"1207.6999999993","correct":true,"confidence":3},{"trial_n":51,"span":4,"encoder":"9935","distractor":"4935","target":"absent","response":"absent","rt":"2033","correct":true,"confidence":1},{"trial_n":52,"span":5,"encoder":"97008","distractor":"97208","target":"absent","response":"absent","rt":"3291.5","correct":true,"confidence":4},{"trial_n":53,"span":5,"encoder":"10387","distractor":"18387","target":"absent","response":"absent","rt":"1328.3999999985","correct":true,"confidence":4},{"trial_n":54,"span":6,"encoder":"675086","distractor":"875086","target":"absent","response":"present","rt":"2397.5","correct":false,"confidence":3},{"trial_n":55,"span":5,"encoder":"07895","distractor":"03895","target":"absent","response":"absent","rt":"1535.6000000015","correct":true,"confidence":1},{"trial_n":56,"span":5,"encoder":"46687","distractor":"46187","target":"absent","response":"absent","rt":"2073.8999999985","correct":true,"confidence":1},{"trial_n":57,"span":6,"encoder":"823599","distractor":"853599","target":"present","response":"present","rt":"3009.3999999985","correct":true,"confidence":4},{"trial_n":58,"span":6,"encoder":"035315","distractor":"095315","target":"absent","response":"present","rt":"1903.6000000015","correct":false,"confidence":3},{"trial_n":59,"span":5,"encoder":"09592","distractor":"89592","target":"present","response":"present","rt":"1666","correct":true,"confidence":3},{"trial_n":60,"span":5,"encoder":"36638","distractor":"36678","target":"present","response":"present","rt":"5837.700000003","correct":true,"confidence":4},{"trial_n":61,"span":6,"encoder":"829279","distractor":"820279","target":"present","response":"present","rt":"1749.9000000022","correct":true,"confidence":3},{"trial_n":62,"span":6,"encoder":"573585","distractor":"503585","target":"present","response":"present","rt":"1702.9000000022","correct":true,"confidence":4},{"trial_n":63,"span":7,"encoder":"6210613","distractor":"6410613","target":"present","response":"present","rt":"1784.5","correct":true,"confidence":3},{"trial_n":64,"span":7,"encoder":"4764823","distractor":"4764822","target":"present","response":"present","rt":"1636.5","correct":true,"confidence":5},{"trial_n":65,"span":8,"encoder":"38253887","distractor":"38283887","target":"present","response":"present","rt":"1574.200000003","correct":true,"confidence":4},{"trial_n":66,"span":8,"encoder":"54876630","distractor":"50876630","target":"absent","response":"present","rt":"1320.6999999993","correct":false,"confidence":4},{"trial_n":67,"span":7,"encoder":"4157723","distractor":"4151723","target":"present","response":"present","rt":"1191.200000003","correct":true,"confidence":4},{"trial_n":68,"span":7,"encoder":"6037894","distractor":"6337894","target":"absent","response":"present","rt":"2152.6999999993","correct":false,"confidence":3},{"trial_n":69,"span":6,"encoder":"686814","distractor":"686884","target":"absent","response":"absent","rt":"1501.3000000007","correct":true,"confidence":3},{"trial_n":70,"span":6,"encoder":"093491","distractor":"093411","target":"present","response":"present","rt":"2669.1000000015","correct":true,"confidence":4},{"trial_n":71,"span":8,"encoder":"09649038","distractor":"09649238","target":"present","response":"present","rt":"5551.1000000015","correct":true,"confidence":-1},{"trial_n":72,"span":8,"encoder":"58539021","distractor":"57539021","target":"present","response":"absent","rt":"4343.9000000022","correct":false,"confidence":-1},{"trial_n":73,"span":7,"encoder":"8463963","distractor":"8563963","target":"absent","response":"present","rt":"225.89999999851","correct":false,"confidence":-1},{"trial_n":74,"span":6,"encoder":"698881","distractor":"688881","target":"absent","response":"absent","rt":"348.90000000224","correct":true,"confidence":-1},{"trial_n":75,"span":6,"encoder":"283985","distractor":"583985","target":"present","response":"present","rt":"238.80000000075","correct":true,"confidence":-1},{"trial_n":76,"span":7,"encoder":"1951690","distractor":"1950690","target":"present","response":"present","rt":"2986.5999999978","correct":true,"confidence":-1},{"trial_n":77,"span":7,"encoder":"7294268","distractor":"7290268","target":"present","response":"present","rt":"128.10000000149","correct":true,"confidence":-1},{"trial_n":78,"span":8,"encoder":"87143422","distractor":"87143412","target":"present","response":"absent","rt":"293.5","correct":false,"confidence":-1},{"trial_n":79,"span":7,"encoder":"3292820","distractor":"3292420","target":"absent","response":"present","rt":"1790.5999999978","correct":false,"confidence":-1},{"trial_n":80,"span":6,"encoder":"847819","distractor":"847889","target":"absent","response":"absent","rt":"1863.5","correct":true,"confidence":-1},{"trial_n":81,"span":6,"encoder":"726763","distractor":"756763","target":"absent","response":"absent","rt":"2481.1999999993","correct":true,"confidence":-1},{"trial_n":82,"span":7,"encoder":"2619862","distractor":"2219862","target":"present","response":"present","rt":"7095","correct":true,"confidence":-1},{"trial_n":83,"span":7,"encoder":"0541340","distractor":"0641340","target":"present","response":"absent","rt":"2895.3999999985","correct":false,"confidence":-1},{"trial_n":84,"span":6,"encoder":"824698","distractor":"824628","target":"absent","response":"present","rt":"96.60000000149","correct":false,"confidence":-1},{"trial_n":85,"span":5,"encoder":"25406","distractor":"25906","target":"absent","response":"absent","rt":"63.800000000745","correct":true,"confidence":-1},{"trial_n":86,"span":5,"encoder":"32054","distractor":"32554","target":"absent","response":"present","rt":"20.099999997765","correct":false,"confidence":-1},{"trial_n":87,"span":4,"encoder":"3139","distractor":"3134","target":"absent","response":"absent","rt":"111.40000000224","correct":true,"confidence":-1},{"trial_n":88,"span":4,"encoder":"4763","distractor":"4563","target":"absent","response":"present","rt":"47.5","correct":false,"confidence":-1},{"trial_n":89,"span":3,"encoder":"138","distractor":"130","target":"present","response":"present","rt":"186.10000000149","correct":true,"confidence":-1},{"trial_n":90,"span":3,"encoder":"528","distractor":"526","target":"present","response":"present","rt":"154.69999999925","correct":true,"confidence":-1},{"trial_n":91,"span":4,"encoder":"8036","distractor":"8736","target":"absent","response":"absent","rt":"2747.3999999985","correct":true,"confidence":4},{"trial_n":92,"span":4,"encoder":"4788","distractor":"4688","target":"present","response":"present","rt":"2152.1000000015","correct":true,"confidence":3},{"trial_n":93,"span":5,"encoder":"54396","distractor":"54306","target":"present","response":"present","rt":"2616","correct":true,"confidence":3},{"trial_n":94,"span":5,"encoder":"68803","distractor":"68303","target":"absent","response":"present","rt":"2274.8999999985","correct":false,"confidence":4},{"trial_n":95,"span":4,"encoder":"3735","distractor":"3745","target":"present","response":"present","rt":"1850","correct":true,"confidence":3},{"trial_n":96,"span":4,"encoder":"4629","distractor":"0629","target":"present","response":"present","rt":"12265.900000002","correct":true,"confidence":4},{"trial_n":97,"span":5,"encoder":"02901","distractor":"62901","target":"absent","response":"present","rt":"2044.6999999993","correct":false,"confidence":3},{"trial_n":98,"span":4,"encoder":"9641","distractor":"8641","target":"present","response":"present","rt":"7555.8000000007","correct":true,"confidence":4},{"trial_n":99,"span":4,"encoder":"3077","distractor":"7077","target":"present","response":"present","rt":"1514.5","correct":true,"confidence":4},{"trial_n":100,"span":5,"encoder":"56010","distractor":"36010","target":"present","response":"present","rt":"1857.4000000022","correct":true,"confidence":4},{"trial_n":101,"span":5,"encoder":"63527","distractor":"63529","target":"present","response":"present","rt":"1563.8999999985","correct":true,"confidence":4},{"trial_n":102,"span":6,"encoder":"772130","distractor":"762130","target":"absent","response":"absent","rt":"1674.1000000015","correct":true,"confidence":4},{"trial_n":103,"span":6,"encoder":"899310","distractor":"896310","target":"absent","response":"absent","rt":"4441","correct":true,"confidence":4},{"trial_n":104,"span":7,"encoder":"0418820","distractor":"4418820","target":"present","response":"present","rt":"2350.1000000015","correct":true,"confidence":4},{"trial_n":105,"span":7,"encoder":"1394683","distractor":"1391683","target":"absent","response":"absent","rt":"3918.3000000007","correct":true,"confidence":4},{"trial_n":106,"span":8,"encoder":"47985188","distractor":"47945188","target":"present","response":"absent","rt":"2448.1000000015","correct":false,"confidence":3},{"trial_n":107,"span":7,"encoder":"4845488","distractor":"4845486","target":"present","response":"present","rt":"1636.1999999993","correct":true,"confidence":4},{"trial_n":108,"span":7,"encoder":"2359236","distractor":"2659236","target":"present","response":"present","rt":"3954.5999999978","correct":true,"confidence":3},{"trial_n":109,"span":8,"encoder":"69435089","distractor":"69435889","target":"present","response":"present","rt":"2414.3000000007","correct":true,"confidence":4},{"trial_n":110,"span":8,"encoder":"44655938","distractor":"44655934","target":"present","response":"absent","rt":"1681.299999997","correct":false,"confidence":3},{"trial_n":111,"span":7,"encoder":"6704701","distractor":"6704781","target":"absent","response":"absent","rt":"3166.6999999993","correct":true,"confidence":4},{"trial_n":112,"span":7,"encoder":"8740734","distractor":"8720734","target":"absent","response":"present","rt":"994.70000000298","correct":false,"confidence":4},{"trial_n":113,"span":6,"encoder":"809086","distractor":"804086","target":"present","response":"present","rt":"2078.6000000015","correct":true,"confidence":4},{"trial_n":114,"span":6,"encoder":"568953","distractor":"568951","target":"absent","response":"absent","rt":"3569.5","correct":true,"confidence":3},{"trial_n":115,"span":7,"encoder":"9198107","distractor":"9158107","target":"present","response":"present","rt":"2621.0999999978","correct":true,"confidence":4},{"trial_n":116,"span":7,"encoder":"3327341","distractor":"3327361","target":"present","response":"absent","rt":"3006.700000003","correct":false,"confidence":3},{"trial_n":117,"span":6,"encoder":"523003","distractor":"523004","target":"absent","response":"absent","rt":"1486.6999999993","correct":true,"confidence":4},{"trial_n":118,"span":6,"encoder":"449106","distractor":"442106","target":"absent","response":"absent","rt":"2277.6999999993","correct":true,"confidence":4},{"trial_n":119,"span":7,"encoder":"7043879","distractor":"7043875","target":"absent","response":"absent","rt":"1646.6999999993","correct":true,"confidence":4},{"trial_n":120,"span":7,"encoder":"4940719","distractor":"4960719","target":"present","response":"present","rt":"2965.6000000015","correct":true,"confidence":4},{"trial_n":121,"span":8,"encoder":"51059480","distractor":"51059450","target":"present","response":"present","rt":"5109.3999999985","correct":true,"confidence":4},{"trial_n":122,"span":8,"encoder":"84790527","distractor":"84790517","target":"present","response":"present","rt":"274.70000000298","correct":true,"confidence":3},{"trial_n":123,"span":9,"encoder":"085221813","distractor":"185221813","target":"absent","response":"present","rt":"1296.3999999985","correct":false,"confidence":3},{"trial_n":124,"span":8,"encoder":"80371967","distractor":"87371967","target":"absent","response":"present","rt":"2394.6000000015","correct":false,"confidence":3},{"trial_n":125,"span":7,"encoder":"3830950","distractor":"3850950","target":"absent","response":"present","rt":"1931","correct":false,"confidence":3},{"trial_n":126,"span":6,"encoder":"559840","distractor":"559800","target":"absent","response":"absent","rt":"1500.6999999993","correct":true,"confidence":3},{"trial_n":127,"span":6,"encoder":"321488","distractor":"321480","target":"present","response":"present","rt":"2076.6999999993","correct":true,"confidence":3},{"trial_n":128,"span":7,"encoder":"0211873","distractor":"0210873","target":"present","response":"present","rt":"1417.8000000007","correct":true,"confidence":3},{"trial_n":129,"span":7,"encoder":"1342278","distractor":"1352278","target":"absent","response":"present","rt":"1921.5","correct":false,"confidence":3},{"trial_n":130,"span":6,"encoder":"133466","distractor":"133566","target":"present","response":"absent","rt":"4853.0999999978","correct":false,"confidence":3},{"trial_n":131,"span":5,"encoder":"11498","distractor":"19498","target":"absent","response":"absent","rt":"1877.8000000007","correct":true,"confidence":3},{"trial_n":132,"span":5,"encoder":"46692","distractor":"46694","target":"absent","response":"absent","rt":"1495.299999997","correct":true,"confidence":3},{"trial_n":133,"span":6,"encoder":"160189","distractor":"180189","target":"absent","response":"present","rt":"1471.8000000007","correct":false,"confidence":3},{"trial_n":134,"span":5,"encoder":"18769","distractor":"18739","target":"absent","response":"absent","rt":"1855.8000000007","correct":true,"confidence":3},{"trial_n":135,"span":5,"encoder":"86542","distractor":"86142","target":"present","response":"present","rt":"1920.1999999993","correct":true,"confidence":3},{"trial_n":136,"span":6,"encoder":"162503","distractor":"162593","target":"present","response":"present","rt":"2303.3999999985","correct":true,"confidence":3},{"trial_n":137,"span":6,"encoder":"455033","distractor":"435033","target":"absent","response":"absent","rt":"1455.3999999985","correct":true,"confidence":3},{"trial_n":138,"span":7,"encoder":"1602282","distractor":"0602282","target":"absent","response":"absent","rt":"2270.6000000015","correct":true,"confidence":3},{"trial_n":139,"span":7,"encoder":"5155538","distractor":"5175538","target":"absent","response":"present","rt":"1466.5999999978","correct":false,"confidence":3},{"trial_n":140,"span":6,"encoder":"659756","distractor":"659796","target":"present","response":"present","rt":"4500.1999999993","correct":true,"confidence":3}]