[{"trial_n":1,"n_dots":4.25,"target":"right","response":"right","rt":1043.7000000477,"correct":true,"confidence":-1},{"trial_n":2,"n_dots":4.25,"target":"left","response":"left","rt":3941.7999999523,"correct":true,"confidence":-1},{"trial_n":3,"n_dots":3.85,"target":"left","response":"left","rt":879.79999995232,"correct":true,"confidence":-1},{"trial_n":4,"n_dots":3.85,"target":"left","response":"right","rt":1414.6999998093,"correct":false,"confidence":-1},{"trial_n":5,"n_dots":4.25,"target":"right","response":"left","rt":1254.7000000477,"correct":false,"confidence":-1},{"trial_n":6,"n_dots":4.65,"target":"right","response":"right","rt":722.29999995232,"correct":true,"confidence":-1},{"trial_n":7,"n_dots":4.65,"target":"left","response":"left","rt":743.29999995232,"correct":true,"confidence":-1},{"trial_n":8,"n_dots":4.45,"target":"left","response":"left","rt":667.39999985695,"correct":true,"confidence":-1},{"trial_n":9,"n_dots":4.45,"target":"right","response":"right","rt":664.29999995232,"correct":true,"confidence":-1},{"trial_n":10,"n_dots":4.25,"target":"left","response":"left","rt":460.60000014305,"correct":true,"confidence":-1},{"trial_n":11,"n_dots":4.25,"target":"left","response":"left","rt":523.60000014305,"correct":true,"confidence":-1},{"trial_n":12,"n_dots":4.05,"target":"right","response":"right","rt":464.30000019073,"correct":true,"confidence":-1},{"trial_n":13,"n_dots":4.05,"target":"left","response":"left","rt":360.5,"correct":true,"confidence":-1},{"trial_n":14,"n_dots":3.95,"target":"left","response":"right","rt":685.20000004768,"correct":false,"confidence":-1},{"trial_n":15,"n_dots":4.05,"target":"left","response":"left","rt":726.40000009537,"correct":true,"confidence":-1},{"trial_n":16,"n_dots":4.05,"target":"right","response":"right","rt":374.29999995232,"correct":true,"confidence":-1},{"trial_n":17,"n_dots":3.95,"target":"left","response":"left","rt":773,"correct":true,"confidence":-1},{"trial_n":18,"n_dots":3.95,"target":"right","response":"right","rt":445,"correct":true,"confidence":-1},{"trial_n":19,"n_dots":3.85,"target":"right","response":"right","rt":450.79999995232,"correct":true,"confidence":-1},{"trial_n":20,"n_dots":3.85,"target":"right","response":"right","rt":352.10000014305,"correct":true,"confidence":-1},{"trial_n":21,"n_dots":3.75,"target":"left","response":"right","rt":530.5,"correct":false,"confidence":3},{"trial_n":22,"n_dots":3.85,"target":"right","response":"right","rt":915.89999985695,"correct":true,"confidence":3},{"trial_n":23,"n_dots":3.85,"target":"left","response":"left","rt":964.5,"correct":true,"confidence":2},{"trial_n":24,"n_dots":3.75,"target":"right","response":"right","rt":699.89999985695,"correct":true,"confidence":2},{"trial_n":25,"n_dots":3.75,"target":"left","response":"right","rt":1061.2000000477,"correct":false,"confidence":2},{"trial_n":26,"n_dots":3.85,"target":"right","response":"right","rt":731.90000009537,"correct":true,"confidence":4},{"trial_n":27,"n_dots":3.85,"target":"left","response":"right","rt":736.09999990463,"correct":false,"confidence":4},{"trial_n":28,"n_dots":3.95,"target":"right","response":"right","rt":494.20000004768,"correct":true,"confidence":4},{"trial_n":29,"n_dots":3.95,"target":"right","response":"right","rt":472.90000009537,"correct":true,"confidence":4},{"trial_n":30,"n_dots":3.85,"target":"left","response":"left","rt":934.19999980927,"correct":true,"confidence":2},{"trial_n":31,"n_dots":3.85,"target":"right","response":"right","rt":434.70000004768,"correct":true,"confidence":5},{"trial_n":32,"n_dots":3.75,"target":"left","response":"right","rt":608.69999980927,"correct":false,"confidence":2},{"trial_n":33,"n_dots":3.85,"target":"left","response":"right","rt":646.19999980927,"correct":false,"confidence":2},{"trial_n":34,"n_dots":3.95,"target":"left","response":"right","rt":1127.0999999046,"correct":false,"confidence":2},{"trial_n":35,"n_dots":4.05,"target":"left","response":"right","rt":1129.2999999523,"correct":false,"confidence":3},{"trial_n":36,"n_dots":4.15,"target":"left","response":"right","rt":2002.7999999523,"correct":false,"confidence":2},{"trial_n":37,"n_dots":4.25,"target":"right","response":"right","rt":410,"correct":true,"confidence":5},{"trial_n":38,"n_dots":4.25,"target":"right","response":"right","rt":612.5,"correct":true,"confidence":4},{"trial_n":39,"n_dots":4.15,"target":"left","response":"left","rt":647.60000014305,"correct":true,"confidence":3},{"trial_n":40,"n_dots":4.15,"target":"left","response":"left","rt":973.80000019073,"correct":true,"confidence":3},{"trial_n":41,"n_dots":4.05,"target":"left","response":"left","rt":558.39999985695,"correct":true,"confidence":2},{"trial_n":42,"n_dots":4.05,"target":"left","response":"left","rt":432.40000009537,"correct":true,"confidence":2},{"trial_n":43,"n_dots":3.95,"target":"left","response":"left","rt":567.39999985695,"correct":true,"confidence":2},{"trial_n":44,"n_dots":3.95,"target":"left","response":"right","rt":732.80000019073,"correct":false,"confidence":1},{"trial_n":45,"n_dots":4.05,"target":"right","response":"right","rt":506.19999980927,"correct":true,"confidence":2},{"trial_n":46,"n_dots":4.05,"target":"right","response":"right","rt":436.5,"correct":true,"confidence":4},{"trial_n":47,"n_dots":3.95,"target":"left","response":"left","rt":672.40000009537,"correct":true,"confidence":3},{"trial_n":48,"n_dots":3.95,"target":"right","response":"right","rt":442.20000004768,"correct":true,"confidence":4},{"trial_n":49,"n_dots":3.85,"target":"left","response":"left","rt":1311.1000001431,"correct":true,"confidence":1},{"trial_n":50,"n_dots":3.85,"target":"right","response":"right","rt":604.90000009537,"correct":true,"confidence":3},{"trial_n":51,"n_dots":3.75,"target":"right","response":"right","rt":661.29999995232,"correct":true,"confidence":2},{"trial_n":52,"n_dots":3.75,"target":"right","response":"right","rt":639,"correct":true,"confidence":3},{"trial_n":53,"n_dots":3.65,"target":"right","response":"right","rt":1012.8000001907,"correct":true,"confidence":3},{"trial_n":54,"n_dots":3.65,"target":"right","response":"left","rt":779.30000019073,"correct":false,"confidence":2},{"trial_n":55,"n_dots":3.75,"target":"left","response":"left","rt":584.70000004768,"correct":true,"confidence":3},{"trial_n":56,"n_dots":3.75,"target":"right","response":"left","rt":614.70000004768,"correct":false,"confidence":2},{"trial_n":57,"n_dots":3.85,"target":"right","response":"right","rt":704.39999985695,"correct":true,"confidence":3},{"trial_n":58,"n_dots":3.85,"target":"left","response":"left","rt":691,"correct":true,"confidence":3},{"trial_n":59,"n_dots":3.75,"target":"left","response":"left","rt":661.09999990463,"correct":true,"confidence":3},{"trial_n":60,"n_dots":3.75,"target":"left","response":"left","rt":481.79999995232,"correct":true,"confidence":3},{"trial_n":61,"n_dots":3.65,"target":"right","response":"right","rt":467.70000004768,"correct":true,"confidence":3},{"trial_n":62,"n_dots":3.65,"target":"left","response":"left","rt":540.5,"correct":true,"confidence":4},{"trial_n":63,"n_dots":3.55,"target":"right","response":"right","rt":549.5,"correct":true,"confidence":5},{"trial_n":64,"n_dots":3.55,"target":"right","response":"right","rt":568.39999985695,"correct":true,"confidence":5},{"trial_n":65,"n_dots":3.45,"target":"right","response":"right","rt":860,"correct":true,"confidence":4},{"trial_n":66,"n_dots":3.45,"target":"right","response":"right","rt":611.40000009537,"correct":true,"confidence":3},{"trial_n":67,"n_dots":3.35,"target":"right","response":"right","rt":832.10000014305,"correct":true,"confidence":3},{"trial_n":68,"n_dots":3.35,"target":"right","response":"right","rt":702.79999995232,"correct":true,"confidence":3},{"trial_n":69,"n_dots":3.25,"target":"left","response":"left","rt":613.40000009537,"correct":true,"confidence":3},{"trial_n":70,"n_dots":3.25,"target":"right","response":"right","rt":521.29999995232,"correct":true,"confidence":2},{"trial_n":71,"n_dots":3.15,"target":"right","response":"right","rt":1231.0999999046,"correct":true,"confidence":2},{"trial_n":72,"n_dots":3.15,"target":"left","response":"left","rt":614,"correct":true,"confidence":2},{"trial_n":73,"n_dots":3.05,"target":"left","response":"left","rt":589.90000009537,"correct":true,"confidence":3},{"trial_n":74,"n_dots":3.05,"target":"right","response":"right","rt":509.39999985695,"correct":true,"confidence":2},{"trial_n":75,"n_dots":2.95,"target":"left","response":"left","rt":553.20000004768,"correct":true,"confidence":2},{"trial_n":76,"n_dots":2.95,"target":"right","response":"right","rt":411.40000009537,"correct":true,"confidence":3},{"trial_n":77,"n_dots":2.85,"target":"left","response":"right","rt":367.39999985695,"correct":false,"confidence":3},{"trial_n":78,"n_dots":2.95,"target":"right","response":"right","rt":479,"correct":true,"confidence":5},{"trial_n":79,"n_dots":2.95,"target":"right","response":"right","rt":450.79999995232,"correct":true,"confidence":4},{"trial_n":80,"n_dots":2.85,"target":"left","response":"left","rt":671.29999995232,"correct":true,"confidence":2},{"trial_n":81,"n_dots":2.85,"target":"left","response":"right","rt":424.5,"correct":false,"confidence":4},{"trial_n":82,"n_dots":2.95,"target":"left","response":"right","rt":736.5,"correct":false,"confidence":3},{"trial_n":83,"n_dots":3.05,"target":"left","response":"left","rt":356.30000019073,"correct":true,"confidence":2},{"trial_n":84,"n_dots":3.05,"target":"left","response":"right","rt":463.70000004768,"correct":false,"confidence":2},{"trial_n":85,"n_dots":3.15,"target":"right","response":"right","rt":421.5,"correct":true,"confidence":3},{"trial_n":86,"n_dots":3.15,"target":"right","response":"right","rt":551.29999995232,"correct":true,"confidence":3},{"trial_n":87,"n_dots":3.05,"target":"right","response":"right","rt":963,"correct":true,"confidence":2},{"trial_n":88,"n_dots":3.05,"target":"left","response":"right","rt":421.5,"correct":false,"confidence":3},{"trial_n":89,"n_dots":3.15,"target":"right","response":"right","rt":764.70000004768,"correct":true,"confidence":2},{"trial_n":90,"n_dots":3.15,"target":"right","response":"right","rt":567.29999995232,"correct":true,"confidence":2},{"trial_n":91,"n_dots":3.05,"target":"right","response":"left","rt":1904.7999999523,"correct":false,"confidence":1},{"trial_n":92,"n_dots":3.15,"target":"left","response":"left","rt":716.29999995232,"correct":true,"confidence":2},{"trial_n":93,"n_dots":3.15,"target":"right","response":"right","rt":678,"correct":true,"confidence":3},{"trial_n":94,"n_dots":3.05,"target":"left","response":"right","rt":784.40000009537,"correct":false,"confidence":3},{"trial_n":95,"n_dots":3.15,"target":"right","response":"right","rt":739.5,"correct":true,"confidence":3},{"trial_n":96,"n_dots":3.15,"target":"left","response":"right","rt":816.5,"correct":false,"confidence":2},{"trial_n":97,"n_dots":3.25,"target":"left","response":"left","rt":511.69999980927,"correct":true,"confidence":3},{"trial_n":98,"n_dots":3.25,"target":"right","response":"right","rt":567.79999995232,"correct":true,"confidence":2},{"trial_n":99,"n_dots":3.15,"target":"left","response":"left","rt":663,"correct":true,"confidence":2},{"trial_n":100,"n_dots":3.15,"target":"left","response":"left","rt":802.89999985695,"correct":true,"confidence":2},{"trial_n":101,"n_dots":3.05,"target":"right","response":"right","rt":419.90000009537,"correct":true,"confidence":4},{"trial_n":102,"n_dots":3.05,"target":"right","response":"right","rt":1121.1999998093,"correct":true,"confidence":3},{"trial_n":103,"n_dots":2.95,"target":"left","response":"right","rt":501.69999980927,"correct":false,"confidence":3},{"trial_n":104,"n_dots":3.05,"target":"right","response":"right","rt":518,"correct":true,"confidence":3},{"trial_n":105,"n_dots":3.05,"target":"left","response":"right","rt":624,"correct":false,"confidence":2},{"trial_n":106,"n_dots":3.15,"target":"right","response":"right","rt":375.79999995232,"correct":true,"confidence":2},{"trial_n":107,"n_dots":3.15,"target":"right","response":"right","rt":720.20000004768,"correct":true,"confidence":2},{"trial_n":108,"n_dots":3.05,"target":"right","response":"right","rt":543.80000019073,"correct":true,"confidence":4},{"trial_n":109,"n_dots":3.05,"target":"right","response":"right","rt":557.20000004768,"correct":true,"confidence":3},{"trial_n":110,"n_dots":2.95,"target":"right","response":"right","rt":795.79999995232,"correct":true,"confidence":3},{"trial_n":111,"n_dots":2.95,"target":"left","response":"right","rt":650.29999995232,"correct":false,"confidence":3},{"trial_n":112,"n_dots":3.05,"target":"right","response":"right","rt":716.39999985695,"correct":true,"confidence":4},{"trial_n":113,"n_dots":3.05,"target":"left","response":"left","rt":552.40000009537,"correct":true,"confidence":3},{"trial_n":114,"n_dots":2.95,"target":"left","response":"right","rt":520.79999995232,"correct":false,"confidence":3},{"trial_n":115,"n_dots":3.05,"target":"right","response":"right","rt":458.79999995232,"correct":true,"confidence":3},{"trial_n":116,"n_dots":3.05,"target":"left","response":"left","rt":498.39999985695,"correct":true,"confidence":2},{"trial_n":117,"n_dots":2.95,"target":"left","response":"right","rt":548.29999995232,"correct":false,"confidence":1},{"trial_n":118,"n_dots":3.05,"target":"right","response":"right","rt":862.59999990463,"correct":true,"confidence":2},{"trial_n":119,"n_dots":3.05,"target":"left","response":"right","rt":673.40000009537,"correct":false,"confidence":2},{"trial_n":120,"n_dots":3.15,"target":"left","response":"right","rt":435.30000019073,"correct":false,"confidence":2}]