[{"trial_n":1,"span":8,"encoder":"34066117","distractor":"39066117","target":"present","response":"absent","rt":"4443.1999998093","correct":false,"confidence":-1},{"trial_n":2,"span":6,"encoder":"619687","distractor":"519687","target":"present","response":"absent","rt":"2848.8000001907","correct":false,"confidence":-1},{"trial_n":3,"span":4,"encoder":"6508","distractor":"1508","target":"absent","response":"absent","rt":"1555.1000003815","correct":true,"confidence":-1},{"trial_n":4,"span":4,"encoder":"5781","distractor":"5581","target":"absent","response":"absent","rt":"1746.5","correct":true,"confidence":-1},{"trial_n":5,"span":6,"encoder":"797179","distractor":"796179","target":"present","response":"absent","rt":"4844.7000007629","correct":false,"confidence":-1},{"trial_n":6,"span":4,"encoder":"7227","distractor":"4227","target":"absent","response":"present","rt":"1662","correct":false,"confidence":-1},{"trial_n":7,"span":2,"encoder":"78","distractor":"73","target":"present","response":"present","rt":"1134.8999996185","correct":true,"confidence":-1},{"trial_n":8,"span":2,"encoder":"00","distractor":"60","target":"absent","response":"absent","rt":"1540.0999994278","correct":true,"confidence":-1},{"trial_n":9,"span":4,"encoder":"8854","distractor":"8852","target":"absent","response":"present","rt":"1602.1000003815","correct":false,"confidence":-1},{"trial_n":10,"span":2,"encoder":"03","distractor":"43","target":"absent","response":"absent","rt":"1338","correct":true,"confidence":-1},{"trial_n":11,"span":2,"encoder":"28","distractor":"24","target":"absent","response":"absent","rt":"1529.5999994278","correct":true,"confidence":-1},{"trial_n":12,"span":3,"encoder":"798","distractor":"795","target":"present","response":"present","rt":"1877.8000001907","correct":true,"confidence":-1},{"trial_n":13,"span":3,"encoder":"422","distractor":"452","target":"absent","response":"absent","rt":"1264.1000003815","correct":true,"confidence":-1},{"trial_n":14,"span":4,"encoder":"7067","distractor":"5067","target":"present","response":"present","rt":"1767.1999998093","correct":true,"confidence":-1},{"trial_n":15,"span":4,"encoder":"3950","distractor":"7950","target":"present","response":"present","rt":"1424","correct":true,"confidence":-1},{"trial_n":16,"span":5,"encoder":"38631","distractor":"38601","target":"absent","response":"present","rt":"2757.6000003815","correct":false,"confidence":-1},{"trial_n":17,"span":4,"encoder":"3979","distractor":"3959","target":"present","response":"present","rt":"845.80000019073","correct":true,"confidence":-1},{"trial_n":18,"span":4,"encoder":"3447","distractor":"3440","target":"absent","response":"absent","rt":"1128.7999992371","correct":true,"confidence":-1},{"trial_n":19,"span":5,"encoder":"78794","distractor":"78797","target":"present","response":"present","rt":"2574.3000001907","correct":true,"confidence":-1},{"trial_n":20,"span":5,"encoder":"42713","distractor":"42413","target":"present","response":"present","rt":"2257.2000007629","correct":true,"confidence":-1},{"trial_n":21,"span":6,"encoder":"423210","distractor":"403210","target":"present","response":"present","rt":"2239.6999998093","correct":true,"confidence":4},{"trial_n":22,"span":6,"encoder":"898238","distractor":"898230","target":"present","response":"present","rt":"3672.0999994278","correct":true,"confidence":3},{"trial_n":23,"span":7,"encoder":"9479451","distractor":"9479751","target":"absent","response":"present","rt":"3016.8000001907","correct":false,"confidence":2},{"trial_n":24,"span":6,"encoder":"110643","distractor":"110642","target":"absent","response":"absent","rt":"2741.5","correct":true,"confidence":3},{"trial_n":25,"span":6,"encoder":"383967","distractor":"386967","target":"present","response":"absent","rt":"1960.1999998093","correct":false,"confidence":2},{"trial_n":26,"span":5,"encoder":"00187","distractor":"00197","target":"absent","response":"absent","rt":"1552.8000001907","correct":true,"confidence":5},{"trial_n":27,"span":5,"encoder":"92127","distractor":"92121","target":"present","response":"present","rt":"1545.1000003815","correct":true,"confidence":4},{"trial_n":28,"span":6,"encoder":"324386","distractor":"324326","target":"absent","response":"absent","rt":"2383.1999998093","correct":true,"confidence":5},{"trial_n":29,"span":6,"encoder":"583455","distractor":"593455","target":"absent","response":"absent","rt":"1933.6999998093","correct":true,"confidence":5},{"trial_n":30,"span":7,"encoder":"3673784","distractor":"3673584","target":"present","response":"absent","rt":"3118.1999998093","correct":false,"confidence":3},{"trial_n":31,"span":6,"encoder":"403107","distractor":"003107","target":"present","response":"present","rt":"3009.5","correct":true,"confidence":4},{"trial_n":32,"span":6,"encoder":"676162","distractor":"276162","target":"present","response":"present","rt":"4433.5999994278","correct":true,"confidence":4},{"trial_n":33,"span":7,"encoder":"3795536","distractor":"3795596","target":"absent","response":"absent","rt":"4981.4000005722","correct":true,"confidence":3},{"trial_n":34,"span":7,"encoder":"6516767","distractor":"6516467","target":"present","response":"present","rt":"2336.5","correct":true,"confidence":2},{"trial_n":35,"span":8,"encoder":"65678192","distractor":"65878192","target":"present","response":"present","rt":"2316","correct":true,"confidence":3},{"trial_n":36,"span":8,"encoder":"28917062","distractor":"28917061","target":"present","response":"present","rt":"5756.8999996185","correct":true,"confidence":3},{"trial_n":37,"span":9,"encoder":"150513498","distractor":"150513490","target":"absent","response":"absent","rt":"2639.8999996185","correct":true,"confidence":5},{"trial_n":38,"span":9,"encoder":"496925238","distractor":"496725238","target":"absent","response":"absent","rt":"3670.8000001907","correct":true,"confidence":2},{"trial_n":39,"span":10,"encoder":"3534215015","distractor":"3734215015","target":"absent","response":"absent","rt":"2964.6999998093","correct":true,"confidence":3},{"trial_n":40,"span":10,"encoder":"7017758588","distractor":"7047758588","target":"absent","response":"present","rt":"2013.1000003815","correct":false,"confidence":3},{"trial_n":41,"span":9,"encoder":"378492459","distractor":"348492459","target":"absent","response":"absent","rt":"2398.8999996185","correct":true,"confidence":2},{"trial_n":42,"span":9,"encoder":"255861662","distractor":"255841662","target":"present","response":"present","rt":"2389","correct":true,"confidence":4},{"trial_n":43,"span":10,"encoder":"7923561911","distractor":"7933561911","target":"present","response":"present","rt":"1774.1000003815","correct":true,"confidence":2},{"trial_n":44,"span":10,"encoder":"8280664642","distractor":"8280664641","target":"absent","response":"present","rt":"3011.9000005722","correct":false,"confidence":3},{"trial_n":45,"span":9,"encoder":"294772869","distractor":"294774869","target":"absent","response":"present","rt":"2035.5","correct":false,"confidence":3},{"trial_n":46,"span":8,"encoder":"12440498","distractor":"12440598","target":"present","response":"present","rt":"4244.2000007629","correct":true,"confidence":5},{"trial_n":47,"span":8,"encoder":"57069896","distractor":"57068896","target":"absent","response":"absent","rt":"1779.1999998093","correct":true,"confidence":5},{"trial_n":48,"span":9,"encoder":"495948798","distractor":"495948791","target":"present","response":"present","rt":"2874.5","correct":true,"confidence":3},{"trial_n":49,"span":9,"encoder":"469548700","distractor":"469549700","target":"present","response":"present","rt":"4124.6999998093","correct":true,"confidence":4},{"trial_n":50,"span":10,"encoder":"7062002422","distractor":"7062004422","target":"present","response":"present","rt":"3330.3000001907","correct":true,"confidence":3},{"trial_n":51,"span":10,"encoder":"0486376063","distractor":"0486386063","target":"present","response":"present","rt":"2136.9000005722","correct":true,"confidence":2},{"trial_n":52,"span":11,"encoder":"73109743552","distractor":"73109747552","target":"present","response":"present","rt":"3952.2000007629","correct":true,"confidence":5},{"trial_n":53,"span":11,"encoder":"25198540747","distractor":"25193540747","target":"absent","response":"absent","rt":"2921.7000007629","correct":true,"confidence":5},{"trial_n":54,"span":12,"encoder":"430213373085","distractor":"430413373085","target":"absent","response":"absent","rt":"5085.2000007629","correct":true,"confidence":2},{"trial_n":55,"span":12,"encoder":"631313803711","distractor":"631913803711","target":"present","response":"present","rt":"8206.1000003815","correct":true,"confidence":2},{"trial_n":56,"span":13,"encoder":"1319883507933","distractor":"1319881507933","target":"absent","response":"present","rt":"2888.3000001907","correct":false,"confidence":2},{"trial_n":57,"span":12,"encoder":"553502881692","distractor":"653502881692","target":"absent","response":"absent","rt":"5239.8999996185","correct":true,"confidence":3},{"trial_n":58,"span":12,"encoder":"820591641760","distractor":"880591641760","target":"absent","response":"absent","rt":"2782.3000001907","correct":true,"confidence":5},{"trial_n":59,"span":13,"encoder":"9101838825575","distractor":"0101838825575","target":"present","response":"absent","rt":"4660.5999994278","correct":false,"confidence":4},{"trial_n":60,"span":12,"encoder":"864787262200","distractor":"864797262200","target":"absent","response":"absent","rt":"3080","correct":true,"confidence":3},{"trial_n":61,"span":12,"encoder":"070850402424","distractor":"070852402424","target":"present","response":"present","rt":"2691.3000001907","correct":true,"confidence":4},{"trial_n":62,"span":13,"encoder":"6235486269718","distractor":"6235586269718","target":"present","response":"absent","rt":"6281","correct":false,"confidence":2},{"trial_n":63,"span":12,"encoder":"399996680152","distractor":"399996680157","target":"present","response":"absent","rt":"5254.5","correct":false,"confidence":3},{"trial_n":64,"span":11,"encoder":"15453095370","distractor":"15463095370","target":"absent","response":"present","rt":"3545.6000003815","correct":false,"confidence":3},{"trial_n":65,"span":10,"encoder":"3973746264","distractor":"3973146264","target":"present","response":"present","rt":"4406.7000007629","correct":true,"confidence":3},{"trial_n":66,"span":10,"encoder":"2986513450","distractor":"2986503450","target":"absent","response":"present","rt":"4701.5999994278","correct":false,"confidence":2},{"trial_n":67,"span":9,"encoder":"448899371","distractor":"448899071","target":"present","response":"present","rt":"149721.79999924","correct":true,"confidence":4},{"trial_n":68,"span":9,"encoder":"285981513","distractor":"285881513","target":"absent","response":"present","rt":"3493.5","correct":false,"confidence":2},{"trial_n":69,"span":8,"encoder":"35658235","distractor":"35358235","target":"present","response":"present","rt":"2511.8000001907","correct":true,"confidence":3},{"trial_n":70,"span":8,"encoder":"51755365","distractor":"61755365","target":"absent","response":"present","rt":"147688.39999962","correct":false,"confidence":2},{"trial_n":71,"span":8,"encoder":"38231514","distractor":"38231516","target":"present","response":"present","rt":"7167.1999998093","correct":true,"confidence":-1},{"trial_n":72,"span":8,"encoder":"18094673","distractor":"18097673","target":"present","response":"present","rt":"4441.1000003815","correct":true,"confidence":-1},{"trial_n":73,"span":9,"encoder":"412717888","distractor":"412717898","target":"absent","response":"absent","rt":"4227.8000001907","correct":true,"confidence":-1},{"trial_n":74,"span":9,"encoder":"084618358","distractor":"084618368","target":"absent","response":"absent","rt":"3549.8999996185","correct":true,"confidence":-1},{"trial_n":75,"span":10,"encoder":"5922459116","distractor":"5922459176","target":"present","response":"present","rt":"2221.5","correct":true,"confidence":-1},{"trial_n":76,"span":10,"encoder":"6272510506","distractor":"6272510507","target":"absent","response":"absent","rt":"2342.8000001907","correct":true,"confidence":-1},{"trial_n":77,"span":11,"encoder":"24301369940","distractor":"24301069940","target":"present","response":"absent","rt":"5413.6999998093","correct":false,"confidence":-1},{"trial_n":78,"span":10,"encoder":"4266643147","distractor":"4266663147","target":"present","response":"present","rt":"4835.3000001907","correct":true,"confidence":-1},{"trial_n":79,"span":10,"encoder":"9554475164","distractor":"9654475164","target":"present","response":"present","rt":"2177","correct":true,"confidence":-1},{"trial_n":80,"span":11,"encoder":"84732705568","distractor":"84752705568","target":"absent","response":"present","rt":"5435.5","correct":false,"confidence":-1},{"trial_n":81,"span":10,"encoder":"0248985674","distractor":"0243985674","target":"absent","response":"present","rt":"3440.6999998093","correct":false,"confidence":-1},{"trial_n":82,"span":9,"encoder":"777582492","distractor":"777582472","target":"absent","response":"absent","rt":"4791.3000001907","correct":true,"confidence":-1},{"trial_n":83,"span":9,"encoder":"246022767","distractor":"246022267","target":"present","response":"present","rt":"2737.5","correct":true,"confidence":-1},{"trial_n":84,"span":10,"encoder":"5288863092","distractor":"5288063092","target":"absent","response":"present","rt":"4791.8000001907","correct":false,"confidence":-1},{"trial_n":85,"span":9,"encoder":"287512510","distractor":"227512510","target":"present","response":"absent","rt":"4421.3000001907","correct":false,"confidence":-1},{"trial_n":86,"span":8,"encoder":"55497153","distractor":"51497153","target":"present","response":"present","rt":"2335.1999998093","correct":true,"confidence":-1},{"trial_n":87,"span":8,"encoder":"48857666","distractor":"48557666","target":"absent","response":"absent","rt":"2468.9000005722","correct":true,"confidence":-1},{"trial_n":88,"span":9,"encoder":"269148273","distractor":"269168273","target":"present","response":"absent","rt":"7004.3999996185","correct":false,"confidence":-1},{"trial_n":89,"span":8,"encoder":"88092399","distractor":"88082399","target":"present","response":"present","rt":"7315","correct":true,"confidence":-1},{"trial_n":90,"span":8,"encoder":"09820902","distractor":"08820902","target":"absent","response":"absent","rt":"3802.8000001907","correct":true,"confidence":-1},{"trial_n":91,"span":9,"encoder":"552351155","distractor":"552371155","target":"present","response":"present","rt":"5084.1999998093","correct":true,"confidence":3},{"trial_n":92,"span":9,"encoder":"454679632","distractor":"404679632","target":"present","response":"present","rt":"7359.1000003815","correct":true,"confidence":2},{"trial_n":93,"span":10,"encoder":"6598633956","distractor":"6595633956","target":"absent","response":"present","rt":"8592.5","correct":false,"confidence":2},{"trial_n":94,"span":9,"encoder":"384712444","distractor":"384712454","target":"absent","response":"absent","rt":"7133.1999998093","correct":true,"confidence":3},{"trial_n":95,"span":9,"encoder":"844596189","distractor":"844598189","target":"absent","response":"absent","rt":"5975.3000001907","correct":true,"confidence":5},{"trial_n":96,"span":10,"encoder":"2694398005","distractor":"2694399005","target":"present","response":"present","rt":"6022.2000007629","correct":true,"confidence":1},{"trial_n":97,"span":10,"encoder":"1209103638","distractor":"1206103638","target":"present","response":"absent","rt":"5429.1000003815","correct":false,"confidence":2},{"trial_n":98,"span":9,"encoder":"725178320","distractor":"725178330","target":"absent","response":"present","rt":"3445.4000005722","correct":false,"confidence":4},{"trial_n":99,"span":8,"encoder":"66650891","distractor":"66650811","target":"present","response":"present","rt":"5310","correct":true,"confidence":5},{"trial_n":100,"span":8,"encoder":"77475732","distractor":"77475782","target":"present","response":"present","rt":"4129","correct":true,"confidence":5},{"trial_n":101,"span":9,"encoder":"349331411","distractor":"349331413","target":"present","response":"present","rt":"1883","correct":true,"confidence":4},{"trial_n":102,"span":9,"encoder":"616231718","distractor":"616237718","target":"present","response":"present","rt":"5187.3999996185","correct":true,"confidence":5},{"trial_n":103,"span":10,"encoder":"5107889271","distractor":"5107989271","target":"absent","response":"absent","rt":"2611.6999998093","correct":true,"confidence":5},{"trial_n":104,"span":10,"encoder":"7848316696","distractor":"7845316696","target":"absent","response":"present","rt":"5372.8000001907","correct":false,"confidence":1},{"trial_n":105,"span":9,"encoder":"915732757","distractor":"915792757","target":"absent","response":"absent","rt":"3590.5999994278","correct":true,"confidence":5},{"trial_n":106,"span":9,"encoder":"572264065","distractor":"570264065","target":"present","response":"present","rt":"3646.8000001907","correct":true,"confidence":4},{"trial_n":107,"span":10,"encoder":"8358519532","distractor":"8398519532","target":"present","response":"present","rt":"5783.5999994278","correct":true,"confidence":1},{"trial_n":108,"span":10,"encoder":"7523706520","distractor":"7523706510","target":"absent","response":"absent","rt":"5485.3999996185","correct":true,"confidence":2},{"trial_n":109,"span":11,"encoder":"18065521645","distractor":"18065501645","target":"present","response":"absent","rt":"6326.8000001907","correct":false,"confidence":2},{"trial_n":110,"span":10,"encoder":"4570861656","distractor":"4510861656","target":"absent","response":"present","rt":"6148.8999996185","correct":false,"confidence":1},{"trial_n":111,"span":9,"encoder":"727165685","distractor":"727165681","target":"present","response":"present","rt":"2565.9000005722","correct":true,"confidence":5},{"trial_n":112,"span":9,"encoder":"495900734","distractor":"415900734","target":"absent","response":"absent","rt":"3176.6999998093","correct":true,"confidence":5},{"trial_n":113,"span":10,"encoder":"3072871756","distractor":"3002871756","target":"absent","response":"absent","rt":"5407.6999998093","correct":true,"confidence":3},{"trial_n":114,"span":10,"encoder":"3145026992","distractor":"3145026962","target":"absent","response":"absent","rt":"2058.2000007629","correct":true,"confidence":5},{"trial_n":115,"span":11,"encoder":"44321312605","distractor":"44321512605","target":"present","response":"present","rt":"4259.6000003815","correct":true,"confidence":5},{"trial_n":116,"span":11,"encoder":"00904659443","distractor":"00904559443","target":"present","response":"present","rt":"5357.5999994278","correct":true,"confidence":5},{"trial_n":117,"span":12,"encoder":"033018576706","distractor":"033018586706","target":"present","response":"present","rt":"5700.3000001907","correct":true,"confidence":1},{"trial_n":118,"span":12,"encoder":"826496166604","distractor":"126496166604","target":"present","response":"present","rt":"7310.6999998093","correct":true,"confidence":5},{"trial_n":119,"span":13,"encoder":"3509205141964","distractor":"3509205148964","target":"present","response":"present","rt":"3629.0999994278","correct":true,"confidence":5},{"trial_n":120,"span":13,"encoder":"2153298193520","distractor":"2153298153520","target":"absent","response":"absent","rt":"2382.1000003815","correct":true,"confidence":5},{"trial_n":121,"span":14,"encoder":"00053093916248","distractor":"02053093916248","target":"absent","response":"present","rt":"6032.6999998093","correct":false,"confidence":1},{"trial_n":122,"span":13,"encoder":"5746995931343","distractor":"5746995932343","target":"present","response":"present","rt":"5397.7000007629","correct":true,"confidence":3},{"trial_n":123,"span":13,"encoder":"2462003233203","distractor":"2462003273203","target":"absent","response":"present","rt":"3338.9000005722","correct":false,"confidence":3},{"trial_n":124,"span":12,"encoder":"674330903557","distractor":"674330953557","target":"present","response":"present","rt":"3055","correct":true,"confidence":4},{"trial_n":125,"span":12,"encoder":"144622890353","distractor":"144622390353","target":"absent","response":"absent","rt":"5201.1999998093","correct":true,"confidence":2},{"trial_n":126,"span":13,"encoder":"8894566427422","distractor":"8894516427422","target":"absent","response":"absent","rt":"7363.8999996185","correct":true,"confidence":1},{"trial_n":127,"span":13,"encoder":"0836172023744","distractor":"0836172023444","target":"present","response":"absent","rt":"8442.8999996185","correct":false,"confidence":2},{"trial_n":128,"span":12,"encoder":"738307237669","distractor":"738307237269","target":"present","response":"present","rt":"8797.1000003815","correct":true,"confidence":1},{"trial_n":129,"span":12,"encoder":"105426653324","distractor":"100426653324","target":"absent","response":"present","rt":"6777.8000001907","correct":false,"confidence":2},{"trial_n":130,"span":11,"encoder":"60635437599","distractor":"80635437599","target":"present","response":"absent","rt":"7347.3999996185","correct":false,"confidence":1},{"trial_n":131,"span":10,"encoder":"3922430287","distractor":"3922630287","target":"absent","response":"absent","rt":"7426.2000007629","correct":true,"confidence":1},{"trial_n":132,"span":10,"encoder":"4871722709","distractor":"4811722709","target":"absent","response":"absent","rt":"4213.5","correct":true,"confidence":1},{"trial_n":133,"span":11,"encoder":"37673570190","distractor":"37663570190","target":"absent","response":"absent","rt":"3401.1999998093","correct":true,"confidence":3},{"trial_n":134,"span":11,"encoder":"15503662495","distractor":"17503662495","target":"absent","response":"absent","rt":"8925.0999994278","correct":true,"confidence":2},{"trial_n":135,"span":12,"encoder":"149853854872","distractor":"149803854872","target":"absent","response":"present","rt":"3842.5","correct":false,"confidence":1},{"trial_n":136,"span":11,"encoder":"41921505448","distractor":"41921505447","target":"present","response":"present","rt":"5983.3999996185","correct":true,"confidence":3},{"trial_n":137,"span":11,"encoder":"99710911853","distractor":"99810911853","target":"present","response":"absent","rt":"3877.5","correct":false,"confidence":1},{"trial_n":138,"span":10,"encoder":"0776321449","distractor":"0576321449","target":"absent","response":"present","rt":"3502.1999998093","correct":false,"confidence":1},{"trial_n":139,"span":9,"encoder":"481204152","distractor":"481804152","target":"absent","response":"absent","rt":"5347.8999996185","correct":true,"confidence":2},{"trial_n":140,"span":9,"encoder":"057392415","distractor":"067392415","target":"present","response":"present","rt":"7193.5","correct":true,"confidence":2}]