[{"trial_n":1,"n_dots":4.25,"target":"right","response":"right","rt":4304.7999992371,"correct":true,"confidence":-1},{"trial_n":2,"n_dots":4.25,"target":"left","response":"left","rt":1496.1999998093,"correct":true,"confidence":-1},{"trial_n":3,"n_dots":3.85,"target":"right","response":"right","rt":725.79999923706,"correct":true,"confidence":-1},{"trial_n":4,"n_dots":3.85,"target":"left","response":"left","rt":607.0999994278,"correct":true,"confidence":-1},{"trial_n":5,"n_dots":3.45,"target":"left","response":"right","rt":869.0999994278,"correct":false,"confidence":-1},{"trial_n":6,"n_dots":3.85,"target":"right","response":"right","rt":320.30000019073,"correct":true,"confidence":-1},{"trial_n":7,"n_dots":3.85,"target":"left","response":"right","rt":239.10000038147,"correct":false,"confidence":-1},{"trial_n":8,"n_dots":4.05,"target":"right","response":"left","rt":479.4000005722,"correct":false,"confidence":-1},{"trial_n":9,"n_dots":4.25,"target":"right","response":"right","rt":5.3999996185303,"correct":true,"confidence":-1},{"trial_n":10,"n_dots":4.25,"target":"left","response":"left","rt":551.9000005722,"correct":true,"confidence":-1},{"trial_n":11,"n_dots":4.05,"target":"right","response":"right","rt":27.199999809265,"correct":true,"confidence":-1},{"trial_n":12,"n_dots":4.05,"target":"left","response":"right","rt":790.20000076294,"correct":false,"confidence":-1},{"trial_n":13,"n_dots":4.15,"target":"right","response":"right","rt":288.5,"correct":true,"confidence":-1},{"trial_n":14,"n_dots":4.15,"target":"right","response":"right","rt":219.39999961853,"correct":true,"confidence":-1},{"trial_n":15,"n_dots":4.05,"target":"left","response":"right","rt":32,"correct":false,"confidence":-1},{"trial_n":16,"n_dots":4.15,"target":"right","response":"right","rt":54.599999427795,"correct":true,"confidence":-1},{"trial_n":17,"n_dots":4.15,"target":"right","response":"right","rt":685.0999994278,"correct":true,"confidence":-1},{"trial_n":18,"n_dots":4.05,"target":"left","response":"left","rt":313.30000019073,"correct":true,"confidence":-1},{"trial_n":19,"n_dots":4.05,"target":"left","response":"right","rt":387.9000005722,"correct":false,"confidence":-1},{"trial_n":20,"n_dots":4.15,"target":"right","response":"right","rt":200.5,"correct":true,"confidence":-1},{"trial_n":21,"n_dots":4.15,"target":"left","response":"right","rt":486.0999994278,"correct":false,"confidence":4},{"trial_n":22,"n_dots":4.25,"target":"right","response":"right","rt":940,"correct":true,"confidence":4},{"trial_n":23,"n_dots":4.25,"target":"left","response":"left","rt":904.69999980927,"correct":true,"confidence":3},{"trial_n":24,"n_dots":4.15,"target":"left","response":"left","rt":1012.8000001907,"correct":true,"confidence":3},{"trial_n":25,"n_dots":4.15,"target":"right","response":"right","rt":1307.1000003815,"correct":true,"confidence":4},{"trial_n":26,"n_dots":4.05,"target":"right","response":"left","rt":858.5999994278,"correct":false,"confidence":3},{"trial_n":27,"n_dots":4.15,"target":"right","response":"right","rt":714.30000019073,"correct":true,"confidence":2},{"trial_n":28,"n_dots":4.15,"target":"left","response":"left","rt":866.69999980927,"correct":true,"confidence":3},{"trial_n":29,"n_dots":4.05,"target":"left","response":"left","rt":821.39999961853,"correct":true,"confidence":5},{"trial_n":30,"n_dots":4.05,"target":"right","response":"right","rt":1553.1999998093,"correct":true,"confidence":4},{"trial_n":31,"n_dots":3.95,"target":"left","response":"left","rt":1057.9000005722,"correct":true,"confidence":5},{"trial_n":32,"n_dots":3.95,"target":"right","response":"right","rt":1220.8000001907,"correct":true,"confidence":3},{"trial_n":33,"n_dots":3.85,"target":"left","response":"left","rt":893.29999923706,"correct":true,"confidence":3},{"trial_n":34,"n_dots":3.85,"target":"left","response":"right","rt":822.4000005722,"correct":false,"confidence":3},{"trial_n":35,"n_dots":3.95,"target":"left","response":"left","rt":801,"correct":true,"confidence":4},{"trial_n":36,"n_dots":3.95,"target":"right","response":"right","rt":664.30000019073,"correct":true,"confidence":4},{"trial_n":37,"n_dots":3.85,"target":"right","response":"right","rt":742.5999994278,"correct":true,"confidence":2},{"trial_n":38,"n_dots":3.85,"target":"right","response":"right","rt":719.30000019073,"correct":true,"confidence":2},{"trial_n":39,"n_dots":3.75,"target":"left","response":"right","rt":605.30000019073,"correct":false,"confidence":2},{"trial_n":40,"n_dots":3.85,"target":"right","response":"right","rt":1111.5,"correct":true,"confidence":3},{"trial_n":41,"n_dots":3.85,"target":"left","response":"left","rt":653.80000019073,"correct":true,"confidence":2},{"trial_n":42,"n_dots":3.75,"target":"right","response":"right","rt":491.30000019073,"correct":true,"confidence":3},{"trial_n":43,"n_dots":3.75,"target":"left","response":"right","rt":416.80000019073,"correct":false,"confidence":3},{"trial_n":44,"n_dots":3.85,"target":"right","response":"right","rt":451.60000038147,"correct":true,"confidence":3},{"trial_n":45,"n_dots":3.85,"target":"left","response":"left","rt":538.89999961853,"correct":true,"confidence":4},{"trial_n":46,"n_dots":3.75,"target":"right","response":"right","rt":404.60000038147,"correct":true,"confidence":4},{"trial_n":47,"n_dots":3.75,"target":"left","response":"left","rt":343.80000019073,"correct":true,"confidence":4},{"trial_n":48,"n_dots":3.65,"target":"right","response":"right","rt":310.60000038147,"correct":true,"confidence":4},{"trial_n":49,"n_dots":3.65,"target":"left","response":"left","rt":587.9000005722,"correct":true,"confidence":3},{"trial_n":50,"n_dots":3.55,"target":"right","response":"right","rt":1432,"correct":true,"confidence":3},{"trial_n":51,"n_dots":3.55,"target":"left","response":"right","rt":1254.0999994278,"correct":false,"confidence":3},{"trial_n":52,"n_dots":3.65,"target":"right","response":"right","rt":1452.5,"correct":true,"confidence":2},{"trial_n":53,"n_dots":3.65,"target":"right","response":"left","rt":1444.3000001907,"correct":false,"confidence":2},{"trial_n":54,"n_dots":3.75,"target":"left","response":"right","rt":1302.7000007629,"correct":false,"confidence":2},{"trial_n":55,"n_dots":3.85,"target":"left","response":"right","rt":2289.8999996185,"correct":false,"confidence":1},{"trial_n":56,"n_dots":3.95,"target":"right","response":"right","rt":888.19999980927,"correct":true,"confidence":3},{"trial_n":57,"n_dots":3.95,"target":"right","response":"right","rt":881.69999980927,"correct":true,"confidence":3},{"trial_n":58,"n_dots":3.85,"target":"right","response":"right","rt":871.39999961853,"correct":true,"confidence":4},{"trial_n":59,"n_dots":3.85,"target":"right","response":"left","rt":1865.8000001907,"correct":false,"confidence":2},{"trial_n":60,"n_dots":3.95,"target":"left","response":"left","rt":1603.8000001907,"correct":true,"confidence":1},{"trial_n":61,"n_dots":3.95,"target":"left","response":"left","rt":1001.5999994278,"correct":true,"confidence":4},{"trial_n":62,"n_dots":3.85,"target":"left","response":"left","rt":772.69999980927,"correct":true,"confidence":4},{"trial_n":63,"n_dots":3.85,"target":"left","response":"left","rt":955,"correct":true,"confidence":5},{"trial_n":64,"n_dots":3.75,"target":"right","response":"right","rt":2147,"correct":true,"confidence":2},{"trial_n":65,"n_dots":3.75,"target":"left","response":"left","rt":786.80000019073,"correct":true,"confidence":4},{"trial_n":66,"n_dots":3.65,"target":"left","response":"left","rt":940.5,"correct":true,"confidence":4},{"trial_n":67,"n_dots":3.65,"target":"left","response":"left","rt":1180.7000007629,"correct":true,"confidence":4},{"trial_n":68,"n_dots":3.55,"target":"right","response":"right","rt":1006.9000005722,"correct":true,"confidence":2},{"trial_n":69,"n_dots":3.55,"target":"left","response":"left","rt":573.69999980927,"correct":true,"confidence":4},{"trial_n":70,"n_dots":3.45,"target":"left","response":"left","rt":1389.6999998093,"correct":true,"confidence":4},{"trial_n":71,"n_dots":3.45,"target":"left","response":"left","rt":923.70000076294,"correct":true,"confidence":4},{"trial_n":72,"n_dots":3.35,"target":"left","response":"left","rt":674.9000005722,"correct":true,"confidence":4},{"trial_n":73,"n_dots":3.35,"target":"left","response":"left","rt":882.5,"correct":true,"confidence":3},{"trial_n":74,"n_dots":3.25,"target":"left","response":"left","rt":857.80000019073,"correct":true,"confidence":3},{"trial_n":75,"n_dots":3.25,"target":"left","response":"right","rt":1461.6999998093,"correct":false,"confidence":4},{"trial_n":76,"n_dots":3.35,"target":"right","response":"left","rt":1400.6000003815,"correct":false,"confidence":4},{"trial_n":77,"n_dots":3.45,"target":"right","response":"right","rt":1338.7000007629,"correct":true,"confidence":4},{"trial_n":78,"n_dots":3.45,"target":"left","response":"left","rt":2760.8999996185,"correct":true,"confidence":1},{"trial_n":79,"n_dots":3.35,"target":"left","response":"right","rt":1511.4000005722,"correct":false,"confidence":3},{"trial_n":80,"n_dots":3.45,"target":"right","response":"right","rt":690.4000005722,"correct":true,"confidence":3},{"trial_n":81,"n_dots":3.45,"target":"left","response":"left","rt":1877.3999996185,"correct":true,"confidence":2},{"trial_n":82,"n_dots":3.35,"target":"left","response":"left","rt":1137.3000001907,"correct":true,"confidence":2},{"trial_n":83,"n_dots":3.35,"target":"right","response":"left","rt":1339.6999998093,"correct":false,"confidence":2},{"trial_n":84,"n_dots":3.45,"target":"left","response":"left","rt":786.30000019073,"correct":true,"confidence":2},{"trial_n":85,"n_dots":3.45,"target":"right","response":"right","rt":1168.1999998093,"correct":true,"confidence":3},{"trial_n":86,"n_dots":3.35,"target":"left","response":"right","rt":928,"correct":false,"confidence":2},{"trial_n":87,"n_dots":3.45,"target":"left","response":"left","rt":737.19999980927,"correct":true,"confidence":3},{"trial_n":88,"n_dots":3.45,"target":"left","response":"left","rt":1242.3000001907,"correct":true,"confidence":3},{"trial_n":89,"n_dots":3.35,"target":"right","response":"left","rt":728.19999980927,"correct":false,"confidence":3},{"trial_n":90,"n_dots":3.45,"target":"left","response":"left","rt":678.39999961853,"correct":true,"confidence":3},{"trial_n":91,"n_dots":3.45,"target":"left","response":"left","rt":375,"correct":true,"confidence":3},{"trial_n":92,"n_dots":3.35,"target":"left","response":"left","rt":519.10000038147,"correct":true,"confidence":2},{"trial_n":93,"n_dots":3.35,"target":"right","response":"right","rt":813.60000038147,"correct":true,"confidence":2},{"trial_n":94,"n_dots":3.25,"target":"right","response":"left","rt":1250.5,"correct":false,"confidence":3},{"trial_n":95,"n_dots":3.35,"target":"right","response":"right","rt":1362.6999998093,"correct":true,"confidence":2},{"trial_n":96,"n_dots":3.35,"target":"left","response":"left","rt":771.30000019073,"correct":true,"confidence":3},{"trial_n":97,"n_dots":3.25,"target":"left","response":"left","rt":1316.1000003815,"correct":true,"confidence":3},{"trial_n":98,"n_dots":3.25,"target":"right","response":"left","rt":479.20000076294,"correct":false,"confidence":2},{"trial_n":99,"n_dots":3.35,"target":"right","response":"right","rt":603.5999994278,"correct":true,"confidence":3},{"trial_n":100,"n_dots":3.35,"target":"left","response":"left","rt":281.0999994278,"correct":true,"confidence":4},{"trial_n":101,"n_dots":3.25,"target":"right","response":"left","rt":784.89999961853,"correct":false,"confidence":3},{"trial_n":102,"n_dots":3.35,"target":"left","response":"right","rt":601.4000005722,"correct":false,"confidence":3},{"trial_n":103,"n_dots":3.45,"target":"right","response":"right","rt":528.30000019073,"correct":true,"confidence":2},{"trial_n":104,"n_dots":3.45,"target":"right","response":"right","rt":222.5999994278,"correct":true,"confidence":2},{"trial_n":105,"n_dots":3.35,"target":"left","response":"left","rt":1002.5,"correct":true,"confidence":1},{"trial_n":106,"n_dots":3.35,"target":"right","response":"right","rt":621.89999961853,"correct":true,"confidence":2},{"trial_n":107,"n_dots":3.25,"target":"right","response":"right","rt":720.20000076294,"correct":true,"confidence":1},{"trial_n":108,"n_dots":3.25,"target":"right","response":"right","rt":1351.1000003815,"correct":true,"confidence":1},{"trial_n":109,"n_dots":3.15,"target":"right","response":"right","rt":904.60000038147,"correct":true,"confidence":1},{"trial_n":110,"n_dots":3.15,"target":"right","response":"right","rt":495.39999961853,"correct":true,"confidence":2},{"trial_n":111,"n_dots":3.05,"target":"left","response":"right","rt":626.39999961853,"correct":false,"confidence":2},{"trial_n":112,"n_dots":3.15,"target":"right","response":"left","rt":1100,"correct":false,"confidence":2},{"trial_n":113,"n_dots":3.25,"target":"left","response":"left","rt":1012.5,"correct":true,"confidence":3},{"trial_n":114,"n_dots":3.25,"target":"right","response":"right","rt":546.19999980927,"correct":true,"confidence":3},{"trial_n":115,"n_dots":3.15,"target":"right","response":"right","rt":568.20000076294,"correct":true,"confidence":3},{"trial_n":116,"n_dots":3.15,"target":"right","response":"right","rt":626,"correct":true,"confidence":3},{"trial_n":117,"n_dots":3.05,"target":"right","response":"right","rt":1669.5,"correct":true,"confidence":3},{"trial_n":118,"n_dots":3.05,"target":"right","response":"right","rt":1097.3999996185,"correct":true,"confidence":2},{"trial_n":119,"n_dots":2.95,"target":"right","response":"right","rt":605.0999994278,"correct":true,"confidence":2},{"trial_n":120,"n_dots":2.95,"target":"left","response":"left","rt":758,"correct":true,"confidence":1}]