[{"trial_n":1,"span":8,"encoder":"09866887","distractor":"09166887","target":"present","response":"present","rt":"4278.6000001431","correct":true,"confidence":-1},{"trial_n":2,"span":8,"encoder":"19489680","distractor":"19489681","target":"present","response":"absent","rt":"5510.7000000477","correct":false,"confidence":-1},{"trial_n":3,"span":6,"encoder":"493274","distractor":"793274","target":"absent","response":"present","rt":"2300.9000000954","correct":false,"confidence":-1},{"trial_n":4,"span":4,"encoder":"1378","distractor":"1318","target":"absent","response":"absent","rt":"2425.5","correct":true,"confidence":-1},{"trial_n":5,"span":4,"encoder":"7835","distractor":"7855","target":"present","response":"present","rt":"1854.3999998569","correct":true,"confidence":-1},{"trial_n":6,"span":6,"encoder":"331484","distractor":"331984","target":"absent","response":"absent","rt":"2828","correct":true,"confidence":-1},{"trial_n":7,"span":6,"encoder":"995297","distractor":"991297","target":"present","response":"present","rt":"2827.2000000477","correct":true,"confidence":-1},{"trial_n":8,"span":8,"encoder":"61124178","distractor":"61124278","target":"absent","response":"absent","rt":"2980.8000001907","correct":true,"confidence":-1},{"trial_n":9,"span":8,"encoder":"49561496","distractor":"49566496","target":"present","response":"present","rt":"3357.7999999523","correct":true,"confidence":-1},{"trial_n":10,"span":10,"encoder":"1918767359","distractor":"1918767369","target":"absent","response":"absent","rt":"3800.9000000954","correct":true,"confidence":-1},{"trial_n":11,"span":10,"encoder":"7560848850","distractor":"7560838850","target":"absent","response":"present","rt":"9022.5999999046","correct":false,"confidence":-1},{"trial_n":12,"span":9,"encoder":"534242363","distractor":"574242363","target":"absent","response":"present","rt":"4395.2000000477","correct":false,"confidence":-1},{"trial_n":13,"span":8,"encoder":"35220368","distractor":"35240368","target":"absent","response":"present","rt":"3636.5","correct":false,"confidence":-1},{"trial_n":14,"span":7,"encoder":"6475916","distractor":"6475917","target":"present","response":"absent","rt":"3542.8999998569","correct":false,"confidence":-1},{"trial_n":15,"span":6,"encoder":"160776","distractor":"162776","target":"present","response":"present","rt":"3349.2000000477","correct":true,"confidence":-1},{"trial_n":16,"span":6,"encoder":"394079","distractor":"384079","target":"absent","response":"absent","rt":"1943.6000001431","correct":true,"confidence":-1},{"trial_n":17,"span":7,"encoder":"7900437","distractor":"7900433","target":"present","response":"present","rt":"2702.9000000954","correct":true,"confidence":-1},{"trial_n":18,"span":7,"encoder":"2274406","distractor":"2279406","target":"absent","response":"absent","rt":"4072.0999999046","correct":true,"confidence":-1},{"trial_n":19,"span":8,"encoder":"69353312","distractor":"69373312","target":"present","response":"present","rt":"2593.7999999523","correct":true,"confidence":-1},{"trial_n":20,"span":8,"encoder":"85221097","distractor":"86221097","target":"present","response":"absent","rt":"4034.8999998569","correct":false,"confidence":-1},{"trial_n":21,"span":7,"encoder":"7663482","distractor":"7663492","target":"absent","response":"absent","rt":"3451.9000000954","correct":true,"confidence":5},{"trial_n":22,"span":7,"encoder":"8904495","distractor":"8904425","target":"absent","response":"absent","rt":"3715.2999999523","correct":true,"confidence":4},{"trial_n":23,"span":8,"encoder":"03875659","distractor":"13875659","target":"present","response":"present","rt":"4272.5999999046","correct":true,"confidence":3},{"trial_n":24,"span":8,"encoder":"01419233","distractor":"01419213","target":"present","response":"present","rt":"3408","correct":true,"confidence":4},{"trial_n":25,"span":9,"encoder":"008332274","distractor":"008632274","target":"absent","response":"absent","rt":"2579.3000001907","correct":true,"confidence":3},{"trial_n":26,"span":9,"encoder":"308040518","distractor":"308640518","target":"present","response":"present","rt":"6617.7999999523","correct":true,"confidence":2},{"trial_n":27,"span":10,"encoder":"1849109973","distractor":"1849709973","target":"present","response":"present","rt":"3729","correct":true,"confidence":3},{"trial_n":28,"span":10,"encoder":"5854968838","distractor":"5854968138","target":"present","response":"absent","rt":"5835.1000001431","correct":false,"confidence":2},{"trial_n":29,"span":9,"encoder":"911230959","distractor":"911230955","target":"present","response":"present","rt":"8784.7000000477","correct":true,"confidence":2},{"trial_n":30,"span":9,"encoder":"991052385","distractor":"991052335","target":"absent","response":"absent","rt":"3811.5","correct":true,"confidence":4},{"trial_n":31,"span":10,"encoder":"8704778623","distractor":"8706778623","target":"absent","response":"absent","rt":"3876.4000000954","correct":true,"confidence":4},{"trial_n":32,"span":10,"encoder":"1261032907","distractor":"8261032907","target":"present","response":"absent","rt":"6742.5999999046","correct":false,"confidence":2},{"trial_n":33,"span":9,"encoder":"146385705","distractor":"146380705","target":"absent","response":"present","rt":"3623.5","correct":false,"confidence":3},{"trial_n":34,"span":8,"encoder":"32257685","distractor":"32257683","target":"present","response":"present","rt":"2972.3000001907","correct":true,"confidence":5},{"trial_n":35,"span":8,"encoder":"34282677","distractor":"34280677","target":"absent","response":"present","rt":"3186.5999999046","correct":false,"confidence":5},{"trial_n":36,"span":7,"encoder":"3894016","distractor":"3694016","target":"present","response":"present","rt":"3127.2000000477","correct":true,"confidence":4},{"trial_n":37,"span":7,"encoder":"6896898","distractor":"6896998","target":"present","response":"present","rt":"2841.8999998569","correct":true,"confidence":5},{"trial_n":38,"span":8,"encoder":"23789509","distractor":"23785509","target":"absent","response":"absent","rt":"3910","correct":true,"confidence":4},{"trial_n":39,"span":8,"encoder":"20525192","distractor":"20527192","target":"absent","response":"absent","rt":"7054.5","correct":true,"confidence":5},{"trial_n":40,"span":9,"encoder":"321952542","distractor":"321912542","target":"absent","response":"absent","rt":"3905.2999999523","correct":true,"confidence":3},{"trial_n":41,"span":9,"encoder":"836733503","distractor":"836833503","target":"present","response":"present","rt":"3541.7000000477","correct":true,"confidence":4},{"trial_n":42,"span":10,"encoder":"5136592415","distractor":"5166592415","target":"present","response":"absent","rt":"3016.7999999523","correct":false,"confidence":4},{"trial_n":43,"span":9,"encoder":"707671754","distractor":"706671754","target":"present","response":"present","rt":"4532.6000001431","correct":true,"confidence":3},{"trial_n":44,"span":9,"encoder":"496302730","distractor":"496302750","target":"present","response":"absent","rt":"4304.3999998569","correct":false,"confidence":3},{"trial_n":45,"span":8,"encoder":"74676281","distractor":"74676280","target":"present","response":"present","rt":"2727","correct":true,"confidence":5},{"trial_n":46,"span":8,"encoder":"98758823","distractor":"98758829","target":"absent","response":"absent","rt":"3424.8999998569","correct":true,"confidence":5},{"trial_n":47,"span":9,"encoder":"469478401","distractor":"419478401","target":"present","response":"present","rt":"2981.7999999523","correct":true,"confidence":4},{"trial_n":48,"span":9,"encoder":"929644650","distractor":"929646650","target":"absent","response":"present","rt":"4302.7999999523","correct":false,"confidence":1},{"trial_n":49,"span":8,"encoder":"59865496","distractor":"39865496","target":"present","response":"present","rt":"3116.7000000477","correct":true,"confidence":5},{"trial_n":50,"span":8,"encoder":"90865185","distractor":"98865185","target":"present","response":"present","rt":"3337.0999999046","correct":true,"confidence":5},{"trial_n":51,"span":9,"encoder":"263582317","distractor":"263582717","target":"present","response":"present","rt":"3732.2999999523","correct":true,"confidence":4},{"trial_n":52,"span":9,"encoder":"357771639","distractor":"387771639","target":"absent","response":"present","rt":"5346.1000001431","correct":false,"confidence":2},{"trial_n":53,"span":8,"encoder":"51655113","distractor":"51657113","target":"present","response":"present","rt":"2996.5","correct":true,"confidence":5},{"trial_n":54,"span":8,"encoder":"66316812","distractor":"66356812","target":"absent","response":"present","rt":"3154.5999999046","correct":false,"confidence":3},{"trial_n":55,"span":7,"encoder":"4606692","distractor":"4606696","target":"absent","response":"absent","rt":"2612.1000001431","correct":true,"confidence":5},{"trial_n":56,"span":7,"encoder":"1033414","distractor":"9033414","target":"absent","response":"present","rt":"5010.5","correct":false,"confidence":3},{"trial_n":57,"span":6,"encoder":"395137","distractor":"395127","target":"present","response":"present","rt":"1979","correct":true,"confidence":5},{"trial_n":58,"span":6,"encoder":"353511","distractor":"355511","target":"absent","response":"absent","rt":"2512.1000001431","correct":true,"confidence":5},{"trial_n":59,"span":7,"encoder":"9875439","distractor":"3875439","target":"present","response":"present","rt":"2692.5","correct":true,"confidence":5},{"trial_n":60,"span":7,"encoder":"2046436","distractor":"2046136","target":"absent","response":"absent","rt":"4139","correct":true,"confidence":4},{"trial_n":61,"span":8,"encoder":"65437844","distractor":"65437840","target":"absent","response":"absent","rt":"2807.4000000954","correct":true,"confidence":5},{"trial_n":62,"span":8,"encoder":"04512272","distractor":"04512275","target":"absent","response":"absent","rt":"3971.1000001431","correct":true,"confidence":4},{"trial_n":63,"span":9,"encoder":"708447099","distractor":"708477099","target":"absent","response":"present","rt":"3575.9000000954","correct":false,"confidence":4},{"trial_n":64,"span":8,"encoder":"98377157","distractor":"98387157","target":"absent","response":"absent","rt":"5341.0999999046","correct":true,"confidence":2},{"trial_n":65,"span":8,"encoder":"68823803","distractor":"68823003","target":"present","response":"present","rt":"4245.0999999046","correct":true,"confidence":4},{"trial_n":66,"span":9,"encoder":"109565306","distractor":"109564306","target":"present","response":"present","rt":"4538.8999998569","correct":true,"confidence":3},{"trial_n":67,"span":9,"encoder":"140319119","distractor":"170319119","target":"present","response":"present","rt":"3905.6000001431","correct":true,"confidence":4},{"trial_n":68,"span":10,"encoder":"1720956048","distractor":"1750956048","target":"absent","response":"present","rt":"4740.3999998569","correct":false,"confidence":2},{"trial_n":69,"span":9,"encoder":"939661474","distractor":"938661474","target":"present","response":"absent","rt":"4046.7000000477","correct":false,"confidence":2},{"trial_n":70,"span":8,"encoder":"20483019","distractor":"20483039","target":"absent","response":"absent","rt":"1999.7999999523","correct":true,"confidence":4},{"trial_n":71,"span":8,"encoder":"04984242","distractor":"04984342","target":"present","response":"present","rt":"6028.5999999046","correct":true,"confidence":-1},{"trial_n":72,"span":8,"encoder":"72031346","distractor":"72031347","target":"present","response":"present","rt":"4119","correct":true,"confidence":-1},{"trial_n":73,"span":9,"encoder":"592611700","distractor":"592811700","target":"absent","response":"absent","rt":"2805.2999999523","correct":true,"confidence":-1},{"trial_n":74,"span":9,"encoder":"401447488","distractor":"401477488","target":"absent","response":"absent","rt":"4359.6999998093","correct":true,"confidence":-1},{"trial_n":75,"span":10,"encoder":"2181036475","distractor":"2180036475","target":"present","response":"present","rt":"5824.0999999046","correct":true,"confidence":-1},{"trial_n":76,"span":10,"encoder":"9540483611","distractor":"9540483651","target":"absent","response":"absent","rt":"2842.5","correct":true,"confidence":-1},{"trial_n":77,"span":11,"encoder":"42483144627","distractor":"92483144627","target":"present","response":"present","rt":"5962.2999999523","correct":true,"confidence":-1},{"trial_n":78,"span":11,"encoder":"50197596653","distractor":"50697596653","target":"absent","response":"absent","rt":"4686.1999998093","correct":true,"confidence":-1},{"trial_n":79,"span":12,"encoder":"478019789168","distractor":"478019789268","target":"present","response":"present","rt":"3241.9000000954","correct":true,"confidence":-1},{"trial_n":80,"span":12,"encoder":"733229604130","distractor":"533229604130","target":"absent","response":"present","rt":"5193.3999998569","correct":false,"confidence":-1},{"trial_n":81,"span":11,"encoder":"24134743461","distractor":"24133743461","target":"present","response":"present","rt":"7747.5","correct":true,"confidence":-1},{"trial_n":82,"span":11,"encoder":"63036644656","distractor":"63036744656","target":"present","response":"present","rt":"6229","correct":true,"confidence":-1},{"trial_n":83,"span":12,"encoder":"774799388730","distractor":"774799388738","target":"present","response":"present","rt":"2763.7999999523","correct":true,"confidence":-1},{"trial_n":84,"span":12,"encoder":"046239441186","distractor":"046231441186","target":"absent","response":"present","rt":"9192.3999998569","correct":false,"confidence":-1},{"trial_n":85,"span":11,"encoder":"00221012745","distractor":"00201012745","target":"absent","response":"absent","rt":"4681.6999998093","correct":true,"confidence":-1},{"trial_n":86,"span":11,"encoder":"62158927873","distractor":"65158927873","target":"present","response":"present","rt":"6890.5","correct":true,"confidence":-1},{"trial_n":87,"span":12,"encoder":"448971824310","distractor":"448971822310","target":"present","response":"present","rt":"11504","correct":true,"confidence":-1},{"trial_n":88,"span":12,"encoder":"183580656724","distractor":"183589656724","target":"absent","response":"absent","rt":"4614.9000000954","correct":true,"confidence":-1},{"trial_n":89,"span":13,"encoder":"8301115999551","distractor":"8301115959551","target":"present","response":"present","rt":"4604.9000000954","correct":true,"confidence":-1},{"trial_n":90,"span":13,"encoder":"5353238339530","distractor":"5353538339530","target":"absent","response":"absent","rt":"8067.7999999523","correct":true,"confidence":-1},{"trial_n":91,"span":14,"encoder":"74454193928205","distractor":"74454123928205","target":"present","response":"absent","rt":"7465.3999998569","correct":false,"confidence":1},{"trial_n":92,"span":13,"encoder":"9620780508788","distractor":"7620780508788","target":"present","response":"present","rt":"3422.1000001431","correct":true,"confidence":3},{"trial_n":93,"span":13,"encoder":"7678068873860","distractor":"7678068873810","target":"present","response":"present","rt":"10783.200000048","correct":true,"confidence":3},{"trial_n":94,"span":14,"encoder":"34517611055600","distractor":"34517611005600","target":"present","response":"present","rt":"17569.399999857","correct":true,"confidence":2},{"trial_n":95,"span":14,"encoder":"83498849898639","distractor":"83498849998639","target":"present","response":"present","rt":"5331.5","correct":true,"confidence":5},{"trial_n":96,"span":15,"encoder":"621471678446078","distractor":"621471678546078","target":"absent","response":"absent","rt":"7848.3999998569","correct":true,"confidence":4},{"trial_n":97,"span":15,"encoder":"364838405511874","distractor":"364838405511894","target":"present","response":"present","rt":"10979","correct":true,"confidence":5},{"trial_n":98,"span":16,"encoder":"2893844413555694","distractor":"2893844413555695","target":"absent","response":"absent","rt":"11476.299999952","correct":true,"confidence":5},{"trial_n":99,"span":16,"encoder":"6606793969948484","distractor":"6606713969948484","target":"present","response":"present","rt":"6352.7000000477","correct":true,"confidence":4},{"trial_n":100,"span":17,"encoder":"32373384563541113","distractor":"32333384563541113","target":"absent","response":"absent","rt":"3844.2999999523","correct":true,"confidence":4},{"trial_n":101,"span":17,"encoder":"04583910708014158","distractor":"08583910708014158","target":"present","response":"absent","rt":"3654.6000001431","correct":false,"confidence":4},{"trial_n":102,"span":16,"encoder":"0886135738456828","distractor":"0886135738456826","target":"present","response":"present","rt":"9616.8999998569","correct":true,"confidence":5},{"trial_n":103,"span":16,"encoder":"8869060369335494","distractor":"8869060369335694","target":"present","response":"present","rt":"12402.400000095","correct":true,"confidence":2},{"trial_n":104,"span":17,"encoder":"18558113394200122","distractor":"18558113394200126","target":"present","response":"present","rt":"2703.3000001907","correct":true,"confidence":5},{"trial_n":105,"span":17,"encoder":"39401298078690002","distractor":"39401298008690002","target":"absent","response":"absent","rt":"8131.1000001431","correct":true,"confidence":3},{"trial_n":106,"span":18,"encoder":"799634380614720948","distractor":"799614380614720948","target":"absent","response":"absent","rt":"10161.600000143","correct":true,"confidence":2},{"trial_n":107,"span":18,"encoder":"448778399793873595","distractor":"448778399791873595","target":"present","response":"present","rt":"9232.5999999046","correct":true,"confidence":4},{"trial_n":108,"span":19,"encoder":"1693787273793767875","distractor":"1693787233793767875","target":"absent","response":"present","rt":"9912.0999999046","correct":false,"confidence":4},{"trial_n":109,"span":18,"encoder":"830398953820811117","distractor":"830398950820811117","target":"absent","response":"absent","rt":"14914.799999952","correct":true,"confidence":1},{"trial_n":110,"span":18,"encoder":"396276110991819162","distractor":"396276110997819162","target":"present","response":"absent","rt":"10245.700000048","correct":false,"confidence":3},{"trial_n":111,"span":17,"encoder":"15797770594999039","distractor":"17797770594999039","target":"present","response":"present","rt":"8081.5","correct":true,"confidence":4},{"trial_n":112,"span":17,"encoder":"24084755535198317","distractor":"24084755534198317","target":"absent","response":"present","rt":"10857.400000095","correct":false,"confidence":2},{"trial_n":113,"span":16,"encoder":"8082046382185091","distractor":"8082046382185891","target":"present","response":"present","rt":"9645.7999999523","correct":true,"confidence":4},{"trial_n":114,"span":16,"encoder":"8984172229424382","distractor":"8984172929424382","target":"present","response":"present","rt":"5194.6999998093","correct":true,"confidence":5},{"trial_n":115,"span":17,"encoder":"44691216129043399","distractor":"44191216129043399","target":"absent","response":"present","rt":"4639.3999998569","correct":false,"confidence":2},{"trial_n":116,"span":16,"encoder":"9978290257409414","distractor":"9978290257403414","target":"absent","response":"absent","rt":"10730.899999857","correct":true,"confidence":3},{"trial_n":117,"span":16,"encoder":"1925290800846332","distractor":"1925290800826332","target":"absent","response":"absent","rt":"5892.3999998569","correct":true,"confidence":4},{"trial_n":118,"span":17,"encoder":"45806250630843414","distractor":"05806250630843414","target":"present","response":"absent","rt":"7270.3999998569","correct":false,"confidence":4},{"trial_n":119,"span":16,"encoder":"4564964306340642","distractor":"4567964306340642","target":"present","response":"present","rt":"3446.7999999523","correct":true,"confidence":4},{"trial_n":120,"span":16,"encoder":"0990091521634404","distractor":"5990091521634404","target":"absent","response":"present","rt":"7827","correct":false,"confidence":1},{"trial_n":121,"span":15,"encoder":"681963263842650","distractor":"689963263842650","target":"present","response":"present","rt":"3228.8999998569","correct":true,"confidence":3},{"trial_n":122,"span":15,"encoder":"028217234779035","distractor":"028217234779039","target":"absent","response":"present","rt":"6774.9000000954","correct":false,"confidence":3},{"trial_n":123,"span":14,"encoder":"93406635865268","distractor":"03406635865268","target":"absent","response":"present","rt":"4188.1000001431","correct":false,"confidence":4},{"trial_n":124,"span":13,"encoder":"6463222487459","distractor":"6463225487459","target":"absent","response":"present","rt":"6669.7000000477","correct":false,"confidence":4},{"trial_n":125,"span":12,"encoder":"787697919144","distractor":"787693919144","target":"absent","response":"present","rt":"4684.7000000477","correct":false,"confidence":5},{"trial_n":126,"span":11,"encoder":"91208256549","distractor":"61208256549","target":"absent","response":"present","rt":"2191.2999999523","correct":false,"confidence":4},{"trial_n":127,"span":10,"encoder":"9698492015","distractor":"3698492015","target":"present","response":"present","rt":"2471.7999999523","correct":true,"confidence":5},{"trial_n":128,"span":10,"encoder":"5480760319","distractor":"5480760519","target":"present","response":"present","rt":"5808.4000000954","correct":true,"confidence":4},{"trial_n":129,"span":11,"encoder":"62100700410","distractor":"62100700418","target":"absent","response":"present","rt":"8202.7000000477","correct":false,"confidence":5},{"trial_n":130,"span":10,"encoder":"3217736684","distractor":"3227736684","target":"absent","response":"absent","rt":"2758.5","correct":true,"confidence":5},{"trial_n":131,"span":10,"encoder":"7414058791","distractor":"7714058791","target":"absent","response":"present","rt":"2664.7000000477","correct":false,"confidence":5},{"trial_n":132,"span":9,"encoder":"942062978","distractor":"942062975","target":"present","response":"present","rt":"4211.7999999523","correct":true,"confidence":5},{"trial_n":133,"span":9,"encoder":"374851620","distractor":"374851622","target":"absent","response":"absent","rt":"4176.6000001431","correct":true,"confidence":5},{"trial_n":134,"span":10,"encoder":"5890422784","distractor":"5880422784","target":"absent","response":"absent","rt":"3071.6999998093","correct":true,"confidence":5},{"trial_n":135,"span":10,"encoder":"4517567566","distractor":"9517567566","target":"absent","response":"absent","rt":"3405.5","correct":true,"confidence":4},{"trial_n":136,"span":11,"encoder":"53800038852","distractor":"53800938852","target":"absent","response":"absent","rt":"4890","correct":true,"confidence":5},{"trial_n":137,"span":11,"encoder":"58858262224","distractor":"38858262224","target":"present","response":"present","rt":"7512.4000000954","correct":true,"confidence":4},{"trial_n":138,"span":12,"encoder":"856687272730","distractor":"856687272130","target":"present","response":"absent","rt":"7719.2000000477","correct":false,"confidence":3},{"trial_n":139,"span":11,"encoder":"86534767413","distractor":"86531767413","target":"present","response":"present","rt":"7827.3000001907","correct":true,"confidence":2},{"trial_n":140,"span":11,"encoder":"02556891432","distractor":"02536891432","target":"absent","response":"absent","rt":"4558.5","correct":true,"confidence":4}]