[{"trial_n":1,"min":25,"max":230,"target":"present","response":"absent","rt":6580.799999997,"correct":false,"confidence":-1},{"trial_n":2,"min":25,"max":230,"target":"present","response":"present","rt":1416.5999999978,"correct":true,"confidence":-1},{"trial_n":3,"min":25,"max":230,"target":"absent","response":"present","rt":2850.6999999993,"correct":false,"confidence":-1},{"trial_n":4,"min":9,"max":246,"target":"absent","response":"absent","rt":1098.1999999993,"correct":true,"confidence":-1},{"trial_n":5,"min":9,"max":246,"target":"present","response":"absent","rt":5371.3000000007,"correct":false,"confidence":-1},{"trial_n":6,"min":0,"max":255,"target":"absent","response":"present","rt":1121.9000000022,"correct":false,"confidence":-1},{"trial_n":7,"min":0,"max":255,"target":"absent","response":"present","rt":4760.6000000015,"correct":false,"confidence":-1},{"trial_n":8,"min":0,"max":255,"target":"present","response":"absent","rt":750.90000000224,"correct":false,"confidence":-1},{"trial_n":9,"min":0,"max":255,"target":"present","response":"absent","rt":950.80000000075,"correct":false,"confidence":-1},{"trial_n":10,"min":0,"max":255,"target":"present","response":"present","rt":676.69999999925,"correct":true,"confidence":-1},{"trial_n":11,"min":0,"max":255,"target":"absent","response":"absent","rt":1991.0999999978,"correct":true,"confidence":-1},{"trial_n":12,"min":8,"max":247,"target":"absent","response":"present","rt":3121.1999999993,"correct":false,"confidence":-1},{"trial_n":13,"min":0,"max":255,"target":"absent","response":"absent","rt":1080.8000000007,"correct":true,"confidence":-1},{"trial_n":14,"min":0,"max":255,"target":"present","response":"absent","rt":1061.5,"correct":false,"confidence":-1},{"trial_n":15,"min":0,"max":255,"target":"absent","response":"present","rt":871,"correct":false,"confidence":-1},{"trial_n":16,"min":0,"max":255,"target":"absent","response":"present","rt":643.39999999851,"correct":false,"confidence":-1},{"trial_n":17,"min":0,"max":255,"target":"present","response":"absent","rt":495.69999999925,"correct":false,"confidence":-1},{"trial_n":18,"min":0,"max":255,"target":"present","response":"present","rt":2271,"correct":true,"confidence":-1},{"trial_n":19,"min":0,"max":255,"target":"present","response":"absent","rt":2311.6000000015,"correct":false,"confidence":-1},{"trial_n":20,"min":0,"max":255,"target":"absent","response":"present","rt":1020.3000000007,"correct":false,"confidence":-1},{"trial_n":21,"min":0,"max":255,"target":"present","response":"absent","rt":5237.299999997,"correct":false,"confidence":2},{"trial_n":22,"min":0,"max":255,"target":"absent","response":"absent","rt":1901,"correct":true,"confidence":3},{"trial_n":23,"min":0,"max":255,"target":"absent","response":"present","rt":1870.3000000007,"correct":false,"confidence":3},{"trial_n":24,"min":0,"max":255,"target":"absent","response":"absent","rt":979.69999999925,"correct":true,"confidence":3},{"trial_n":25,"min":0,"max":255,"target":"present","response":"present","rt":940.90000000224,"correct":true,"confidence":3},{"trial_n":26,"min":4,"max":251,"target":"absent","response":"absent","rt":651.10000000149,"correct":true,"confidence":3},{"trial_n":27,"min":4,"max":251,"target":"absent","response":"present","rt":846,"correct":false,"confidence":3},{"trial_n":28,"min":0,"max":255,"target":"absent","response":"present","rt":838.20000000298,"correct":false,"confidence":3},{"trial_n":29,"min":0,"max":255,"target":"absent","response":"present","rt":895.09999999776,"correct":false,"confidence":3},{"trial_n":30,"min":0,"max":255,"target":"present","response":"absent","rt":923.10000000149,"correct":false,"confidence":3},{"trial_n":31,"min":0,"max":255,"target":"present","response":"absent","rt":1409.1000000015,"correct":false,"confidence":3},{"trial_n":32,"min":0,"max":255,"target":"present","response":"present","rt":1609,"correct":true,"confidence":3},{"trial_n":33,"min":0,"max":255,"target":"absent","response":"absent","rt":1330.799999997,"correct":true,"confidence":3},{"trial_n":34,"min":2,"max":253,"target":"absent","response":"present","rt":764.59999999776,"correct":false,"confidence":3},{"trial_n":35,"min":0,"max":255,"target":"absent","response":"absent","rt":1803.5,"correct":true,"confidence":3},{"trial_n":36,"min":0,"max":255,"target":"absent","response":"present","rt":490.5,"correct":false,"confidence":3},{"trial_n":37,"min":0,"max":255,"target":"present","response":"absent","rt":911.19999999925,"correct":false,"confidence":3},{"trial_n":38,"min":0,"max":255,"target":"present","response":"present","rt":1126.6999999993,"correct":true,"confidence":3},{"trial_n":39,"min":0,"max":255,"target":"present","response":"absent","rt":822.79999999702,"correct":false,"confidence":3},{"trial_n":40,"min":0,"max":255,"target":"present","response":"present","rt":940.60000000149,"correct":true,"confidence":4},{"trial_n":41,"min":0,"max":255,"target":"present","response":"absent","rt":920.5,"correct":false,"confidence":3},{"trial_n":42,"min":0,"max":255,"target":"absent","response":"present","rt":957.90000000224,"correct":false,"confidence":3},{"trial_n":43,"min":0,"max":255,"target":"absent","response":"present","rt":650.69999999925,"correct":false,"confidence":3},{"trial_n":44,"min":0,"max":255,"target":"present","response":"present","rt":1961.6000000015,"correct":true,"confidence":3},{"trial_n":45,"min":0,"max":255,"target":"absent","response":"absent","rt":832.80000000075,"correct":true,"confidence":3},{"trial_n":46,"min":1,"max":254,"target":"present","response":"present","rt":586.19999999925,"correct":true,"confidence":3},{"trial_n":47,"min":1,"max":254,"target":"present","response":"absent","rt":1660.3000000007,"correct":false,"confidence":3},{"trial_n":48,"min":0,"max":255,"target":"present","response":"present","rt":2283.1000000015,"correct":true,"confidence":3},{"trial_n":49,"min":0,"max":255,"target":"present","response":"absent","rt":1019.5,"correct":false,"confidence":3},{"trial_n":50,"min":0,"max":255,"target":"absent","response":"present","rt":8722.5999999978,"correct":false,"confidence":3},{"trial_n":51,"min":0,"max":255,"target":"absent","response":"absent","rt":780.30000000075,"correct":true,"confidence":2},{"trial_n":52,"min":0,"max":255,"target":"present","response":"present","rt":1062.299999997,"correct":true,"confidence":2},{"trial_n":53,"min":1,"max":254,"target":"present","response":"present","rt":842.89999999851,"correct":true,"confidence":2},{"trial_n":54,"min":1,"max":254,"target":"absent","response":"absent","rt":996,"correct":true,"confidence":3},{"trial_n":55,"min":2,"max":253,"target":"present","response":"absent","rt":787.89999999851,"correct":false,"confidence":3},{"trial_n":56,"min":1,"max":254,"target":"present","response":"absent","rt":494.30000000075,"correct":false,"confidence":3},{"trial_n":57,"min":0,"max":255,"target":"absent","response":"absent","rt":680.90000000224,"correct":true,"confidence":3},{"trial_n":58,"min":0,"max":255,"target":"present","response":"absent","rt":431.80000000075,"correct":false,"confidence":3},{"trial_n":59,"min":0,"max":255,"target":"absent","response":"absent","rt":700.69999999925,"correct":true,"confidence":3},{"trial_n":60,"min":0,"max":255,"target":"absent","response":"absent","rt":486.5,"correct":true,"confidence":3},{"trial_n":61,"min":1,"max":254,"target":"absent","response":"present","rt":1390.8000000007,"correct":false,"confidence":3},{"trial_n":62,"min":0,"max":255,"target":"present","response":"present","rt":910.19999999925,"correct":true,"confidence":3},{"trial_n":63,"min":0,"max":255,"target":"absent","response":"absent","rt":1429.4000000022,"correct":true,"confidence":3},{"trial_n":64,"min":1,"max":254,"target":"present","response":"present","rt":441.5,"correct":true,"confidence":3},{"trial_n":65,"min":1,"max":254,"target":"absent","response":"present","rt":940.89999999851,"correct":false,"confidence":3},{"trial_n":66,"min":0,"max":255,"target":"absent","response":"present","rt":874.5,"correct":false,"confidence":3},{"trial_n":67,"min":0,"max":255,"target":"present","response":"absent","rt":918.59999999776,"correct":false,"confidence":2},{"trial_n":68,"min":0,"max":255,"target":"present","response":"absent","rt":699.09999999776,"correct":false,"confidence":2},{"trial_n":69,"min":0,"max":255,"target":"present","response":"present","rt":1760.5999999978,"correct":true,"confidence":2},{"trial_n":70,"min":0,"max":255,"target":"present","response":"present","rt":1195.9000000022,"correct":true,"confidence":3},{"trial_n":71,"min":41,"max":214,"target":"present","response":"absent","rt":4969.5,"correct":false,"confidence":-1},{"trial_n":72,"min":41,"max":214,"target":"present","response":"present","rt":2308,"correct":true,"confidence":-1},{"trial_n":73,"min":41,"max":214,"target":"absent","response":"absent","rt":5211.5,"correct":true,"confidence":-1},{"trial_n":74,"min":57,"max":198,"target":"absent","response":"present","rt":1221.3999999985,"correct":false,"confidence":-1},{"trial_n":75,"min":41,"max":214,"target":"present","response":"absent","rt":561.60000000149,"correct":false,"confidence":-1},{"trial_n":76,"min":25,"max":230,"target":"absent","response":"present","rt":1690.6000000015,"correct":false,"confidence":-1},{"trial_n":77,"min":9,"max":246,"target":"absent","response":"absent","rt":321.19999999925,"correct":true,"confidence":-1},{"trial_n":78,"min":9,"max":246,"target":"absent","response":"absent","rt":944.10000000149,"correct":true,"confidence":-1},{"trial_n":79,"min":25,"max":230,"target":"present","response":"present","rt":794.09999999776,"correct":true,"confidence":-1},{"trial_n":80,"min":25,"max":230,"target":"absent","response":"absent","rt":667.80000000075,"correct":true,"confidence":-1},{"trial_n":81,"min":33,"max":222,"target":"present","response":"present","rt":886.80000000075,"correct":true,"confidence":-1},{"trial_n":82,"min":33,"max":222,"target":"present","response":"absent","rt":673.5,"correct":false,"confidence":-1},{"trial_n":83,"min":25,"max":230,"target":"absent","response":"present","rt":476.09999999776,"correct":false,"confidence":-1},{"trial_n":84,"min":17,"max":238,"target":"absent","response":"absent","rt":462.5,"correct":true,"confidence":-1},{"trial_n":85,"min":17,"max":238,"target":"absent","response":"present","rt":495.09999999776,"correct":false,"confidence":-1},{"trial_n":86,"min":9,"max":246,"target":"present","response":"absent","rt":546.80000000075,"correct":false,"confidence":-1},{"trial_n":87,"min":1,"max":254,"target":"present","response":"present","rt":697.59999999776,"correct":true,"confidence":-1},{"trial_n":88,"min":1,"max":254,"target":"present","response":"absent","rt":1018.3000000007,"correct":false,"confidence":-1},{"trial_n":89,"min":0,"max":255,"target":"present","response":"present","rt":952.80000000075,"correct":true,"confidence":-1},{"trial_n":90,"min":0,"max":255,"target":"present","response":"present","rt":997.5,"correct":true,"confidence":-1},{"trial_n":91,"min":4,"max":251,"target":"absent","response":"present","rt":761,"correct":false,"confidence":3},{"trial_n":92,"min":0,"max":255,"target":"absent","response":"present","rt":800.80000000075,"correct":false,"confidence":3},{"trial_n":93,"min":0,"max":255,"target":"absent","response":"present","rt":241.09999999776,"correct":false,"confidence":3},{"trial_n":94,"min":0,"max":255,"target":"absent","response":"present","rt":960.5,"correct":false,"confidence":3},{"trial_n":95,"min":0,"max":255,"target":"absent","response":"present","rt":790.80000000075,"correct":false,"confidence":3},{"trial_n":96,"min":0,"max":255,"target":"present","response":"present","rt":890.80000000075,"correct":true,"confidence":3},{"trial_n":97,"min":0,"max":255,"target":"absent","response":"present","rt":3303.3000000007,"correct":false,"confidence":3},{"trial_n":98,"min":0,"max":255,"target":"absent","response":"present","rt":1172.1000000015,"correct":false,"confidence":3},{"trial_n":99,"min":0,"max":255,"target":"absent","response":"present","rt":606.40000000224,"correct":false,"confidence":3},{"trial_n":100,"min":0,"max":255,"target":"present","response":"present","rt":1119.8000000007,"correct":true,"confidence":3},{"trial_n":101,"min":0,"max":255,"target":"present","response":"present","rt":771,"correct":true,"confidence":3},{"trial_n":102,"min":2,"max":253,"target":"present","response":"absent","rt":1262,"correct":false,"confidence":3},{"trial_n":103,"min":0,"max":255,"target":"absent","response":"present","rt":620.89999999851,"correct":false,"confidence":3},{"trial_n":104,"min":0,"max":255,"target":"absent","response":"present","rt":1460.8999999985,"correct":false,"confidence":3},{"trial_n":105,"min":0,"max":255,"target":"present","response":"absent","rt":892.10000000149,"correct":false,"confidence":3},{"trial_n":106,"min":0,"max":255,"target":"present","response":"present","rt":626.30000000075,"correct":true,"confidence":3},{"trial_n":107,"min":0,"max":255,"target":"present","response":"present","rt":1407.9000000022,"correct":true,"confidence":3},{"trial_n":108,"min":2,"max":253,"target":"absent","response":"present","rt":744.39999999851,"correct":false,"confidence":3},{"trial_n":109,"min":0,"max":255,"target":"absent","response":"absent","rt":2303.1999999993,"correct":true,"confidence":3},{"trial_n":110,"min":0,"max":255,"target":"absent","response":"present","rt":589.79999999702,"correct":false,"confidence":3},{"trial_n":111,"min":0,"max":255,"target":"absent","response":"absent","rt":741.30000000075,"correct":true,"confidence":3},{"trial_n":112,"min":0,"max":255,"target":"absent","response":"present","rt":951.80000000075,"correct":false,"confidence":3},{"trial_n":113,"min":0,"max":255,"target":"present","response":"present","rt":1171.8000000007,"correct":true,"confidence":3},{"trial_n":114,"min":0,"max":255,"target":"present","response":"present","rt":954.90000000224,"correct":true,"confidence":3},{"trial_n":115,"min":1,"max":254,"target":"absent","response":"present","rt":1739.8999999985,"correct":false,"confidence":3},{"trial_n":116,"min":0,"max":255,"target":"absent","response":"present","rt":1469.5,"correct":false,"confidence":3},{"trial_n":117,"min":0,"max":255,"target":"present","response":"present","rt":2480.4000000022,"correct":true,"confidence":3},{"trial_n":118,"min":0,"max":255,"target":"present","response":"present","rt":734.60000000149,"correct":true,"confidence":3},{"trial_n":119,"min":1,"max":254,"target":"present","response":"present","rt":1673.6000000015,"correct":true,"confidence":3},{"trial_n":120,"min":1,"max":254,"target":"present","response":"present","rt":853.89999999851,"correct":true,"confidence":3},{"trial_n":121,"min":2,"max":253,"target":"present","response":"present","rt":1338.9000000022,"correct":true,"confidence":3},{"trial_n":122,"min":2,"max":253,"target":"present","response":"present","rt":1139.5,"correct":true,"confidence":3},{"trial_n":123,"min":3,"max":252,"target":"absent","response":"present","rt":1500.5,"correct":false,"confidence":3},{"trial_n":124,"min":2,"max":253,"target":"absent","response":"present","rt":1031.1999999993,"correct":false,"confidence":3},{"trial_n":125,"min":1,"max":254,"target":"absent","response":"present","rt":871,"correct":false,"confidence":3},{"trial_n":126,"min":0,"max":255,"target":"present","response":"present","rt":951,"correct":true,"confidence":3},{"trial_n":127,"min":0,"max":255,"target":"absent","response":"absent","rt":491,"correct":true,"confidence":3},{"trial_n":128,"min":1,"max":254,"target":"present","response":"absent","rt":786,"correct":false,"confidence":3},{"trial_n":129,"min":0,"max":255,"target":"present","response":"present","rt":566.10000000149,"correct":true,"confidence":3},{"trial_n":130,"min":0,"max":255,"target":"present","response":"present","rt":546.10000000149,"correct":true,"confidence":3},{"trial_n":131,"min":1,"max":254,"target":"absent","response":"present","rt":1960.4000000022,"correct":false,"confidence":3},{"trial_n":132,"min":0,"max":255,"target":"present","response":"present","rt":613.80000000075,"correct":true,"confidence":3},{"trial_n":133,"min":0,"max":255,"target":"absent","response":"present","rt":772.09999999776,"correct":false,"confidence":3},{"trial_n":134,"min":0,"max":255,"target":"present","response":"absent","rt":1150.6999999993,"correct":false,"confidence":3},{"trial_n":135,"min":0,"max":255,"target":"present","response":"absent","rt":674,"correct":false,"confidence":3},{"trial_n":136,"min":0,"max":255,"target":"present","response":"present","rt":755.69999999925,"correct":true,"confidence":3},{"trial_n":137,"min":0,"max":255,"target":"absent","response":"absent","rt":1289.1999999993,"correct":true,"confidence":3},{"trial_n":138,"min":1,"max":254,"target":"present","response":"present","rt":831.20000000298,"correct":true,"confidence":3},{"trial_n":139,"min":1,"max":254,"target":"absent","response":"absent","rt":1786.3999999985,"correct":true,"confidence":3},{"trial_n":140,"min":2,"max":253,"target":"present","response":"present","rt":765.39999999851,"correct":true,"confidence":3}]