[{"trial_n":1,"min":25,"max":230,"target":"present","response":"absent","rt":24310.600000024,"correct":false,"confidence":-1},{"trial_n":2,"min":25,"max":230,"target":"present","response":"present","rt":2644.900000006,"correct":true,"confidence":-1},{"trial_n":3,"min":25,"max":230,"target":"absent","response":"absent","rt":2562.8999999762,"correct":true,"confidence":-1},{"trial_n":4,"min":41,"max":214,"target":"absent","response":"absent","rt":750.80000001192,"correct":true,"confidence":-1},{"trial_n":5,"min":41,"max":214,"target":"present","response":"present","rt":803.20000001788,"correct":true,"confidence":-1},{"trial_n":6,"min":57,"max":198,"target":"present","response":"present","rt":910.60000002384,"correct":true,"confidence":-1},{"trial_n":7,"min":57,"max":198,"target":"present","response":"present","rt":720.69999998808,"correct":true,"confidence":-1},{"trial_n":8,"min":73,"max":182,"target":"absent","response":"absent","rt":593.59999999404,"correct":true,"confidence":-1},{"trial_n":9,"min":73,"max":182,"target":"absent","response":"absent","rt":592.5,"correct":true,"confidence":-1},{"trial_n":10,"min":89,"max":166,"target":"present","response":"absent","rt":1170.900000006,"correct":false,"confidence":-1},{"trial_n":11,"min":81,"max":174,"target":"present","response":"absent","rt":1038.1999999881,"correct":false,"confidence":-1},{"trial_n":12,"min":73,"max":182,"target":"present","response":"present","rt":1061.6000000238,"correct":true,"confidence":-1},{"trial_n":13,"min":73,"max":182,"target":"present","response":"present","rt":825.80000001192,"correct":true,"confidence":-1},{"trial_n":14,"min":81,"max":174,"target":"present","response":"absent","rt":1088.3000000119,"correct":false,"confidence":-1},{"trial_n":15,"min":73,"max":182,"target":"absent","response":"absent","rt":1271.400000006,"correct":true,"confidence":-1},{"trial_n":16,"min":73,"max":182,"target":"present","response":"present","rt":1249.3999999762,"correct":true,"confidence":-1},{"trial_n":17,"min":81,"max":174,"target":"absent","response":"absent","rt":2252.599999994,"correct":true,"confidence":-1},{"trial_n":18,"min":81,"max":174,"target":"present","response":"present","rt":992,"correct":true,"confidence":-1},{"trial_n":19,"min":89,"max":166,"target":"present","response":"absent","rt":1141.8000000119,"correct":false,"confidence":-1},{"trial_n":20,"min":81,"max":174,"target":"absent","response":"absent","rt":870.59999999404,"correct":true,"confidence":-1},{"trial_n":21,"min":81,"max":174,"target":"present","response":"absent","rt":912,"correct":false,"confidence":2},{"trial_n":22,"min":77,"max":178,"target":"present","response":"present","rt":3559.5,"correct":true,"confidence":1},{"trial_n":23,"min":77,"max":178,"target":"present","response":"present","rt":999.60000002384,"correct":true,"confidence":5},{"trial_n":24,"min":81,"max":174,"target":"present","response":"present","rt":880.29999998212,"correct":true,"confidence":4},{"trial_n":25,"min":81,"max":174,"target":"absent","response":"present","rt":1233.3000000119,"correct":false,"confidence":2},{"trial_n":26,"min":77,"max":178,"target":"absent","response":"absent","rt":937.69999998808,"correct":true,"confidence":2},{"trial_n":27,"min":77,"max":178,"target":"present","response":"present","rt":833.5,"correct":true,"confidence":3},{"trial_n":28,"min":81,"max":174,"target":"absent","response":"absent","rt":1225.5,"correct":true,"confidence":3},{"trial_n":29,"min":81,"max":174,"target":"present","response":"present","rt":792.79999998212,"correct":true,"confidence":5},{"trial_n":30,"min":85,"max":170,"target":"absent","response":"absent","rt":1433.7000000179,"correct":true,"confidence":2},{"trial_n":31,"min":85,"max":170,"target":"present","response":"present","rt":843.70000001788,"correct":true,"confidence":2},{"trial_n":32,"min":87,"max":168,"target":"present","response":"present","rt":1472.1999999881,"correct":true,"confidence":1},{"trial_n":33,"min":87,"max":168,"target":"present","response":"present","rt":816.59999999404,"correct":true,"confidence":4},{"trial_n":34,"min":89,"max":166,"target":"absent","response":"present","rt":874.30000001192,"correct":false,"confidence":4},{"trial_n":35,"min":87,"max":168,"target":"absent","response":"present","rt":832.59999999404,"correct":false,"confidence":3},{"trial_n":36,"min":85,"max":170,"target":"present","response":"present","rt":975.29999998212,"correct":true,"confidence":3},{"trial_n":37,"min":85,"max":170,"target":"absent","response":"present","rt":1273.2999999821,"correct":false,"confidence":3},{"trial_n":38,"min":83,"max":172,"target":"absent","response":"present","rt":952,"correct":false,"confidence":3},{"trial_n":39,"min":81,"max":174,"target":"absent","response":"absent","rt":1292.7999999821,"correct":true,"confidence":3},{"trial_n":40,"min":81,"max":174,"target":"present","response":"absent","rt":1002.400000006,"correct":false,"confidence":2},{"trial_n":41,"min":80,"max":175,"target":"present","response":"present","rt":897.89999997616,"correct":true,"confidence":4},{"trial_n":42,"min":80,"max":175,"target":"absent","response":"absent","rt":868.59999999404,"correct":true,"confidence":4},{"trial_n":43,"min":81,"max":174,"target":"absent","response":"absent","rt":1024.599999994,"correct":true,"confidence":3},{"trial_n":44,"min":81,"max":174,"target":"absent","response":"absent","rt":940.70000001788,"correct":true,"confidence":2},{"trial_n":45,"min":82,"max":173,"target":"present","response":"present","rt":684.90000000596,"correct":true,"confidence":4},{"trial_n":46,"min":82,"max":173,"target":"absent","response":"absent","rt":937,"correct":true,"confidence":4},{"trial_n":47,"min":83,"max":172,"target":"present","response":"absent","rt":888.69999998808,"correct":false,"confidence":4},{"trial_n":48,"min":82,"max":173,"target":"present","response":"absent","rt":1251.6999999881,"correct":false,"confidence":3},{"trial_n":49,"min":81,"max":174,"target":"absent","response":"absent","rt":1180.6999999881,"correct":true,"confidence":3},{"trial_n":50,"min":81,"max":174,"target":"present","response":"present","rt":1232.6999999881,"correct":true,"confidence":3},{"trial_n":51,"min":82,"max":173,"target":"absent","response":"absent","rt":796.79999998212,"correct":true,"confidence":2},{"trial_n":52,"min":82,"max":173,"target":"absent","response":"absent","rt":826.39999997616,"correct":true,"confidence":1},{"trial_n":53,"min":83,"max":172,"target":"absent","response":"absent","rt":1303.8999999762,"correct":true,"confidence":3},{"trial_n":54,"min":83,"max":172,"target":"absent","response":"present","rt":1225.8000000119,"correct":false,"confidence":3},{"trial_n":55,"min":82,"max":173,"target":"present","response":"present","rt":992.69999998808,"correct":true,"confidence":3},{"trial_n":56,"min":82,"max":173,"target":"absent","response":"absent","rt":1112,"correct":true,"confidence":4},{"trial_n":57,"min":83,"max":172,"target":"absent","response":"present","rt":1009.3000000119,"correct":false,"confidence":3},{"trial_n":58,"min":82,"max":173,"target":"absent","response":"absent","rt":993.40000000596,"correct":true,"confidence":4},{"trial_n":59,"min":82,"max":173,"target":"absent","response":"absent","rt":1120.7000000179,"correct":true,"confidence":3},{"trial_n":60,"min":83,"max":172,"target":"absent","response":"present","rt":1350.099999994,"correct":false,"confidence":1},{"trial_n":61,"min":82,"max":173,"target":"present","response":"present","rt":1177,"correct":true,"confidence":3},{"trial_n":62,"min":82,"max":173,"target":"present","response":"present","rt":735,"correct":true,"confidence":5},{"trial_n":63,"min":83,"max":172,"target":"absent","response":"absent","rt":1080.7000000179,"correct":true,"confidence":3},{"trial_n":64,"min":83,"max":172,"target":"present","response":"absent","rt":1162.400000006,"correct":false,"confidence":1},{"trial_n":65,"min":82,"max":173,"target":"absent","response":"absent","rt":1268.6999999881,"correct":true,"confidence":1},{"trial_n":66,"min":82,"max":173,"target":"present","response":"present","rt":883.90000000596,"correct":true,"confidence":3},{"trial_n":67,"min":83,"max":172,"target":"present","response":"present","rt":840.90000000596,"correct":true,"confidence":3},{"trial_n":68,"min":83,"max":172,"target":"absent","response":"absent","rt":1023.599999994,"correct":true,"confidence":4},{"trial_n":69,"min":84,"max":171,"target":"present","response":"present","rt":771.79999998212,"correct":true,"confidence":4},{"trial_n":70,"min":84,"max":171,"target":"absent","response":"absent","rt":836.29999998212,"correct":true,"confidence":3},{"trial_n":71,"min":41,"max":214,"target":"present","response":"present","rt":2699.7999999821,"correct":true,"confidence":-1},{"trial_n":72,"min":41,"max":214,"target":"present","response":"absent","rt":800.20000001788,"correct":false,"confidence":-1},{"trial_n":73,"min":25,"max":230,"target":"absent","response":"absent","rt":440.5,"correct":true,"confidence":-1},{"trial_n":74,"min":25,"max":230,"target":"absent","response":"absent","rt":364.30000001192,"correct":true,"confidence":-1},{"trial_n":75,"min":41,"max":214,"target":"present","response":"present","rt":327.09999999404,"correct":true,"confidence":-1},{"trial_n":76,"min":41,"max":214,"target":"present","response":"present","rt":336.59999999404,"correct":true,"confidence":-1},{"trial_n":77,"min":57,"max":198,"target":"present","response":"present","rt":420.19999998808,"correct":true,"confidence":-1},{"trial_n":78,"min":57,"max":198,"target":"present","response":"present","rt":288.90000000596,"correct":true,"confidence":-1},{"trial_n":79,"min":73,"max":182,"target":"present","response":"present","rt":374.20000001788,"correct":true,"confidence":-1},{"trial_n":80,"min":73,"max":182,"target":"absent","response":"absent","rt":450.40000000596,"correct":true,"confidence":-1},{"trial_n":81,"min":81,"max":174,"target":"present","response":"present","rt":380.59999999404,"correct":true,"confidence":-1},{"trial_n":82,"min":81,"max":174,"target":"present","response":"present","rt":539.90000000596,"correct":true,"confidence":-1},{"trial_n":83,"min":89,"max":166,"target":"present","response":"absent","rt":1222.099999994,"correct":false,"confidence":-1},{"trial_n":84,"min":81,"max":174,"target":"absent","response":"absent","rt":607.90000000596,"correct":true,"confidence":-1},{"trial_n":85,"min":81,"max":174,"target":"absent","response":"present","rt":885.09999999404,"correct":false,"confidence":-1},{"trial_n":86,"min":73,"max":182,"target":"present","response":"present","rt":301.79999998212,"correct":true,"confidence":-1},{"trial_n":87,"min":73,"max":182,"target":"absent","response":"absent","rt":715.90000000596,"correct":true,"confidence":-1},{"trial_n":88,"min":81,"max":174,"target":"absent","response":"absent","rt":837.70000001788,"correct":true,"confidence":-1},{"trial_n":89,"min":81,"max":174,"target":"absent","response":"present","rt":494.10000002384,"correct":false,"confidence":-1},{"trial_n":90,"min":73,"max":182,"target":"present","response":"present","rt":320.20000001788,"correct":true,"confidence":-1},{"trial_n":91,"min":73,"max":182,"target":"absent","response":"absent","rt":968.90000000596,"correct":true,"confidence":2},{"trial_n":92,"min":77,"max":178,"target":"absent","response":"absent","rt":762.69999998808,"correct":true,"confidence":3},{"trial_n":93,"min":77,"max":178,"target":"absent","response":"absent","rt":404.90000000596,"correct":true,"confidence":3},{"trial_n":94,"min":81,"max":174,"target":"present","response":"present","rt":2627.7000000179,"correct":true,"confidence":1},{"trial_n":95,"min":81,"max":174,"target":"absent","response":"absent","rt":836,"correct":true,"confidence":3},{"trial_n":96,"min":85,"max":170,"target":"present","response":"present","rt":527.80000001192,"correct":true,"confidence":3},{"trial_n":97,"min":85,"max":170,"target":"absent","response":"absent","rt":1463.1999999881,"correct":true,"confidence":1},{"trial_n":98,"min":89,"max":166,"target":"absent","response":"absent","rt":721.5,"correct":true,"confidence":1},{"trial_n":99,"min":89,"max":166,"target":"absent","response":"absent","rt":853.39999997616,"correct":true,"confidence":1},{"trial_n":100,"min":93,"max":162,"target":"present","response":"present","rt":367.19999998808,"correct":true,"confidence":1},{"trial_n":101,"min":93,"max":162,"target":"absent","response":"present","rt":702.40000000596,"correct":false,"confidence":1},{"trial_n":102,"min":91,"max":164,"target":"absent","response":"present","rt":477.60000002384,"correct":false,"confidence":1},{"trial_n":103,"min":89,"max":166,"target":"absent","response":"present","rt":452.69999998808,"correct":false,"confidence":1},{"trial_n":104,"min":87,"max":168,"target":"absent","response":"present","rt":534.5,"correct":false,"confidence":1},{"trial_n":105,"min":85,"max":170,"target":"present","response":"present","rt":564,"correct":true,"confidence":1},{"trial_n":106,"min":85,"max":170,"target":"present","response":"absent","rt":534.60000002384,"correct":false,"confidence":1},{"trial_n":107,"min":83,"max":172,"target":"present","response":"absent","rt":902.79999998212,"correct":false,"confidence":1},{"trial_n":108,"min":81,"max":174,"target":"absent","response":"present","rt":1359.2000000179,"correct":false,"confidence":1},{"trial_n":109,"min":79,"max":176,"target":"absent","response":"absent","rt":809.70000001788,"correct":true,"confidence":1},{"trial_n":110,"min":79,"max":176,"target":"present","response":"present","rt":1006.599999994,"correct":true,"confidence":2},{"trial_n":111,"min":80,"max":175,"target":"present","response":"present","rt":1099.1000000238,"correct":true,"confidence":1},{"trial_n":112,"min":80,"max":175,"target":"present","response":"absent","rt":1059,"correct":false,"confidence":1},{"trial_n":113,"min":79,"max":176,"target":"absent","response":"present","rt":477.40000000596,"correct":false,"confidence":1},{"trial_n":114,"min":78,"max":177,"target":"present","response":"present","rt":401,"correct":true,"confidence":2},{"trial_n":115,"min":78,"max":177,"target":"absent","response":"absent","rt":809.89999997616,"correct":true,"confidence":1},{"trial_n":116,"min":79,"max":176,"target":"present","response":"present","rt":736.59999999404,"correct":true,"confidence":3},{"trial_n":117,"min":79,"max":176,"target":"absent","response":"present","rt":997.20000001788,"correct":false,"confidence":1},{"trial_n":118,"min":78,"max":177,"target":"present","response":"present","rt":606.90000000596,"correct":true,"confidence":3},{"trial_n":119,"min":78,"max":177,"target":"present","response":"present","rt":867.09999999404,"correct":true,"confidence":5},{"trial_n":120,"min":79,"max":176,"target":"present","response":"present","rt":652.80000001192,"correct":true,"confidence":5},{"trial_n":121,"min":79,"max":176,"target":"present","response":"present","rt":461.20000001788,"correct":true,"confidence":4},{"trial_n":122,"min":80,"max":175,"target":"present","response":"present","rt":272,"correct":true,"confidence":5},{"trial_n":123,"min":80,"max":175,"target":"absent","response":"absent","rt":558.90000000596,"correct":true,"confidence":4},{"trial_n":124,"min":81,"max":174,"target":"present","response":"present","rt":770.70000001788,"correct":true,"confidence":4},{"trial_n":125,"min":81,"max":174,"target":"present","response":"present","rt":373.79999998212,"correct":true,"confidence":5},{"trial_n":126,"min":82,"max":173,"target":"absent","response":"present","rt":1476.7000000179,"correct":false,"confidence":2},{"trial_n":127,"min":81,"max":174,"target":"absent","response":"absent","rt":1168.599999994,"correct":true,"confidence":1},{"trial_n":128,"min":81,"max":174,"target":"present","response":"present","rt":462.5,"correct":true,"confidence":4},{"trial_n":129,"min":82,"max":173,"target":"present","response":"present","rt":771.5,"correct":true,"confidence":4},{"trial_n":130,"min":82,"max":173,"target":"absent","response":"absent","rt":1048.099999994,"correct":true,"confidence":3},{"trial_n":131,"min":83,"max":172,"target":"present","response":"present","rt":578.20000001788,"correct":true,"confidence":3},{"trial_n":132,"min":83,"max":172,"target":"present","response":"present","rt":505.69999998808,"correct":true,"confidence":3},{"trial_n":133,"min":84,"max":171,"target":"present","response":"present","rt":669.60000002384,"correct":true,"confidence":1},{"trial_n":134,"min":84,"max":171,"target":"absent","response":"present","rt":494,"correct":false,"confidence":1},{"trial_n":135,"min":83,"max":172,"target":"absent","response":"present","rt":478.09999999404,"correct":false,"confidence":1},{"trial_n":136,"min":82,"max":173,"target":"absent","response":"present","rt":628,"correct":false,"confidence":1},{"trial_n":137,"min":81,"max":174,"target":"absent","response":"absent","rt":591.70000001788,"correct":true,"confidence":1},{"trial_n":138,"min":81,"max":174,"target":"absent","response":"absent","rt":449.29999998212,"correct":true,"confidence":1},{"trial_n":139,"min":82,"max":173,"target":"absent","response":"absent","rt":393.20000001788,"correct":true,"confidence":1},{"trial_n":140,"min":82,"max":173,"target":"present","response":"absent","rt":442.40000000596,"correct":false,"confidence":1}]