[{"trial_n":1,"span":8,"encoder":"07646653","distractor":"07656653","target":"present","response":"present","rt":"3530.099999994","correct":true,"confidence":-1},{"trial_n":2,"span":8,"encoder":"01654058","distractor":"01653058","target":"present","response":"present","rt":"2701.1999999881","correct":true,"confidence":-1},{"trial_n":3,"span":10,"encoder":"6925278381","distractor":"9925278381","target":"absent","response":"absent","rt":"1844.1000000238","correct":true,"confidence":-1},{"trial_n":4,"span":10,"encoder":"9399573782","distractor":"6399573782","target":"absent","response":"absent","rt":"1840.1999999881","correct":true,"confidence":-1},{"trial_n":5,"span":12,"encoder":"600339922506","distractor":"600319922506","target":"present","response":"absent","rt":"1977.5","correct":false,"confidence":-1},{"trial_n":6,"span":10,"encoder":"6584088331","distractor":"6584084331","target":"present","response":"present","rt":"3085.099999994","correct":true,"confidence":-1},{"trial_n":7,"span":10,"encoder":"1608036461","distractor":"1604036461","target":"present","response":"present","rt":"4026.7000000179","correct":true,"confidence":-1},{"trial_n":8,"span":12,"encoder":"164764275863","distractor":"164764275860","target":"present","response":"present","rt":"2400.900000006","correct":true,"confidence":-1},{"trial_n":9,"span":12,"encoder":"176429265491","distractor":"186429265491","target":"present","response":"absent","rt":"2217.1999999881","correct":false,"confidence":-1},{"trial_n":10,"span":10,"encoder":"3293335562","distractor":"3293332562","target":"present","response":"present","rt":"2220.7000000179","correct":true,"confidence":-1},{"trial_n":11,"span":10,"encoder":"4798345806","distractor":"4778345806","target":"present","response":"present","rt":"1385.1000000238","correct":true,"confidence":-1},{"trial_n":12,"span":11,"encoder":"42393960201","distractor":"42393900201","target":"absent","response":"present","rt":"1276.8000000119","correct":false,"confidence":-1},{"trial_n":13,"span":10,"encoder":"5456658475","distractor":"5436658475","target":"present","response":"present","rt":"2572.400000006","correct":true,"confidence":-1},{"trial_n":14,"span":10,"encoder":"8340701146","distractor":"8340701846","target":"present","response":"present","rt":"2110.2999999821","correct":true,"confidence":-1},{"trial_n":15,"span":11,"encoder":"96083397406","distractor":"96083397306","target":"present","response":"present","rt":"2257.3000000119","correct":true,"confidence":-1},{"trial_n":16,"span":11,"encoder":"40707129314","distractor":"40701129314","target":"present","response":"absent","rt":"1501.5","correct":false,"confidence":-1},{"trial_n":17,"span":10,"encoder":"4128150688","distractor":"4128250688","target":"absent","response":"present","rt":"1442.6999999881","correct":false,"confidence":-1},{"trial_n":18,"span":9,"encoder":"868450965","distractor":"868420965","target":"present","response":"present","rt":"2133.5","correct":true,"confidence":-1},{"trial_n":19,"span":9,"encoder":"923362213","distractor":"923361213","target":"absent","response":"present","rt":"2043.1999999881","correct":false,"confidence":-1},{"trial_n":20,"span":8,"encoder":"53431101","distractor":"93431101","target":"absent","response":"absent","rt":"1684.7000000179","correct":true,"confidence":-1},{"trial_n":21,"span":8,"encoder":"58723740","distractor":"58723748","target":"present","response":"present","rt":"1889","correct":true,"confidence":4},{"trial_n":22,"span":9,"encoder":"607320160","distractor":"607321160","target":"absent","response":"present","rt":"2383.6999999881","correct":false,"confidence":5},{"trial_n":23,"span":8,"encoder":"19009964","distractor":"19009064","target":"present","response":"absent","rt":"3225.3000000119","correct":false,"confidence":2},{"trial_n":24,"span":7,"encoder":"3915070","distractor":"3915071","target":"present","response":"present","rt":"2698.599999994","correct":true,"confidence":5},{"trial_n":25,"span":7,"encoder":"2588747","distractor":"2588647","target":"absent","response":"absent","rt":"2543","correct":true,"confidence":4},{"trial_n":26,"span":8,"encoder":"40905485","distractor":"44905485","target":"absent","response":"absent","rt":"1696.5","correct":true,"confidence":2},{"trial_n":27,"span":8,"encoder":"95716736","distractor":"95716726","target":"present","response":"present","rt":"2821.400000006","correct":true,"confidence":4},{"trial_n":28,"span":9,"encoder":"231998784","distractor":"231998384","target":"present","response":"present","rt":"2499.2999999821","correct":true,"confidence":5},{"trial_n":29,"span":9,"encoder":"987136789","distractor":"987136289","target":"present","response":"present","rt":"3058.7000000179","correct":true,"confidence":4},{"trial_n":30,"span":10,"encoder":"2337847352","distractor":"2337807352","target":"present","response":"absent","rt":"2751.7000000179","correct":false,"confidence":3},{"trial_n":31,"span":9,"encoder":"344684334","distractor":"344680334","target":"absent","response":"present","rt":"1918.3000000119","correct":false,"confidence":4},{"trial_n":32,"span":8,"encoder":"18583073","distractor":"18583873","target":"absent","response":"absent","rt":"4083.900000006","correct":true,"confidence":4},{"trial_n":33,"span":8,"encoder":"97631250","distractor":"90631250","target":"present","response":"present","rt":"2221.400000006","correct":true,"confidence":5},{"trial_n":34,"span":9,"encoder":"723027918","distractor":"723227918","target":"absent","response":"present","rt":"3694.5","correct":false,"confidence":3},{"trial_n":35,"span":8,"encoder":"48294712","distractor":"18294712","target":"absent","response":"absent","rt":"2888.1000000238","correct":true,"confidence":3},{"trial_n":36,"span":8,"encoder":"83808600","distractor":"83808000","target":"absent","response":"absent","rt":"3927.099999994","correct":true,"confidence":5},{"trial_n":37,"span":9,"encoder":"854728132","distractor":"854728732","target":"absent","response":"present","rt":"2439.599999994","correct":false,"confidence":3},{"trial_n":38,"span":8,"encoder":"43359614","distractor":"43359914","target":"absent","response":"absent","rt":"3623.5","correct":true,"confidence":3},{"trial_n":39,"span":8,"encoder":"47645834","distractor":"47647834","target":"absent","response":"present","rt":"3144.1999999881","correct":false,"confidence":3},{"trial_n":40,"span":7,"encoder":"5591825","distractor":"5691825","target":"absent","response":"present","rt":"5549","correct":false,"confidence":4},{"trial_n":41,"span":6,"encoder":"563702","distractor":"563700","target":"absent","response":"present","rt":"5504.400000006","correct":false,"confidence":3},{"trial_n":42,"span":5,"encoder":"16464","distractor":"16465","target":"absent","response":"absent","rt":"2079","correct":true,"confidence":3},{"trial_n":43,"span":5,"encoder":"60547","distractor":"60047","target":"present","response":"present","rt":"1538.6000000238","correct":true,"confidence":5},{"trial_n":44,"span":6,"encoder":"219881","distractor":"019881","target":"present","response":"present","rt":"2501.900000006","correct":true,"confidence":5},{"trial_n":45,"span":6,"encoder":"211987","distractor":"211983","target":"absent","response":"absent","rt":"1952.6999999881","correct":true,"confidence":5},{"trial_n":46,"span":7,"encoder":"0441751","distractor":"0448751","target":"present","response":"present","rt":"2537.3000000119","correct":true,"confidence":5},{"trial_n":47,"span":7,"encoder":"1939885","distractor":"1939685","target":"absent","response":"absent","rt":"4079.2000000179","correct":true,"confidence":3},{"trial_n":48,"span":8,"encoder":"51657560","distractor":"51651560","target":"present","response":"present","rt":"2469.400000006","correct":true,"confidence":5},{"trial_n":49,"span":8,"encoder":"95148304","distractor":"95148504","target":"present","response":"present","rt":"2639.099999994","correct":true,"confidence":5},{"trial_n":50,"span":9,"encoder":"067004229","distractor":"067004226","target":"present","response":"present","rt":"2895.2000000179","correct":true,"confidence":5},{"trial_n":51,"span":9,"encoder":"526092434","distractor":"526592434","target":"absent","response":"absent","rt":"7978.1999999881","correct":true,"confidence":3},{"trial_n":52,"span":10,"encoder":"3651877181","distractor":"3651867181","target":"present","response":"present","rt":"3047","correct":true,"confidence":5},{"trial_n":53,"span":10,"encoder":"5257681996","distractor":"5257681986","target":"present","response":"present","rt":"2965.8000000119","correct":true,"confidence":4},{"trial_n":54,"span":11,"encoder":"87067682024","distractor":"87063682024","target":"absent","response":"present","rt":"8313.099999994","correct":false,"confidence":3},{"trial_n":55,"span":10,"encoder":"1740549278","distractor":"1740549273","target":"absent","response":"present","rt":"1972.5","correct":false,"confidence":3},{"trial_n":56,"span":9,"encoder":"814187822","distractor":"814487822","target":"absent","response":"present","rt":"2638.900000006","correct":false,"confidence":3},{"trial_n":57,"span":8,"encoder":"20155716","distractor":"20155714","target":"absent","response":"absent","rt":"2654.2999999821","correct":true,"confidence":4},{"trial_n":58,"span":8,"encoder":"56126593","distractor":"56126590","target":"absent","response":"absent","rt":"2924.099999994","correct":true,"confidence":4},{"trial_n":59,"span":9,"encoder":"679363784","distractor":"679363744","target":"present","response":"present","rt":"2958","correct":true,"confidence":4},{"trial_n":60,"span":9,"encoder":"848937870","distractor":"848737870","target":"absent","response":"absent","rt":"2397.1999999881","correct":true,"confidence":2},{"trial_n":61,"span":10,"encoder":"0615601944","distractor":"0625601944","target":"absent","response":"present","rt":"2482.099999994","correct":false,"confidence":3},{"trial_n":62,"span":9,"encoder":"728568142","distractor":"728568542","target":"absent","response":"present","rt":"3272.599999994","correct":false,"confidence":4},{"trial_n":63,"span":8,"encoder":"43778999","distractor":"43778939","target":"present","response":"present","rt":"2031.5","correct":true,"confidence":5},{"trial_n":64,"span":8,"encoder":"31881614","distractor":"71881614","target":"present","response":"present","rt":"2248.599999994","correct":true,"confidence":5},{"trial_n":65,"span":9,"encoder":"126132712","distractor":"126132718","target":"present","response":"present","rt":"1814","correct":true,"confidence":5},{"trial_n":66,"span":9,"encoder":"946964938","distractor":"936964938","target":"absent","response":"present","rt":"1976.7999999821","correct":false,"confidence":3},{"trial_n":67,"span":8,"encoder":"85583047","distractor":"88583047","target":"absent","response":"present","rt":"1522.2999999821","correct":false,"confidence":1},{"trial_n":68,"span":7,"encoder":"8665158","distractor":"2665158","target":"present","response":"present","rt":"3348.1000000238","correct":true,"confidence":3},{"trial_n":69,"span":7,"encoder":"0157917","distractor":"0150917","target":"present","response":"present","rt":"2378.5","correct":true,"confidence":5},{"trial_n":70,"span":8,"encoder":"11023112","distractor":"11022112","target":"absent","response":"absent","rt":"2588.099999994","correct":true,"confidence":3},{"trial_n":71,"span":8,"encoder":"48472198","distractor":"48472158","target":"present","response":"present","rt":"3297.900000006","correct":true,"confidence":-1},{"trial_n":72,"span":8,"encoder":"55514770","distractor":"55511770","target":"present","response":"present","rt":"2895","correct":true,"confidence":-1},{"trial_n":73,"span":9,"encoder":"178039549","distractor":"678039549","target":"absent","response":"absent","rt":"1349.099999994","correct":true,"confidence":-1},{"trial_n":74,"span":9,"encoder":"476966075","distractor":"476966073","target":"absent","response":"absent","rt":"3064.6999999881","correct":true,"confidence":-1},{"trial_n":75,"span":10,"encoder":"5875741386","distractor":"5875771386","target":"present","response":"present","rt":"3290.5","correct":true,"confidence":-1},{"trial_n":76,"span":10,"encoder":"2907980881","distractor":"2907980681","target":"present","response":"present","rt":"2857.5","correct":true,"confidence":-1},{"trial_n":77,"span":11,"encoder":"01921337567","distractor":"01921337561","target":"present","response":"absent","rt":"2385.900000006","correct":false,"confidence":-1},{"trial_n":78,"span":10,"encoder":"2669638493","distractor":"2669639493","target":"absent","response":"present","rt":"3283.7999999821","correct":false,"confidence":-1},{"trial_n":79,"span":9,"encoder":"342650109","distractor":"342450109","target":"absent","response":"absent","rt":"2531.2000000179","correct":true,"confidence":-1},{"trial_n":80,"span":9,"encoder":"168225428","distractor":"168225928","target":"absent","response":"absent","rt":"7255.5","correct":true,"confidence":-1},{"trial_n":81,"span":10,"encoder":"5076381322","distractor":"5076391322","target":"absent","response":"absent","rt":"4400.7000000179","correct":true,"confidence":-1},{"trial_n":82,"span":10,"encoder":"1511439987","distractor":"1511239987","target":"absent","response":"present","rt":"4982.5","correct":false,"confidence":-1},{"trial_n":83,"span":9,"encoder":"231323298","distractor":"131323298","target":"present","response":"absent","rt":"4329.8999999762","correct":false,"confidence":-1},{"trial_n":84,"span":8,"encoder":"25893208","distractor":"25895208","target":"absent","response":"absent","rt":"2978.599999994","correct":true,"confidence":-1},{"trial_n":85,"span":8,"encoder":"88198738","distractor":"88199738","target":"absent","response":"absent","rt":"4203.099999994","correct":true,"confidence":-1},{"trial_n":86,"span":9,"encoder":"232740764","distractor":"232740064","target":"absent","response":"absent","rt":"4318.5","correct":true,"confidence":-1},{"trial_n":87,"span":9,"encoder":"710094468","distractor":"910094468","target":"absent","response":"present","rt":"4395.599999994","correct":false,"confidence":-1},{"trial_n":88,"span":8,"encoder":"16002250","distractor":"16002240","target":"absent","response":"absent","rt":"5597.900000006","correct":true,"confidence":-1},{"trial_n":89,"span":8,"encoder":"51932902","distractor":"51932901","target":"present","response":"absent","rt":"1957.3000000119","correct":false,"confidence":-1},{"trial_n":90,"span":7,"encoder":"2810433","distractor":"2510433","target":"present","response":"present","rt":"2037.2999999821","correct":true,"confidence":-1},{"trial_n":91,"span":7,"encoder":"8573468","distractor":"8973468","target":"absent","response":"present","rt":"2660","correct":false,"confidence":1},{"trial_n":92,"span":6,"encoder":"230014","distractor":"230414","target":"absent","response":"present","rt":"6044.099999994","correct":false,"confidence":3},{"trial_n":93,"span":5,"encoder":"90920","distractor":"90922","target":"absent","response":"absent","rt":"2903.1999999881","correct":true,"confidence":5},{"trial_n":94,"span":5,"encoder":"39153","distractor":"37153","target":"present","response":"present","rt":"2381.5","correct":true,"confidence":5},{"trial_n":95,"span":6,"encoder":"077099","distractor":"037099","target":"present","response":"present","rt":"1782.599999994","correct":true,"confidence":5},{"trial_n":96,"span":6,"encoder":"610593","distractor":"610590","target":"absent","response":"absent","rt":"3066.400000006","correct":true,"confidence":4},{"trial_n":97,"span":7,"encoder":"1560086","distractor":"1560036","target":"present","response":"present","rt":"2618.7000000179","correct":true,"confidence":3},{"trial_n":98,"span":7,"encoder":"1351997","distractor":"1351999","target":"present","response":"present","rt":"2929.5","correct":true,"confidence":3},{"trial_n":99,"span":8,"encoder":"62483033","distractor":"68483033","target":"absent","response":"absent","rt":"2178.400000006","correct":true,"confidence":3},{"trial_n":100,"span":8,"encoder":"04727925","distractor":"04727625","target":"absent","response":"absent","rt":"4066.400000006","correct":true,"confidence":3},{"trial_n":101,"span":9,"encoder":"822428732","distractor":"822428737","target":"present","response":"present","rt":"3375.1999999881","correct":true,"confidence":3},{"trial_n":102,"span":9,"encoder":"842207205","distractor":"842207005","target":"present","response":"present","rt":"2744.1000000238","correct":true,"confidence":3},{"trial_n":103,"span":10,"encoder":"5132293202","distractor":"5132293102","target":"present","response":"absent","rt":"3676.2000000179","correct":false,"confidence":1},{"trial_n":104,"span":9,"encoder":"369709872","distractor":"369709874","target":"present","response":"present","rt":"2499.1999999881","correct":true,"confidence":2},{"trial_n":105,"span":9,"encoder":"075463555","distractor":"075453555","target":"present","response":"present","rt":"2754.7000000179","correct":true,"confidence":3},{"trial_n":106,"span":10,"encoder":"3088470903","distractor":"3088470933","target":"present","response":"present","rt":"2771.599999994","correct":true,"confidence":3},{"trial_n":107,"span":10,"encoder":"3448165289","distractor":"5448165289","target":"present","response":"absent","rt":"6521.3000000119","correct":false,"confidence":2},{"trial_n":108,"span":9,"encoder":"935098526","distractor":"995098526","target":"present","response":"present","rt":"2786.400000006","correct":true,"confidence":2},{"trial_n":109,"span":9,"encoder":"585757900","distractor":"585757200","target":"present","response":"present","rt":"4317.7000000179","correct":true,"confidence":2},{"trial_n":110,"span":10,"encoder":"4903946055","distractor":"4903946065","target":"present","response":"present","rt":"4749.099999994","correct":true,"confidence":2},{"trial_n":111,"span":10,"encoder":"9654865094","distractor":"9650865094","target":"absent","response":"absent","rt":"17310.099999994","correct":true,"confidence":1},{"trial_n":112,"span":11,"encoder":"38828917322","distractor":"38868917322","target":"present","response":"present","rt":"5415.1999999881","correct":true,"confidence":3},{"trial_n":113,"span":11,"encoder":"39671137839","distractor":"39601137839","target":"absent","response":"absent","rt":"2446","correct":true,"confidence":4},{"trial_n":114,"span":12,"encoder":"323777765664","distractor":"323777768664","target":"absent","response":"present","rt":"6133.2000000179","correct":false,"confidence":2},{"trial_n":115,"span":11,"encoder":"44282381241","distractor":"44282381641","target":"present","response":"present","rt":"11469","correct":true,"confidence":2},{"trial_n":116,"span":11,"encoder":"50723617133","distractor":"20723617133","target":"absent","response":"absent","rt":"15229.099999994","correct":true,"confidence":1},{"trial_n":117,"span":12,"encoder":"148927951567","distractor":"145927951567","target":"present","response":"absent","rt":"5553.6000000238","correct":false,"confidence":1},{"trial_n":118,"span":11,"encoder":"18071051562","distractor":"18071051502","target":"absent","response":"absent","rt":"6691.7000000179","correct":true,"confidence":3},{"trial_n":119,"span":11,"encoder":"21914270900","distractor":"21915270900","target":"present","response":"absent","rt":"7563.5","correct":false,"confidence":1},{"trial_n":120,"span":10,"encoder":"5356013401","distractor":"5356043401","target":"present","response":"present","rt":"19683.900000006","correct":true,"confidence":1},{"trial_n":121,"span":10,"encoder":"1484753327","distractor":"1484753227","target":"absent","response":"absent","rt":"3093.6999999881","correct":true,"confidence":3},{"trial_n":122,"span":11,"encoder":"39787189822","distractor":"39787089822","target":"absent","response":"absent","rt":"5570.6999999881","correct":true,"confidence":1},{"trial_n":123,"span":11,"encoder":"07835159097","distractor":"07835189097","target":"absent","response":"present","rt":"5509.400000006","correct":false,"confidence":2},{"trial_n":124,"span":10,"encoder":"2447738954","distractor":"2447738974","target":"present","response":"present","rt":"3554.5","correct":true,"confidence":4},{"trial_n":125,"span":10,"encoder":"8861575224","distractor":"8861572224","target":"present","response":"present","rt":"11505","correct":true,"confidence":2},{"trial_n":126,"span":11,"encoder":"88588848050","distractor":"88588888050","target":"present","response":"present","rt":"4940.8999999762","correct":true,"confidence":4},{"trial_n":127,"span":11,"encoder":"09465482083","distractor":"09455482083","target":"present","response":"present","rt":"6105.900000006","correct":true,"confidence":1},{"trial_n":128,"span":12,"encoder":"541671511644","distractor":"561671511644","target":"absent","response":"absent","rt":"4292.3000000119","correct":true,"confidence":1},{"trial_n":129,"span":12,"encoder":"626520251645","distractor":"626500251645","target":"present","response":"present","rt":"8802.6999999881","correct":true,"confidence":1},{"trial_n":130,"span":13,"encoder":"1769626218718","distractor":"1769626218018","target":"present","response":"absent","rt":"8563.1999999881","correct":false,"confidence":1},{"trial_n":131,"span":12,"encoder":"261952161779","distractor":"261952161776","target":"absent","response":"absent","rt":"3369.900000006","correct":true,"confidence":3},{"trial_n":132,"span":12,"encoder":"407504058170","distractor":"407504058180","target":"absent","response":"absent","rt":"3550.599999994","correct":true,"confidence":5},{"trial_n":133,"span":13,"encoder":"3040931887366","distractor":"3940931887366","target":"absent","response":"present","rt":"10978.599999994","correct":false,"confidence":3},{"trial_n":134,"span":12,"encoder":"459201974287","distractor":"459201974207","target":"present","response":"present","rt":"5826.8000000119","correct":true,"confidence":2},{"trial_n":135,"span":12,"encoder":"924714998348","distractor":"924714798348","target":"absent","response":"present","rt":"12933.200000018","correct":false,"confidence":1},{"trial_n":136,"span":11,"encoder":"07690705494","distractor":"04690705494","target":"absent","response":"absent","rt":"9496.5","correct":true,"confidence":3},{"trial_n":137,"span":11,"encoder":"88333595961","distractor":"88334595961","target":"absent","response":"absent","rt":"5824.3000000119","correct":true,"confidence":3},{"trial_n":138,"span":12,"encoder":"142331852894","distractor":"142331852394","target":"present","response":"absent","rt":"7386.1000000238","correct":false,"confidence":1},{"trial_n":139,"span":11,"encoder":"79216437017","distractor":"73216437017","target":"absent","response":"absent","rt":"2453.1000000238","correct":true,"confidence":4},{"trial_n":140,"span":11,"encoder":"60618817389","distractor":"60618817380","target":"present","response":"absent","rt":"15833.299999982","correct":false,"confidence":2}]