[{"trial_n":1,"n_dots":4.25,"target":"right","response":"left","rt":8676.8000000119,"correct":false,"confidence":-1},{"trial_n":2,"n_dots":4.25,"target":"left","response":"left","rt":1529,"correct":true,"confidence":-1},{"trial_n":3,"n_dots":4.25,"target":"left","response":"right","rt":1216.8999999762,"correct":false,"confidence":-1},{"trial_n":4,"n_dots":4.65,"target":"left","response":"left","rt":1913.2999999821,"correct":true,"confidence":-1},{"trial_n":5,"n_dots":4.65,"target":"right","response":"right","rt":681.80000001192,"correct":true,"confidence":-1},{"trial_n":6,"n_dots":4.25,"target":"left","response":"right","rt":722.29999998212,"correct":false,"confidence":-1},{"trial_n":7,"n_dots":4.65,"target":"right","response":"right","rt":464.39999997616,"correct":true,"confidence":-1},{"trial_n":8,"n_dots":4.65,"target":"left","response":"left","rt":748.80000001192,"correct":true,"confidence":-1},{"trial_n":9,"n_dots":4.45,"target":"right","response":"right","rt":567.5,"correct":true,"confidence":-1},{"trial_n":10,"n_dots":4.45,"target":"left","response":"left","rt":902.09999999404,"correct":true,"confidence":-1},{"trial_n":11,"n_dots":4.25,"target":"right","response":"right","rt":779.19999998808,"correct":true,"confidence":-1},{"trial_n":12,"n_dots":4.25,"target":"left","response":"left","rt":869.20000001788,"correct":true,"confidence":-1},{"trial_n":13,"n_dots":4.15,"target":"right","response":"right","rt":427.69999998808,"correct":true,"confidence":-1},{"trial_n":14,"n_dots":4.15,"target":"left","response":"right","rt":665.5,"correct":false,"confidence":-1},{"trial_n":15,"n_dots":4.25,"target":"left","response":"left","rt":715,"correct":true,"confidence":-1},{"trial_n":16,"n_dots":4.25,"target":"left","response":"right","rt":485.90000000596,"correct":false,"confidence":-1},{"trial_n":17,"n_dots":4.35,"target":"left","response":"left","rt":791.30000001192,"correct":true,"confidence":-1},{"trial_n":18,"n_dots":4.35,"target":"right","response":"right","rt":205.09999999404,"correct":true,"confidence":-1},{"trial_n":19,"n_dots":4.25,"target":"left","response":"left","rt":903.40000000596,"correct":true,"confidence":-1},{"trial_n":20,"n_dots":4.25,"target":"right","response":"right","rt":409.40000000596,"correct":true,"confidence":-1},{"trial_n":21,"n_dots":4.15,"target":"right","response":"right","rt":3244.900000006,"correct":true,"confidence":5},{"trial_n":22,"n_dots":4.15,"target":"left","response":"left","rt":651.59999999404,"correct":true,"confidence":5},{"trial_n":23,"n_dots":4.05,"target":"right","response":"right","rt":676.29999998212,"correct":true,"confidence":5},{"trial_n":24,"n_dots":4.05,"target":"left","response":"left","rt":1505.1999999881,"correct":true,"confidence":4},{"trial_n":25,"n_dots":3.95,"target":"right","response":"right","rt":848.59999999404,"correct":true,"confidence":2},{"trial_n":26,"n_dots":3.95,"target":"right","response":"right","rt":879.59999999404,"correct":true,"confidence":3},{"trial_n":27,"n_dots":3.85,"target":"left","response":"left","rt":700.40000000596,"correct":true,"confidence":3},{"trial_n":28,"n_dots":3.85,"target":"right","response":"right","rt":1156.2999999821,"correct":true,"confidence":2},{"trial_n":29,"n_dots":3.75,"target":"right","response":"right","rt":620.69999998808,"correct":true,"confidence":5},{"trial_n":30,"n_dots":3.75,"target":"right","response":"right","rt":773.69999998808,"correct":true,"confidence":3},{"trial_n":31,"n_dots":3.65,"target":"left","response":"left","rt":596,"correct":true,"confidence":4},{"trial_n":32,"n_dots":3.65,"target":"right","response":"right","rt":820.09999999404,"correct":true,"confidence":3},{"trial_n":33,"n_dots":3.55,"target":"left","response":"left","rt":765.29999998212,"correct":true,"confidence":2},{"trial_n":34,"n_dots":3.55,"target":"right","response":"right","rt":524.90000000596,"correct":true,"confidence":4},{"trial_n":35,"n_dots":3.45,"target":"left","response":"right","rt":1068.2000000179,"correct":false,"confidence":2},{"trial_n":36,"n_dots":3.55,"target":"right","response":"right","rt":917.89999997616,"correct":true,"confidence":2},{"trial_n":37,"n_dots":3.55,"target":"left","response":"left","rt":430.40000000596,"correct":true,"confidence":5},{"trial_n":38,"n_dots":3.45,"target":"right","response":"left","rt":948.09999999404,"correct":false,"confidence":1},{"trial_n":39,"n_dots":3.55,"target":"left","response":"left","rt":947,"correct":true,"confidence":1},{"trial_n":40,"n_dots":3.55,"target":"right","response":"right","rt":912.09999999404,"correct":true,"confidence":1},{"trial_n":41,"n_dots":3.45,"target":"right","response":"right","rt":957.79999998212,"correct":true,"confidence":1},{"trial_n":42,"n_dots":3.45,"target":"left","response":"left","rt":728.09999999404,"correct":true,"confidence":3},{"trial_n":43,"n_dots":3.35,"target":"left","response":"left","rt":864.40000000596,"correct":true,"confidence":2},{"trial_n":44,"n_dots":3.35,"target":"right","response":"right","rt":970.30000001192,"correct":true,"confidence":1},{"trial_n":45,"n_dots":3.25,"target":"left","response":"left","rt":810.90000000596,"correct":true,"confidence":3},{"trial_n":46,"n_dots":3.25,"target":"left","response":"left","rt":908.59999999404,"correct":true,"confidence":2},{"trial_n":47,"n_dots":3.15,"target":"right","response":"left","rt":1172.5,"correct":false,"confidence":1},{"trial_n":48,"n_dots":3.25,"target":"right","response":"right","rt":840.20000001788,"correct":true,"confidence":1},{"trial_n":49,"n_dots":3.25,"target":"left","response":"left","rt":1080.900000006,"correct":true,"confidence":1},{"trial_n":50,"n_dots":3.15,"target":"right","response":"right","rt":733.09999999404,"correct":true,"confidence":4},{"trial_n":51,"n_dots":3.15,"target":"right","response":"right","rt":800.09999999404,"correct":true,"confidence":1},{"trial_n":52,"n_dots":3.05,"target":"right","response":"right","rt":816.40000000596,"correct":true,"confidence":1},{"trial_n":53,"n_dots":3.05,"target":"left","response":"left","rt":1044.400000006,"correct":true,"confidence":1},{"trial_n":54,"n_dots":2.95,"target":"right","response":"right","rt":797.59999999404,"correct":true,"confidence":1},{"trial_n":55,"n_dots":2.95,"target":"right","response":"right","rt":673.90000000596,"correct":true,"confidence":3},{"trial_n":56,"n_dots":2.85,"target":"left","response":"left","rt":716.80000001192,"correct":true,"confidence":2},{"trial_n":57,"n_dots":2.85,"target":"right","response":"right","rt":776.09999999404,"correct":true,"confidence":1},{"trial_n":58,"n_dots":2.75,"target":"left","response":"left","rt":1289.900000006,"correct":true,"confidence":1},{"trial_n":59,"n_dots":2.75,"target":"left","response":"left","rt":1145.2999999821,"correct":true,"confidence":2},{"trial_n":60,"n_dots":2.65,"target":"left","response":"left","rt":767.5,"correct":true,"confidence":1},{"trial_n":61,"n_dots":2.65,"target":"left","response":"right","rt":803.5,"correct":false,"confidence":1},{"trial_n":62,"n_dots":2.75,"target":"left","response":"left","rt":952.89999997616,"correct":true,"confidence":1},{"trial_n":63,"n_dots":2.75,"target":"right","response":"right","rt":1587.5,"correct":true,"confidence":1},{"trial_n":64,"n_dots":2.65,"target":"right","response":"right","rt":1057.6000000238,"correct":true,"confidence":3},{"trial_n":65,"n_dots":2.65,"target":"right","response":"left","rt":1457.7000000179,"correct":false,"confidence":1},{"trial_n":66,"n_dots":2.75,"target":"right","response":"right","rt":1627.900000006,"correct":true,"confidence":1},{"trial_n":67,"n_dots":2.75,"target":"right","response":"right","rt":2481.7000000179,"correct":true,"confidence":1},{"trial_n":68,"n_dots":2.65,"target":"left","response":"right","rt":1194.1999999881,"correct":false,"confidence":1},{"trial_n":69,"n_dots":2.75,"target":"left","response":"left","rt":882.19999998808,"correct":true,"confidence":1},{"trial_n":70,"n_dots":2.75,"target":"left","response":"right","rt":1060.6999999881,"correct":false,"confidence":1},{"trial_n":71,"n_dots":2.85,"target":"left","response":"left","rt":1015.400000006,"correct":true,"confidence":2},{"trial_n":72,"n_dots":2.85,"target":"right","response":"left","rt":888.80000001192,"correct":false,"confidence":1},{"trial_n":73,"n_dots":2.95,"target":"left","response":"right","rt":841.30000001192,"correct":false,"confidence":1},{"trial_n":74,"n_dots":3.05,"target":"left","response":"left","rt":934.80000001192,"correct":true,"confidence":1},{"trial_n":75,"n_dots":3.05,"target":"right","response":"right","rt":938.79999998212,"correct":true,"confidence":3},{"trial_n":76,"n_dots":2.95,"target":"right","response":"right","rt":1285,"correct":true,"confidence":2},{"trial_n":77,"n_dots":2.95,"target":"left","response":"right","rt":866.80000001192,"correct":false,"confidence":2},{"trial_n":78,"n_dots":3.05,"target":"left","response":"left","rt":1055.6999999881,"correct":true,"confidence":1},{"trial_n":79,"n_dots":3.05,"target":"right","response":"right","rt":989.40000000596,"correct":true,"confidence":1},{"trial_n":80,"n_dots":2.95,"target":"left","response":"left","rt":744.39999997616,"correct":true,"confidence":1},{"trial_n":81,"n_dots":2.95,"target":"left","response":"left","rt":837.5,"correct":true,"confidence":1},{"trial_n":82,"n_dots":2.85,"target":"left","response":"left","rt":892.29999998212,"correct":true,"confidence":2},{"trial_n":83,"n_dots":2.85,"target":"right","response":"right","rt":852.5,"correct":true,"confidence":2},{"trial_n":84,"n_dots":2.75,"target":"right","response":"right","rt":749.69999998808,"correct":true,"confidence":1},{"trial_n":85,"n_dots":2.75,"target":"right","response":"right","rt":1088.2999999821,"correct":true,"confidence":2},{"trial_n":86,"n_dots":2.65,"target":"left","response":"right","rt":1320.599999994,"correct":false,"confidence":1},{"trial_n":87,"n_dots":2.75,"target":"left","response":"left","rt":696.90000000596,"correct":true,"confidence":1},{"trial_n":88,"n_dots":2.75,"target":"right","response":"right","rt":760,"correct":true,"confidence":1},{"trial_n":89,"n_dots":2.65,"target":"left","response":"right","rt":1128.1999999881,"correct":false,"confidence":1},{"trial_n":90,"n_dots":2.75,"target":"left","response":"left","rt":1023.2999999821,"correct":true,"confidence":2},{"trial_n":91,"n_dots":2.75,"target":"right","response":"right","rt":952.69999998808,"correct":true,"confidence":3},{"trial_n":92,"n_dots":2.65,"target":"left","response":"left","rt":800.40000000596,"correct":true,"confidence":2},{"trial_n":93,"n_dots":2.65,"target":"left","response":"left","rt":833.5,"correct":true,"confidence":3},{"trial_n":94,"n_dots":2.55,"target":"left","response":"right","rt":486.09999999404,"correct":false,"confidence":2},{"trial_n":95,"n_dots":2.65,"target":"left","response":"left","rt":990.5,"correct":true,"confidence":1},{"trial_n":96,"n_dots":2.65,"target":"right","response":"right","rt":548.59999999404,"correct":true,"confidence":1},{"trial_n":97,"n_dots":2.55,"target":"right","response":"right","rt":719,"correct":true,"confidence":1},{"trial_n":98,"n_dots":2.55,"target":"left","response":"left","rt":704.29999998212,"correct":true,"confidence":1},{"trial_n":99,"n_dots":2.45,"target":"right","response":"right","rt":912.40000000596,"correct":true,"confidence":1},{"trial_n":100,"n_dots":2.45,"target":"left","response":"left","rt":882.80000001192,"correct":true,"confidence":1},{"trial_n":101,"n_dots":2.35,"target":"right","response":"right","rt":819,"correct":true,"confidence":3},{"trial_n":102,"n_dots":2.35,"target":"right","response":"right","rt":584.79999998212,"correct":true,"confidence":2},{"trial_n":103,"n_dots":2.25,"target":"left","response":"left","rt":1233.2000000179,"correct":true,"confidence":1},{"trial_n":104,"n_dots":2.25,"target":"right","response":"right","rt":776.5,"correct":true,"confidence":1},{"trial_n":105,"n_dots":2.15,"target":"left","response":"left","rt":836.70000001788,"correct":true,"confidence":1},{"trial_n":106,"n_dots":2.15,"target":"right","response":"right","rt":680.30000001192,"correct":true,"confidence":1},{"trial_n":107,"n_dots":2.05,"target":"left","response":"left","rt":1189.6000000238,"correct":true,"confidence":2},{"trial_n":108,"n_dots":2.05,"target":"left","response":"right","rt":472,"correct":false,"confidence":2},{"trial_n":109,"n_dots":2.15,"target":"right","response":"right","rt":913.5,"correct":true,"confidence":1},{"trial_n":110,"n_dots":2.15,"target":"right","response":"left","rt":616,"correct":false,"confidence":2},{"trial_n":111,"n_dots":2.25,"target":"right","response":"right","rt":1237,"correct":true,"confidence":1},{"trial_n":112,"n_dots":2.25,"target":"left","response":"right","rt":1049.400000006,"correct":false,"confidence":1},{"trial_n":113,"n_dots":2.35,"target":"right","response":"left","rt":764.60000002384,"correct":false,"confidence":1},{"trial_n":114,"n_dots":2.45,"target":"right","response":"right","rt":783.80000001192,"correct":true,"confidence":1},{"trial_n":115,"n_dots":2.45,"target":"right","response":"left","rt":625.80000001192,"correct":false,"confidence":1},{"trial_n":116,"n_dots":2.55,"target":"right","response":"right","rt":813.70000001788,"correct":true,"confidence":1},{"trial_n":117,"n_dots":2.55,"target":"right","response":"left","rt":624.60000002384,"correct":false,"confidence":1},{"trial_n":118,"n_dots":2.65,"target":"left","response":"right","rt":750.79999998212,"correct":false,"confidence":1},{"trial_n":119,"n_dots":2.75,"target":"left","response":"left","rt":604.59999999404,"correct":true,"confidence":1},{"trial_n":120,"n_dots":2.75,"target":"right","response":"right","rt":512.40000000596,"correct":true,"confidence":1}]