[{"trial_n":1,"min":25,"max":230,"target":"present","response":"present","rt":4702,"correct":true,"confidence":-1},{"trial_n":2,"min":25,"max":230,"target":"present","response":"present","rt":2818,"correct":true,"confidence":-1},{"trial_n":3,"min":41,"max":214,"target":"absent","response":"absent","rt":2077,"correct":true,"confidence":-1},{"trial_n":4,"min":41,"max":214,"target":"absent","response":"absent","rt":1113,"correct":true,"confidence":-1},{"trial_n":5,"min":57,"max":198,"target":"present","response":"present","rt":1359,"correct":true,"confidence":-1},{"trial_n":6,"min":57,"max":198,"target":"absent","response":"absent","rt":1636,"correct":true,"confidence":-1},{"trial_n":7,"min":73,"max":182,"target":"absent","response":"absent","rt":949,"correct":true,"confidence":-1},{"trial_n":8,"min":73,"max":182,"target":"present","response":"present","rt":1547,"correct":true,"confidence":-1},{"trial_n":9,"min":89,"max":166,"target":"absent","response":"absent","rt":1739,"correct":true,"confidence":-1},{"trial_n":10,"min":89,"max":166,"target":"absent","response":"absent","rt":897,"correct":true,"confidence":-1},{"trial_n":11,"min":97,"max":158,"target":"present","response":"absent","rt":712,"correct":false,"confidence":-1},{"trial_n":12,"min":89,"max":166,"target":"absent","response":"absent","rt":2316,"correct":true,"confidence":-1},{"trial_n":13,"min":89,"max":166,"target":"present","response":"absent","rt":926,"correct":false,"confidence":-1},{"trial_n":14,"min":81,"max":174,"target":"present","response":"present","rt":1419,"correct":true,"confidence":-1},{"trial_n":15,"min":81,"max":174,"target":"present","response":"absent","rt":1081,"correct":false,"confidence":-1},{"trial_n":16,"min":73,"max":182,"target":"present","response":"present","rt":1365,"correct":true,"confidence":-1},{"trial_n":17,"min":73,"max":182,"target":"present","response":"present","rt":1289,"correct":true,"confidence":-1},{"trial_n":18,"min":81,"max":174,"target":"present","response":"present","rt":1503,"correct":true,"confidence":-1},{"trial_n":19,"min":81,"max":174,"target":"present","response":"absent","rt":1163,"correct":false,"confidence":-1},{"trial_n":20,"min":73,"max":182,"target":"absent","response":"absent","rt":1764,"correct":true,"confidence":-1},{"trial_n":21,"min":73,"max":182,"target":"absent","response":"absent","rt":2591,"correct":true,"confidence":3},{"trial_n":22,"min":77,"max":178,"target":"present","response":"present","rt":1537,"correct":true,"confidence":3},{"trial_n":23,"min":77,"max":178,"target":"absent","response":"present","rt":1655,"correct":false,"confidence":3},{"trial_n":24,"min":73,"max":182,"target":"absent","response":"present","rt":1327,"correct":false,"confidence":3},{"trial_n":25,"min":69,"max":186,"target":"absent","response":"present","rt":1757,"correct":false,"confidence":3},{"trial_n":26,"min":65,"max":190,"target":"present","response":"present","rt":2012,"correct":true,"confidence":3},{"trial_n":27,"min":65,"max":190,"target":"absent","response":"absent","rt":1339,"correct":true,"confidence":3},{"trial_n":28,"min":69,"max":186,"target":"absent","response":"absent","rt":1585,"correct":true,"confidence":2},{"trial_n":29,"min":69,"max":186,"target":"absent","response":"absent","rt":2604,"correct":true,"confidence":3},{"trial_n":30,"min":73,"max":182,"target":"present","response":"absent","rt":1812,"correct":false,"confidence":3},{"trial_n":31,"min":71,"max":184,"target":"absent","response":"absent","rt":1712,"correct":true,"confidence":3},{"trial_n":32,"min":71,"max":184,"target":"present","response":"present","rt":1115,"correct":true,"confidence":4},{"trial_n":33,"min":73,"max":182,"target":"present","response":"absent","rt":1222,"correct":false,"confidence":4},{"trial_n":34,"min":71,"max":184,"target":"absent","response":"absent","rt":1120,"correct":true,"confidence":3},{"trial_n":35,"min":71,"max":184,"target":"present","response":"present","rt":1297,"correct":true,"confidence":4},{"trial_n":36,"min":73,"max":182,"target":"absent","response":"absent","rt":1327,"correct":true,"confidence":3},{"trial_n":37,"min":73,"max":182,"target":"absent","response":"absent","rt":1780,"correct":true,"confidence":3},{"trial_n":38,"min":75,"max":180,"target":"present","response":"present","rt":1232,"correct":true,"confidence":4},{"trial_n":39,"min":75,"max":180,"target":"present","response":"present","rt":2216,"correct":true,"confidence":2},{"trial_n":40,"min":77,"max":178,"target":"absent","response":"absent","rt":1764,"correct":true,"confidence":3},{"trial_n":41,"min":77,"max":178,"target":"absent","response":"absent","rt":1280,"correct":true,"confidence":3},{"trial_n":42,"min":78,"max":177,"target":"present","response":"present","rt":1636,"correct":true,"confidence":4},{"trial_n":43,"min":78,"max":177,"target":"present","response":"present","rt":1103,"correct":true,"confidence":3},{"trial_n":44,"min":79,"max":176,"target":"absent","response":"absent","rt":2156,"correct":true,"confidence":3},{"trial_n":45,"min":79,"max":176,"target":"absent","response":"absent","rt":1597,"correct":true,"confidence":3},{"trial_n":46,"min":80,"max":175,"target":"absent","response":"absent","rt":1229,"correct":true,"confidence":3},{"trial_n":47,"min":80,"max":175,"target":"present","response":"present","rt":1411,"correct":true,"confidence":3},{"trial_n":48,"min":81,"max":174,"target":"absent","response":"absent","rt":1319,"correct":true,"confidence":3},{"trial_n":49,"min":81,"max":174,"target":"absent","response":"absent","rt":944.00000000003,"correct":true,"confidence":3},{"trial_n":50,"min":82,"max":173,"target":"present","response":"present","rt":1019,"correct":true,"confidence":4},{"trial_n":51,"min":82,"max":173,"target":"absent","response":"absent","rt":1221,"correct":true,"confidence":3},{"trial_n":52,"min":83,"max":172,"target":"absent","response":"absent","rt":902.00000000003,"correct":true,"confidence":3},{"trial_n":53,"min":83,"max":172,"target":"absent","response":"absent","rt":1206,"correct":true,"confidence":3},{"trial_n":54,"min":84,"max":171,"target":"present","response":"present","rt":1386,"correct":true,"confidence":4},{"trial_n":55,"min":84,"max":171,"target":"present","response":"present","rt":1400,"correct":true,"confidence":4},{"trial_n":56,"min":85,"max":170,"target":"absent","response":"absent","rt":1175,"correct":true,"confidence":3},{"trial_n":57,"min":85,"max":170,"target":"absent","response":"absent","rt":1683,"correct":true,"confidence":3},{"trial_n":58,"min":86,"max":169,"target":"present","response":"absent","rt":1465,"correct":false,"confidence":3},{"trial_n":59,"min":85,"max":170,"target":"absent","response":"absent","rt":1161,"correct":true,"confidence":3},{"trial_n":60,"min":85,"max":170,"target":"present","response":"present","rt":1318,"correct":true,"confidence":4},{"trial_n":61,"min":86,"max":169,"target":"present","response":"present","rt":1706,"correct":true,"confidence":2},{"trial_n":62,"min":86,"max":169,"target":"present","response":"absent","rt":1751,"correct":false,"confidence":3},{"trial_n":63,"min":85,"max":170,"target":"present","response":"present","rt":1448,"correct":true,"confidence":3},{"trial_n":64,"min":85,"max":170,"target":"absent","response":"absent","rt":1571,"correct":true,"confidence":3},{"trial_n":65,"min":86,"max":169,"target":"present","response":"present","rt":1666,"correct":true,"confidence":2},{"trial_n":66,"min":86,"max":169,"target":"present","response":"present","rt":2174,"correct":true,"confidence":4},{"trial_n":67,"min":87,"max":168,"target":"present","response":"present","rt":2072,"correct":true,"confidence":4},{"trial_n":68,"min":87,"max":168,"target":"present","response":"present","rt":1784,"correct":true,"confidence":3},{"trial_n":69,"min":88,"max":167,"target":"absent","response":"absent","rt":1290,"correct":true,"confidence":3},{"trial_n":70,"min":88,"max":167,"target":"present","response":"present","rt":1585.9999999999,"correct":true,"confidence":3},{"trial_n":71,"min":41,"max":214,"target":"present","response":"present","rt":2129,"correct":true,"confidence":-1},{"trial_n":72,"min":41,"max":214,"target":"present","response":"present","rt":1441,"correct":true,"confidence":-1},{"trial_n":73,"min":57,"max":198,"target":"absent","response":"absent","rt":1674,"correct":true,"confidence":-1},{"trial_n":74,"min":57,"max":198,"target":"absent","response":"absent","rt":1323,"correct":true,"confidence":-1},{"trial_n":75,"min":73,"max":182,"target":"present","response":"present","rt":1308,"correct":true,"confidence":-1},{"trial_n":76,"min":73,"max":182,"target":"present","response":"present","rt":1739,"correct":true,"confidence":-1},{"trial_n":77,"min":89,"max":166,"target":"absent","response":"present","rt":1123,"correct":false,"confidence":-1},{"trial_n":78,"min":73,"max":182,"target":"absent","response":"present","rt":1990,"correct":false,"confidence":-1},{"trial_n":79,"min":57,"max":198,"target":"absent","response":"absent","rt":1258,"correct":true,"confidence":-1},{"trial_n":80,"min":57,"max":198,"target":"present","response":"present","rt":2041,"correct":true,"confidence":-1},{"trial_n":81,"min":65,"max":190,"target":"absent","response":"absent","rt":1260,"correct":true,"confidence":-1},{"trial_n":82,"min":65,"max":190,"target":"absent","response":"absent","rt":1425,"correct":true,"confidence":-1},{"trial_n":83,"min":73,"max":182,"target":"absent","response":"absent","rt":892,"correct":true,"confidence":-1},{"trial_n":84,"min":73,"max":182,"target":"present","response":"present","rt":1242.9999999999,"correct":true,"confidence":-1},{"trial_n":85,"min":81,"max":174,"target":"present","response":"absent","rt":1208.0000000001,"correct":false,"confidence":-1},{"trial_n":86,"min":73,"max":182,"target":"absent","response":"absent","rt":1932,"correct":true,"confidence":-1},{"trial_n":87,"min":73,"max":182,"target":"present","response":"present","rt":758,"correct":true,"confidence":-1},{"trial_n":88,"min":81,"max":174,"target":"present","response":"present","rt":1467.9999999999,"correct":true,"confidence":-1},{"trial_n":89,"min":81,"max":174,"target":"present","response":"present","rt":899,"correct":true,"confidence":-1},{"trial_n":90,"min":89,"max":166,"target":"present","response":"present","rt":2245,"correct":true,"confidence":-1},{"trial_n":91,"min":89,"max":166,"target":"present","response":"present","rt":1259.9999999999,"correct":true,"confidence":3},{"trial_n":92,"min":93,"max":162,"target":"absent","response":"absent","rt":1744,"correct":true,"confidence":3},{"trial_n":93,"min":93,"max":162,"target":"present","response":"present","rt":905,"correct":true,"confidence":3},{"trial_n":94,"min":97,"max":158,"target":"absent","response":"present","rt":1295,"correct":false,"confidence":3},{"trial_n":95,"min":93,"max":162,"target":"absent","response":"present","rt":893,"correct":false,"confidence":3},{"trial_n":96,"min":89,"max":166,"target":"absent","response":"present","rt":2228,"correct":false,"confidence":3},{"trial_n":97,"min":85,"max":170,"target":"present","response":"present","rt":1945,"correct":true,"confidence":3},{"trial_n":98,"min":85,"max":170,"target":"present","response":"present","rt":1427.0000000001,"correct":true,"confidence":3},{"trial_n":99,"min":89,"max":166,"target":"present","response":"present","rt":1430,"correct":true,"confidence":3},{"trial_n":100,"min":89,"max":166,"target":"present","response":"present","rt":1495,"correct":true,"confidence":3},{"trial_n":101,"min":91,"max":164,"target":"absent","response":"absent","rt":1943,"correct":true,"confidence":3},{"trial_n":102,"min":91,"max":164,"target":"absent","response":"absent","rt":1510.9999999999,"correct":true,"confidence":4},{"trial_n":103,"min":93,"max":162,"target":"present","response":"absent","rt":2895,"correct":false,"confidence":2},{"trial_n":104,"min":91,"max":164,"target":"absent","response":"present","rt":829,"correct":false,"confidence":3},{"trial_n":105,"min":89,"max":166,"target":"absent","response":"present","rt":835,"correct":false,"confidence":3},{"trial_n":106,"min":87,"max":168,"target":"absent","response":"absent","rt":1613,"correct":true,"confidence":3},{"trial_n":107,"min":87,"max":168,"target":"absent","response":"present","rt":1780,"correct":false,"confidence":3},{"trial_n":108,"min":85,"max":170,"target":"present","response":"present","rt":1414.9999999999,"correct":true,"confidence":3},{"trial_n":109,"min":85,"max":170,"target":"absent","response":"present","rt":775,"correct":false,"confidence":4},{"trial_n":110,"min":83,"max":172,"target":"present","response":"present","rt":1393.0000000001,"correct":true,"confidence":4},{"trial_n":111,"min":83,"max":172,"target":"absent","response":"present","rt":1799,"correct":false,"confidence":3},{"trial_n":112,"min":82,"max":173,"target":"absent","response":"present","rt":1681,"correct":false,"confidence":1},{"trial_n":113,"min":81,"max":174,"target":"absent","response":"present","rt":1563.0000000001,"correct":false,"confidence":2},{"trial_n":114,"min":80,"max":175,"target":"present","response":"present","rt":1215,"correct":true,"confidence":2},{"trial_n":115,"min":80,"max":175,"target":"present","response":"present","rt":1465,"correct":true,"confidence":1},{"trial_n":116,"min":81,"max":174,"target":"absent","response":"present","rt":1452.9999999999,"correct":false,"confidence":1},{"trial_n":117,"min":80,"max":175,"target":"absent","response":"absent","rt":1534,"correct":true,"confidence":2},{"trial_n":118,"min":80,"max":175,"target":"absent","response":"absent","rt":2135,"correct":true,"confidence":1},{"trial_n":119,"min":81,"max":174,"target":"present","response":"absent","rt":2683.9999999999,"correct":false,"confidence":1},{"trial_n":120,"min":80,"max":175,"target":"absent","response":"present","rt":2849,"correct":false,"confidence":1},{"trial_n":121,"min":79,"max":176,"target":"present","response":"absent","rt":2476,"correct":false,"confidence":1},{"trial_n":122,"min":78,"max":177,"target":"present","response":"present","rt":1433,"correct":true,"confidence":2},{"trial_n":123,"min":78,"max":177,"target":"absent","response":"present","rt":1933,"correct":false,"confidence":2},{"trial_n":124,"min":77,"max":178,"target":"present","response":"present","rt":1385,"correct":true,"confidence":2},{"trial_n":125,"min":77,"max":178,"target":"absent","response":"present","rt":1701,"correct":false,"confidence":2},{"trial_n":126,"min":76,"max":179,"target":"absent","response":"absent","rt":1384,"correct":true,"confidence":3},{"trial_n":127,"min":76,"max":179,"target":"present","response":"present","rt":1418,"correct":true,"confidence":3},{"trial_n":128,"min":77,"max":178,"target":"present","response":"present","rt":1202,"correct":true,"confidence":3},{"trial_n":129,"min":77,"max":178,"target":"present","response":"present","rt":1484.9999999999,"correct":true,"confidence":3},{"trial_n":130,"min":78,"max":177,"target":"absent","response":"absent","rt":1502.9999999999,"correct":true,"confidence":3},{"trial_n":131,"min":78,"max":177,"target":"absent","response":"absent","rt":1921,"correct":true,"confidence":1},{"trial_n":132,"min":79,"max":176,"target":"present","response":"present","rt":2152,"correct":true,"confidence":1},{"trial_n":133,"min":79,"max":176,"target":"absent","response":"present","rt":1284.9999999999,"correct":false,"confidence":2},{"trial_n":134,"min":78,"max":177,"target":"present","response":"present","rt":1169,"correct":true,"confidence":3},{"trial_n":135,"min":78,"max":177,"target":"absent","response":"present","rt":1353.0000000001,"correct":false,"confidence":2},{"trial_n":136,"min":77,"max":178,"target":"present","response":"present","rt":1187,"correct":true,"confidence":2},{"trial_n":137,"min":77,"max":178,"target":"present","response":"absent","rt":1887,"correct":false,"confidence":2},{"trial_n":138,"min":76,"max":179,"target":"present","response":"present","rt":1738,"correct":true,"confidence":2},{"trial_n":139,"min":76,"max":179,"target":"present","response":"present","rt":1254,"correct":true,"confidence":2},{"trial_n":140,"min":77,"max":178,"target":"present","response":"present","rt":1238,"correct":true,"confidence":2}]