[{"trial_n":1,"n_dots":4.25,"target":"left","response":"right","rt":10876.600000024,"correct":false,"confidence":-1},{"trial_n":2,"n_dots":4.25,"target":"left","response":"left","rt":4887.1999999881,"correct":true,"confidence":-1},{"trial_n":3,"n_dots":4.25,"target":"right","response":"right","rt":818.80000001192,"correct":true,"confidence":-1},{"trial_n":4,"n_dots":3.85,"target":"left","response":"left","rt":982.5,"correct":true,"confidence":-1},{"trial_n":5,"n_dots":3.85,"target":"left","response":"left","rt":1151,"correct":true,"confidence":-1},{"trial_n":6,"n_dots":3.45,"target":"right","response":"right","rt":809.90000003576,"correct":true,"confidence":-1},{"trial_n":7,"n_dots":3.45,"target":"right","response":"left","rt":1100.3999999762,"correct":false,"confidence":-1},{"trial_n":8,"n_dots":3.65,"target":"left","response":"left","rt":635.80000001192,"correct":true,"confidence":-1},{"trial_n":9,"n_dots":3.65,"target":"left","response":"left","rt":793.69999998808,"correct":true,"confidence":-1},{"trial_n":10,"n_dots":3.45,"target":"right","response":"right","rt":595.5,"correct":true,"confidence":-1},{"trial_n":11,"n_dots":3.45,"target":"left","response":"left","rt":1538.2000000477,"correct":true,"confidence":-1},{"trial_n":12,"n_dots":3.25,"target":"right","response":"right","rt":914.20000004768,"correct":true,"confidence":-1},{"trial_n":13,"n_dots":3.25,"target":"left","response":"left","rt":1643.6000000238,"correct":true,"confidence":-1},{"trial_n":14,"n_dots":3.15,"target":"right","response":"left","rt":1004,"correct":false,"confidence":-1},{"trial_n":15,"n_dots":3.25,"target":"right","response":"right","rt":661.09999996424,"correct":true,"confidence":-1},{"trial_n":16,"n_dots":3.25,"target":"left","response":"left","rt":936.60000002384,"correct":true,"confidence":-1},{"trial_n":17,"n_dots":3.15,"target":"left","response":"left","rt":1096.6000000238,"correct":true,"confidence":-1},{"trial_n":18,"n_dots":3.15,"target":"left","response":"right","rt":205.40000003576,"correct":false,"confidence":-1},{"trial_n":19,"n_dots":3.25,"target":"left","response":"left","rt":282.69999998808,"correct":true,"confidence":-1},{"trial_n":20,"n_dots":3.25,"target":"left","response":"left","rt":959.40000003576,"correct":true,"confidence":-1},{"trial_n":21,"n_dots":3.15,"target":"right","response":"right","rt":842.80000001192,"correct":true,"confidence":2},{"trial_n":22,"n_dots":3.15,"target":"right","response":"left","rt":831.30000001192,"correct":false,"confidence":2},{"trial_n":23,"n_dots":3.25,"target":"left","response":"left","rt":1089.2000000477,"correct":true,"confidence":2},{"trial_n":24,"n_dots":3.25,"target":"left","response":"left","rt":1032.8000000119,"correct":true,"confidence":4},{"trial_n":25,"n_dots":3.15,"target":"right","response":"left","rt":1363.5,"correct":false,"confidence":2},{"trial_n":26,"n_dots":3.25,"target":"left","response":"left","rt":784.69999998808,"correct":true,"confidence":4},{"trial_n":27,"n_dots":3.25,"target":"left","response":"left","rt":921.10000002384,"correct":true,"confidence":3},{"trial_n":28,"n_dots":3.15,"target":"left","response":"left","rt":938.10000002384,"correct":true,"confidence":3},{"trial_n":29,"n_dots":3.15,"target":"right","response":"right","rt":900.90000003576,"correct":true,"confidence":3},{"trial_n":30,"n_dots":3.05,"target":"right","response":"left","rt":743.60000002384,"correct":false,"confidence":3},{"trial_n":31,"n_dots":3.15,"target":"left","response":"left","rt":1198.5,"correct":true,"confidence":2},{"trial_n":32,"n_dots":3.15,"target":"left","response":"left","rt":820,"correct":true,"confidence":2},{"trial_n":33,"n_dots":3.05,"target":"left","response":"left","rt":943.59999996424,"correct":true,"confidence":3},{"trial_n":34,"n_dots":3.05,"target":"left","response":"left","rt":848,"correct":true,"confidence":3},{"trial_n":35,"n_dots":2.95,"target":"left","response":"left","rt":903.09999996424,"correct":true,"confidence":3},{"trial_n":36,"n_dots":2.95,"target":"right","response":"left","rt":1801.5,"correct":false,"confidence":2},{"trial_n":37,"n_dots":3.05,"target":"left","response":"left","rt":2070.4000000358,"correct":true,"confidence":2},{"trial_n":38,"n_dots":3.05,"target":"left","response":"right","rt":1707.3000000119,"correct":false,"confidence":1},{"trial_n":39,"n_dots":3.15,"target":"right","response":"right","rt":1266.4000000358,"correct":true,"confidence":1},{"trial_n":40,"n_dots":3.15,"target":"left","response":"left","rt":1488.3999999762,"correct":true,"confidence":2},{"trial_n":41,"n_dots":3.05,"target":"right","response":"left","rt":2214.6999999881,"correct":false,"confidence":2},{"trial_n":42,"n_dots":3.15,"target":"right","response":"right","rt":1900.6999999881,"correct":true,"confidence":2},{"trial_n":43,"n_dots":3.15,"target":"right","response":"left","rt":853.5,"correct":false,"confidence":2},{"trial_n":44,"n_dots":3.25,"target":"right","response":"right","rt":3996.6999999881,"correct":true,"confidence":2},{"trial_n":45,"n_dots":3.25,"target":"right","response":"left","rt":2779.6999999881,"correct":false,"confidence":3},{"trial_n":46,"n_dots":3.35,"target":"right","response":"left","rt":903.60000002384,"correct":false,"confidence":2},{"trial_n":47,"n_dots":3.45,"target":"right","response":"right","rt":876.80000001192,"correct":true,"confidence":2},{"trial_n":48,"n_dots":3.45,"target":"left","response":"left","rt":1488.7000000477,"correct":true,"confidence":3},{"trial_n":49,"n_dots":3.35,"target":"left","response":"left","rt":881.39999997616,"correct":true,"confidence":3},{"trial_n":50,"n_dots":3.35,"target":"right","response":"right","rt":995.30000001192,"correct":true,"confidence":2},{"trial_n":51,"n_dots":3.25,"target":"right","response":"left","rt":1075.8999999762,"correct":false,"confidence":1},{"trial_n":52,"n_dots":3.35,"target":"left","response":"left","rt":971.39999997616,"correct":true,"confidence":2},{"trial_n":53,"n_dots":3.35,"target":"right","response":"right","rt":1251.3000000119,"correct":true,"confidence":2},{"trial_n":54,"n_dots":3.25,"target":"right","response":"left","rt":1069.1999999881,"correct":false,"confidence":1},{"trial_n":55,"n_dots":3.35,"target":"right","response":"left","rt":1179.2000000477,"correct":false,"confidence":1},{"trial_n":56,"n_dots":3.45,"target":"right","response":"left","rt":1270.6999999881,"correct":false,"confidence":1},{"trial_n":57,"n_dots":3.55,"target":"left","response":"left","rt":1454.1999999881,"correct":true,"confidence":1},{"trial_n":58,"n_dots":3.55,"target":"right","response":"left","rt":1157.6999999881,"correct":false,"confidence":1},{"trial_n":59,"n_dots":3.65,"target":"left","response":"right","rt":1931.3999999762,"correct":false,"confidence":1},{"trial_n":60,"n_dots":3.75,"target":"right","response":"left","rt":2699.1999999881,"correct":false,"confidence":1},{"trial_n":61,"n_dots":3.85,"target":"right","response":"right","rt":992,"correct":true,"confidence":2},{"trial_n":62,"n_dots":3.85,"target":"right","response":"right","rt":1082.8999999762,"correct":true,"confidence":3},{"trial_n":63,"n_dots":3.75,"target":"right","response":"right","rt":1317.8000000119,"correct":true,"confidence":2},{"trial_n":64,"n_dots":3.75,"target":"left","response":"left","rt":758.89999997616,"correct":true,"confidence":1},{"trial_n":65,"n_dots":3.65,"target":"left","response":"right","rt":2087.1999999881,"correct":false,"confidence":1},{"trial_n":66,"n_dots":3.75,"target":"right","response":"right","rt":1035.8000000119,"correct":true,"confidence":2},{"trial_n":67,"n_dots":3.75,"target":"right","response":"right","rt":1021.3999999762,"correct":true,"confidence":2},{"trial_n":68,"n_dots":3.65,"target":"left","response":"left","rt":714.40000003576,"correct":true,"confidence":1},{"trial_n":69,"n_dots":3.65,"target":"left","response":"left","rt":1518.5,"correct":true,"confidence":2},{"trial_n":70,"n_dots":3.55,"target":"right","response":"left","rt":3113.5,"correct":false,"confidence":2},{"trial_n":71,"n_dots":3.65,"target":"right","response":"right","rt":1887.8000000119,"correct":true,"confidence":2},{"trial_n":72,"n_dots":3.65,"target":"right","response":"right","rt":1840.1000000238,"correct":true,"confidence":1},{"trial_n":73,"n_dots":3.55,"target":"right","response":"right","rt":1019.1999999881,"correct":true,"confidence":2},{"trial_n":74,"n_dots":3.55,"target":"left","response":"left","rt":1250.6999999881,"correct":true,"confidence":2},{"trial_n":75,"n_dots":3.45,"target":"left","response":"left","rt":1444.8999999762,"correct":true,"confidence":1},{"trial_n":76,"n_dots":3.45,"target":"right","response":"right","rt":1360.5,"correct":true,"confidence":1},{"trial_n":77,"n_dots":3.35,"target":"right","response":"left","rt":1488.6999999881,"correct":false,"confidence":1},{"trial_n":78,"n_dots":3.45,"target":"left","response":"right","rt":893.89999997616,"correct":false,"confidence":1},{"trial_n":79,"n_dots":3.55,"target":"right","response":"right","rt":1219.1999999881,"correct":true,"confidence":1},{"trial_n":80,"n_dots":3.55,"target":"right","response":"right","rt":1356.8000000119,"correct":true,"confidence":1},{"trial_n":81,"n_dots":3.45,"target":"left","response":"left","rt":712.19999998808,"correct":true,"confidence":1},{"trial_n":82,"n_dots":3.45,"target":"left","response":"left","rt":662.69999998808,"correct":true,"confidence":1},{"trial_n":83,"n_dots":3.35,"target":"left","response":"right","rt":778.69999998808,"correct":false,"confidence":1},{"trial_n":84,"n_dots":3.45,"target":"right","response":"right","rt":738.80000001192,"correct":true,"confidence":1},{"trial_n":85,"n_dots":3.45,"target":"right","response":"right","rt":671.10000002384,"correct":true,"confidence":1},{"trial_n":86,"n_dots":3.35,"target":"left","response":"right","rt":854.19999998808,"correct":false,"confidence":1},{"trial_n":87,"n_dots":3.45,"target":"right","response":"right","rt":459.19999998808,"correct":true,"confidence":1},{"trial_n":88,"n_dots":3.45,"target":"right","response":"right","rt":822.39999997616,"correct":true,"confidence":3},{"trial_n":89,"n_dots":3.35,"target":"right","response":"right","rt":551.09999996424,"correct":true,"confidence":1},{"trial_n":90,"n_dots":3.35,"target":"left","response":"left","rt":843.80000001192,"correct":true,"confidence":1},{"trial_n":91,"n_dots":3.25,"target":"right","response":"right","rt":811.19999998808,"correct":true,"confidence":1},{"trial_n":92,"n_dots":3.25,"target":"left","response":"right","rt":748.5,"correct":false,"confidence":2},{"trial_n":93,"n_dots":3.35,"target":"left","response":"left","rt":598,"correct":true,"confidence":1},{"trial_n":94,"n_dots":3.35,"target":"right","response":"right","rt":513.5,"correct":true,"confidence":1},{"trial_n":95,"n_dots":3.25,"target":"right","response":"right","rt":588.5,"correct":true,"confidence":1},{"trial_n":96,"n_dots":3.25,"target":"left","response":"left","rt":660.89999997616,"correct":true,"confidence":1},{"trial_n":97,"n_dots":3.15,"target":"right","response":"right","rt":787,"correct":true,"confidence":1},{"trial_n":98,"n_dots":3.15,"target":"right","response":"right","rt":856,"correct":true,"confidence":1},{"trial_n":99,"n_dots":3.05,"target":"right","response":"right","rt":2804.8000000119,"correct":true,"confidence":1},{"trial_n":100,"n_dots":3.05,"target":"left","response":"right","rt":806.5,"correct":false,"confidence":1},{"trial_n":101,"n_dots":3.15,"target":"right","response":"right","rt":818.80000001192,"correct":true,"confidence":1},{"trial_n":102,"n_dots":3.15,"target":"left","response":"left","rt":838.89999997616,"correct":true,"confidence":2},{"trial_n":103,"n_dots":3.05,"target":"left","response":"left","rt":805.90000003576,"correct":true,"confidence":3},{"trial_n":104,"n_dots":3.05,"target":"left","response":"left","rt":830.89999997616,"correct":true,"confidence":2},{"trial_n":105,"n_dots":2.95,"target":"left","response":"left","rt":502.69999998808,"correct":true,"confidence":3},{"trial_n":106,"n_dots":2.95,"target":"left","response":"left","rt":970.19999998808,"correct":true,"confidence":2},{"trial_n":107,"n_dots":2.85,"target":"left","response":"left","rt":671.30000001192,"correct":true,"confidence":2},{"trial_n":108,"n_dots":2.85,"target":"left","response":"left","rt":2440,"correct":true,"confidence":1},{"trial_n":109,"n_dots":2.75,"target":"left","response":"left","rt":3234.5,"correct":true,"confidence":1},{"trial_n":110,"n_dots":2.75,"target":"right","response":"right","rt":2124.6999999881,"correct":true,"confidence":2},{"trial_n":111,"n_dots":2.65,"target":"right","response":"left","rt":2458.8999999762,"correct":false,"confidence":1},{"trial_n":112,"n_dots":2.75,"target":"left","response":"left","rt":861,"correct":true,"confidence":2},{"trial_n":113,"n_dots":2.75,"target":"left","response":"left","rt":1857.3999999762,"correct":true,"confidence":3},{"trial_n":114,"n_dots":2.65,"target":"left","response":"right","rt":1090.3000000119,"correct":false,"confidence":1},{"trial_n":115,"n_dots":2.75,"target":"right","response":"right","rt":1111.5999999642,"correct":true,"confidence":2},{"trial_n":116,"n_dots":2.75,"target":"right","response":"left","rt":634.89999997616,"correct":false,"confidence":1},{"trial_n":117,"n_dots":2.85,"target":"left","response":"left","rt":654.10000002384,"correct":true,"confidence":2},{"trial_n":118,"n_dots":2.85,"target":"right","response":"right","rt":749.79999995232,"correct":true,"confidence":2},{"trial_n":119,"n_dots":2.75,"target":"right","response":"right","rt":1344.9000000358,"correct":true,"confidence":2},{"trial_n":120,"n_dots":2.75,"target":"left","response":"right","rt":1145.5,"correct":false,"confidence":1}]