[{"trial_n":1,"n_dots":4.25,"target":"right","response":"right","rt":3138.1000000238,"correct":true,"confidence":-1},{"trial_n":2,"n_dots":4.25,"target":"left","response":"left","rt":716,"correct":true,"confidence":-1},{"trial_n":3,"n_dots":3.85,"target":"left","response":"left","rt":493.79999995232,"correct":true,"confidence":-1},{"trial_n":4,"n_dots":3.85,"target":"left","response":"left","rt":562.09999996424,"correct":true,"confidence":-1},{"trial_n":5,"n_dots":3.45,"target":"left","response":"left","rt":576.19999998808,"correct":true,"confidence":-1},{"trial_n":6,"n_dots":3.45,"target":"right","response":"left","rt":573.60000002384,"correct":false,"confidence":-1},{"trial_n":7,"n_dots":3.85,"target":"right","response":"right","rt":529,"correct":true,"confidence":-1},{"trial_n":8,"n_dots":3.85,"target":"right","response":"right","rt":475.09999996424,"correct":true,"confidence":-1},{"trial_n":9,"n_dots":3.65,"target":"right","response":"right","rt":684.79999995232,"correct":true,"confidence":-1},{"trial_n":10,"n_dots":3.65,"target":"right","response":"right","rt":724.60000002384,"correct":true,"confidence":-1},{"trial_n":11,"n_dots":3.45,"target":"right","response":"right","rt":634.10000002384,"correct":true,"confidence":-1},{"trial_n":12,"n_dots":3.45,"target":"right","response":"right","rt":1147.8999999762,"correct":true,"confidence":-1},{"trial_n":13,"n_dots":3.35,"target":"right","response":"left","rt":848.60000002384,"correct":false,"confidence":-1},{"trial_n":14,"n_dots":3.45,"target":"right","response":"right","rt":639.09999996424,"correct":true,"confidence":-1},{"trial_n":15,"n_dots":3.45,"target":"left","response":"left","rt":615.39999997616,"correct":true,"confidence":-1},{"trial_n":16,"n_dots":3.35,"target":"left","response":"left","rt":658.69999998808,"correct":true,"confidence":-1},{"trial_n":17,"n_dots":3.35,"target":"left","response":"left","rt":841,"correct":true,"confidence":-1},{"trial_n":18,"n_dots":3.25,"target":"right","response":"right","rt":596.89999997616,"correct":true,"confidence":-1},{"trial_n":19,"n_dots":3.25,"target":"right","response":"right","rt":638,"correct":true,"confidence":-1},{"trial_n":20,"n_dots":3.15,"target":"left","response":"left","rt":498.39999997616,"correct":true,"confidence":-1},{"trial_n":21,"n_dots":3.15,"target":"left","response":"left","rt":502.89999997616,"correct":true,"confidence":2},{"trial_n":22,"n_dots":3.05,"target":"right","response":"right","rt":1026.5,"correct":true,"confidence":1},{"trial_n":23,"n_dots":3.05,"target":"left","response":"left","rt":656.90000003576,"correct":true,"confidence":3},{"trial_n":24,"n_dots":2.95,"target":"right","response":"left","rt":1358.4000000358,"correct":false,"confidence":1},{"trial_n":25,"n_dots":3.05,"target":"right","response":"left","rt":1148.1999999881,"correct":false,"confidence":1},{"trial_n":26,"n_dots":3.15,"target":"left","response":"left","rt":822.60000002384,"correct":true,"confidence":3},{"trial_n":27,"n_dots":3.15,"target":"right","response":"left","rt":935.69999998808,"correct":false,"confidence":1},{"trial_n":28,"n_dots":3.25,"target":"right","response":"right","rt":725.59999996424,"correct":true,"confidence":1},{"trial_n":29,"n_dots":3.25,"target":"left","response":"left","rt":613.19999998808,"correct":true,"confidence":4},{"trial_n":30,"n_dots":3.15,"target":"left","response":"left","rt":651.70000004768,"correct":true,"confidence":2},{"trial_n":31,"n_dots":3.15,"target":"left","response":"left","rt":1606.6999999881,"correct":true,"confidence":1},{"trial_n":32,"n_dots":3.05,"target":"right","response":"left","rt":599,"correct":false,"confidence":1},{"trial_n":33,"n_dots":3.15,"target":"right","response":"left","rt":1023.1999999881,"correct":false,"confidence":1},{"trial_n":34,"n_dots":3.25,"target":"right","response":"left","rt":733.30000001192,"correct":false,"confidence":1},{"trial_n":35,"n_dots":3.35,"target":"right","response":"right","rt":855.69999998808,"correct":true,"confidence":2},{"trial_n":36,"n_dots":3.35,"target":"left","response":"left","rt":547.30000001192,"correct":true,"confidence":2},{"trial_n":37,"n_dots":3.25,"target":"right","response":"left","rt":569.80000001192,"correct":false,"confidence":2},{"trial_n":38,"n_dots":3.35,"target":"left","response":"left","rt":1038.1999999881,"correct":true,"confidence":1},{"trial_n":39,"n_dots":3.35,"target":"left","response":"left","rt":1154.5,"correct":true,"confidence":2},{"trial_n":40,"n_dots":3.25,"target":"left","response":"left","rt":561.39999997616,"correct":true,"confidence":3},{"trial_n":41,"n_dots":3.25,"target":"right","response":"right","rt":3989.1999999881,"correct":true,"confidence":2},{"trial_n":42,"n_dots":3.15,"target":"left","response":"left","rt":682.59999996424,"correct":true,"confidence":2},{"trial_n":43,"n_dots":3.15,"target":"right","response":"right","rt":1770.5999999642,"correct":true,"confidence":1},{"trial_n":44,"n_dots":3.05,"target":"left","response":"left","rt":901.20000004768,"correct":true,"confidence":1},{"trial_n":45,"n_dots":3.05,"target":"right","response":"right","rt":835,"correct":true,"confidence":1},{"trial_n":46,"n_dots":2.95,"target":"right","response":"left","rt":687.5,"correct":false,"confidence":3},{"trial_n":47,"n_dots":3.05,"target":"left","response":"left","rt":616.89999997616,"correct":true,"confidence":3},{"trial_n":48,"n_dots":3.05,"target":"left","response":"left","rt":655.59999996424,"correct":true,"confidence":3},{"trial_n":49,"n_dots":2.95,"target":"left","response":"left","rt":1266.2000000477,"correct":true,"confidence":3},{"trial_n":50,"n_dots":2.95,"target":"left","response":"left","rt":743.69999998808,"correct":true,"confidence":2},{"trial_n":51,"n_dots":2.85,"target":"left","response":"left","rt":626.39999997616,"correct":true,"confidence":2},{"trial_n":52,"n_dots":2.85,"target":"right","response":"right","rt":891.69999998808,"correct":true,"confidence":2},{"trial_n":53,"n_dots":2.75,"target":"right","response":"right","rt":1574.8000000119,"correct":true,"confidence":1},{"trial_n":54,"n_dots":2.75,"target":"left","response":"left","rt":763.30000001192,"correct":true,"confidence":2},{"trial_n":55,"n_dots":2.65,"target":"right","response":"right","rt":1304.1000000238,"correct":true,"confidence":1},{"trial_n":56,"n_dots":2.65,"target":"right","response":"right","rt":1135.1999999881,"correct":true,"confidence":1},{"trial_n":57,"n_dots":2.55,"target":"left","response":"right","rt":514.10000002384,"correct":false,"confidence":1},{"trial_n":58,"n_dots":2.65,"target":"left","response":"left","rt":565.5,"correct":true,"confidence":2},{"trial_n":59,"n_dots":2.65,"target":"left","response":"left","rt":461.30000001192,"correct":true,"confidence":2},{"trial_n":60,"n_dots":2.55,"target":"left","response":"right","rt":695.5,"correct":false,"confidence":2},{"trial_n":61,"n_dots":2.65,"target":"right","response":"left","rt":3328.5,"correct":false,"confidence":1},{"trial_n":62,"n_dots":2.75,"target":"left","response":"left","rt":544,"correct":true,"confidence":3},{"trial_n":63,"n_dots":2.75,"target":"right","response":"right","rt":688.10000002384,"correct":true,"confidence":2},{"trial_n":64,"n_dots":2.65,"target":"left","response":"left","rt":633.60000002384,"correct":true,"confidence":2},{"trial_n":65,"n_dots":2.65,"target":"left","response":"right","rt":957.89999997616,"correct":false,"confidence":1},{"trial_n":66,"n_dots":2.75,"target":"right","response":"left","rt":561.70000004768,"correct":false,"confidence":1},{"trial_n":67,"n_dots":2.85,"target":"left","response":"left","rt":474.09999996424,"correct":true,"confidence":3},{"trial_n":68,"n_dots":2.85,"target":"right","response":"right","rt":617.19999998808,"correct":true,"confidence":2},{"trial_n":69,"n_dots":2.75,"target":"right","response":"left","rt":992.10000002384,"correct":false,"confidence":2},{"trial_n":70,"n_dots":2.85,"target":"left","response":"left","rt":547.89999997616,"correct":true,"confidence":3},{"trial_n":71,"n_dots":2.85,"target":"right","response":"right","rt":692.5,"correct":true,"confidence":1},{"trial_n":72,"n_dots":2.75,"target":"right","response":"right","rt":860.39999997616,"correct":true,"confidence":1},{"trial_n":73,"n_dots":2.75,"target":"left","response":"left","rt":530.5,"correct":true,"confidence":2},{"trial_n":74,"n_dots":2.65,"target":"left","response":"right","rt":575.60000002384,"correct":false,"confidence":2},{"trial_n":75,"n_dots":2.75,"target":"right","response":"right","rt":753.80000001192,"correct":true,"confidence":2},{"trial_n":76,"n_dots":2.75,"target":"right","response":"left","rt":582.40000003576,"correct":false,"confidence":2},{"trial_n":77,"n_dots":2.85,"target":"left","response":"left","rt":589.59999996424,"correct":true,"confidence":3},{"trial_n":78,"n_dots":2.85,"target":"right","response":"left","rt":1475.1000000238,"correct":false,"confidence":1},{"trial_n":79,"n_dots":2.95,"target":"left","response":"left","rt":543.69999998808,"correct":true,"confidence":2},{"trial_n":80,"n_dots":2.95,"target":"right","response":"right","rt":581.10000002384,"correct":true,"confidence":2},{"trial_n":81,"n_dots":2.85,"target":"right","response":"left","rt":480.5,"correct":false,"confidence":2},{"trial_n":82,"n_dots":2.95,"target":"right","response":"right","rt":678.80000001192,"correct":true,"confidence":1},{"trial_n":83,"n_dots":2.95,"target":"right","response":"left","rt":1179.1999999881,"correct":false,"confidence":1},{"trial_n":84,"n_dots":3.05,"target":"right","response":"left","rt":649.5,"correct":false,"confidence":2},{"trial_n":85,"n_dots":3.15,"target":"right","response":"right","rt":547.59999996424,"correct":true,"confidence":2},{"trial_n":86,"n_dots":3.15,"target":"left","response":"right","rt":744,"correct":false,"confidence":2},{"trial_n":87,"n_dots":3.25,"target":"left","response":"left","rt":774.19999998808,"correct":true,"confidence":3},{"trial_n":88,"n_dots":3.25,"target":"left","response":"left","rt":587.09999996424,"correct":true,"confidence":3},{"trial_n":89,"n_dots":3.15,"target":"left","response":"left","rt":578.29999995232,"correct":true,"confidence":3},{"trial_n":90,"n_dots":3.15,"target":"right","response":"right","rt":1481.6000000238,"correct":true,"confidence":1},{"trial_n":91,"n_dots":3.05,"target":"right","response":"right","rt":1650.6000000238,"correct":true,"confidence":1},{"trial_n":92,"n_dots":3.05,"target":"left","response":"left","rt":473.30000001192,"correct":true,"confidence":2},{"trial_n":93,"n_dots":2.95,"target":"left","response":"right","rt":1408.3999999762,"correct":false,"confidence":1},{"trial_n":94,"n_dots":3.05,"target":"left","response":"left","rt":599.29999995232,"correct":true,"confidence":2},{"trial_n":95,"n_dots":3.05,"target":"left","response":"right","rt":973.69999998808,"correct":false,"confidence":1},{"trial_n":96,"n_dots":3.15,"target":"right","response":"left","rt":3534.3000000119,"correct":false,"confidence":1},{"trial_n":97,"n_dots":3.25,"target":"left","response":"left","rt":1422.0999999642,"correct":true,"confidence":2},{"trial_n":98,"n_dots":3.25,"target":"right","response":"right","rt":674.69999998808,"correct":true,"confidence":2},{"trial_n":99,"n_dots":3.15,"target":"left","response":"left","rt":1420.0999999642,"correct":true,"confidence":2},{"trial_n":100,"n_dots":3.15,"target":"right","response":"left","rt":643.39999997616,"correct":false,"confidence":2},{"trial_n":101,"n_dots":3.25,"target":"left","response":"left","rt":549.80000001192,"correct":true,"confidence":3},{"trial_n":102,"n_dots":3.25,"target":"left","response":"left","rt":461.80000001192,"correct":true,"confidence":3},{"trial_n":103,"n_dots":3.15,"target":"left","response":"right","rt":1729.1999999881,"correct":false,"confidence":1},{"trial_n":104,"n_dots":3.25,"target":"left","response":"left","rt":443.10000002384,"correct":true,"confidence":2},{"trial_n":105,"n_dots":3.25,"target":"right","response":"left","rt":543.70000004768,"correct":false,"confidence":2},{"trial_n":106,"n_dots":3.35,"target":"right","response":"left","rt":499.90000003576,"correct":false,"confidence":1},{"trial_n":107,"n_dots":3.45,"target":"right","response":"right","rt":636,"correct":true,"confidence":3},{"trial_n":108,"n_dots":3.45,"target":"right","response":"right","rt":946.39999997616,"correct":true,"confidence":2},{"trial_n":109,"n_dots":3.35,"target":"left","response":"left","rt":538.79999995232,"correct":true,"confidence":2},{"trial_n":110,"n_dots":3.35,"target":"right","response":"left","rt":548.90000003576,"correct":false,"confidence":2},{"trial_n":111,"n_dots":3.45,"target":"left","response":"left","rt":773.20000004768,"correct":true,"confidence":1},{"trial_n":112,"n_dots":3.45,"target":"right","response":"right","rt":961.30000001192,"correct":true,"confidence":2},{"trial_n":113,"n_dots":3.35,"target":"left","response":"left","rt":703.30000001192,"correct":true,"confidence":2},{"trial_n":114,"n_dots":3.35,"target":"right","response":"right","rt":986.69999998808,"correct":true,"confidence":1},{"trial_n":115,"n_dots":3.25,"target":"left","response":"right","rt":1035.1999999881,"correct":false,"confidence":1},{"trial_n":116,"n_dots":3.35,"target":"left","response":"left","rt":541,"correct":true,"confidence":3},{"trial_n":117,"n_dots":3.35,"target":"left","response":"left","rt":816,"correct":true,"confidence":3},{"trial_n":118,"n_dots":3.25,"target":"left","response":"left","rt":680.69999998808,"correct":true,"confidence":2},{"trial_n":119,"n_dots":3.25,"target":"right","response":"right","rt":642.90000003576,"correct":true,"confidence":1},{"trial_n":120,"n_dots":3.15,"target":"right","response":"left","rt":650.10000002384,"correct":false,"confidence":1}]