[{"trial_n":1,"span":8,"encoder":"88300783","distractor":"88307783","target":"present","response":"present","rt":"2929.1999999881","correct":true,"confidence":-1},{"trial_n":2,"span":8,"encoder":"42931662","distractor":"42951662","target":"present","response":"absent","rt":"2127.3000000119","correct":false,"confidence":-1},{"trial_n":3,"span":6,"encoder":"002352","distractor":"002322","target":"absent","response":"absent","rt":"2269.1999999881","correct":true,"confidence":-1},{"trial_n":4,"span":6,"encoder":"141041","distractor":"141941","target":"absent","response":"present","rt":"1990.2000000179","correct":false,"confidence":-1},{"trial_n":5,"span":4,"encoder":"1583","distractor":"1483","target":"present","response":"present","rt":"1730.5","correct":true,"confidence":-1},{"trial_n":6,"span":4,"encoder":"9106","distractor":"2106","target":"absent","response":"present","rt":"1435.7000000179","correct":false,"confidence":-1},{"trial_n":7,"span":2,"encoder":"41","distractor":"11","target":"absent","response":"absent","rt":"2726.1999999881","correct":true,"confidence":-1},{"trial_n":8,"span":2,"encoder":"97","distractor":"98","target":"present","response":"present","rt":"1505","correct":true,"confidence":-1},{"trial_n":9,"span":4,"encoder":"6010","distractor":"6510","target":"present","response":"present","rt":"1549","correct":true,"confidence":-1},{"trial_n":10,"span":4,"encoder":"4258","distractor":"8258","target":"absent","response":"absent","rt":"1883.2000000179","correct":true,"confidence":-1},{"trial_n":11,"span":6,"encoder":"222449","distractor":"212449","target":"absent","response":"present","rt":"1941.400000006","correct":false,"confidence":-1},{"trial_n":12,"span":5,"encoder":"43668","distractor":"49668","target":"absent","response":"absent","rt":"2306.099999994","correct":true,"confidence":-1},{"trial_n":13,"span":5,"encoder":"74542","distractor":"74546","target":"present","response":"present","rt":"2005.6999999881","correct":true,"confidence":-1},{"trial_n":14,"span":6,"encoder":"110590","distractor":"110596","target":"absent","response":"absent","rt":"1742.5","correct":true,"confidence":-1},{"trial_n":15,"span":6,"encoder":"897302","distractor":"697302","target":"present","response":"absent","rt":"2528.2000000179","correct":false,"confidence":-1},{"trial_n":16,"span":5,"encoder":"78699","distractor":"98699","target":"present","response":"present","rt":"1736.599999994","correct":true,"confidence":-1},{"trial_n":17,"span":5,"encoder":"83386","distractor":"83384","target":"present","response":"present","rt":"2028","correct":true,"confidence":-1},{"trial_n":18,"span":6,"encoder":"404477","distractor":"404977","target":"absent","response":"absent","rt":"1910.900000006","correct":true,"confidence":-1},{"trial_n":19,"span":6,"encoder":"347054","distractor":"347057","target":"present","response":"present","rt":"2203.5","correct":true,"confidence":-1},{"trial_n":20,"span":7,"encoder":"1714071","distractor":"1714571","target":"absent","response":"absent","rt":"3554.599999994","correct":true,"confidence":-1},{"trial_n":21,"span":7,"encoder":"8473910","distractor":"8413910","target":"present","response":"absent","rt":"5828.5","correct":false,"confidence":5},{"trial_n":22,"span":6,"encoder":"543924","distractor":"543934","target":"absent","response":"absent","rt":"4251.599999994","correct":true,"confidence":5},{"trial_n":23,"span":6,"encoder":"913330","distractor":"913530","target":"present","response":"present","rt":"5333.6999999881","correct":true,"confidence":3},{"trial_n":24,"span":7,"encoder":"3116508","distractor":"3716508","target":"present","response":"present","rt":"3903.099999994","correct":true,"confidence":4},{"trial_n":25,"span":7,"encoder":"1159171","distractor":"1158171","target":"absent","response":"absent","rt":"3879.599999994","correct":true,"confidence":3},{"trial_n":26,"span":8,"encoder":"83540185","distractor":"43540185","target":"present","response":"absent","rt":"3097.599999994","correct":false,"confidence":3},{"trial_n":27,"span":7,"encoder":"7229803","distractor":"7229843","target":"absent","response":"absent","rt":"5406.1999999881","correct":true,"confidence":2},{"trial_n":28,"span":7,"encoder":"1122795","distractor":"1127795","target":"absent","response":"present","rt":"3232.5","correct":false,"confidence":3},{"trial_n":29,"span":6,"encoder":"939187","distractor":"939487","target":"present","response":"present","rt":"2678.5","correct":true,"confidence":5},{"trial_n":30,"span":6,"encoder":"002100","distractor":"902100","target":"present","response":"present","rt":"1944","correct":true,"confidence":5},{"trial_n":31,"span":7,"encoder":"9185023","distractor":"9085023","target":"absent","response":"absent","rt":"1858","correct":true,"confidence":5},{"trial_n":32,"span":7,"encoder":"9201010","distractor":"2201010","target":"absent","response":"absent","rt":"1773.900000006","correct":true,"confidence":5},{"trial_n":33,"span":8,"encoder":"15539674","distractor":"17539674","target":"present","response":"absent","rt":"1800.599999994","correct":false,"confidence":3},{"trial_n":34,"span":7,"encoder":"0061081","distractor":"0461081","target":"absent","response":"absent","rt":"2406.8999999762","correct":true,"confidence":5},{"trial_n":35,"span":7,"encoder":"2509667","distractor":"2509617","target":"absent","response":"present","rt":"2697.3000000119","correct":false,"confidence":4},{"trial_n":36,"span":6,"encoder":"324897","distractor":"324997","target":"absent","response":"absent","rt":"3570","correct":true,"confidence":5},{"trial_n":37,"span":6,"encoder":"968041","distractor":"967041","target":"present","response":"absent","rt":"4242.3000000119","correct":false,"confidence":3},{"trial_n":38,"span":5,"encoder":"50794","distractor":"52794","target":"absent","response":"absent","rt":"1719","correct":true,"confidence":5},{"trial_n":39,"span":5,"encoder":"25166","distractor":"95166","target":"absent","response":"present","rt":"1640.1999999881","correct":false,"confidence":5},{"trial_n":40,"span":4,"encoder":"0818","distractor":"0811","target":"present","response":"present","rt":"1616.5","correct":true,"confidence":5},{"trial_n":41,"span":4,"encoder":"4599","distractor":"4592","target":"present","response":"present","rt":"1496.599999994","correct":true,"confidence":5},{"trial_n":42,"span":5,"encoder":"70109","distractor":"10109","target":"absent","response":"absent","rt":"1692.8000000119","correct":true,"confidence":5},{"trial_n":43,"span":5,"encoder":"69408","distractor":"60408","target":"absent","response":"absent","rt":"2180.099999994","correct":true,"confidence":5},{"trial_n":44,"span":6,"encoder":"010584","distractor":"040584","target":"present","response":"absent","rt":"3648.099999994","correct":false,"confidence":4},{"trial_n":45,"span":5,"encoder":"36233","distractor":"36833","target":"present","response":"present","rt":"1859.599999994","correct":true,"confidence":5},{"trial_n":46,"span":5,"encoder":"55321","distractor":"52321","target":"absent","response":"absent","rt":"2263.1999999881","correct":true,"confidence":5},{"trial_n":47,"span":6,"encoder":"009405","distractor":"009401","target":"present","response":"present","rt":"2390.5","correct":true,"confidence":3},{"trial_n":48,"span":6,"encoder":"958440","distractor":"158440","target":"present","response":"present","rt":"4772","correct":true,"confidence":1},{"trial_n":49,"span":7,"encoder":"5526321","distractor":"5526311","target":"absent","response":"absent","rt":"2249.5","correct":true,"confidence":2},{"trial_n":50,"span":7,"encoder":"6553516","distractor":"6753516","target":"present","response":"present","rt":"4677.599999994","correct":true,"confidence":3},{"trial_n":51,"span":8,"encoder":"56896285","distractor":"56896288","target":"absent","response":"absent","rt":"3498.599999994","correct":true,"confidence":1},{"trial_n":52,"span":8,"encoder":"45397413","distractor":"45397213","target":"absent","response":"absent","rt":"3727.400000006","correct":true,"confidence":2},{"trial_n":53,"span":9,"encoder":"470305136","distractor":"470305132","target":"present","response":"absent","rt":"2837.599999994","correct":false,"confidence":2},{"trial_n":54,"span":8,"encoder":"99429388","distractor":"99429328","target":"present","response":"present","rt":"2516.099999994","correct":true,"confidence":4},{"trial_n":55,"span":8,"encoder":"53081321","distractor":"53081921","target":"present","response":"absent","rt":"2781.8000000119","correct":false,"confidence":4},{"trial_n":56,"span":7,"encoder":"1899327","distractor":"1899927","target":"present","response":"absent","rt":"3212.900000006","correct":false,"confidence":2},{"trial_n":57,"span":6,"encoder":"466271","distractor":"466273","target":"present","response":"present","rt":"2796.900000006","correct":true,"confidence":3},{"trial_n":58,"span":6,"encoder":"110306","distractor":"510306","target":"absent","response":"absent","rt":"1880.599999994","correct":true,"confidence":5},{"trial_n":59,"span":7,"encoder":"5872624","distractor":"5972624","target":"absent","response":"absent","rt":"1726.7999999821","correct":true,"confidence":4},{"trial_n":60,"span":7,"encoder":"6283386","distractor":"6283389","target":"present","response":"present","rt":"2198.3000000119","correct":true,"confidence":3},{"trial_n":61,"span":8,"encoder":"90933634","distractor":"90936634","target":"absent","response":"present","rt":"2290.6999999881","correct":false,"confidence":3},{"trial_n":62,"span":7,"encoder":"4579560","distractor":"4979560","target":"present","response":"present","rt":"3150","correct":true,"confidence":4},{"trial_n":63,"span":7,"encoder":"8199458","distractor":"8199478","target":"present","response":"absent","rt":"3090.2000000179","correct":false,"confidence":2},{"trial_n":64,"span":6,"encoder":"445123","distractor":"442123","target":"present","response":"present","rt":"2447.6999999881","correct":true,"confidence":3},{"trial_n":65,"span":6,"encoder":"450513","distractor":"480513","target":"absent","response":"absent","rt":"1727.099999994","correct":true,"confidence":5},{"trial_n":66,"span":7,"encoder":"6384835","distractor":"6374835","target":"absent","response":"absent","rt":"1815.900000006","correct":true,"confidence":5},{"trial_n":67,"span":7,"encoder":"2773209","distractor":"2763209","target":"present","response":"present","rt":"2255.5","correct":true,"confidence":4},{"trial_n":68,"span":8,"encoder":"13996159","distractor":"13996156","target":"present","response":"present","rt":"4190.599999994","correct":true,"confidence":2},{"trial_n":69,"span":8,"encoder":"42928791","distractor":"42228791","target":"absent","response":"absent","rt":"2210.599999994","correct":true,"confidence":4},{"trial_n":70,"span":9,"encoder":"693796808","distractor":"693696808","target":"absent","response":"absent","rt":"2394.099999994","correct":true,"confidence":1},{"trial_n":71,"span":8,"encoder":"75765351","distractor":"75765451","target":"present","response":"present","rt":"9936.900000006","correct":true,"confidence":-1},{"trial_n":72,"span":8,"encoder":"05360773","distractor":"05310773","target":"present","response":"present","rt":"8606.1999999881","correct":true,"confidence":-1},{"trial_n":73,"span":9,"encoder":"389258225","distractor":"389258725","target":"absent","response":"absent","rt":"2865.900000006","correct":true,"confidence":-1},{"trial_n":74,"span":9,"encoder":"564217073","distractor":"564217673","target":"absent","response":"absent","rt":"3853","correct":true,"confidence":-1},{"trial_n":75,"span":10,"encoder":"0004124426","distractor":"0004124326","target":"present","response":"present","rt":"2408.2999999821","correct":true,"confidence":-1},{"trial_n":76,"span":10,"encoder":"5766736893","distractor":"5766736890","target":"present","response":"present","rt":"2200","correct":true,"confidence":-1},{"trial_n":77,"span":11,"encoder":"89299288322","distractor":"89259288322","target":"present","response":"present","rt":"8380.599999994","correct":true,"confidence":-1},{"trial_n":78,"span":11,"encoder":"32140762862","distractor":"32149762862","target":"present","response":"absent","rt":"7335.099999994","correct":false,"confidence":-1},{"trial_n":79,"span":10,"encoder":"7190058997","distractor":"7190058998","target":"present","response":"present","rt":"2036.3000000119","correct":true,"confidence":-1},{"trial_n":80,"span":10,"encoder":"1964092723","distractor":"1964062723","target":"present","response":"present","rt":"5829.1999999881","correct":true,"confidence":-1},{"trial_n":81,"span":11,"encoder":"07941974368","distractor":"06941974368","target":"absent","response":"absent","rt":"5212.099999994","correct":true,"confidence":-1},{"trial_n":82,"span":11,"encoder":"00986340452","distractor":"04986340452","target":"absent","response":"absent","rt":"6305.2000000179","correct":true,"confidence":-1},{"trial_n":83,"span":12,"encoder":"617996795506","distractor":"613996795506","target":"present","response":"absent","rt":"3788.8000000119","correct":false,"confidence":-1},{"trial_n":84,"span":11,"encoder":"66094567802","distractor":"66094567812","target":"present","response":"present","rt":"2026.1999999881","correct":true,"confidence":-1},{"trial_n":85,"span":11,"encoder":"72900754983","distractor":"12900754983","target":"absent","response":"absent","rt":"5727.2999999821","correct":true,"confidence":-1},{"trial_n":86,"span":12,"encoder":"236348558520","distractor":"236345558520","target":"absent","response":"absent","rt":"4343.3000000119","correct":true,"confidence":-1},{"trial_n":87,"span":12,"encoder":"076421225901","distractor":"076421221901","target":"absent","response":"absent","rt":"3031.6000000238","correct":true,"confidence":-1},{"trial_n":88,"span":13,"encoder":"0346241211071","distractor":"0346241211021","target":"absent","response":"absent","rt":"2212.5","correct":true,"confidence":-1},{"trial_n":89,"span":13,"encoder":"7860235477918","distractor":"7860235477118","target":"absent","response":"absent","rt":"2330.8000000119","correct":true,"confidence":-1},{"trial_n":90,"span":14,"encoder":"78217481802753","distractor":"78317481802753","target":"present","response":"present","rt":"4846.5","correct":true,"confidence":-1},{"trial_n":91,"span":14,"encoder":"45167616787463","distractor":"45177616787463","target":"present","response":"absent","rt":"10527.700000018","correct":false,"confidence":3},{"trial_n":92,"span":13,"encoder":"7040488582725","distractor":"7540488582725","target":"absent","response":"present","rt":"3615","correct":false,"confidence":3},{"trial_n":93,"span":12,"encoder":"612382962325","distractor":"912382962325","target":"present","response":"present","rt":"2360.5","correct":true,"confidence":5},{"trial_n":94,"span":12,"encoder":"029653677262","distractor":"029653677265","target":"present","response":"present","rt":"7202.099999994","correct":true,"confidence":3},{"trial_n":95,"span":13,"encoder":"5863034259863","distractor":"5863034259869","target":"present","response":"present","rt":"5789.6000000238","correct":true,"confidence":1},{"trial_n":96,"span":13,"encoder":"3382792669696","distractor":"3982792669696","target":"present","response":"absent","rt":"4438.2000000179","correct":false,"confidence":3},{"trial_n":97,"span":12,"encoder":"264446456340","distractor":"268446456340","target":"absent","response":"present","rt":"4011.2000000179","correct":false,"confidence":3},{"trial_n":98,"span":11,"encoder":"97084685306","distractor":"97184685306","target":"absent","response":"absent","rt":"4603.3999999762","correct":true,"confidence":2},{"trial_n":99,"span":11,"encoder":"38548541307","distractor":"38548511307","target":"absent","response":"absent","rt":"8569.5","correct":true,"confidence":3},{"trial_n":100,"span":12,"encoder":"927657634303","distractor":"927657630303","target":"absent","response":"present","rt":"9091.3000000119","correct":false,"confidence":2},{"trial_n":101,"span":11,"encoder":"18150058566","distractor":"18150056566","target":"absent","response":"absent","rt":"8391.900000006","correct":true,"confidence":4},{"trial_n":102,"span":11,"encoder":"38253741855","distractor":"31253741855","target":"absent","response":"absent","rt":"3578","correct":true,"confidence":3},{"trial_n":103,"span":12,"encoder":"854435739561","distractor":"854435739861","target":"present","response":"absent","rt":"7129.2999999821","correct":false,"confidence":3},{"trial_n":104,"span":11,"encoder":"34118328435","distractor":"34119328435","target":"absent","response":"present","rt":"10996.400000006","correct":false,"confidence":4},{"trial_n":105,"span":10,"encoder":"7774586845","distractor":"7774582845","target":"present","response":"present","rt":"4946.6999999881","correct":true,"confidence":4},{"trial_n":106,"span":10,"encoder":"3898161214","distractor":"3898161215","target":"present","response":"present","rt":"2302.2999999821","correct":true,"confidence":5},{"trial_n":107,"span":11,"encoder":"62572698381","distractor":"62572698351","target":"absent","response":"absent","rt":"4045.8999999762","correct":true,"confidence":4},{"trial_n":108,"span":11,"encoder":"17185286361","distractor":"17185289361","target":"present","response":"present","rt":"5019.5","correct":true,"confidence":3},{"trial_n":109,"span":12,"encoder":"093600235119","distractor":"093610235119","target":"absent","response":"absent","rt":"6292.7999999821","correct":true,"confidence":3},{"trial_n":110,"span":12,"encoder":"344381216763","distractor":"324381216763","target":"absent","response":"absent","rt":"4811.900000006","correct":true,"confidence":4},{"trial_n":111,"span":13,"encoder":"3704941681274","distractor":"3754941681274","target":"absent","response":"present","rt":"5730.5","correct":false,"confidence":1},{"trial_n":112,"span":12,"encoder":"269199789751","distractor":"269199789151","target":"absent","response":"absent","rt":"2497.1999999881","correct":true,"confidence":5},{"trial_n":113,"span":12,"encoder":"633966311056","distractor":"033966311056","target":"present","response":"absent","rt":"7566.8999999762","correct":false,"confidence":1},{"trial_n":114,"span":11,"encoder":"16430516267","distractor":"16430516264","target":"absent","response":"absent","rt":"1980.6000000238","correct":true,"confidence":5},{"trial_n":115,"span":11,"encoder":"35380965220","distractor":"35380965226","target":"present","response":"present","rt":"2326.6000000238","correct":true,"confidence":5},{"trial_n":116,"span":12,"encoder":"173396861035","distractor":"173396861037","target":"absent","response":"absent","rt":"1766.5","correct":true,"confidence":5},{"trial_n":117,"span":12,"encoder":"184804277917","distractor":"884804277917","target":"present","response":"present","rt":"4896.3000000119","correct":true,"confidence":2},{"trial_n":118,"span":13,"encoder":"8109202779917","distractor":"8108202779917","target":"present","response":"present","rt":"2437.599999994","correct":true,"confidence":5},{"trial_n":119,"span":13,"encoder":"8126492652482","distractor":"8126492657482","target":"absent","response":"absent","rt":"3664.1999999881","correct":true,"confidence":5},{"trial_n":120,"span":14,"encoder":"74712459632051","distractor":"74712459632651","target":"absent","response":"absent","rt":"4412.3999999762","correct":true,"confidence":2},{"trial_n":121,"span":14,"encoder":"09530352155773","distractor":"09530352155783","target":"present","response":"present","rt":"2805.8000000119","correct":true,"confidence":4},{"trial_n":122,"span":15,"encoder":"525566251648654","distractor":"525566251648651","target":"absent","response":"absent","rt":"1576.400000006","correct":true,"confidence":5},{"trial_n":123,"span":15,"encoder":"776525743725521","distractor":"776525723725521","target":"absent","response":"absent","rt":"6576.7999999821","correct":true,"confidence":1},{"trial_n":124,"span":16,"encoder":"0323753767353823","distractor":"0323753797353823","target":"absent","response":"present","rt":"4850","correct":false,"confidence":1},{"trial_n":125,"span":15,"encoder":"686946794575951","distractor":"606946794575951","target":"present","response":"present","rt":"4507.5","correct":true,"confidence":1},{"trial_n":126,"span":15,"encoder":"264320051994340","distractor":"264320051994320","target":"present","response":"present","rt":"5383.3000000119","correct":true,"confidence":3},{"trial_n":127,"span":16,"encoder":"3267251103666903","distractor":"3267251103666907","target":"present","response":"present","rt":"2511.5","correct":true,"confidence":4},{"trial_n":128,"span":16,"encoder":"9693431303807533","distractor":"9693931303807533","target":"absent","response":"present","rt":"4387.7000000179","correct":false,"confidence":2},{"trial_n":129,"span":15,"encoder":"222890753574869","distractor":"222898753574869","target":"present","response":"present","rt":"5890.400000006","correct":true,"confidence":1},{"trial_n":130,"span":15,"encoder":"732533019147624","distractor":"738533019147624","target":"present","response":"absent","rt":"4735.7999999821","correct":false,"confidence":2},{"trial_n":131,"span":14,"encoder":"24557949029316","distractor":"34557949029316","target":"present","response":"present","rt":"3188.599999994","correct":true,"confidence":4},{"trial_n":132,"span":14,"encoder":"35552807136540","distractor":"35552800136540","target":"present","response":"present","rt":"5064.6999999881","correct":true,"confidence":2},{"trial_n":133,"span":15,"encoder":"450665842308912","distractor":"050665842308912","target":"present","response":"absent","rt":"3335.900000006","correct":false,"confidence":4},{"trial_n":134,"span":14,"encoder":"68494314565495","distractor":"68494314575495","target":"present","response":"absent","rt":"3315.400000006","correct":false,"confidence":1},{"trial_n":135,"span":13,"encoder":"3518387486017","distractor":"3518347486017","target":"absent","response":"present","rt":"3951.5","correct":false,"confidence":1},{"trial_n":136,"span":12,"encoder":"310988075015","distractor":"310988055015","target":"absent","response":"absent","rt":"2097.2999999821","correct":true,"confidence":1},{"trial_n":137,"span":12,"encoder":"812728656252","distractor":"812728656222","target":"present","response":"present","rt":"2321.3999999762","correct":true,"confidence":5},{"trial_n":138,"span":13,"encoder":"0539501720841","distractor":"0539501920841","target":"absent","response":"present","rt":"2297","correct":false,"confidence":2},{"trial_n":139,"span":12,"encoder":"905681350491","distractor":"905681350391","target":"absent","response":"absent","rt":"3348.099999994","correct":true,"confidence":3},{"trial_n":140,"span":12,"encoder":"135428141844","distractor":"135428141744","target":"present","response":"present","rt":"2068.099999994","correct":true,"confidence":5}]