[{"trial_n":1,"min":25,"max":230,"target":"present","response":"present","rt":5336.3000000003,"correct":true,"confidence":-1},{"trial_n":2,"min":25,"max":230,"target":"present","response":"present","rt":831.30000000028,"correct":true,"confidence":-1},{"trial_n":3,"min":41,"max":214,"target":"absent","response":"absent","rt":552.60000000009,"correct":true,"confidence":-1},{"trial_n":4,"min":41,"max":214,"target":"absent","response":"absent","rt":415.79999999981,"correct":true,"confidence":-1},{"trial_n":5,"min":57,"max":198,"target":"present","response":"present","rt":148.80000000028,"correct":true,"confidence":-1},{"trial_n":6,"min":57,"max":198,"target":"absent","response":"present","rt":1013.6000000001,"correct":false,"confidence":-1},{"trial_n":7,"min":41,"max":214,"target":"absent","response":"absent","rt":263.5,"correct":true,"confidence":-1},{"trial_n":8,"min":41,"max":214,"target":"absent","response":"absent","rt":224.5,"correct":true,"confidence":-1},{"trial_n":9,"min":57,"max":198,"target":"present","response":"present","rt":329.79999999981,"correct":true,"confidence":-1},{"trial_n":10,"min":57,"max":198,"target":"present","response":"present","rt":171.60000000009,"correct":true,"confidence":-1},{"trial_n":11,"min":65,"max":190,"target":"present","response":"present","rt":302,"correct":true,"confidence":-1},{"trial_n":12,"min":65,"max":190,"target":"absent","response":"absent","rt":187.09999999963,"correct":true,"confidence":-1},{"trial_n":13,"min":73,"max":182,"target":"absent","response":"absent","rt":204.40000000037,"correct":true,"confidence":-1},{"trial_n":14,"min":73,"max":182,"target":"absent","response":"absent","rt":276.20000000019,"correct":true,"confidence":-1},{"trial_n":15,"min":81,"max":174,"target":"absent","response":"absent","rt":173.5,"correct":true,"confidence":-1},{"trial_n":16,"min":81,"max":174,"target":"present","response":"absent","rt":306.89999999991,"correct":false,"confidence":-1},{"trial_n":17,"min":73,"max":182,"target":"present","response":"present","rt":48.100000000093,"correct":true,"confidence":-1},{"trial_n":18,"min":73,"max":182,"target":"absent","response":"present","rt":199.20000000019,"correct":false,"confidence":-1},{"trial_n":19,"min":65,"max":190,"target":"absent","response":"present","rt":428.89999999991,"correct":false,"confidence":-1},{"trial_n":20,"min":57,"max":198,"target":"present","response":"present","rt":347.29999999981,"correct":true,"confidence":-1},{"trial_n":21,"min":57,"max":198,"target":"absent","response":"present","rt":243.5,"correct":false,"confidence":4},{"trial_n":22,"min":53,"max":202,"target":"absent","response":"absent","rt":1478.0999999996,"correct":true,"confidence":2},{"trial_n":23,"min":53,"max":202,"target":"absent","response":"absent","rt":588.5,"correct":true,"confidence":3},{"trial_n":24,"min":57,"max":198,"target":"present","response":"present","rt":1461.7000000002,"correct":true,"confidence":5},{"trial_n":25,"min":57,"max":198,"target":"present","response":"present","rt":535.29999999981,"correct":true,"confidence":5},{"trial_n":26,"min":61,"max":194,"target":"absent","response":"absent","rt":524.79999999981,"correct":true,"confidence":4},{"trial_n":27,"min":61,"max":194,"target":"absent","response":"present","rt":841,"correct":false,"confidence":3},{"trial_n":28,"min":57,"max":198,"target":"absent","response":"present","rt":575.20000000019,"correct":false,"confidence":3},{"trial_n":29,"min":53,"max":202,"target":"present","response":"present","rt":645.10000000009,"correct":true,"confidence":4},{"trial_n":30,"min":53,"max":202,"target":"present","response":"present","rt":535.39999999991,"correct":true,"confidence":5},{"trial_n":31,"min":55,"max":200,"target":"present","response":"present","rt":597.39999999991,"correct":true,"confidence":4},{"trial_n":32,"min":55,"max":200,"target":"present","response":"present","rt":444.30000000028,"correct":true,"confidence":5},{"trial_n":33,"min":57,"max":198,"target":"present","response":"present","rt":643.10000000009,"correct":true,"confidence":5},{"trial_n":34,"min":57,"max":198,"target":"absent","response":"absent","rt":820.89999999991,"correct":true,"confidence":2},{"trial_n":35,"min":59,"max":196,"target":"absent","response":"absent","rt":607.5,"correct":true,"confidence":5},{"trial_n":36,"min":59,"max":196,"target":"present","response":"present","rt":515.29999999981,"correct":true,"confidence":5},{"trial_n":37,"min":61,"max":194,"target":"present","response":"present","rt":550.79999999981,"correct":true,"confidence":5},{"trial_n":38,"min":61,"max":194,"target":"present","response":"absent","rt":2519.1999999997,"correct":false,"confidence":1},{"trial_n":39,"min":59,"max":196,"target":"absent","response":"absent","rt":1010.1000000001,"correct":true,"confidence":3},{"trial_n":40,"min":59,"max":196,"target":"absent","response":"absent","rt":1729.1000000001,"correct":true,"confidence":4},{"trial_n":41,"min":60,"max":195,"target":"absent","response":"absent","rt":683.69999999972,"correct":true,"confidence":4},{"trial_n":42,"min":60,"max":195,"target":"present","response":"present","rt":726.39999999991,"correct":true,"confidence":5},{"trial_n":43,"min":61,"max":194,"target":"present","response":"present","rt":521.89999999991,"correct":true,"confidence":5},{"trial_n":44,"min":61,"max":194,"target":"present","response":"present","rt":827.09999999963,"correct":true,"confidence":5},{"trial_n":45,"min":62,"max":193,"target":"absent","response":"absent","rt":1132.3999999999,"correct":true,"confidence":4},{"trial_n":46,"min":62,"max":193,"target":"present","response":"present","rt":1434,"correct":true,"confidence":5},{"trial_n":47,"min":63,"max":192,"target":"present","response":"present","rt":916.20000000019,"correct":true,"confidence":5},{"trial_n":48,"min":63,"max":192,"target":"absent","response":"absent","rt":923.19999999972,"correct":true,"confidence":4},{"trial_n":49,"min":64,"max":191,"target":"absent","response":"absent","rt":841.70000000019,"correct":true,"confidence":5},{"trial_n":50,"min":64,"max":191,"target":"present","response":"present","rt":870.10000000009,"correct":true,"confidence":5},{"trial_n":51,"min":65,"max":190,"target":"present","response":"absent","rt":642.79999999981,"correct":false,"confidence":3},{"trial_n":52,"min":64,"max":191,"target":"absent","response":"absent","rt":616.80000000028,"correct":true,"confidence":5},{"trial_n":53,"min":64,"max":191,"target":"absent","response":"absent","rt":1288.7999999998,"correct":true,"confidence":4},{"trial_n":54,"min":65,"max":190,"target":"present","response":"present","rt":845.19999999972,"correct":true,"confidence":4},{"trial_n":55,"min":65,"max":190,"target":"present","response":"present","rt":2525.8999999999,"correct":true,"confidence":4},{"trial_n":56,"min":66,"max":189,"target":"present","response":"present","rt":858.69999999972,"correct":true,"confidence":5},{"trial_n":57,"min":66,"max":189,"target":"present","response":"present","rt":609.29999999981,"correct":true,"confidence":5},{"trial_n":58,"min":67,"max":188,"target":"absent","response":"absent","rt":768.60000000009,"correct":true,"confidence":3},{"trial_n":59,"min":67,"max":188,"target":"absent","response":"absent","rt":742.5,"correct":true,"confidence":5},{"trial_n":60,"min":68,"max":187,"target":"absent","response":"absent","rt":681.29999999981,"correct":true,"confidence":5},{"trial_n":61,"min":68,"max":187,"target":"present","response":"present","rt":900.5,"correct":true,"confidence":4},{"trial_n":62,"min":69,"max":186,"target":"absent","response":"absent","rt":828.30000000028,"correct":true,"confidence":5},{"trial_n":63,"min":69,"max":186,"target":"present","response":"present","rt":797.5,"correct":true,"confidence":5},{"trial_n":64,"min":70,"max":185,"target":"absent","response":"absent","rt":638.79999999981,"correct":true,"confidence":4},{"trial_n":65,"min":70,"max":185,"target":"present","response":"present","rt":598.79999999981,"correct":true,"confidence":5},{"trial_n":66,"min":71,"max":184,"target":"present","response":"present","rt":1236.5,"correct":true,"confidence":5},{"trial_n":67,"min":71,"max":184,"target":"present","response":"present","rt":656.29999999981,"correct":true,"confidence":4},{"trial_n":68,"min":72,"max":183,"target":"present","response":"present","rt":1164.8999999999,"correct":true,"confidence":5},{"trial_n":69,"min":72,"max":183,"target":"absent","response":"absent","rt":797.19999999972,"correct":true,"confidence":3},{"trial_n":70,"min":73,"max":182,"target":"absent","response":"absent","rt":1102.8999999999,"correct":true,"confidence":3},{"trial_n":71,"min":41,"max":214,"target":"present","response":"present","rt":5149.8999999999,"correct":true,"confidence":-1},{"trial_n":72,"min":41,"max":214,"target":"present","response":"present","rt":264.89999999991,"correct":true,"confidence":-1},{"trial_n":73,"min":57,"max":198,"target":"absent","response":"absent","rt":1255.8000000003,"correct":true,"confidence":-1},{"trial_n":74,"min":57,"max":198,"target":"absent","response":"absent","rt":709,"correct":true,"confidence":-1},{"trial_n":75,"min":73,"max":182,"target":"present","response":"present","rt":119.10000000009,"correct":true,"confidence":-1},{"trial_n":76,"min":73,"max":182,"target":"absent","response":"present","rt":2742.2999999998,"correct":false,"confidence":-1},{"trial_n":77,"min":57,"max":198,"target":"absent","response":"absent","rt":682,"correct":true,"confidence":-1},{"trial_n":78,"min":57,"max":198,"target":"present","response":"present","rt":308.39999999991,"correct":true,"confidence":-1},{"trial_n":79,"min":73,"max":182,"target":"absent","response":"absent","rt":1310.6999999997,"correct":true,"confidence":-1},{"trial_n":80,"min":73,"max":182,"target":"present","response":"present","rt":590.29999999981,"correct":true,"confidence":-1},{"trial_n":81,"min":81,"max":174,"target":"present","response":"present","rt":128.19999999972,"correct":true,"confidence":-1},{"trial_n":82,"min":81,"max":174,"target":"present","response":"present","rt":355.09999999963,"correct":true,"confidence":-1},{"trial_n":83,"min":89,"max":166,"target":"absent","response":"absent","rt":2139.1999999997,"correct":true,"confidence":-1},{"trial_n":84,"min":89,"max":166,"target":"present","response":"absent","rt":829.10000000009,"correct":false,"confidence":-1},{"trial_n":85,"min":81,"max":174,"target":"absent","response":"present","rt":639.5,"correct":false,"confidence":-1},{"trial_n":86,"min":73,"max":182,"target":"present","response":"absent","rt":592.80000000028,"correct":false,"confidence":-1},{"trial_n":87,"min":65,"max":190,"target":"present","response":"present","rt":356.79999999981,"correct":true,"confidence":-1},{"trial_n":88,"min":65,"max":190,"target":"present","response":"present","rt":13.200000000186,"correct":true,"confidence":-1},{"trial_n":89,"min":73,"max":182,"target":"absent","response":"absent","rt":179.39999999991,"correct":true,"confidence":-1},{"trial_n":90,"min":73,"max":182,"target":"present","response":"present","rt":80.599999999627,"correct":true,"confidence":-1},{"trial_n":91,"min":77,"max":178,"target":"absent","response":"absent","rt":785.79999999981,"correct":true,"confidence":3},{"trial_n":92,"min":77,"max":178,"target":"absent","response":"absent","rt":810,"correct":true,"confidence":4},{"trial_n":93,"min":81,"max":174,"target":"present","response":"present","rt":663.79999999981,"correct":true,"confidence":4},{"trial_n":94,"min":81,"max":174,"target":"present","response":"present","rt":668.5,"correct":true,"confidence":4},{"trial_n":95,"min":85,"max":170,"target":"present","response":"present","rt":397,"correct":true,"confidence":5},{"trial_n":96,"min":85,"max":170,"target":"present","response":"present","rt":466.10000000009,"correct":true,"confidence":5},{"trial_n":97,"min":89,"max":166,"target":"present","response":"absent","rt":1395,"correct":false,"confidence":3},{"trial_n":98,"min":85,"max":170,"target":"present","response":"present","rt":1184.3999999999,"correct":true,"confidence":3},{"trial_n":99,"min":85,"max":170,"target":"absent","response":"present","rt":937.79999999981,"correct":false,"confidence":3},{"trial_n":100,"min":81,"max":174,"target":"present","response":"present","rt":765.39999999991,"correct":true,"confidence":4},{"trial_n":101,"min":81,"max":174,"target":"present","response":"present","rt":935.29999999981,"correct":true,"confidence":5},{"trial_n":102,"min":83,"max":172,"target":"absent","response":"absent","rt":494,"correct":true,"confidence":3},{"trial_n":103,"min":83,"max":172,"target":"present","response":"present","rt":648.89999999991,"correct":true,"confidence":4},{"trial_n":104,"min":85,"max":170,"target":"absent","response":"present","rt":1109.5,"correct":false,"confidence":4},{"trial_n":105,"min":83,"max":172,"target":"present","response":"present","rt":880.39999999991,"correct":true,"confidence":5},{"trial_n":106,"min":83,"max":172,"target":"present","response":"present","rt":366.60000000009,"correct":true,"confidence":5},{"trial_n":107,"min":85,"max":170,"target":"absent","response":"absent","rt":1034.8999999999,"correct":true,"confidence":4},{"trial_n":108,"min":85,"max":170,"target":"absent","response":"absent","rt":844.10000000009,"correct":true,"confidence":4},{"trial_n":109,"min":87,"max":168,"target":"present","response":"present","rt":373.79999999981,"correct":true,"confidence":4},{"trial_n":110,"min":87,"max":168,"target":"present","response":"absent","rt":1054.9000000004,"correct":false,"confidence":3},{"trial_n":111,"min":86,"max":169,"target":"absent","response":"present","rt":769.70000000019,"correct":false,"confidence":3},{"trial_n":112,"min":85,"max":170,"target":"present","response":"present","rt":367.29999999981,"correct":true,"confidence":5},{"trial_n":113,"min":85,"max":170,"target":"absent","response":"absent","rt":1468.2000000002,"correct":true,"confidence":2},{"trial_n":114,"min":86,"max":169,"target":"present","response":"present","rt":535.80000000028,"correct":true,"confidence":4},{"trial_n":115,"min":86,"max":169,"target":"present","response":"absent","rt":851,"correct":false,"confidence":4},{"trial_n":116,"min":85,"max":170,"target":"absent","response":"absent","rt":1064.8999999999,"correct":true,"confidence":4},{"trial_n":117,"min":85,"max":170,"target":"absent","response":"absent","rt":1093.5,"correct":true,"confidence":4},{"trial_n":118,"min":86,"max":169,"target":"absent","response":"present","rt":461.29999999981,"correct":false,"confidence":3},{"trial_n":119,"min":85,"max":170,"target":"absent","response":"absent","rt":598.5,"correct":true,"confidence":4},{"trial_n":120,"min":85,"max":170,"target":"present","response":"present","rt":1393.6000000001,"correct":true,"confidence":4},{"trial_n":121,"min":86,"max":169,"target":"absent","response":"present","rt":293.79999999981,"correct":false,"confidence":4},{"trial_n":122,"min":85,"max":170,"target":"absent","response":"present","rt":526.29999999981,"correct":false,"confidence":4},{"trial_n":123,"min":84,"max":171,"target":"absent","response":"absent","rt":357.79999999981,"correct":true,"confidence":3},{"trial_n":124,"min":84,"max":171,"target":"absent","response":"present","rt":552.19999999972,"correct":false,"confidence":3},{"trial_n":125,"min":83,"max":172,"target":"absent","response":"absent","rt":283.60000000009,"correct":true,"confidence":3},{"trial_n":126,"min":83,"max":172,"target":"present","response":"present","rt":222.39999999991,"correct":true,"confidence":4},{"trial_n":127,"min":84,"max":171,"target":"present","response":"present","rt":632.69999999972,"correct":true,"confidence":4},{"trial_n":128,"min":84,"max":171,"target":"absent","response":"present","rt":511.30000000028,"correct":false,"confidence":4},{"trial_n":129,"min":83,"max":172,"target":"present","response":"present","rt":44.099999999627,"correct":true,"confidence":4},{"trial_n":130,"min":83,"max":172,"target":"present","response":"present","rt":460.10000000009,"correct":true,"confidence":4},{"trial_n":131,"min":84,"max":171,"target":"absent","response":"absent","rt":590,"correct":true,"confidence":4},{"trial_n":132,"min":84,"max":171,"target":"present","response":"present","rt":206,"correct":true,"confidence":1},{"trial_n":133,"min":85,"max":170,"target":"absent","response":"absent","rt":1033.0999999996,"correct":true,"confidence":3},{"trial_n":134,"min":85,"max":170,"target":"present","response":"absent","rt":745.10000000009,"correct":false,"confidence":4},{"trial_n":135,"min":84,"max":171,"target":"absent","response":"absent","rt":579,"correct":true,"confidence":3},{"trial_n":136,"min":84,"max":171,"target":"absent","response":"present","rt":2105.8999999999,"correct":false,"confidence":1},{"trial_n":137,"min":83,"max":172,"target":"present","response":"present","rt":267.59999999963,"correct":true,"confidence":4},{"trial_n":138,"min":83,"max":172,"target":"absent","response":"absent","rt":558.09999999963,"correct":true,"confidence":4},{"trial_n":139,"min":84,"max":171,"target":"absent","response":"absent","rt":671.39999999991,"correct":true,"confidence":5},{"trial_n":140,"min":84,"max":171,"target":"absent","response":"absent","rt":1266.8999999999,"correct":true,"confidence":4}]