[{"trial_n":1,"span":8,"encoder":"53121053","distractor":"53120053","target":"present","response":"present","rt":"6132.5","correct":true,"confidence":-1},{"trial_n":2,"span":8,"encoder":"57419032","distractor":"37419032","target":"present","response":"present","rt":"3333.5999999642","correct":true,"confidence":-1},{"trial_n":3,"span":10,"encoder":"4192727338","distractor":"9192727338","target":"absent","response":"present","rt":"10400.400000036","correct":false,"confidence":-1},{"trial_n":4,"span":8,"encoder":"84184150","distractor":"84183150","target":"absent","response":"absent","rt":"3781.5","correct":true,"confidence":-1},{"trial_n":5,"span":8,"encoder":"96322688","distractor":"96622688","target":"present","response":"present","rt":"2300.6999999881","correct":true,"confidence":-1},{"trial_n":6,"span":10,"encoder":"5543886190","distractor":"5543886110","target":"absent","response":"present","rt":"3043.4000000358","correct":false,"confidence":-1},{"trial_n":7,"span":8,"encoder":"06608663","distractor":"76608663","target":"absent","response":"absent","rt":"3603.1000000238","correct":true,"confidence":-1},{"trial_n":8,"span":8,"encoder":"18489333","distractor":"18489313","target":"present","response":"present","rt":"1346.3000000119","correct":true,"confidence":-1},{"trial_n":9,"span":10,"encoder":"2110625525","distractor":"2110625505","target":"present","response":"present","rt":"1348.6999999881","correct":true,"confidence":-1},{"trial_n":10,"span":10,"encoder":"4884195878","distractor":"4884195808","target":"present","response":"present","rt":"936.40000003576","correct":true,"confidence":-1},{"trial_n":11,"span":12,"encoder":"867447447729","distractor":"067447447729","target":"present","response":"present","rt":"2570.7000000477","correct":true,"confidence":-1},{"trial_n":12,"span":12,"encoder":"575531765756","distractor":"575531755756","target":"absent","response":"present","rt":"3719.8999999762","correct":false,"confidence":-1},{"trial_n":13,"span":11,"encoder":"62600720320","distractor":"62600730320","target":"present","response":"present","rt":"2626.8999999762","correct":true,"confidence":-1},{"trial_n":14,"span":11,"encoder":"98671423648","distractor":"98971423648","target":"absent","response":"absent","rt":"2475.5","correct":true,"confidence":-1},{"trial_n":15,"span":12,"encoder":"804056653734","distractor":"804076653734","target":"absent","response":"present","rt":"1748.3000000119","correct":false,"confidence":-1},{"trial_n":16,"span":11,"encoder":"69963756612","distractor":"69943756612","target":"present","response":"present","rt":"8425.1999999881","correct":true,"confidence":-1},{"trial_n":17,"span":11,"encoder":"91168546569","distractor":"91168566569","target":"absent","response":"present","rt":"2263.4000000358","correct":false,"confidence":-1},{"trial_n":18,"span":10,"encoder":"4964436855","distractor":"4964436885","target":"present","response":"absent","rt":"2183.5","correct":false,"confidence":-1},{"trial_n":19,"span":9,"encoder":"166887579","distractor":"166687579","target":"absent","response":"present","rt":"2661.3000000119","correct":false,"confidence":-1},{"trial_n":20,"span":8,"encoder":"20770970","distractor":"24770970","target":"absent","response":"present","rt":"3343.6999999881","correct":false,"confidence":-1},{"trial_n":21,"span":7,"encoder":"2788951","distractor":"2788971","target":"present","response":"present","rt":"2673.5","correct":true,"confidence":5},{"trial_n":22,"span":7,"encoder":"2845669","distractor":"2815669","target":"absent","response":"absent","rt":"2903","correct":true,"confidence":4},{"trial_n":23,"span":8,"encoder":"78164877","distractor":"78166877","target":"absent","response":"absent","rt":"4811.8999999762","correct":true,"confidence":5},{"trial_n":24,"span":8,"encoder":"98068959","distractor":"98068952","target":"absent","response":"absent","rt":"4513.1999999881","correct":true,"confidence":5},{"trial_n":25,"span":9,"encoder":"613982873","distractor":"613989873","target":"present","response":"absent","rt":"4631.2000000477","correct":false,"confidence":4},{"trial_n":26,"span":8,"encoder":"69637307","distractor":"69637207","target":"present","response":"present","rt":"3641.6999999881","correct":true,"confidence":4},{"trial_n":27,"span":8,"encoder":"79636452","distractor":"79036452","target":"present","response":"absent","rt":"9247.3999999762","correct":false,"confidence":4},{"trial_n":28,"span":7,"encoder":"4666577","distractor":"4666537","target":"present","response":"present","rt":"2335.3000000119","correct":true,"confidence":5},{"trial_n":29,"span":7,"encoder":"2963786","distractor":"2963766","target":"absent","response":"absent","rt":"2557.3999999762","correct":true,"confidence":4},{"trial_n":30,"span":8,"encoder":"10242314","distractor":"00242314","target":"absent","response":"absent","rt":"8380.3999999762","correct":true,"confidence":3},{"trial_n":31,"span":8,"encoder":"02026357","distractor":"02026356","target":"present","response":"present","rt":"3641.0999999642","correct":true,"confidence":5},{"trial_n":32,"span":9,"encoder":"354993029","distractor":"354993022","target":"absent","response":"absent","rt":"2480.9000000358","correct":true,"confidence":5},{"trial_n":33,"span":9,"encoder":"060563605","distractor":"060561605","target":"present","response":"present","rt":"7368.3000000119","correct":true,"confidence":4},{"trial_n":34,"span":10,"encoder":"1137262246","distractor":"8137262246","target":"absent","response":"absent","rt":"2369.9000000358","correct":true,"confidence":5},{"trial_n":35,"span":10,"encoder":"2217985858","distractor":"2217985758","target":"present","response":"present","rt":"5734.6000000238","correct":true,"confidence":4},{"trial_n":36,"span":11,"encoder":"16401838465","distractor":"16401878465","target":"present","response":"present","rt":"4199.6999999881","correct":true,"confidence":3},{"trial_n":37,"span":11,"encoder":"55660326503","distractor":"55665326503","target":"absent","response":"present","rt":"4903.8000000119","correct":false,"confidence":4},{"trial_n":38,"span":10,"encoder":"8222239158","distractor":"3222239158","target":"present","response":"present","rt":"3355","correct":true,"confidence":5},{"trial_n":39,"span":10,"encoder":"5033905443","distractor":"5033905423","target":"absent","response":"absent","rt":"2813.7999999523","correct":true,"confidence":4},{"trial_n":40,"span":11,"encoder":"20175741343","distractor":"20174741343","target":"present","response":"present","rt":"4139.3999999762","correct":true,"confidence":3},{"trial_n":41,"span":11,"encoder":"24328922177","distractor":"24328932177","target":"absent","response":"absent","rt":"7166.1000000238","correct":true,"confidence":3},{"trial_n":42,"span":12,"encoder":"249613246213","distractor":"249113246213","target":"present","response":"present","rt":"5417","correct":true,"confidence":3},{"trial_n":43,"span":12,"encoder":"054486317948","distractor":"054486317940","target":"absent","response":"absent","rt":"2676.1000000238","correct":true,"confidence":5},{"trial_n":44,"span":13,"encoder":"8355574133642","distractor":"8355584133642","target":"present","response":"present","rt":"4870.4000000358","correct":true,"confidence":4},{"trial_n":45,"span":13,"encoder":"6487099929865","distractor":"6987099929865","target":"absent","response":"present","rt":"6512.0999999642","correct":false,"confidence":4},{"trial_n":46,"span":12,"encoder":"347858958940","distractor":"347858951940","target":"absent","response":"present","rt":"7896.7000000477","correct":false,"confidence":3},{"trial_n":47,"span":11,"encoder":"12434290690","distractor":"52434290690","target":"absent","response":"absent","rt":"10082.599999964","correct":true,"confidence":5},{"trial_n":48,"span":11,"encoder":"07116487144","distractor":"07116487344","target":"absent","response":"present","rt":"2072.5","correct":false,"confidence":4},{"trial_n":49,"span":10,"encoder":"5107468724","distractor":"5107768724","target":"absent","response":"absent","rt":"2500.5","correct":true,"confidence":3},{"trial_n":50,"span":10,"encoder":"7079213731","distractor":"7079213771","target":"present","response":"present","rt":"4351.3999999762","correct":true,"confidence":4},{"trial_n":51,"span":11,"encoder":"77861696171","distractor":"77891696171","target":"present","response":"present","rt":"5062.3999999762","correct":true,"confidence":4},{"trial_n":52,"span":11,"encoder":"13413981223","distractor":"13413988223","target":"present","response":"present","rt":"7064.2999999523","correct":true,"confidence":5},{"trial_n":53,"span":12,"encoder":"020725478005","distractor":"020725471005","target":"present","response":"present","rt":"3621.8999999762","correct":true,"confidence":4},{"trial_n":54,"span":12,"encoder":"716904909869","distractor":"746904909869","target":"absent","response":"present","rt":"2718.5","correct":false,"confidence":3},{"trial_n":55,"span":11,"encoder":"69288448920","distractor":"69288445920","target":"present","response":"present","rt":"5024.5","correct":true,"confidence":3},{"trial_n":56,"span":11,"encoder":"75691697891","distractor":"75691691891","target":"absent","response":"present","rt":"2848.0999999642","correct":false,"confidence":4},{"trial_n":57,"span":10,"encoder":"4709366490","distractor":"4709366690","target":"present","response":"present","rt":"1921.3000000119","correct":true,"confidence":3},{"trial_n":58,"span":10,"encoder":"6767191638","distractor":"6769191638","target":"absent","response":"absent","rt":"4835.8000000119","correct":true,"confidence":3},{"trial_n":59,"span":11,"encoder":"31972167810","distractor":"31972967810","target":"present","response":"present","rt":"2738.5","correct":true,"confidence":3},{"trial_n":60,"span":11,"encoder":"95266744926","distractor":"95266745926","target":"present","response":"present","rt":"3902","correct":true,"confidence":4},{"trial_n":61,"span":12,"encoder":"827286478410","distractor":"837286478410","target":"present","response":"absent","rt":"3520.1000000238","correct":false,"confidence":2},{"trial_n":62,"span":11,"encoder":"50337841700","distractor":"50337891700","target":"absent","response":"present","rt":"3124.3000000119","correct":false,"confidence":3},{"trial_n":63,"span":10,"encoder":"6400881973","distractor":"6400888973","target":"present","response":"present","rt":"2084.8000000119","correct":true,"confidence":4},{"trial_n":64,"span":10,"encoder":"8571134368","distractor":"8571134318","target":"present","response":"present","rt":"3924","correct":true,"confidence":4},{"trial_n":65,"span":11,"encoder":"70970688764","distractor":"70970688714","target":"absent","response":"present","rt":"1803.8999999762","correct":false,"confidence":3},{"trial_n":66,"span":10,"encoder":"7057428008","distractor":"7077428008","target":"absent","response":"absent","rt":"2566.3999999762","correct":true,"confidence":3},{"trial_n":67,"span":10,"encoder":"2136306730","distractor":"2136306740","target":"absent","response":"present","rt":"2570.6999999881","correct":false,"confidence":3},{"trial_n":68,"span":9,"encoder":"503030204","distractor":"503030274","target":"present","response":"present","rt":"5262.7999999523","correct":true,"confidence":3},{"trial_n":69,"span":9,"encoder":"803101815","distractor":"803101885","target":"present","response":"present","rt":"3506.0999999642","correct":true,"confidence":4},{"trial_n":70,"span":10,"encoder":"8684680979","distractor":"8684680977","target":"absent","response":"absent","rt":"2848.8000000119","correct":true,"confidence":4},{"trial_n":71,"span":8,"encoder":"26407430","distractor":"86407430","target":"present","response":"present","rt":"2436","correct":true,"confidence":-1},{"trial_n":72,"span":8,"encoder":"73741423","distractor":"13741423","target":"present","response":"present","rt":"5454.1000000238","correct":true,"confidence":-1},{"trial_n":73,"span":9,"encoder":"143289268","distractor":"143289868","target":"absent","response":"present","rt":"13187.400000036","correct":false,"confidence":-1},{"trial_n":74,"span":8,"encoder":"06188726","distractor":"06158726","target":"absent","response":"absent","rt":"6810.6000000238","correct":true,"confidence":-1},{"trial_n":75,"span":8,"encoder":"39770309","distractor":"39772309","target":"present","response":"present","rt":"5047","correct":true,"confidence":-1},{"trial_n":76,"span":9,"encoder":"239785347","distractor":"239780347","target":"present","response":"absent","rt":"4222.2000000477","correct":false,"confidence":-1},{"trial_n":77,"span":8,"encoder":"28021301","distractor":"28021701","target":"absent","response":"present","rt":"4773.6999999881","correct":false,"confidence":-1},{"trial_n":78,"span":7,"encoder":"5392448","distractor":"5392648","target":"present","response":"present","rt":"1829.8999999762","correct":true,"confidence":-1},{"trial_n":79,"span":7,"encoder":"9513494","distractor":"9533494","target":"present","response":"present","rt":"4859.3000000119","correct":true,"confidence":-1},{"trial_n":80,"span":8,"encoder":"03051911","distractor":"03061911","target":"absent","response":"absent","rt":"3591","correct":true,"confidence":-1},{"trial_n":81,"span":8,"encoder":"97590664","distractor":"95590664","target":"present","response":"present","rt":"7364.1000000238","correct":true,"confidence":-1},{"trial_n":82,"span":9,"encoder":"515808822","distractor":"515804822","target":"absent","response":"absent","rt":"2378.0999999642","correct":true,"confidence":-1},{"trial_n":83,"span":9,"encoder":"442390451","distractor":"492390451","target":"absent","response":"present","rt":"6039.9000000358","correct":false,"confidence":-1},{"trial_n":84,"span":8,"encoder":"14662287","distractor":"14660287","target":"absent","response":"absent","rt":"2760.8000000119","correct":true,"confidence":-1},{"trial_n":85,"span":8,"encoder":"17064316","distractor":"17064366","target":"absent","response":"absent","rt":"3364.5","correct":true,"confidence":-1},{"trial_n":86,"span":9,"encoder":"840543582","distractor":"840513582","target":"present","response":"present","rt":"9418.4000000358","correct":true,"confidence":-1},{"trial_n":87,"span":9,"encoder":"795740567","distractor":"795770567","target":"absent","response":"present","rt":"2466.3000000119","correct":false,"confidence":-1},{"trial_n":88,"span":8,"encoder":"56139340","distractor":"56139390","target":"absent","response":"absent","rt":"860.09999996424","correct":true,"confidence":-1},{"trial_n":89,"span":8,"encoder":"77156877","distractor":"77159877","target":"absent","response":"present","rt":"5674.8999999762","correct":false,"confidence":-1},{"trial_n":90,"span":7,"encoder":"8701740","distractor":"8781740","target":"absent","response":"absent","rt":"1907.3999999762","correct":true,"confidence":-1},{"trial_n":91,"span":7,"encoder":"3522099","distractor":"3522799","target":"absent","response":"absent","rt":"3408.1999999881","correct":true,"confidence":5},{"trial_n":92,"span":8,"encoder":"68993081","distractor":"68923081","target":"absent","response":"absent","rt":"2632","correct":true,"confidence":5},{"trial_n":93,"span":8,"encoder":"37687959","distractor":"37487959","target":"present","response":"present","rt":"8473.5","correct":true,"confidence":3},{"trial_n":94,"span":9,"encoder":"627288114","distractor":"697288114","target":"absent","response":"present","rt":"7649.5","correct":false,"confidence":2},{"trial_n":95,"span":8,"encoder":"85559321","distractor":"85549321","target":"absent","response":"absent","rt":"2072.3000000119","correct":true,"confidence":5},{"trial_n":96,"span":8,"encoder":"04661216","distractor":"07661216","target":"present","response":"present","rt":"5428.5","correct":true,"confidence":4},{"trial_n":97,"span":9,"encoder":"495799712","distractor":"495799719","target":"absent","response":"absent","rt":"5078.8000000119","correct":true,"confidence":4},{"trial_n":98,"span":9,"encoder":"711258096","distractor":"731258096","target":"absent","response":"absent","rt":"3132.1000000238","correct":true,"confidence":4},{"trial_n":99,"span":10,"encoder":"0526589131","distractor":"0526589121","target":"absent","response":"absent","rt":"3328.3000000119","correct":true,"confidence":4},{"trial_n":100,"span":10,"encoder":"8861772973","distractor":"8861771973","target":"present","response":"absent","rt":"8215.7000000477","correct":false,"confidence":3},{"trial_n":101,"span":9,"encoder":"107703281","distractor":"107703211","target":"present","response":"present","rt":"5657.6000000238","correct":true,"confidence":4},{"trial_n":102,"span":9,"encoder":"152412310","distractor":"153412310","target":"absent","response":"present","rt":"9228.2999999523","correct":false,"confidence":2},{"trial_n":103,"span":8,"encoder":"56989892","distractor":"96989892","target":"absent","response":"present","rt":"2236.6000000238","correct":false,"confidence":3},{"trial_n":104,"span":7,"encoder":"7213923","distractor":"8213923","target":"absent","response":"absent","rt":"2386.6000000238","correct":true,"confidence":5},{"trial_n":105,"span":7,"encoder":"6201894","distractor":"6201394","target":"present","response":"present","rt":"4712.0999999642","correct":true,"confidence":5},{"trial_n":106,"span":8,"encoder":"30238915","distractor":"30238615","target":"present","response":"present","rt":"5159.1999999881","correct":true,"confidence":5},{"trial_n":107,"span":8,"encoder":"10672882","distractor":"10972882","target":"present","response":"present","rt":"6030.3999999762","correct":true,"confidence":4},{"trial_n":108,"span":9,"encoder":"628567269","distractor":"628567069","target":"absent","response":"absent","rt":"7782","correct":true,"confidence":3},{"trial_n":109,"span":9,"encoder":"560451433","distractor":"160451433","target":"present","response":"present","rt":"6585.9000000358","correct":true,"confidence":4},{"trial_n":110,"span":10,"encoder":"4533226317","distractor":"4533225317","target":"present","response":"present","rt":"10880.399999976","correct":true,"confidence":3},{"trial_n":111,"span":10,"encoder":"8485363288","distractor":"8485363283","target":"absent","response":"absent","rt":"2232.5","correct":true,"confidence":5},{"trial_n":112,"span":11,"encoder":"95266193749","distractor":"95266193745","target":"present","response":"present","rt":"3596.1999999881","correct":true,"confidence":4},{"trial_n":113,"span":11,"encoder":"80808471799","distractor":"80108471799","target":"present","response":"present","rt":"3478.5","correct":true,"confidence":5},{"trial_n":114,"span":12,"encoder":"831450326250","distractor":"831450726250","target":"present","response":"absent","rt":"16556.5","correct":false,"confidence":1},{"trial_n":115,"span":11,"encoder":"36189020293","distractor":"36189820293","target":"absent","response":"present","rt":"8815.1999999881","correct":false,"confidence":1},{"trial_n":116,"span":10,"encoder":"9900636489","distractor":"9900736489","target":"absent","response":"absent","rt":"3407.8000000119","correct":true,"confidence":4},{"trial_n":117,"span":10,"encoder":"1239951681","distractor":"1939951681","target":"present","response":"present","rt":"5217.7999999523","correct":true,"confidence":4},{"trial_n":118,"span":11,"encoder":"84510102808","distractor":"84510102801","target":"present","response":"present","rt":"2470.5","correct":true,"confidence":4},{"trial_n":119,"span":11,"encoder":"07685780179","distractor":"07685780149","target":"absent","response":"present","rt":"6314.4000000358","correct":false,"confidence":4},{"trial_n":120,"span":10,"encoder":"7311859415","distractor":"7311859615","target":"present","response":"present","rt":"5477.9000000358","correct":true,"confidence":3},{"trial_n":121,"span":10,"encoder":"1756428675","distractor":"1786428675","target":"present","response":"absent","rt":"9176.2999999523","correct":false,"confidence":3},{"trial_n":122,"span":9,"encoder":"696356010","distractor":"596356010","target":"present","response":"absent","rt":"6238.8999999762","correct":false,"confidence":2},{"trial_n":123,"span":8,"encoder":"93101668","distractor":"93101664","target":"absent","response":"absent","rt":"2990.8000000119","correct":true,"confidence":5},{"trial_n":124,"span":8,"encoder":"75308273","distractor":"75308973","target":"absent","response":"absent","rt":"6556.8000000119","correct":true,"confidence":4},{"trial_n":125,"span":9,"encoder":"048879950","distractor":"048879957","target":"present","response":"absent","rt":"7237.4000000358","correct":false,"confidence":4},{"trial_n":126,"span":8,"encoder":"34211998","distractor":"34218998","target":"absent","response":"absent","rt":"4844.8999999762","correct":true,"confidence":4},{"trial_n":127,"span":8,"encoder":"98716209","distractor":"98706209","target":"present","response":"absent","rt":"5928","correct":false,"confidence":4},{"trial_n":128,"span":7,"encoder":"8870915","distractor":"8870965","target":"present","response":"present","rt":"5477.6000000238","correct":true,"confidence":3},{"trial_n":129,"span":7,"encoder":"2000564","distractor":"2080564","target":"absent","response":"absent","rt":"1909.5","correct":true,"confidence":5},{"trial_n":130,"span":8,"encoder":"49842889","distractor":"49842389","target":"absent","response":"absent","rt":"4930.7999999523","correct":true,"confidence":2},{"trial_n":131,"span":8,"encoder":"27327169","distractor":"87327169","target":"present","response":"present","rt":"2865.5999999642","correct":true,"confidence":5},{"trial_n":132,"span":9,"encoder":"218445164","distractor":"218445174","target":"present","response":"present","rt":"6675.1999999881","correct":true,"confidence":2},{"trial_n":133,"span":9,"encoder":"302747941","distractor":"702747941","target":"present","response":"absent","rt":"5276.8000000119","correct":false,"confidence":4},{"trial_n":134,"span":8,"encoder":"86802654","distractor":"87802654","target":"present","response":"present","rt":"6650.1999999881","correct":true,"confidence":3},{"trial_n":135,"span":8,"encoder":"69564377","distractor":"69564397","target":"absent","response":"absent","rt":"1313.3000000119","correct":true,"confidence":5},{"trial_n":136,"span":9,"encoder":"270699828","distractor":"270693828","target":"present","response":"present","rt":"2147.3000000119","correct":true,"confidence":5},{"trial_n":137,"span":9,"encoder":"591403027","distractor":"591403026","target":"present","response":"present","rt":"3185.1999999881","correct":true,"confidence":5},{"trial_n":138,"span":10,"encoder":"3949311033","distractor":"3949811033","target":"present","response":"present","rt":"5013.9000000358","correct":true,"confidence":3},{"trial_n":139,"span":10,"encoder":"7564805343","distractor":"7564805363","target":"present","response":"present","rt":"4871.1000000238","correct":true,"confidence":4},{"trial_n":140,"span":11,"encoder":"89678504549","distractor":"89678508549","target":"absent","response":"absent","rt":"4565.8999999762","correct":true,"confidence":4}]