[{"trial_n":1,"n_dots":4.25,"target":"left","response":"left","rt":2983,"correct":true,"confidence":-1},{"trial_n":2,"n_dots":4.25,"target":"right","response":"left","rt":3305,"correct":false,"confidence":-1},{"trial_n":3,"n_dots":4.65,"target":"right","response":"right","rt":2142,"correct":true,"confidence":-1},{"trial_n":4,"n_dots":4.65,"target":"left","response":"left","rt":2128,"correct":true,"confidence":-1},{"trial_n":5,"n_dots":4.25,"target":"left","response":"right","rt":1142,"correct":false,"confidence":-1},{"trial_n":6,"n_dots":4.65,"target":"right","response":"right","rt":2056,"correct":true,"confidence":-1},{"trial_n":7,"n_dots":4.65,"target":"right","response":"right","rt":1849,"correct":true,"confidence":-1},{"trial_n":8,"n_dots":4.45,"target":"left","response":"left","rt":909,"correct":true,"confidence":-1},{"trial_n":9,"n_dots":4.45,"target":"left","response":"right","rt":1314,"correct":false,"confidence":-1},{"trial_n":10,"n_dots":4.65,"target":"left","response":"left","rt":5379,"correct":true,"confidence":-1},{"trial_n":11,"n_dots":4.65,"target":"right","response":"left","rt":265,"correct":false,"confidence":-1},{"trial_n":12,"n_dots":4.85,"target":"right","response":"right","rt":3443,"correct":true,"confidence":-1},{"trial_n":13,"n_dots":4.85,"target":"left","response":"left","rt":885,"correct":true,"confidence":-1},{"trial_n":14,"n_dots":4.75,"target":"left","response":"right","rt":1258,"correct":false,"confidence":-1},{"trial_n":15,"n_dots":4.85,"target":"right","response":"right","rt":1322,"correct":true,"confidence":-1},{"trial_n":16,"n_dots":4.85,"target":"left","response":"right","rt":2772,"correct":false,"confidence":-1},{"trial_n":17,"n_dots":4.95,"target":"right","response":"left","rt":206,"correct":false,"confidence":-1},{"trial_n":18,"n_dots":5.05,"target":"right","response":"right","rt":1514,"correct":true,"confidence":-1},{"trial_n":19,"n_dots":5.05,"target":"right","response":"right","rt":293,"correct":true,"confidence":-1},{"trial_n":20,"n_dots":4.95,"target":"right","response":"right","rt":1289,"correct":true,"confidence":-1},{"trial_n":21,"n_dots":4.95,"target":"left","response":"left","rt":1692,"correct":true,"confidence":2},{"trial_n":22,"n_dots":4.85,"target":"left","response":"right","rt":1337,"correct":false,"confidence":3},{"trial_n":23,"n_dots":4.95,"target":"right","response":"right","rt":389,"correct":true,"confidence":3},{"trial_n":24,"n_dots":4.95,"target":"left","response":"left","rt":943,"correct":true,"confidence":3},{"trial_n":25,"n_dots":4.85,"target":"left","response":"left","rt":914,"correct":true,"confidence":3},{"trial_n":26,"n_dots":4.85,"target":"right","response":"right","rt":713,"correct":true,"confidence":4},{"trial_n":27,"n_dots":4.75,"target":"right","response":"right","rt":676,"correct":true,"confidence":4},{"trial_n":28,"n_dots":4.75,"target":"right","response":"right","rt":683.99999999999,"correct":true,"confidence":4},{"trial_n":29,"n_dots":4.65,"target":"right","response":"right","rt":557,"correct":true,"confidence":4},{"trial_n":30,"n_dots":4.65,"target":"right","response":"right","rt":483,"correct":true,"confidence":4},{"trial_n":31,"n_dots":4.55,"target":"right","response":"right","rt":545,"correct":true,"confidence":4},{"trial_n":32,"n_dots":4.55,"target":"left","response":"left","rt":1633,"correct":true,"confidence":4},{"trial_n":33,"n_dots":4.45,"target":"left","response":"right","rt":1285,"correct":false,"confidence":3},{"trial_n":34,"n_dots":4.55,"target":"right","response":"right","rt":547,"correct":true,"confidence":3},{"trial_n":35,"n_dots":4.55,"target":"left","response":"right","rt":2069,"correct":false,"confidence":3},{"trial_n":36,"n_dots":4.65,"target":"right","response":"right","rt":799.99999999997,"correct":true,"confidence":3},{"trial_n":37,"n_dots":4.65,"target":"right","response":"right","rt":643,"correct":true,"confidence":3},{"trial_n":38,"n_dots":4.55,"target":"left","response":"right","rt":1376,"correct":false,"confidence":2},{"trial_n":39,"n_dots":4.65,"target":"left","response":"right","rt":2029,"correct":false,"confidence":1},{"trial_n":40,"n_dots":4.75,"target":"right","response":"right","rt":944.99999999997,"correct":true,"confidence":2},{"trial_n":41,"n_dots":4.75,"target":"left","response":"left","rt":2289,"correct":true,"confidence":2},{"trial_n":42,"n_dots":4.65,"target":"right","response":"right","rt":1601,"correct":true,"confidence":2},{"trial_n":43,"n_dots":4.65,"target":"left","response":"left","rt":798.00000000003,"correct":true,"confidence":2},{"trial_n":44,"n_dots":4.55,"target":"right","response":"right","rt":976,"correct":true,"confidence":2},{"trial_n":45,"n_dots":4.55,"target":"left","response":"left","rt":706.99999999997,"correct":true,"confidence":2},{"trial_n":46,"n_dots":4.45,"target":"left","response":"left","rt":1313,"correct":true,"confidence":3},{"trial_n":47,"n_dots":4.45,"target":"right","response":"right","rt":835,"correct":true,"confidence":3},{"trial_n":48,"n_dots":4.35,"target":"left","response":"left","rt":715,"correct":true,"confidence":3},{"trial_n":49,"n_dots":4.35,"target":"right","response":"right","rt":631,"correct":true,"confidence":3},{"trial_n":50,"n_dots":4.25,"target":"left","response":"left","rt":1371,"correct":true,"confidence":3},{"trial_n":51,"n_dots":4.25,"target":"left","response":"left","rt":397,"correct":true,"confidence":2},{"trial_n":52,"n_dots":4.15,"target":"left","response":"left","rt":1683,"correct":true,"confidence":1},{"trial_n":53,"n_dots":4.15,"target":"right","response":"right","rt":798,"correct":true,"confidence":1},{"trial_n":54,"n_dots":4.05,"target":"right","response":"right","rt":897,"correct":true,"confidence":3},{"trial_n":55,"n_dots":4.05,"target":"right","response":"right","rt":774,"correct":true,"confidence":3},{"trial_n":56,"n_dots":3.95,"target":"left","response":"left","rt":587,"correct":true,"confidence":2},{"trial_n":57,"n_dots":3.95,"target":"right","response":"right","rt":1086,"correct":true,"confidence":2},{"trial_n":58,"n_dots":3.85,"target":"right","response":"right","rt":722,"correct":true,"confidence":1},{"trial_n":59,"n_dots":3.85,"target":"right","response":"right","rt":902,"correct":true,"confidence":2},{"trial_n":60,"n_dots":3.75,"target":"right","response":"right","rt":680,"correct":true,"confidence":3},{"trial_n":61,"n_dots":3.75,"target":"left","response":"right","rt":413,"correct":false,"confidence":3},{"trial_n":62,"n_dots":3.85,"target":"right","response":"right","rt":601,"correct":true,"confidence":1},{"trial_n":63,"n_dots":3.85,"target":"left","response":"right","rt":784,"correct":false,"confidence":2},{"trial_n":64,"n_dots":3.95,"target":"right","response":"right","rt":564,"correct":true,"confidence":2},{"trial_n":65,"n_dots":3.95,"target":"left","response":"right","rt":645,"correct":false,"confidence":2},{"trial_n":66,"n_dots":4.05,"target":"right","response":"right","rt":603,"correct":true,"confidence":2},{"trial_n":67,"n_dots":4.05,"target":"right","response":"left","rt":2006,"correct":false,"confidence":3},{"trial_n":68,"n_dots":4.15,"target":"right","response":"right","rt":1188,"correct":true,"confidence":3},{"trial_n":69,"n_dots":4.15,"target":"right","response":"left","rt":864,"correct":false,"confidence":3},{"trial_n":70,"n_dots":4.25,"target":"right","response":"left","rt":523,"correct":false,"confidence":3},{"trial_n":71,"n_dots":4.35,"target":"left","response":"left","rt":372,"correct":true,"confidence":3},{"trial_n":72,"n_dots":4.35,"target":"right","response":"right","rt":666.00000000006,"correct":true,"confidence":3},{"trial_n":73,"n_dots":4.25,"target":"left","response":"left","rt":499.00000000006,"correct":true,"confidence":3},{"trial_n":74,"n_dots":4.25,"target":"left","response":"left","rt":192,"correct":true,"confidence":2},{"trial_n":75,"n_dots":4.15,"target":"right","response":"right","rt":798,"correct":true,"confidence":4},{"trial_n":76,"n_dots":4.15,"target":"right","response":"right","rt":1387,"correct":true,"confidence":3},{"trial_n":77,"n_dots":4.05,"target":"left","response":"left","rt":446,"correct":true,"confidence":3},{"trial_n":78,"n_dots":4.05,"target":"left","response":"left","rt":424,"correct":true,"confidence":3},{"trial_n":79,"n_dots":3.95,"target":"left","response":"left","rt":324,"correct":true,"confidence":3},{"trial_n":80,"n_dots":3.95,"target":"right","response":"right","rt":1498,"correct":true,"confidence":3},{"trial_n":81,"n_dots":3.85,"target":"left","response":"right","rt":1046,"correct":false,"confidence":3},{"trial_n":82,"n_dots":3.95,"target":"left","response":"right","rt":1057,"correct":false,"confidence":3},{"trial_n":83,"n_dots":4.05,"target":"left","response":"right","rt":1440,"correct":false,"confidence":3},{"trial_n":84,"n_dots":4.15,"target":"left","response":"left","rt":466,"correct":true,"confidence":3},{"trial_n":85,"n_dots":4.15,"target":"right","response":"right","rt":1095,"correct":true,"confidence":3},{"trial_n":86,"n_dots":4.05,"target":"left","response":"left","rt":432,"correct":true,"confidence":3},{"trial_n":87,"n_dots":4.05,"target":"left","response":"left","rt":609,"correct":true,"confidence":3},{"trial_n":88,"n_dots":3.95,"target":"right","response":"right","rt":946,"correct":true,"confidence":3},{"trial_n":89,"n_dots":3.95,"target":"left","response":"left","rt":210,"correct":true,"confidence":2},{"trial_n":90,"n_dots":3.85,"target":"right","response":"left","rt":378.00000000006,"correct":false,"confidence":1},{"trial_n":91,"n_dots":3.95,"target":"left","response":"right","rt":596.99999999994,"correct":false,"confidence":3},{"trial_n":92,"n_dots":4.05,"target":"left","response":"left","rt":510.99999999994,"correct":true,"confidence":2},{"trial_n":93,"n_dots":4.05,"target":"left","response":"left","rt":766,"correct":true,"confidence":3},{"trial_n":94,"n_dots":3.95,"target":"right","response":"right","rt":673,"correct":true,"confidence":3},{"trial_n":95,"n_dots":3.95,"target":"right","response":"right","rt":1001,"correct":true,"confidence":3},{"trial_n":96,"n_dots":3.85,"target":"right","response":"right","rt":596,"correct":true,"confidence":3},{"trial_n":97,"n_dots":3.85,"target":"left","response":"left","rt":696,"correct":true,"confidence":3},{"trial_n":98,"n_dots":3.75,"target":"left","response":"left","rt":547,"correct":true,"confidence":3},{"trial_n":99,"n_dots":3.75,"target":"right","response":"right","rt":701,"correct":true,"confidence":3},{"trial_n":100,"n_dots":3.65,"target":"right","response":"left","rt":259,"correct":false,"confidence":3},{"trial_n":101,"n_dots":3.75,"target":"right","response":"right","rt":624,"correct":true,"confidence":3},{"trial_n":102,"n_dots":3.75,"target":"left","response":"right","rt":647.99999999994,"correct":false,"confidence":2},{"trial_n":103,"n_dots":3.85,"target":"left","response":"right","rt":418,"correct":false,"confidence":3},{"trial_n":104,"n_dots":3.95,"target":"left","response":"left","rt":2828,"correct":true,"confidence":3},{"trial_n":105,"n_dots":3.95,"target":"left","response":"right","rt":664,"correct":false,"confidence":3},{"trial_n":106,"n_dots":4.05,"target":"right","response":"right","rt":551.00000000006,"correct":true,"confidence":3},{"trial_n":107,"n_dots":4.05,"target":"right","response":"right","rt":662.00000000006,"correct":true,"confidence":3},{"trial_n":108,"n_dots":3.95,"target":"right","response":"left","rt":1491,"correct":false,"confidence":3},{"trial_n":109,"n_dots":4.05,"target":"right","response":"right","rt":495,"correct":true,"confidence":3},{"trial_n":110,"n_dots":4.05,"target":"left","response":"right","rt":445.00000000006,"correct":false,"confidence":3},{"trial_n":111,"n_dots":4.15,"target":"left","response":"right","rt":757,"correct":false,"confidence":3},{"trial_n":112,"n_dots":4.25,"target":"left","response":"right","rt":401,"correct":false,"confidence":3},{"trial_n":113,"n_dots":4.35,"target":"right","response":"right","rt":386,"correct":true,"confidence":3},{"trial_n":114,"n_dots":4.35,"target":"left","response":"left","rt":710,"correct":true,"confidence":3},{"trial_n":115,"n_dots":4.25,"target":"left","response":"left","rt":594,"correct":true,"confidence":4},{"trial_n":116,"n_dots":4.25,"target":"right","response":"right","rt":535,"correct":true,"confidence":4},{"trial_n":117,"n_dots":4.15,"target":"left","response":"left","rt":1020,"correct":true,"confidence":3},{"trial_n":118,"n_dots":4.15,"target":"left","response":"left","rt":725,"correct":true,"confidence":3},{"trial_n":119,"n_dots":4.05,"target":"right","response":"right","rt":513,"correct":true,"confidence":4},{"trial_n":120,"n_dots":4.05,"target":"left","response":"right","rt":944,"correct":false,"confidence":4}]