[{"trial_n":1,"n_dots":4.25,"target":"left","response":"left","rt":6487,"correct":true,"confidence":-1},{"trial_n":2,"n_dots":4.25,"target":"right","response":"right","rt":756,"correct":true,"confidence":-1},{"trial_n":3,"n_dots":3.85,"target":"left","response":"right","rt":644,"correct":false,"confidence":-1},{"trial_n":4,"n_dots":4.25,"target":"right","response":"right","rt":754,"correct":true,"confidence":-1},{"trial_n":5,"n_dots":4.25,"target":"right","response":"left","rt":591,"correct":false,"confidence":-1},{"trial_n":6,"n_dots":4.65,"target":"right","response":"right","rt":546,"correct":true,"confidence":-1},{"trial_n":7,"n_dots":4.65,"target":"left","response":"left","rt":562,"correct":true,"confidence":-1},{"trial_n":8,"n_dots":4.45,"target":"right","response":"left","rt":1276,"correct":false,"confidence":-1},{"trial_n":9,"n_dots":4.65,"target":"right","response":"right","rt":493,"correct":true,"confidence":-1},{"trial_n":10,"n_dots":4.65,"target":"left","response":"left","rt":579,"correct":true,"confidence":-1},{"trial_n":11,"n_dots":4.45,"target":"left","response":"left","rt":476,"correct":true,"confidence":-1},{"trial_n":12,"n_dots":4.45,"target":"left","response":"left","rt":462,"correct":true,"confidence":-1},{"trial_n":13,"n_dots":4.35,"target":"right","response":"right","rt":576.00000000001,"correct":true,"confidence":-1},{"trial_n":14,"n_dots":4.35,"target":"left","response":"left","rt":478.00000000001,"correct":true,"confidence":-1},{"trial_n":15,"n_dots":4.25,"target":"right","response":"right","rt":677.00000000001,"correct":true,"confidence":-1},{"trial_n":16,"n_dots":4.25,"target":"left","response":"left","rt":228.00000000001,"correct":true,"confidence":-1},{"trial_n":17,"n_dots":4.15,"target":"left","response":"left","rt":496,"correct":true,"confidence":-1},{"trial_n":18,"n_dots":4.15,"target":"left","response":"left","rt":460.00000000001,"correct":true,"confidence":-1},{"trial_n":19,"n_dots":4.05,"target":"left","response":"left","rt":445,"correct":true,"confidence":-1},{"trial_n":20,"n_dots":4.05,"target":"right","response":"right","rt":444,"correct":true,"confidence":-1},{"trial_n":21,"n_dots":3.95,"target":"left","response":"left","rt":462,"correct":true,"confidence":3},{"trial_n":22,"n_dots":3.95,"target":"right","response":"left","rt":1111,"correct":false,"confidence":3},{"trial_n":23,"n_dots":4.05,"target":"left","response":"left","rt":512,"correct":true,"confidence":5},{"trial_n":24,"n_dots":4.05,"target":"right","response":"left","rt":1060,"correct":false,"confidence":4},{"trial_n":25,"n_dots":4.15,"target":"left","response":"left","rt":897.00000000001,"correct":true,"confidence":5},{"trial_n":26,"n_dots":4.15,"target":"right","response":"left","rt":1129,"correct":false,"confidence":2},{"trial_n":27,"n_dots":4.25,"target":"left","response":"left","rt":430,"correct":true,"confidence":5},{"trial_n":28,"n_dots":4.25,"target":"right","response":"right","rt":748,"correct":true,"confidence":4},{"trial_n":29,"n_dots":4.15,"target":"right","response":"left","rt":1111,"correct":false,"confidence":2},{"trial_n":30,"n_dots":4.25,"target":"right","response":"right","rt":2315,"correct":true,"confidence":3},{"trial_n":31,"n_dots":4.25,"target":"right","response":"right","rt":829,"correct":true,"confidence":3},{"trial_n":32,"n_dots":4.15,"target":"left","response":"left","rt":444.00000000001,"correct":true,"confidence":5},{"trial_n":33,"n_dots":4.15,"target":"left","response":"left","rt":381,"correct":true,"confidence":5},{"trial_n":34,"n_dots":4.05,"target":"right","response":"right","rt":997,"correct":true,"confidence":1},{"trial_n":35,"n_dots":4.05,"target":"right","response":"left","rt":830,"correct":false,"confidence":2},{"trial_n":36,"n_dots":4.15,"target":"right","response":"right","rt":696,"correct":true,"confidence":3},{"trial_n":37,"n_dots":4.15,"target":"left","response":"left","rt":529,"correct":true,"confidence":4},{"trial_n":38,"n_dots":4.05,"target":"left","response":"left","rt":464,"correct":true,"confidence":5},{"trial_n":39,"n_dots":4.05,"target":"right","response":"left","rt":461.99999999997,"correct":false,"confidence":4},{"trial_n":40,"n_dots":4.15,"target":"right","response":"right","rt":365.00000000003,"correct":true,"confidence":4},{"trial_n":41,"n_dots":4.15,"target":"right","response":"right","rt":719,"correct":true,"confidence":3},{"trial_n":42,"n_dots":4.05,"target":"left","response":"left","rt":498,"correct":true,"confidence":4},{"trial_n":43,"n_dots":4.05,"target":"right","response":"right","rt":434,"correct":true,"confidence":4},{"trial_n":44,"n_dots":3.95,"target":"left","response":"left","rt":400,"correct":true,"confidence":5},{"trial_n":45,"n_dots":3.95,"target":"left","response":"left","rt":386,"correct":true,"confidence":5},{"trial_n":46,"n_dots":3.85,"target":"left","response":"left","rt":267.00000000006,"correct":true,"confidence":5},{"trial_n":47,"n_dots":3.85,"target":"right","response":"left","rt":602.00000000006,"correct":false,"confidence":3},{"trial_n":48,"n_dots":3.95,"target":"right","response":"right","rt":599.00000000006,"correct":true,"confidence":2},{"trial_n":49,"n_dots":3.95,"target":"right","response":"right","rt":581.00000000006,"correct":true,"confidence":2},{"trial_n":50,"n_dots":3.85,"target":"left","response":"left","rt":303,"correct":true,"confidence":5},{"trial_n":51,"n_dots":3.85,"target":"right","response":"left","rt":1249,"correct":false,"confidence":1},{"trial_n":52,"n_dots":3.95,"target":"left","response":"left","rt":237,"correct":true,"confidence":5},{"trial_n":53,"n_dots":3.95,"target":"right","response":"right","rt":638.99999999994,"correct":true,"confidence":3},{"trial_n":54,"n_dots":3.85,"target":"left","response":"left","rt":307.99999999994,"correct":true,"confidence":4},{"trial_n":55,"n_dots":3.85,"target":"left","response":"left","rt":808,"correct":true,"confidence":5},{"trial_n":56,"n_dots":3.75,"target":"left","response":"left","rt":295,"correct":true,"confidence":5},{"trial_n":57,"n_dots":3.75,"target":"left","response":"left","rt":281,"correct":true,"confidence":5},{"trial_n":58,"n_dots":3.65,"target":"right","response":"right","rt":550,"correct":true,"confidence":3},{"trial_n":59,"n_dots":3.65,"target":"right","response":"left","rt":1217,"correct":false,"confidence":1},{"trial_n":60,"n_dots":3.75,"target":"right","response":"right","rt":951,"correct":true,"confidence":1},{"trial_n":61,"n_dots":3.75,"target":"left","response":"left","rt":499,"correct":true,"confidence":5},{"trial_n":62,"n_dots":3.65,"target":"left","response":"left","rt":254,"correct":true,"confidence":5},{"trial_n":63,"n_dots":3.65,"target":"left","response":"left","rt":505,"correct":true,"confidence":1},{"trial_n":64,"n_dots":3.55,"target":"right","response":"left","rt":472.00000000006,"correct":false,"confidence":2},{"trial_n":65,"n_dots":3.65,"target":"left","response":"left","rt":140,"correct":true,"confidence":5},{"trial_n":66,"n_dots":3.65,"target":"left","response":"left","rt":305.99999999994,"correct":true,"confidence":5},{"trial_n":67,"n_dots":3.55,"target":"left","response":"left","rt":604,"correct":true,"confidence":5},{"trial_n":68,"n_dots":3.55,"target":"right","response":"left","rt":139,"correct":false,"confidence":4},{"trial_n":69,"n_dots":3.65,"target":"right","response":"right","rt":408,"correct":true,"confidence":1},{"trial_n":70,"n_dots":3.65,"target":"left","response":"left","rt":605,"correct":true,"confidence":4},{"trial_n":71,"n_dots":3.55,"target":"left","response":"left","rt":354,"correct":true,"confidence":5},{"trial_n":72,"n_dots":3.55,"target":"left","response":"left","rt":174,"correct":true,"confidence":5},{"trial_n":73,"n_dots":3.45,"target":"right","response":"left","rt":602,"correct":false,"confidence":2},{"trial_n":74,"n_dots":3.55,"target":"right","response":"left","rt":673.99999999994,"correct":false,"confidence":1},{"trial_n":75,"n_dots":3.65,"target":"left","response":"left","rt":306,"correct":true,"confidence":4},{"trial_n":76,"n_dots":3.65,"target":"right","response":"right","rt":1439,"correct":true,"confidence":2},{"trial_n":77,"n_dots":3.55,"target":"right","response":"right","rt":457,"correct":true,"confidence":2},{"trial_n":78,"n_dots":3.55,"target":"right","response":"left","rt":3624,"correct":false,"confidence":1},{"trial_n":79,"n_dots":3.65,"target":"right","response":"left","rt":639,"correct":false,"confidence":3},{"trial_n":80,"n_dots":3.75,"target":"right","response":"right","rt":424.99999999994,"correct":true,"confidence":3},{"trial_n":81,"n_dots":3.75,"target":"right","response":"right","rt":987,"correct":true,"confidence":2},{"trial_n":82,"n_dots":3.65,"target":"left","response":"left","rt":259.99999999994,"correct":true,"confidence":4},{"trial_n":83,"n_dots":3.65,"target":"right","response":"left","rt":895,"correct":false,"confidence":3},{"trial_n":84,"n_dots":3.75,"target":"left","response":"left","rt":394,"correct":true,"confidence":3},{"trial_n":85,"n_dots":3.75,"target":"left","response":"left","rt":2776.9999999999,"correct":true,"confidence":1},{"trial_n":86,"n_dots":3.65,"target":"left","response":"left","rt":243.00000000012,"correct":true,"confidence":3},{"trial_n":87,"n_dots":3.65,"target":"left","response":"left","rt":196,"correct":true,"confidence":3},{"trial_n":88,"n_dots":3.55,"target":"left","response":"left","rt":310,"correct":true,"confidence":3},{"trial_n":89,"n_dots":3.55,"target":"left","response":"left","rt":126.99999999988,"correct":true,"confidence":3},{"trial_n":90,"n_dots":3.45,"target":"right","response":"right","rt":411,"correct":true,"confidence":4},{"trial_n":91,"n_dots":3.45,"target":"right","response":"left","rt":395,"correct":false,"confidence":4},{"trial_n":92,"n_dots":3.55,"target":"right","response":"left","rt":154.99999999988,"correct":false,"confidence":4},{"trial_n":93,"n_dots":3.65,"target":"right","response":"left","rt":746,"correct":false,"confidence":4},{"trial_n":94,"n_dots":3.75,"target":"left","response":"left","rt":263,"correct":true,"confidence":4},{"trial_n":95,"n_dots":3.75,"target":"left","response":"left","rt":2191,"correct":true,"confidence":1},{"trial_n":96,"n_dots":3.65,"target":"right","response":"right","rt":156,"correct":true,"confidence":3},{"trial_n":97,"n_dots":3.65,"target":"left","response":"left","rt":191,"correct":true,"confidence":3},{"trial_n":98,"n_dots":3.55,"target":"right","response":"right","rt":655,"correct":true,"confidence":3},{"trial_n":99,"n_dots":3.55,"target":"right","response":"left","rt":492,"correct":false,"confidence":1},{"trial_n":100,"n_dots":3.65,"target":"right","response":"right","rt":748,"correct":true,"confidence":1},{"trial_n":101,"n_dots":3.65,"target":"right","response":"left","rt":597,"correct":false,"confidence":2},{"trial_n":102,"n_dots":3.75,"target":"left","response":"left","rt":215,"correct":true,"confidence":2},{"trial_n":103,"n_dots":3.75,"target":"left","response":"left","rt":360,"correct":true,"confidence":2},{"trial_n":104,"n_dots":3.65,"target":"left","response":"left","rt":397,"correct":true,"confidence":3},{"trial_n":105,"n_dots":3.65,"target":"right","response":"left","rt":561.00000000012,"correct":false,"confidence":1},{"trial_n":106,"n_dots":3.75,"target":"left","response":"left","rt":412,"correct":true,"confidence":1},{"trial_n":107,"n_dots":3.75,"target":"left","response":"left","rt":495,"correct":true,"confidence":1},{"trial_n":108,"n_dots":3.65,"target":"right","response":"right","rt":662,"correct":true,"confidence":2},{"trial_n":109,"n_dots":3.65,"target":"left","response":"left","rt":378,"correct":true,"confidence":3},{"trial_n":110,"n_dots":3.55,"target":"left","response":"left","rt":593,"correct":true,"confidence":3},{"trial_n":111,"n_dots":3.55,"target":"right","response":"left","rt":428,"correct":false,"confidence":3},{"trial_n":112,"n_dots":3.65,"target":"left","response":"left","rt":712,"correct":true,"confidence":2},{"trial_n":113,"n_dots":3.65,"target":"left","response":"left","rt":1129,"correct":true,"confidence":2},{"trial_n":114,"n_dots":3.55,"target":"right","response":"right","rt":646.00000000012,"correct":true,"confidence":3},{"trial_n":115,"n_dots":3.55,"target":"right","response":"right","rt":1094,"correct":true,"confidence":2},{"trial_n":116,"n_dots":3.45,"target":"left","response":"left","rt":582,"correct":true,"confidence":2},{"trial_n":117,"n_dots":3.45,"target":"right","response":"left","rt":263,"correct":false,"confidence":2},{"trial_n":118,"n_dots":3.55,"target":"right","response":"right","rt":416.00000000012,"correct":true,"confidence":3},{"trial_n":119,"n_dots":3.55,"target":"left","response":"left","rt":612,"correct":true,"confidence":2},{"trial_n":120,"n_dots":3.45,"target":"right","response":"right","rt":449,"correct":true,"confidence":4}]