[{"trial_n":1,"min":25,"max":230,"target":"present","response":"absent","rt":10453.700000048,"correct":false,"confidence":-1},{"trial_n":2,"min":25,"max":230,"target":"present","response":"present","rt":4771.0999999642,"correct":true,"confidence":-1},{"trial_n":3,"min":25,"max":230,"target":"absent","response":"absent","rt":1465.9000000358,"correct":true,"confidence":-1},{"trial_n":4,"min":41,"max":214,"target":"absent","response":"absent","rt":771.29999995232,"correct":true,"confidence":-1},{"trial_n":5,"min":41,"max":214,"target":"present","response":"present","rt":566.80000001192,"correct":true,"confidence":-1},{"trial_n":6,"min":57,"max":198,"target":"present","response":"present","rt":492.5,"correct":true,"confidence":-1},{"trial_n":7,"min":57,"max":198,"target":"absent","response":"absent","rt":1444.8000000119,"correct":true,"confidence":-1},{"trial_n":8,"min":73,"max":182,"target":"present","response":"present","rt":514.89999997616,"correct":true,"confidence":-1},{"trial_n":9,"min":73,"max":182,"target":"absent","response":"absent","rt":755.5,"correct":true,"confidence":-1},{"trial_n":10,"min":89,"max":166,"target":"present","response":"absent","rt":608.40000003576,"correct":false,"confidence":-1},{"trial_n":11,"min":81,"max":174,"target":"present","response":"present","rt":536.60000002384,"correct":true,"confidence":-1},{"trial_n":12,"min":81,"max":174,"target":"absent","response":"absent","rt":555.59999996424,"correct":true,"confidence":-1},{"trial_n":13,"min":89,"max":166,"target":"present","response":"absent","rt":635.69999998808,"correct":false,"confidence":-1},{"trial_n":14,"min":81,"max":174,"target":"present","response":"present","rt":580,"correct":true,"confidence":-1},{"trial_n":15,"min":81,"max":174,"target":"absent","response":"absent","rt":606.20000004768,"correct":true,"confidence":-1},{"trial_n":16,"min":89,"max":166,"target":"absent","response":"absent","rt":546.69999998808,"correct":true,"confidence":-1},{"trial_n":17,"min":89,"max":166,"target":"absent","response":"absent","rt":646.09999996424,"correct":true,"confidence":-1},{"trial_n":18,"min":97,"max":158,"target":"absent","response":"absent","rt":530.30000001192,"correct":true,"confidence":-1},{"trial_n":19,"min":97,"max":158,"target":"absent","response":"present","rt":810.40000003576,"correct":false,"confidence":-1},{"trial_n":20,"min":89,"max":166,"target":"absent","response":"absent","rt":607.29999995232,"correct":true,"confidence":-1},{"trial_n":21,"min":89,"max":166,"target":"present","response":"absent","rt":622,"correct":false,"confidence":3},{"trial_n":22,"min":85,"max":170,"target":"present","response":"present","rt":652.29999995232,"correct":true,"confidence":4},{"trial_n":23,"min":85,"max":170,"target":"absent","response":"absent","rt":670.89999997616,"correct":true,"confidence":3},{"trial_n":24,"min":89,"max":166,"target":"present","response":"present","rt":2164.6000000238,"correct":true,"confidence":3},{"trial_n":25,"min":89,"max":166,"target":"absent","response":"present","rt":1252.6000000238,"correct":false,"confidence":3},{"trial_n":26,"min":85,"max":170,"target":"present","response":"present","rt":1183.4000000358,"correct":true,"confidence":3},{"trial_n":27,"min":85,"max":170,"target":"present","response":"present","rt":923.10000002384,"correct":true,"confidence":4},{"trial_n":28,"min":89,"max":166,"target":"present","response":"present","rt":871.09999996424,"correct":true,"confidence":3},{"trial_n":29,"min":89,"max":166,"target":"absent","response":"absent","rt":2127.6000000238,"correct":true,"confidence":2},{"trial_n":30,"min":93,"max":162,"target":"absent","response":"absent","rt":1634.5999999642,"correct":true,"confidence":3},{"trial_n":31,"min":93,"max":162,"target":"present","response":"absent","rt":3615.1999999881,"correct":false,"confidence":1},{"trial_n":32,"min":91,"max":164,"target":"present","response":"absent","rt":1794.3000000119,"correct":false,"confidence":3},{"trial_n":33,"min":89,"max":166,"target":"present","response":"absent","rt":1461.0999999642,"correct":false,"confidence":2},{"trial_n":34,"min":87,"max":168,"target":"absent","response":"absent","rt":1556.8999999762,"correct":true,"confidence":2},{"trial_n":35,"min":87,"max":168,"target":"absent","response":"absent","rt":1128.7999999523,"correct":true,"confidence":2},{"trial_n":36,"min":89,"max":166,"target":"present","response":"present","rt":748.80000001192,"correct":true,"confidence":3},{"trial_n":37,"min":89,"max":166,"target":"absent","response":"present","rt":949.69999998808,"correct":false,"confidence":2},{"trial_n":38,"min":87,"max":168,"target":"absent","response":"present","rt":956.39999997616,"correct":false,"confidence":2},{"trial_n":39,"min":85,"max":170,"target":"present","response":"present","rt":656.59999996424,"correct":true,"confidence":4},{"trial_n":40,"min":85,"max":170,"target":"present","response":"present","rt":595.89999997616,"correct":true,"confidence":4},{"trial_n":41,"min":86,"max":169,"target":"absent","response":"absent","rt":840.60000002384,"correct":true,"confidence":3},{"trial_n":42,"min":86,"max":169,"target":"absent","response":"absent","rt":793.5,"correct":true,"confidence":2},{"trial_n":43,"min":87,"max":168,"target":"absent","response":"absent","rt":910.40000003576,"correct":true,"confidence":4},{"trial_n":44,"min":87,"max":168,"target":"present","response":"present","rt":862.89999997616,"correct":true,"confidence":4},{"trial_n":45,"min":88,"max":167,"target":"absent","response":"absent","rt":793.10000002384,"correct":true,"confidence":2},{"trial_n":46,"min":88,"max":167,"target":"present","response":"present","rt":628.29999995232,"correct":true,"confidence":3},{"trial_n":47,"min":89,"max":166,"target":"present","response":"absent","rt":934.80000001192,"correct":false,"confidence":3},{"trial_n":48,"min":88,"max":167,"target":"absent","response":"absent","rt":1561.6999999881,"correct":true,"confidence":2},{"trial_n":49,"min":88,"max":167,"target":"present","response":"present","rt":837.19999998808,"correct":true,"confidence":4},{"trial_n":50,"min":89,"max":166,"target":"present","response":"present","rt":832.39999997616,"correct":true,"confidence":3},{"trial_n":51,"min":89,"max":166,"target":"absent","response":"absent","rt":930.79999995232,"correct":true,"confidence":2},{"trial_n":52,"min":90,"max":165,"target":"present","response":"absent","rt":2170.5,"correct":false,"confidence":1},{"trial_n":53,"min":89,"max":166,"target":"present","response":"absent","rt":1941.8000000119,"correct":false,"confidence":1},{"trial_n":54,"min":88,"max":167,"target":"absent","response":"absent","rt":945.69999998808,"correct":true,"confidence":3},{"trial_n":55,"min":88,"max":167,"target":"present","response":"present","rt":560.5,"correct":true,"confidence":4},{"trial_n":56,"min":89,"max":166,"target":"absent","response":"absent","rt":999,"correct":true,"confidence":2},{"trial_n":57,"min":89,"max":166,"target":"absent","response":"absent","rt":831.59999996424,"correct":true,"confidence":3},{"trial_n":58,"min":90,"max":165,"target":"absent","response":"absent","rt":628.80000001192,"correct":true,"confidence":3},{"trial_n":59,"min":90,"max":165,"target":"present","response":"present","rt":1162,"correct":true,"confidence":3},{"trial_n":60,"min":91,"max":164,"target":"present","response":"present","rt":2285.8000000119,"correct":true,"confidence":1},{"trial_n":61,"min":91,"max":164,"target":"present","response":"present","rt":688.30000001192,"correct":true,"confidence":3},{"trial_n":62,"min":92,"max":163,"target":"present","response":"present","rt":574.90000003576,"correct":true,"confidence":4},{"trial_n":63,"min":92,"max":163,"target":"absent","response":"absent","rt":808.79999995232,"correct":true,"confidence":3},{"trial_n":64,"min":93,"max":162,"target":"present","response":"absent","rt":666.40000003576,"correct":false,"confidence":2},{"trial_n":65,"min":92,"max":163,"target":"absent","response":"absent","rt":601,"correct":true,"confidence":4},{"trial_n":66,"min":92,"max":163,"target":"absent","response":"absent","rt":875.5,"correct":true,"confidence":4},{"trial_n":67,"min":93,"max":162,"target":"absent","response":"absent","rt":658.30000001192,"correct":true,"confidence":3},{"trial_n":68,"min":93,"max":162,"target":"absent","response":"absent","rt":738.10000002384,"correct":true,"confidence":3},{"trial_n":69,"min":94,"max":161,"target":"present","response":"present","rt":592.60000002384,"correct":true,"confidence":3},{"trial_n":70,"min":94,"max":161,"target":"present","response":"present","rt":1418.7000000477,"correct":true,"confidence":2},{"trial_n":71,"min":41,"max":214,"target":"present","response":"present","rt":2845.3999999762,"correct":true,"confidence":-1},{"trial_n":72,"min":41,"max":214,"target":"present","response":"present","rt":600.80000001192,"correct":true,"confidence":-1},{"trial_n":73,"min":57,"max":198,"target":"absent","response":"absent","rt":706.70000004768,"correct":true,"confidence":-1},{"trial_n":74,"min":57,"max":198,"target":"absent","response":"present","rt":584.5,"correct":false,"confidence":-1},{"trial_n":75,"min":41,"max":214,"target":"present","response":"present","rt":487.5,"correct":true,"confidence":-1},{"trial_n":76,"min":41,"max":214,"target":"absent","response":"absent","rt":546.80000001192,"correct":true,"confidence":-1},{"trial_n":77,"min":57,"max":198,"target":"absent","response":"absent","rt":535.60000002384,"correct":true,"confidence":-1},{"trial_n":78,"min":57,"max":198,"target":"absent","response":"absent","rt":1164.1000000238,"correct":true,"confidence":-1},{"trial_n":79,"min":73,"max":182,"target":"present","response":"present","rt":539.19999998808,"correct":true,"confidence":-1},{"trial_n":80,"min":73,"max":182,"target":"present","response":"present","rt":578.89999997616,"correct":true,"confidence":-1},{"trial_n":81,"min":81,"max":174,"target":"absent","response":"absent","rt":564.80000001192,"correct":true,"confidence":-1},{"trial_n":82,"min":81,"max":174,"target":"present","response":"present","rt":553.90000003576,"correct":true,"confidence":-1},{"trial_n":83,"min":89,"max":166,"target":"present","response":"present","rt":873.80000001192,"correct":true,"confidence":-1},{"trial_n":84,"min":89,"max":166,"target":"present","response":"present","rt":1537.8999999762,"correct":true,"confidence":-1},{"trial_n":85,"min":97,"max":158,"target":"present","response":"present","rt":690,"correct":true,"confidence":-1},{"trial_n":86,"min":97,"max":158,"target":"present","response":"present","rt":900.5,"correct":true,"confidence":-1},{"trial_n":87,"min":105,"max":150,"target":"absent","response":"absent","rt":774.80000001192,"correct":true,"confidence":-1},{"trial_n":88,"min":105,"max":150,"target":"absent","response":"present","rt":1104.3000000119,"correct":false,"confidence":-1},{"trial_n":89,"min":97,"max":158,"target":"present","response":"absent","rt":654.90000003576,"correct":false,"confidence":-1},{"trial_n":90,"min":89,"max":166,"target":"absent","response":"absent","rt":883.60000002384,"correct":true,"confidence":-1},{"trial_n":91,"min":89,"max":166,"target":"absent","response":"absent","rt":1358.6999999881,"correct":true,"confidence":1},{"trial_n":92,"min":93,"max":162,"target":"absent","response":"present","rt":730.30000001192,"correct":false,"confidence":2},{"trial_n":93,"min":89,"max":166,"target":"absent","response":"present","rt":753.79999995232,"correct":false,"confidence":2},{"trial_n":94,"min":85,"max":170,"target":"present","response":"present","rt":2079.1999999881,"correct":true,"confidence":5},{"trial_n":95,"min":85,"max":170,"target":"present","response":"present","rt":858,"correct":true,"confidence":5},{"trial_n":96,"min":89,"max":166,"target":"present","response":"present","rt":1297.8999999762,"correct":true,"confidence":5},{"trial_n":97,"min":89,"max":166,"target":"present","response":"present","rt":1102.0999999642,"correct":true,"confidence":5},{"trial_n":98,"min":93,"max":162,"target":"present","response":"present","rt":2918,"correct":true,"confidence":2},{"trial_n":99,"min":93,"max":162,"target":"absent","response":"present","rt":1669,"correct":false,"confidence":1},{"trial_n":100,"min":89,"max":166,"target":"absent","response":"present","rt":1210.0999999642,"correct":false,"confidence":2},{"trial_n":101,"min":87,"max":168,"target":"absent","response":"absent","rt":1092.3999999762,"correct":true,"confidence":3},{"trial_n":102,"min":87,"max":168,"target":"present","response":"present","rt":804.10000002384,"correct":true,"confidence":5},{"trial_n":103,"min":89,"max":166,"target":"present","response":"present","rt":1320.6000000238,"correct":true,"confidence":4},{"trial_n":104,"min":89,"max":166,"target":"absent","response":"present","rt":3579.1000000238,"correct":false,"confidence":1},{"trial_n":105,"min":87,"max":168,"target":"present","response":"present","rt":925.30000001192,"correct":true,"confidence":5},{"trial_n":106,"min":87,"max":168,"target":"absent","response":"absent","rt":1252.3000000119,"correct":true,"confidence":3},{"trial_n":107,"min":89,"max":166,"target":"present","response":"present","rt":1434,"correct":true,"confidence":4},{"trial_n":108,"min":89,"max":166,"target":"absent","response":"absent","rt":1768.4000000358,"correct":true,"confidence":1},{"trial_n":109,"min":91,"max":164,"target":"present","response":"absent","rt":922.79999995232,"correct":false,"confidence":1},{"trial_n":110,"min":89,"max":166,"target":"absent","response":"present","rt":2022,"correct":false,"confidence":1},{"trial_n":111,"min":88,"max":167,"target":"present","response":"present","rt":1131.6000000238,"correct":true,"confidence":4},{"trial_n":112,"min":88,"max":167,"target":"present","response":"absent","rt":2782.1000000238,"correct":false,"confidence":2},{"trial_n":113,"min":87,"max":168,"target":"absent","response":"present","rt":1469.5999999642,"correct":false,"confidence":1},{"trial_n":114,"min":86,"max":169,"target":"absent","response":"absent","rt":1798.4000000358,"correct":true,"confidence":1},{"trial_n":115,"min":86,"max":169,"target":"absent","response":"present","rt":1053.3000000119,"correct":false,"confidence":4},{"trial_n":116,"min":85,"max":170,"target":"present","response":"present","rt":949.69999998808,"correct":true,"confidence":4},{"trial_n":117,"min":85,"max":170,"target":"present","response":"present","rt":1166.1999999881,"correct":true,"confidence":5},{"trial_n":118,"min":86,"max":169,"target":"absent","response":"absent","rt":1180.3000000119,"correct":true,"confidence":3},{"trial_n":119,"min":86,"max":169,"target":"present","response":"present","rt":1217.6999999881,"correct":true,"confidence":1},{"trial_n":120,"min":87,"max":168,"target":"present","response":"present","rt":1137.0999999642,"correct":true,"confidence":5},{"trial_n":121,"min":87,"max":168,"target":"absent","response":"absent","rt":1577,"correct":true,"confidence":2},{"trial_n":122,"min":88,"max":167,"target":"present","response":"present","rt":1050.6000000238,"correct":true,"confidence":3},{"trial_n":123,"min":88,"max":167,"target":"present","response":"present","rt":905.69999998808,"correct":true,"confidence":5},{"trial_n":124,"min":89,"max":166,"target":"absent","response":"absent","rt":1612.5,"correct":true,"confidence":1},{"trial_n":125,"min":89,"max":166,"target":"present","response":"present","rt":1000.5999999642,"correct":true,"confidence":5},{"trial_n":126,"min":90,"max":165,"target":"absent","response":"absent","rt":1735,"correct":true,"confidence":1},{"trial_n":127,"min":90,"max":165,"target":"absent","response":"absent","rt":605.10000002384,"correct":true,"confidence":1},{"trial_n":128,"min":91,"max":164,"target":"absent","response":"present","rt":812.90000003576,"correct":false,"confidence":1},{"trial_n":129,"min":90,"max":165,"target":"present","response":"present","rt":1515.5,"correct":true,"confidence":3},{"trial_n":130,"min":90,"max":165,"target":"present","response":"present","rt":1155.0999999642,"correct":true,"confidence":4},{"trial_n":131,"min":91,"max":164,"target":"present","response":"present","rt":2351.8000000119,"correct":true,"confidence":1},{"trial_n":132,"min":91,"max":164,"target":"present","response":"present","rt":872.39999997616,"correct":true,"confidence":3},{"trial_n":133,"min":92,"max":163,"target":"absent","response":"absent","rt":848.90000003576,"correct":true,"confidence":1},{"trial_n":134,"min":92,"max":163,"target":"absent","response":"absent","rt":835.39999997616,"correct":true,"confidence":1},{"trial_n":135,"min":93,"max":162,"target":"absent","response":"present","rt":532.19999998808,"correct":false,"confidence":1},{"trial_n":136,"min":92,"max":163,"target":"present","response":"present","rt":1229.9000000358,"correct":true,"confidence":2},{"trial_n":137,"min":92,"max":163,"target":"absent","response":"absent","rt":1559.1999999881,"correct":true,"confidence":1},{"trial_n":138,"min":93,"max":162,"target":"absent","response":"present","rt":695.70000004768,"correct":false,"confidence":1},{"trial_n":139,"min":92,"max":163,"target":"absent","response":"present","rt":862.09999996424,"correct":false,"confidence":1},{"trial_n":140,"min":91,"max":164,"target":"present","response":"absent","rt":753.5,"correct":false,"confidence":1}]