[{"trial_n":1,"span":8,"encoder":"06379882","distractor":"06379832","target":"present","response":"present","rt":"5606.9000000358","correct":true,"confidence":-1},{"trial_n":2,"span":8,"encoder":"23662728","distractor":"23962728","target":"present","response":"present","rt":"2809.3999999762","correct":true,"confidence":-1},{"trial_n":3,"span":10,"encoder":"9817199640","distractor":"9817199600","target":"absent","response":"absent","rt":"3918.2999999523","correct":true,"confidence":-1},{"trial_n":4,"span":10,"encoder":"0849089326","distractor":"0849389326","target":"absent","response":"present","rt":"3617.5999999642","correct":false,"confidence":-1},{"trial_n":5,"span":8,"encoder":"77584293","distractor":"75584293","target":"present","response":"present","rt":"2063.6999999881","correct":true,"confidence":-1},{"trial_n":6,"span":8,"encoder":"06840083","distractor":"06840013","target":"present","response":"present","rt":"2322","correct":true,"confidence":-1},{"trial_n":7,"span":10,"encoder":"8949770083","distractor":"8949700083","target":"absent","response":"absent","rt":"2925.1999999881","correct":true,"confidence":-1},{"trial_n":8,"span":10,"encoder":"0726523106","distractor":"0796523106","target":"absent","response":"absent","rt":"2722.1000000238","correct":true,"confidence":-1},{"trial_n":9,"span":12,"encoder":"206058822989","distractor":"206058822489","target":"present","response":"present","rt":"3751.3000000119","correct":true,"confidence":-1},{"trial_n":10,"span":12,"encoder":"196239929888","distractor":"196239929880","target":"present","response":"absent","rt":"2112.1999999881","correct":false,"confidence":-1},{"trial_n":11,"span":10,"encoder":"3595116224","distractor":"3095116224","target":"present","response":"absent","rt":"3870.6000000238","correct":false,"confidence":-1},{"trial_n":12,"span":9,"encoder":"840996791","distractor":"845996791","target":"absent","response":"present","rt":"3264.0999999642","correct":false,"confidence":-1},{"trial_n":13,"span":8,"encoder":"12722954","distractor":"12742954","target":"absent","response":"present","rt":"4375.1999999881","correct":false,"confidence":-1},{"trial_n":14,"span":7,"encoder":"3489849","distractor":"3499849","target":"present","response":"present","rt":"3289.3000000119","correct":true,"confidence":-1},{"trial_n":15,"span":7,"encoder":"8068858","distractor":"8068848","target":"present","response":"present","rt":"2340","correct":true,"confidence":-1},{"trial_n":16,"span":8,"encoder":"97961902","distractor":"97941902","target":"absent","response":"absent","rt":"2486.5","correct":true,"confidence":-1},{"trial_n":17,"span":8,"encoder":"07908360","distractor":"07908362","target":"present","response":"present","rt":"3634.6999999881","correct":true,"confidence":-1},{"trial_n":18,"span":9,"encoder":"303891043","distractor":"303791043","target":"present","response":"present","rt":"3292.8000000119","correct":true,"confidence":-1},{"trial_n":19,"span":9,"encoder":"859104924","distractor":"859104824","target":"present","response":"present","rt":"2928.8999999762","correct":true,"confidence":-1},{"trial_n":20,"span":10,"encoder":"5629056148","distractor":"5629056348","target":"absent","response":"present","rt":"3748.5","correct":false,"confidence":-1},{"trial_n":21,"span":9,"encoder":"299999451","distractor":"295999451","target":"present","response":"present","rt":"4898.6000000238","correct":true,"confidence":4},{"trial_n":22,"span":9,"encoder":"906871732","distractor":"906871832","target":"present","response":"present","rt":"3312.5","correct":true,"confidence":4},{"trial_n":23,"span":10,"encoder":"3542485109","distractor":"3542485159","target":"absent","response":"absent","rt":"4433.5","correct":true,"confidence":3},{"trial_n":24,"span":10,"encoder":"0248526504","distractor":"9248526504","target":"absent","response":"absent","rt":"6743.3999999762","correct":true,"confidence":2},{"trial_n":25,"span":11,"encoder":"81410735427","distractor":"81410735424","target":"absent","response":"present","rt":"4952.8999999762","correct":false,"confidence":3},{"trial_n":26,"span":10,"encoder":"4620045555","distractor":"4520045555","target":"present","response":"present","rt":"4099.4000000358","correct":true,"confidence":4},{"trial_n":27,"span":10,"encoder":"3299798248","distractor":"3299798748","target":"absent","response":"present","rt":"4140.6999999881","correct":false,"confidence":2},{"trial_n":28,"span":9,"encoder":"038081632","distractor":"078081632","target":"present","response":"present","rt":"4336.5","correct":true,"confidence":3},{"trial_n":29,"span":9,"encoder":"731631067","distractor":"741631067","target":"absent","response":"present","rt":"4479.0999999642","correct":false,"confidence":2},{"trial_n":30,"span":8,"encoder":"46418929","distractor":"48418929","target":"present","response":"present","rt":"3624.5999999642","correct":true,"confidence":5},{"trial_n":31,"span":8,"encoder":"52905620","distractor":"52905020","target":"absent","response":"absent","rt":"4867.3999999762","correct":true,"confidence":5},{"trial_n":32,"span":9,"encoder":"674324075","distractor":"644324075","target":"absent","response":"absent","rt":"5007.6999999881","correct":true,"confidence":4},{"trial_n":33,"span":9,"encoder":"225606960","distractor":"225606930","target":"absent","response":"absent","rt":"6644.1000000238","correct":true,"confidence":3},{"trial_n":34,"span":10,"encoder":"8125890234","distractor":"8121890234","target":"absent","response":"absent","rt":"3965.5999999642","correct":true,"confidence":4},{"trial_n":35,"span":10,"encoder":"9058048192","distractor":"9058248192","target":"absent","response":"present","rt":"4689","correct":false,"confidence":3},{"trial_n":36,"span":9,"encoder":"803988442","distractor":"603988442","target":"present","response":"present","rt":"3632.9000000358","correct":true,"confidence":3},{"trial_n":37,"span":9,"encoder":"204751396","distractor":"204751996","target":"present","response":"present","rt":"3401.5","correct":true,"confidence":3},{"trial_n":38,"span":10,"encoder":"6956348389","distractor":"6959348389","target":"absent","response":"present","rt":"4133.3000000119","correct":false,"confidence":3},{"trial_n":39,"span":9,"encoder":"929529856","distractor":"929523856","target":"absent","response":"absent","rt":"3231.1999999881","correct":true,"confidence":2},{"trial_n":40,"span":9,"encoder":"784380726","distractor":"784380796","target":"present","response":"present","rt":"3127.1999999881","correct":true,"confidence":4},{"trial_n":41,"span":10,"encoder":"3857528142","distractor":"0857528142","target":"absent","response":"absent","rt":"4747.5","correct":true,"confidence":3},{"trial_n":42,"span":10,"encoder":"3453346689","distractor":"3453346686","target":"present","response":"present","rt":"6588.3000000119","correct":true,"confidence":4},{"trial_n":43,"span":11,"encoder":"28870358443","distractor":"28880358443","target":"present","response":"present","rt":"4550.6999999881","correct":true,"confidence":3},{"trial_n":44,"span":11,"encoder":"62337389944","distractor":"62331389944","target":"present","response":"present","rt":"3650.6999999881","correct":true,"confidence":3},{"trial_n":45,"span":12,"encoder":"150955280450","distractor":"150955980450","target":"present","response":"absent","rt":"4558","correct":false,"confidence":2},{"trial_n":46,"span":11,"encoder":"83629570477","distractor":"63629570477","target":"absent","response":"absent","rt":"3008.5","correct":true,"confidence":2},{"trial_n":47,"span":11,"encoder":"78220857616","distractor":"78220157616","target":"present","response":"absent","rt":"3705.6999999881","correct":false,"confidence":3},{"trial_n":48,"span":10,"encoder":"1901684867","distractor":"1901184867","target":"absent","response":"present","rt":"3721.8999999762","correct":false,"confidence":5},{"trial_n":49,"span":9,"encoder":"189938798","distractor":"159938798","target":"absent","response":"present","rt":"3259.4000000358","correct":false,"confidence":3},{"trial_n":50,"span":8,"encoder":"46136479","distractor":"46136079","target":"present","response":"absent","rt":"4279.1000000238","correct":false,"confidence":3},{"trial_n":51,"span":7,"encoder":"2675170","distractor":"2672170","target":"present","response":"present","rt":"2603.8999999762","correct":true,"confidence":5},{"trial_n":52,"span":7,"encoder":"2923428","distractor":"2913428","target":"present","response":"absent","rt":"3088.4000000358","correct":false,"confidence":5},{"trial_n":53,"span":6,"encoder":"565843","distractor":"765843","target":"present","response":"present","rt":"2287.3999999762","correct":true,"confidence":5},{"trial_n":54,"span":6,"encoder":"413944","distractor":"413904","target":"absent","response":"absent","rt":"3109.2999999523","correct":true,"confidence":4},{"trial_n":55,"span":7,"encoder":"0221713","distractor":"0221513","target":"absent","response":"absent","rt":"3852.8000000119","correct":true,"confidence":5},{"trial_n":56,"span":7,"encoder":"5973335","distractor":"5970335","target":"present","response":"present","rt":"4880.1000000238","correct":true,"confidence":5},{"trial_n":57,"span":8,"encoder":"03942297","distractor":"03942227","target":"absent","response":"present","rt":"3545","correct":false,"confidence":4},{"trial_n":58,"span":7,"encoder":"6233057","distractor":"6233097","target":"present","response":"present","rt":"2830.3999999762","correct":true,"confidence":5},{"trial_n":59,"span":7,"encoder":"8977097","distractor":"8971097","target":"present","response":"present","rt":"1871.4000000358","correct":true,"confidence":5},{"trial_n":60,"span":8,"encoder":"78468543","distractor":"78468943","target":"absent","response":"absent","rt":"2594.6999999881","correct":true,"confidence":4},{"trial_n":61,"span":8,"encoder":"39878850","distractor":"39878810","target":"absent","response":"absent","rt":"2740.4000000358","correct":true,"confidence":5},{"trial_n":62,"span":9,"encoder":"963076796","distractor":"963076776","target":"present","response":"present","rt":"3568.2000000477","correct":true,"confidence":4},{"trial_n":63,"span":9,"encoder":"285853517","distractor":"885853517","target":"absent","response":"absent","rt":"2409.8999999762","correct":true,"confidence":5},{"trial_n":64,"span":10,"encoder":"9355608340","distractor":"9355608344","target":"absent","response":"absent","rt":"3249.6999999881","correct":true,"confidence":4},{"trial_n":65,"span":10,"encoder":"8602264676","distractor":"8605264676","target":"present","response":"present","rt":"4219.0999999642","correct":true,"confidence":2},{"trial_n":66,"span":11,"encoder":"98490882479","distractor":"98490982479","target":"absent","response":"present","rt":"4516.6999999881","correct":false,"confidence":2},{"trial_n":67,"span":10,"encoder":"4384881169","distractor":"4387881169","target":"present","response":"present","rt":"3113.9000000358","correct":true,"confidence":4},{"trial_n":68,"span":10,"encoder":"2826517134","distractor":"2826817134","target":"present","response":"present","rt":"4059.1999999881","correct":true,"confidence":3},{"trial_n":69,"span":11,"encoder":"61426197570","distractor":"61426199570","target":"absent","response":"absent","rt":"4140.8000000119","correct":true,"confidence":2},{"trial_n":70,"span":11,"encoder":"70232770362","distractor":"70932770362","target":"absent","response":"absent","rt":"2598.5","correct":true,"confidence":2},{"trial_n":71,"span":8,"encoder":"93496366","distractor":"93496466","target":"present","response":"present","rt":"4543","correct":true,"confidence":-1},{"trial_n":72,"span":8,"encoder":"98063198","distractor":"98063998","target":"present","response":"present","rt":"3199","correct":true,"confidence":-1},{"trial_n":73,"span":9,"encoder":"622870082","distractor":"622830082","target":"absent","response":"present","rt":"4141","correct":false,"confidence":-1},{"trial_n":74,"span":8,"encoder":"35254898","distractor":"35254198","target":"absent","response":"present","rt":"4227.0999999642","correct":false,"confidence":-1},{"trial_n":75,"span":7,"encoder":"2327387","distractor":"2327382","target":"present","response":"present","rt":"1984.3999999762","correct":true,"confidence":-1},{"trial_n":76,"span":7,"encoder":"5038257","distractor":"5038255","target":"absent","response":"absent","rt":"1633.9000000358","correct":true,"confidence":-1},{"trial_n":77,"span":8,"encoder":"04561684","distractor":"04661684","target":"absent","response":"absent","rt":"3021.1999999881","correct":true,"confidence":-1},{"trial_n":78,"span":8,"encoder":"25768878","distractor":"65768878","target":"present","response":"present","rt":"3686.8999999762","correct":true,"confidence":-1},{"trial_n":79,"span":9,"encoder":"258974695","distractor":"258984695","target":"present","response":"present","rt":"3747.8999999762","correct":true,"confidence":-1},{"trial_n":80,"span":9,"encoder":"711525363","distractor":"717525363","target":"absent","response":"absent","rt":"2196.3000000119","correct":true,"confidence":-1},{"trial_n":81,"span":10,"encoder":"4552176649","distractor":"4552176641","target":"absent","response":"absent","rt":"4524.6000000238","correct":true,"confidence":-1},{"trial_n":82,"span":10,"encoder":"7223718691","distractor":"7213718691","target":"absent","response":"present","rt":"3213.5","correct":false,"confidence":-1},{"trial_n":83,"span":9,"encoder":"614132129","distractor":"619132129","target":"present","response":"present","rt":"4195","correct":true,"confidence":-1},{"trial_n":84,"span":9,"encoder":"616697848","distractor":"616397848","target":"absent","response":"absent","rt":"2239.1000000238","correct":true,"confidence":-1},{"trial_n":85,"span":10,"encoder":"8221559899","distractor":"8221559839","target":"present","response":"present","rt":"1341.8999999762","correct":true,"confidence":-1},{"trial_n":86,"span":10,"encoder":"3892326866","distractor":"6892326866","target":"present","response":"present","rt":"6079.8000000119","correct":true,"confidence":-1},{"trial_n":87,"span":11,"encoder":"29144666142","distractor":"29144666122","target":"present","response":"present","rt":"4221.8999999762","correct":true,"confidence":-1},{"trial_n":88,"span":11,"encoder":"62977000166","distractor":"42977000166","target":"present","response":"present","rt":"3332.6000000238","correct":true,"confidence":-1},{"trial_n":89,"span":12,"encoder":"362195333625","distractor":"362195333825","target":"absent","response":"absent","rt":"1742.3999999762","correct":true,"confidence":-1},{"trial_n":90,"span":12,"encoder":"349472448423","distractor":"349472448420","target":"absent","response":"absent","rt":"2365.3000000119","correct":true,"confidence":-1},{"trial_n":91,"span":13,"encoder":"8696137180476","distractor":"8696137188476","target":"absent","response":"absent","rt":"5487.5","correct":true,"confidence":1},{"trial_n":92,"span":13,"encoder":"8254537732481","distractor":"8454537732481","target":"present","response":"absent","rt":"7265.4000000358","correct":false,"confidence":1},{"trial_n":93,"span":12,"encoder":"814405305069","distractor":"314405305069","target":"present","response":"present","rt":"3820.6999999881","correct":true,"confidence":3},{"trial_n":94,"span":12,"encoder":"656305806901","distractor":"656305866901","target":"present","response":"absent","rt":"5445.8999999762","correct":false,"confidence":2},{"trial_n":95,"span":11,"encoder":"26484434790","distractor":"25484434790","target":"present","response":"present","rt":"4370.1000000238","correct":true,"confidence":2},{"trial_n":96,"span":11,"encoder":"97385246071","distractor":"97325246071","target":"absent","response":"absent","rt":"5994.6000000238","correct":true,"confidence":1},{"trial_n":97,"span":12,"encoder":"204026719892","distractor":"204026719792","target":"present","response":"present","rt":"5546.6000000238","correct":true,"confidence":3},{"trial_n":98,"span":12,"encoder":"076566463183","distractor":"076546463183","target":"present","response":"present","rt":"2834.8000000119","correct":true,"confidence":4},{"trial_n":99,"span":13,"encoder":"7336799416418","distractor":"7336799456418","target":"absent","response":"absent","rt":"2524.1000000238","correct":true,"confidence":5},{"trial_n":100,"span":13,"encoder":"8107417102296","distractor":"0107417102296","target":"absent","response":"absent","rt":"3588.1999999881","correct":true,"confidence":5},{"trial_n":101,"span":14,"encoder":"19676676185578","distractor":"19676676185588","target":"absent","response":"absent","rt":"2936.6000000238","correct":true,"confidence":4},{"trial_n":102,"span":14,"encoder":"17504647070008","distractor":"17564647070008","target":"absent","response":"present","rt":"6489.8000000119","correct":false,"confidence":2},{"trial_n":103,"span":13,"encoder":"8056386675652","distractor":"8056386075652","target":"present","response":"present","rt":"5204","correct":true,"confidence":2},{"trial_n":104,"span":13,"encoder":"8062195777219","distractor":"8067195777219","target":"absent","response":"absent","rt":"4767.1000000238","correct":true,"confidence":1},{"trial_n":105,"span":14,"encoder":"80169579260135","distractor":"80469579260135","target":"absent","response":"absent","rt":"3908.0999999642","correct":true,"confidence":1},{"trial_n":106,"span":14,"encoder":"43597246331828","distractor":"43597242331828","target":"absent","response":"present","rt":"7556","correct":false,"confidence":2},{"trial_n":107,"span":13,"encoder":"5741411336690","distractor":"5741417336690","target":"present","response":"absent","rt":"3195.7999999523","correct":false,"confidence":1},{"trial_n":108,"span":12,"encoder":"257253569038","distractor":"257253565038","target":"present","response":"present","rt":"9167.5","correct":true,"confidence":2},{"trial_n":109,"span":12,"encoder":"530956639358","distractor":"530956639354","target":"absent","response":"absent","rt":"2702.3999999762","correct":true,"confidence":5},{"trial_n":110,"span":13,"encoder":"2756886247516","distractor":"2756886247506","target":"absent","response":"absent","rt":"1319.6999999881","correct":true,"confidence":1},{"trial_n":111,"span":13,"encoder":"1390447131443","distractor":"1390447161443","target":"absent","response":"present","rt":"2987.6000000238","correct":false,"confidence":2},{"trial_n":112,"span":12,"encoder":"816357165544","distractor":"816357165545","target":"present","response":"present","rt":"2205.5","correct":true,"confidence":5},{"trial_n":113,"span":12,"encoder":"546329800486","distractor":"546323800486","target":"present","response":"present","rt":"3909.9000000358","correct":true,"confidence":1},{"trial_n":114,"span":13,"encoder":"3898360595697","distractor":"3898360595597","target":"absent","response":"absent","rt":"2675.4000000358","correct":true,"confidence":5},{"trial_n":115,"span":13,"encoder":"6928623143233","distractor":"6928623149233","target":"absent","response":"absent","rt":"3655.3999999762","correct":true,"confidence":4},{"trial_n":116,"span":14,"encoder":"76374273932565","distractor":"76370273932565","target":"absent","response":"absent","rt":"3876.3999999762","correct":true,"confidence":1},{"trial_n":117,"span":14,"encoder":"98246177506613","distractor":"98246177506693","target":"present","response":"present","rt":"3572.1999999881","correct":true,"confidence":2},{"trial_n":118,"span":15,"encoder":"054305942668959","distractor":"054005942668959","target":"present","response":"present","rt":"4682.1999999881","correct":true,"confidence":3},{"trial_n":119,"span":15,"encoder":"893170796894942","distractor":"893170796394942","target":"absent","response":"absent","rt":"5402.4000000358","correct":true,"confidence":2},{"trial_n":120,"span":16,"encoder":"6843286143418889","distractor":"6843266143418889","target":"present","response":"present","rt":"9197.4000000358","correct":true,"confidence":1},{"trial_n":121,"span":16,"encoder":"6239349441658873","distractor":"6139349441658873","target":"present","response":"present","rt":"3281.1999999881","correct":true,"confidence":1},{"trial_n":122,"span":17,"encoder":"83363728199704999","distractor":"83363728109704999","target":"absent","response":"absent","rt":"3738.8999999762","correct":true,"confidence":2},{"trial_n":123,"span":17,"encoder":"67862720680030124","distractor":"67863720680030124","target":"present","response":"present","rt":"3290.6999999881","correct":true,"confidence":1},{"trial_n":124,"span":18,"encoder":"877266120586830064","distractor":"177266120586830064","target":"present","response":"present","rt":"6827.8999999762","correct":true,"confidence":2},{"trial_n":125,"span":18,"encoder":"605687463182573374","distractor":"605687463182573378","target":"present","response":"present","rt":"6766.3000000119","correct":true,"confidence":1},{"trial_n":126,"span":19,"encoder":"5112422384027407501","distractor":"5112422384025407501","target":"present","response":"absent","rt":"3360.6999999881","correct":false,"confidence":1},{"trial_n":127,"span":18,"encoder":"667881329830964317","distractor":"667881321830964317","target":"present","response":"absent","rt":"8117.8999999762","correct":false,"confidence":1},{"trial_n":128,"span":17,"encoder":"15787786136361803","distractor":"15787786136361853","target":"absent","response":"absent","rt":"2090.7999999523","correct":true,"confidence":2},{"trial_n":129,"span":17,"encoder":"02201244181661187","distractor":"03201244181661187","target":"absent","response":"absent","rt":"5887.3000000119","correct":true,"confidence":2},{"trial_n":130,"span":18,"encoder":"344813325662469864","distractor":"144813325662469864","target":"present","response":"present","rt":"6964.6000000238","correct":true,"confidence":3},{"trial_n":131,"span":18,"encoder":"126771968392377281","distractor":"126771969392377281","target":"present","response":"present","rt":"3772.2000000477","correct":true,"confidence":1},{"trial_n":132,"span":19,"encoder":"3721107722738924192","distractor":"3721147722738924192","target":"present","response":"absent","rt":"6120","correct":false,"confidence":1},{"trial_n":133,"span":18,"encoder":"174073438359241871","distractor":"174073438359240871","target":"absent","response":"absent","rt":"3915.1000000238","correct":true,"confidence":2},{"trial_n":134,"span":18,"encoder":"751519291966566034","distractor":"751519991966566034","target":"absent","response":"present","rt":"5641.8999999762","correct":false,"confidence":1},{"trial_n":135,"span":17,"encoder":"05813806207670664","distractor":"05813806207670684","target":"absent","response":"absent","rt":"2832.5999999642","correct":true,"confidence":1},{"trial_n":136,"span":17,"encoder":"06230042454496873","distractor":"06230042454492873","target":"present","response":"present","rt":"2790.5","correct":true,"confidence":5},{"trial_n":137,"span":18,"encoder":"789501673379879857","distractor":"789501673379879887","target":"absent","response":"absent","rt":"4057.6000000238","correct":true,"confidence":5},{"trial_n":138,"span":18,"encoder":"819299454259262708","distractor":"819299454259264708","target":"present","response":"present","rt":"6804.1999999881","correct":true,"confidence":3},{"trial_n":139,"span":19,"encoder":"3299237252735972577","distractor":"3899237252735972577","target":"absent","response":"absent","rt":"5621.4000000358","correct":true,"confidence":1},{"trial_n":140,"span":19,"encoder":"2198859352949321486","distractor":"2198859352949121486","target":"present","response":"absent","rt":"3786.8000000119","correct":false,"confidence":3}]