[{"trial_n":1,"n_dots":4.25,"target":"right","response":"left","rt":3552.099999994,"correct":false,"confidence":-1},{"trial_n":2,"n_dots":4.25,"target":"right","response":"left","rt":788.60000002384,"correct":false,"confidence":-1},{"trial_n":3,"n_dots":4.65,"target":"right","response":"right","rt":1321,"correct":true,"confidence":-1},{"trial_n":4,"n_dots":4.65,"target":"left","response":"left","rt":449.19999998808,"correct":true,"confidence":-1},{"trial_n":5,"n_dots":4.25,"target":"left","response":"left","rt":391.5,"correct":true,"confidence":-1},{"trial_n":6,"n_dots":4.25,"target":"left","response":"left","rt":438.09999999404,"correct":true,"confidence":-1},{"trial_n":7,"n_dots":3.85,"target":"left","response":"left","rt":559.5,"correct":true,"confidence":-1},{"trial_n":8,"n_dots":3.85,"target":"right","response":"left","rt":461.20000001788,"correct":false,"confidence":-1},{"trial_n":9,"n_dots":4.05,"target":"right","response":"right","rt":1114.900000006,"correct":true,"confidence":-1},{"trial_n":10,"n_dots":4.05,"target":"left","response":"left","rt":749.5,"correct":true,"confidence":-1},{"trial_n":11,"n_dots":3.85,"target":"left","response":"left","rt":350.5,"correct":true,"confidence":-1},{"trial_n":12,"n_dots":3.85,"target":"right","response":"right","rt":860,"correct":true,"confidence":-1},{"trial_n":13,"n_dots":3.75,"target":"left","response":"left","rt":958.69999998808,"correct":true,"confidence":-1},{"trial_n":14,"n_dots":3.75,"target":"left","response":"left","rt":388.30000001192,"correct":true,"confidence":-1},{"trial_n":15,"n_dots":3.65,"target":"left","response":"left","rt":367.10000002384,"correct":true,"confidence":-1},{"trial_n":16,"n_dots":3.65,"target":"right","response":"right","rt":44.40000000596,"correct":true,"confidence":-1},{"trial_n":17,"n_dots":3.55,"target":"left","response":"left","rt":217.39999997616,"correct":true,"confidence":-1},{"trial_n":18,"n_dots":3.55,"target":"left","response":"left","rt":2992.3000000119,"correct":true,"confidence":-1},{"trial_n":19,"n_dots":3.45,"target":"right","response":"left","rt":525.69999998808,"correct":false,"confidence":-1},{"trial_n":20,"n_dots":3.55,"target":"right","response":"right","rt":601.40000000596,"correct":true,"confidence":-1},{"trial_n":21,"n_dots":3.55,"target":"right","response":"left","rt":732.69999998808,"correct":false,"confidence":3},{"trial_n":22,"n_dots":3.65,"target":"left","response":"left","rt":432.30000001192,"correct":true,"confidence":3},{"trial_n":23,"n_dots":3.65,"target":"right","response":"right","rt":716.60000002384,"correct":true,"confidence":3},{"trial_n":24,"n_dots":3.55,"target":"right","response":"left","rt":902.5,"correct":false,"confidence":1},{"trial_n":25,"n_dots":3.65,"target":"right","response":"right","rt":741.09999999404,"correct":true,"confidence":3},{"trial_n":26,"n_dots":3.65,"target":"right","response":"right","rt":832.70000001788,"correct":true,"confidence":3},{"trial_n":27,"n_dots":3.55,"target":"left","response":"left","rt":610.60000002384,"correct":true,"confidence":5},{"trial_n":28,"n_dots":3.55,"target":"left","response":"left","rt":402.69999998808,"correct":true,"confidence":4},{"trial_n":29,"n_dots":3.45,"target":"left","response":"left","rt":195.19999998808,"correct":true,"confidence":3},{"trial_n":30,"n_dots":3.45,"target":"left","response":"left","rt":701.09999999404,"correct":true,"confidence":3},{"trial_n":31,"n_dots":3.35,"target":"right","response":"right","rt":1064.1999999881,"correct":true,"confidence":3},{"trial_n":32,"n_dots":3.35,"target":"left","response":"left","rt":153.90000000596,"correct":true,"confidence":3},{"trial_n":33,"n_dots":3.25,"target":"left","response":"left","rt":750.09999999404,"correct":true,"confidence":1},{"trial_n":34,"n_dots":3.25,"target":"left","response":"left","rt":268.30000001192,"correct":true,"confidence":4},{"trial_n":35,"n_dots":3.15,"target":"right","response":"right","rt":940.09999999404,"correct":true,"confidence":4},{"trial_n":36,"n_dots":3.15,"target":"left","response":"left","rt":726.69999998808,"correct":true,"confidence":3},{"trial_n":37,"n_dots":3.05,"target":"right","response":"left","rt":747.09999999404,"correct":false,"confidence":1},{"trial_n":38,"n_dots":3.15,"target":"left","response":"left","rt":390.59999999404,"correct":true,"confidence":3},{"trial_n":39,"n_dots":3.15,"target":"left","response":"left","rt":747.30000001192,"correct":true,"confidence":4},{"trial_n":40,"n_dots":3.05,"target":"left","response":"left","rt":855,"correct":true,"confidence":2},{"trial_n":41,"n_dots":3.05,"target":"right","response":"left","rt":25069,"correct":false,"confidence":1},{"trial_n":42,"n_dots":3.15,"target":"right","response":"right","rt":9966.7000000179,"correct":true,"confidence":1},{"trial_n":43,"n_dots":3.15,"target":"left","response":"left","rt":822.59999999404,"correct":true,"confidence":3},{"trial_n":44,"n_dots":3.05,"target":"left","response":"left","rt":711.70000001788,"correct":true,"confidence":3},{"trial_n":45,"n_dots":3.05,"target":"left","response":"right","rt":993.59999999404,"correct":false,"confidence":1},{"trial_n":46,"n_dots":3.15,"target":"left","response":"left","rt":805.90000000596,"correct":true,"confidence":1},{"trial_n":47,"n_dots":3.15,"target":"right","response":"right","rt":1323.400000006,"correct":true,"confidence":2},{"trial_n":48,"n_dots":3.05,"target":"right","response":"right","rt":1219.5,"correct":true,"confidence":4},{"trial_n":49,"n_dots":3.05,"target":"left","response":"left","rt":483.80000001192,"correct":true,"confidence":3},{"trial_n":50,"n_dots":2.95,"target":"left","response":"left","rt":203.69999998808,"correct":true,"confidence":3},{"trial_n":51,"n_dots":2.95,"target":"left","response":"left","rt":648,"correct":true,"confidence":3},{"trial_n":52,"n_dots":2.85,"target":"right","response":"right","rt":1256.3000000119,"correct":true,"confidence":3},{"trial_n":53,"n_dots":2.85,"target":"right","response":"left","rt":1071.599999994,"correct":false,"confidence":1},{"trial_n":54,"n_dots":2.95,"target":"right","response":"left","rt":400.40000000596,"correct":false,"confidence":1},{"trial_n":55,"n_dots":3.05,"target":"right","response":"right","rt":902.5,"correct":true,"confidence":1},{"trial_n":56,"n_dots":3.05,"target":"right","response":"left","rt":1329.5,"correct":false,"confidence":1},{"trial_n":57,"n_dots":3.15,"target":"right","response":"left","rt":683.40000000596,"correct":false,"confidence":3},{"trial_n":58,"n_dots":3.25,"target":"left","response":"left","rt":1134.900000006,"correct":true,"confidence":3},{"trial_n":59,"n_dots":3.25,"target":"left","response":"right","rt":1246.2000000179,"correct":false,"confidence":3},{"trial_n":60,"n_dots":3.35,"target":"right","response":"left","rt":925.19999998808,"correct":false,"confidence":3},{"trial_n":61,"n_dots":3.45,"target":"right","response":"right","rt":1831.3000000119,"correct":true,"confidence":3},{"trial_n":62,"n_dots":3.45,"target":"left","response":"left","rt":638.29999998212,"correct":true,"confidence":4},{"trial_n":63,"n_dots":3.35,"target":"right","response":"left","rt":1181.900000006,"correct":false,"confidence":1},{"trial_n":64,"n_dots":3.45,"target":"left","response":"left","rt":455.5,"correct":true,"confidence":3},{"trial_n":65,"n_dots":3.45,"target":"left","response":"left","rt":1802.900000006,"correct":true,"confidence":3},{"trial_n":66,"n_dots":3.35,"target":"right","response":"left","rt":752.80000001192,"correct":false,"confidence":1},{"trial_n":67,"n_dots":3.45,"target":"left","response":"left","rt":1300.7999999821,"correct":true,"confidence":4},{"trial_n":68,"n_dots":3.45,"target":"right","response":"right","rt":1150.6999999881,"correct":true,"confidence":3},{"trial_n":69,"n_dots":3.35,"target":"left","response":"left","rt":813.69999998808,"correct":true,"confidence":4},{"trial_n":70,"n_dots":3.35,"target":"right","response":"left","rt":979,"correct":false,"confidence":1},{"trial_n":71,"n_dots":3.45,"target":"right","response":"left","rt":458.19999998808,"correct":false,"confidence":4},{"trial_n":72,"n_dots":3.55,"target":"right","response":"right","rt":1165.400000006,"correct":true,"confidence":4},{"trial_n":73,"n_dots":3.55,"target":"left","response":"left","rt":902,"correct":true,"confidence":1},{"trial_n":74,"n_dots":3.45,"target":"left","response":"left","rt":1160.2000000179,"correct":true,"confidence":5},{"trial_n":75,"n_dots":3.45,"target":"right","response":"right","rt":948.19999998808,"correct":true,"confidence":4},{"trial_n":76,"n_dots":3.35,"target":"right","response":"right","rt":1099.5,"correct":true,"confidence":3},{"trial_n":77,"n_dots":3.35,"target":"left","response":"left","rt":759.90000000596,"correct":true,"confidence":5},{"trial_n":78,"n_dots":3.25,"target":"right","response":"right","rt":789.79999998212,"correct":true,"confidence":5},{"trial_n":79,"n_dots":3.25,"target":"left","response":"left","rt":626,"correct":true,"confidence":3},{"trial_n":80,"n_dots":3.15,"target":"right","response":"left","rt":883,"correct":false,"confidence":3},{"trial_n":81,"n_dots":3.25,"target":"left","response":"left","rt":519.59999999404,"correct":true,"confidence":5},{"trial_n":82,"n_dots":3.25,"target":"left","response":"left","rt":615.70000001788,"correct":true,"confidence":5},{"trial_n":83,"n_dots":3.15,"target":"left","response":"left","rt":766.80000001192,"correct":true,"confidence":3},{"trial_n":84,"n_dots":3.15,"target":"right","response":"right","rt":1274.900000006,"correct":true,"confidence":3},{"trial_n":85,"n_dots":3.05,"target":"right","response":"right","rt":1045.5,"correct":true,"confidence":3},{"trial_n":86,"n_dots":3.05,"target":"right","response":"right","rt":1063.5,"correct":true,"confidence":3},{"trial_n":87,"n_dots":2.95,"target":"right","response":"left","rt":1109.2999999821,"correct":false,"confidence":1},{"trial_n":88,"n_dots":3.05,"target":"left","response":"left","rt":442.19999998808,"correct":true,"confidence":3},{"trial_n":89,"n_dots":3.05,"target":"left","response":"left","rt":577.5,"correct":true,"confidence":5},{"trial_n":90,"n_dots":2.95,"target":"left","response":"left","rt":1037.900000006,"correct":true,"confidence":4},{"trial_n":91,"n_dots":2.95,"target":"right","response":"right","rt":793.20000001788,"correct":true,"confidence":3},{"trial_n":92,"n_dots":2.85,"target":"right","response":"left","rt":1204.099999994,"correct":false,"confidence":1},{"trial_n":93,"n_dots":2.95,"target":"right","response":"right","rt":949,"correct":true,"confidence":3},{"trial_n":94,"n_dots":2.95,"target":"right","response":"left","rt":769,"correct":false,"confidence":3},{"trial_n":95,"n_dots":3.05,"target":"right","response":"left","rt":917.79999998212,"correct":false,"confidence":1},{"trial_n":96,"n_dots":3.15,"target":"left","response":"left","rt":294.09999999404,"correct":true,"confidence":3},{"trial_n":97,"n_dots":3.15,"target":"right","response":"left","rt":833.59999999404,"correct":false,"confidence":1},{"trial_n":98,"n_dots":3.25,"target":"left","response":"left","rt":812.5,"correct":true,"confidence":3},{"trial_n":99,"n_dots":3.25,"target":"left","response":"left","rt":855.5,"correct":true,"confidence":1},{"trial_n":100,"n_dots":3.15,"target":"left","response":"left","rt":1720.5,"correct":true,"confidence":1},{"trial_n":101,"n_dots":3.15,"target":"left","response":"left","rt":1201.7000000179,"correct":true,"confidence":3},{"trial_n":102,"n_dots":3.05,"target":"right","response":"left","rt":647.30000001192,"correct":false,"confidence":1},{"trial_n":103,"n_dots":3.15,"target":"left","response":"left","rt":414.09999999404,"correct":true,"confidence":1},{"trial_n":104,"n_dots":3.15,"target":"right","response":"right","rt":731.19999998808,"correct":true,"confidence":2},{"trial_n":105,"n_dots":3.05,"target":"right","response":"right","rt":788,"correct":true,"confidence":3},{"trial_n":106,"n_dots":3.05,"target":"left","response":"left","rt":807.89999997616,"correct":true,"confidence":3},{"trial_n":107,"n_dots":2.95,"target":"right","response":"left","rt":997.19999998808,"correct":false,"confidence":1},{"trial_n":108,"n_dots":3.05,"target":"left","response":"left","rt":383.30000001192,"correct":true,"confidence":1},{"trial_n":109,"n_dots":3.05,"target":"left","response":"left","rt":89,"correct":true,"confidence":5},{"trial_n":110,"n_dots":2.95,"target":"right","response":"left","rt":806.5,"correct":false,"confidence":3},{"trial_n":111,"n_dots":3.05,"target":"left","response":"left","rt":610.90000000596,"correct":true,"confidence":4},{"trial_n":112,"n_dots":3.05,"target":"left","response":"left","rt":744.80000001192,"correct":true,"confidence":5},{"trial_n":113,"n_dots":2.95,"target":"right","response":"left","rt":771.70000001788,"correct":false,"confidence":3},{"trial_n":114,"n_dots":3.05,"target":"right","response":"left","rt":524.69999998808,"correct":false,"confidence":3},{"trial_n":115,"n_dots":3.15,"target":"right","response":"left","rt":1235.900000006,"correct":false,"confidence":1},{"trial_n":116,"n_dots":3.25,"target":"left","response":"left","rt":297.29999998212,"correct":true,"confidence":4},{"trial_n":117,"n_dots":3.25,"target":"right","response":"left","rt":680.40000000596,"correct":false,"confidence":3},{"trial_n":118,"n_dots":3.35,"target":"right","response":"right","rt":802.70000001788,"correct":true,"confidence":4},{"trial_n":119,"n_dots":3.35,"target":"right","response":"right","rt":2446.2000000179,"correct":true,"confidence":1},{"trial_n":120,"n_dots":3.25,"target":"left","response":"left","rt":675,"correct":true,"confidence":4}]