[{"trial_n":1,"min":25,"max":230,"target":"present","response":"present","rt":7503.6000000238,"correct":true,"confidence":-1},{"trial_n":2,"min":25,"max":230,"target":"present","response":"absent","rt":2287.1999999881,"correct":false,"confidence":-1},{"trial_n":3,"min":9,"max":246,"target":"absent","response":"absent","rt":2539.8000000119,"correct":true,"confidence":-1},{"trial_n":4,"min":9,"max":246,"target":"absent","response":"absent","rt":1567.599999994,"correct":true,"confidence":-1},{"trial_n":5,"min":25,"max":230,"target":"present","response":"present","rt":2073.900000006,"correct":true,"confidence":-1},{"trial_n":6,"min":25,"max":230,"target":"absent","response":"absent","rt":2370.2000000179,"correct":true,"confidence":-1},{"trial_n":7,"min":41,"max":214,"target":"absent","response":"absent","rt":1154.599999994,"correct":true,"confidence":-1},{"trial_n":8,"min":41,"max":214,"target":"present","response":"present","rt":1719.8000000119,"correct":true,"confidence":-1},{"trial_n":9,"min":57,"max":198,"target":"present","response":"present","rt":1174,"correct":true,"confidence":-1},{"trial_n":10,"min":57,"max":198,"target":"present","response":"present","rt":972.29999998212,"correct":true,"confidence":-1},{"trial_n":11,"min":65,"max":190,"target":"present","response":"present","rt":1350.7000000179,"correct":true,"confidence":-1},{"trial_n":12,"min":65,"max":190,"target":"present","response":"present","rt":733.90000000596,"correct":true,"confidence":-1},{"trial_n":13,"min":73,"max":182,"target":"present","response":"present","rt":1627,"correct":true,"confidence":-1},{"trial_n":14,"min":73,"max":182,"target":"present","response":"present","rt":1086.5,"correct":true,"confidence":-1},{"trial_n":15,"min":81,"max":174,"target":"absent","response":"absent","rt":1223.400000006,"correct":true,"confidence":-1},{"trial_n":16,"min":81,"max":174,"target":"present","response":"present","rt":1196.1999999881,"correct":true,"confidence":-1},{"trial_n":17,"min":89,"max":166,"target":"present","response":"absent","rt":1464.8999999762,"correct":false,"confidence":-1},{"trial_n":18,"min":81,"max":174,"target":"present","response":"present","rt":1214,"correct":true,"confidence":-1},{"trial_n":19,"min":81,"max":174,"target":"absent","response":"absent","rt":1383.3000000119,"correct":true,"confidence":-1},{"trial_n":20,"min":89,"max":166,"target":"present","response":"absent","rt":1393.2999999821,"correct":false,"confidence":-1},{"trial_n":21,"min":85,"max":170,"target":"absent","response":"present","rt":4388.2999999821,"correct":false,"confidence":3},{"trial_n":22,"min":81,"max":174,"target":"absent","response":"absent","rt":2273.3000000119,"correct":true,"confidence":3},{"trial_n":23,"min":81,"max":174,"target":"absent","response":"absent","rt":3170,"correct":true,"confidence":2},{"trial_n":24,"min":85,"max":170,"target":"present","response":"absent","rt":1640,"correct":false,"confidence":2},{"trial_n":25,"min":81,"max":174,"target":"present","response":"present","rt":1784.8999999762,"correct":true,"confidence":3},{"trial_n":26,"min":81,"max":174,"target":"absent","response":"absent","rt":1674.099999994,"correct":true,"confidence":3},{"trial_n":27,"min":85,"max":170,"target":"absent","response":"absent","rt":2142.5,"correct":true,"confidence":4},{"trial_n":28,"min":85,"max":170,"target":"present","response":"present","rt":1393.7000000179,"correct":true,"confidence":3},{"trial_n":29,"min":89,"max":166,"target":"absent","response":"absent","rt":2090.5,"correct":true,"confidence":2},{"trial_n":30,"min":89,"max":166,"target":"absent","response":"absent","rt":1697.1999999881,"correct":true,"confidence":4},{"trial_n":31,"min":91,"max":164,"target":"present","response":"absent","rt":1393.1000000238,"correct":false,"confidence":4},{"trial_n":32,"min":89,"max":166,"target":"absent","response":"absent","rt":1581.8999999762,"correct":true,"confidence":2},{"trial_n":33,"min":89,"max":166,"target":"absent","response":"absent","rt":1127.5,"correct":true,"confidence":3},{"trial_n":34,"min":91,"max":164,"target":"present","response":"absent","rt":1313.3999999762,"correct":false,"confidence":3},{"trial_n":35,"min":89,"max":166,"target":"absent","response":"absent","rt":1532.8999999762,"correct":true,"confidence":3},{"trial_n":36,"min":89,"max":166,"target":"absent","response":"absent","rt":1083.6999999881,"correct":true,"confidence":3},{"trial_n":37,"min":91,"max":164,"target":"present","response":"absent","rt":1389.1999999881,"correct":false,"confidence":3},{"trial_n":38,"min":89,"max":166,"target":"present","response":"absent","rt":1637.7999999821,"correct":false,"confidence":3},{"trial_n":39,"min":87,"max":168,"target":"present","response":"absent","rt":1136.599999994,"correct":false,"confidence":3},{"trial_n":40,"min":85,"max":170,"target":"present","response":"present","rt":1725.400000006,"correct":true,"confidence":3},{"trial_n":41,"min":85,"max":170,"target":"absent","response":"absent","rt":1476.2999999821,"correct":true,"confidence":2},{"trial_n":42,"min":86,"max":169,"target":"absent","response":"absent","rt":2280.900000006,"correct":true,"confidence":3},{"trial_n":43,"min":86,"max":169,"target":"present","response":"present","rt":1178.900000006,"correct":true,"confidence":5},{"trial_n":44,"min":87,"max":168,"target":"absent","response":"absent","rt":1677.400000006,"correct":true,"confidence":3},{"trial_n":45,"min":87,"max":168,"target":"present","response":"present","rt":1166,"correct":true,"confidence":5},{"trial_n":46,"min":88,"max":167,"target":"absent","response":"absent","rt":1284.099999994,"correct":true,"confidence":3},{"trial_n":47,"min":88,"max":167,"target":"absent","response":"absent","rt":1886.1999999881,"correct":true,"confidence":3},{"trial_n":48,"min":89,"max":166,"target":"present","response":"absent","rt":1292.6000000238,"correct":false,"confidence":3},{"trial_n":49,"min":88,"max":167,"target":"absent","response":"absent","rt":1390.5,"correct":true,"confidence":3},{"trial_n":50,"min":88,"max":167,"target":"absent","response":"present","rt":2183.5,"correct":false,"confidence":3},{"trial_n":51,"min":87,"max":168,"target":"present","response":"present","rt":1487.099999994,"correct":true,"confidence":4},{"trial_n":52,"min":87,"max":168,"target":"absent","response":"present","rt":1930.3999999762,"correct":false,"confidence":4},{"trial_n":53,"min":86,"max":169,"target":"present","response":"present","rt":1230,"correct":true,"confidence":5},{"trial_n":54,"min":86,"max":169,"target":"present","response":"absent","rt":1246,"correct":false,"confidence":3},{"trial_n":55,"min":85,"max":170,"target":"absent","response":"present","rt":1150.900000006,"correct":false,"confidence":4},{"trial_n":56,"min":84,"max":171,"target":"present","response":"present","rt":1388.400000006,"correct":true,"confidence":3},{"trial_n":57,"min":84,"max":171,"target":"absent","response":"absent","rt":1327.7000000179,"correct":true,"confidence":3},{"trial_n":58,"min":85,"max":170,"target":"absent","response":"absent","rt":1618.5,"correct":true,"confidence":3},{"trial_n":59,"min":85,"max":170,"target":"absent","response":"absent","rt":2961.3000000119,"correct":true,"confidence":2},{"trial_n":60,"min":86,"max":169,"target":"absent","response":"present","rt":2011.1000000238,"correct":false,"confidence":2},{"trial_n":61,"min":85,"max":170,"target":"absent","response":"absent","rt":1194.8000000119,"correct":true,"confidence":3},{"trial_n":62,"min":85,"max":170,"target":"absent","response":"absent","rt":1251.5,"correct":true,"confidence":2},{"trial_n":63,"min":86,"max":169,"target":"absent","response":"absent","rt":1817.7000000179,"correct":true,"confidence":3},{"trial_n":64,"min":86,"max":169,"target":"present","response":"present","rt":1181,"correct":true,"confidence":5},{"trial_n":65,"min":87,"max":168,"target":"present","response":"present","rt":1847,"correct":true,"confidence":3},{"trial_n":66,"min":87,"max":168,"target":"present","response":"absent","rt":1189.900000006,"correct":false,"confidence":3},{"trial_n":67,"min":86,"max":169,"target":"present","response":"present","rt":1181.099999994,"correct":true,"confidence":5},{"trial_n":68,"min":86,"max":169,"target":"absent","response":"present","rt":1524.3999999762,"correct":false,"confidence":3},{"trial_n":69,"min":85,"max":170,"target":"present","response":"present","rt":2460.099999994,"correct":true,"confidence":5},{"trial_n":70,"min":85,"max":170,"target":"present","response":"present","rt":1170.5,"correct":true,"confidence":3},{"trial_n":71,"min":41,"max":214,"target":"present","response":"absent","rt":7051.8999999762,"correct":false,"confidence":-1},{"trial_n":72,"min":41,"max":214,"target":"present","response":"present","rt":1287.599999994,"correct":true,"confidence":-1},{"trial_n":73,"min":41,"max":214,"target":"absent","response":"present","rt":1045,"correct":false,"confidence":-1},{"trial_n":74,"min":25,"max":230,"target":"absent","response":"absent","rt":1817.5,"correct":true,"confidence":-1},{"trial_n":75,"min":25,"max":230,"target":"present","response":"present","rt":1298.099999994,"correct":true,"confidence":-1},{"trial_n":76,"min":41,"max":214,"target":"present","response":"present","rt":936.69999998808,"correct":true,"confidence":-1},{"trial_n":77,"min":41,"max":214,"target":"present","response":"present","rt":1036.1999999881,"correct":true,"confidence":-1},{"trial_n":78,"min":57,"max":198,"target":"absent","response":"absent","rt":1975.400000006,"correct":true,"confidence":-1},{"trial_n":79,"min":57,"max":198,"target":"absent","response":"absent","rt":1775.599999994,"correct":true,"confidence":-1},{"trial_n":80,"min":73,"max":182,"target":"present","response":"present","rt":2707.099999994,"correct":true,"confidence":-1},{"trial_n":81,"min":73,"max":182,"target":"absent","response":"absent","rt":1663.8999999762,"correct":true,"confidence":-1},{"trial_n":82,"min":81,"max":174,"target":"absent","response":"absent","rt":1049.5,"correct":true,"confidence":-1},{"trial_n":83,"min":81,"max":174,"target":"absent","response":"present","rt":1796.599999994,"correct":false,"confidence":-1},{"trial_n":84,"min":73,"max":182,"target":"present","response":"present","rt":1701.400000006,"correct":true,"confidence":-1},{"trial_n":85,"min":73,"max":182,"target":"present","response":"present","rt":1398.900000006,"correct":true,"confidence":-1},{"trial_n":86,"min":81,"max":174,"target":"absent","response":"absent","rt":1299,"correct":true,"confidence":-1},{"trial_n":87,"min":81,"max":174,"target":"absent","response":"present","rt":1638.6000000238,"correct":false,"confidence":-1},{"trial_n":88,"min":73,"max":182,"target":"absent","response":"absent","rt":1711.8999999762,"correct":true,"confidence":-1},{"trial_n":89,"min":73,"max":182,"target":"absent","response":"absent","rt":2008.5,"correct":true,"confidence":-1},{"trial_n":90,"min":81,"max":174,"target":"present","response":"present","rt":1150.3000000119,"correct":true,"confidence":-1},{"trial_n":91,"min":81,"max":174,"target":"absent","response":"absent","rt":1848.900000006,"correct":true,"confidence":3},{"trial_n":92,"min":85,"max":170,"target":"absent","response":"present","rt":1961.2000000179,"correct":false,"confidence":2},{"trial_n":93,"min":81,"max":174,"target":"absent","response":"absent","rt":1111,"correct":true,"confidence":4},{"trial_n":94,"min":81,"max":174,"target":"present","response":"present","rt":1287.099999994,"correct":true,"confidence":4},{"trial_n":95,"min":85,"max":170,"target":"present","response":"present","rt":1112.400000006,"correct":true,"confidence":3},{"trial_n":96,"min":85,"max":170,"target":"present","response":"present","rt":1417.5,"correct":true,"confidence":3},{"trial_n":97,"min":89,"max":166,"target":"absent","response":"present","rt":1452.1999999881,"correct":false,"confidence":2},{"trial_n":98,"min":85,"max":170,"target":"absent","response":"absent","rt":1369.1999999881,"correct":true,"confidence":4},{"trial_n":99,"min":85,"max":170,"target":"absent","response":"present","rt":1448.400000006,"correct":false,"confidence":3},{"trial_n":100,"min":81,"max":174,"target":"absent","response":"present","rt":1360,"correct":false,"confidence":2},{"trial_n":101,"min":79,"max":176,"target":"present","response":"present","rt":2593.6000000238,"correct":true,"confidence":2},{"trial_n":102,"min":79,"max":176,"target":"present","response":"present","rt":992.59999999404,"correct":true,"confidence":5},{"trial_n":103,"min":81,"max":174,"target":"absent","response":"present","rt":1417.5,"correct":false,"confidence":2},{"trial_n":104,"min":79,"max":176,"target":"present","response":"present","rt":1260.400000006,"correct":true,"confidence":2},{"trial_n":105,"min":79,"max":176,"target":"present","response":"present","rt":1296.099999994,"correct":true,"confidence":4},{"trial_n":106,"min":81,"max":174,"target":"absent","response":"absent","rt":1623.7000000179,"correct":true,"confidence":4},{"trial_n":107,"min":81,"max":174,"target":"present","response":"present","rt":1225.1000000238,"correct":true,"confidence":3},{"trial_n":108,"min":83,"max":172,"target":"present","response":"present","rt":1261.6999999881,"correct":true,"confidence":1},{"trial_n":109,"min":83,"max":172,"target":"absent","response":"absent","rt":1289.3000000119,"correct":true,"confidence":3},{"trial_n":110,"min":85,"max":170,"target":"present","response":"present","rt":1223,"correct":true,"confidence":3},{"trial_n":111,"min":85,"max":170,"target":"present","response":"present","rt":1035.599999994,"correct":true,"confidence":4},{"trial_n":112,"min":86,"max":169,"target":"absent","response":"present","rt":1341.8000000119,"correct":false,"confidence":1},{"trial_n":113,"min":85,"max":170,"target":"absent","response":"present","rt":2536.3000000119,"correct":false,"confidence":1},{"trial_n":114,"min":84,"max":171,"target":"present","response":"present","rt":1696.5,"correct":true,"confidence":2},{"trial_n":115,"min":84,"max":171,"target":"absent","response":"absent","rt":1757.2000000179,"correct":true,"confidence":2},{"trial_n":116,"min":85,"max":170,"target":"present","response":"absent","rt":1765.6999999881,"correct":false,"confidence":3},{"trial_n":117,"min":84,"max":171,"target":"present","response":"present","rt":2069.3000000119,"correct":true,"confidence":3},{"trial_n":118,"min":84,"max":171,"target":"present","response":"present","rt":975.59999999404,"correct":true,"confidence":5},{"trial_n":119,"min":85,"max":170,"target":"present","response":"present","rt":1227,"correct":true,"confidence":3},{"trial_n":120,"min":85,"max":170,"target":"present","response":"present","rt":1886.099999994,"correct":true,"confidence":1},{"trial_n":121,"min":86,"max":169,"target":"absent","response":"absent","rt":1086.6999999881,"correct":true,"confidence":3},{"trial_n":122,"min":86,"max":169,"target":"present","response":"absent","rt":1500.2000000179,"correct":false,"confidence":3},{"trial_n":123,"min":85,"max":170,"target":"absent","response":"absent","rt":1371.5,"correct":true,"confidence":3},{"trial_n":124,"min":85,"max":170,"target":"present","response":"present","rt":1064.900000006,"correct":true,"confidence":5},{"trial_n":125,"min":86,"max":169,"target":"present","response":"present","rt":1204.599999994,"correct":true,"confidence":5},{"trial_n":126,"min":86,"max":169,"target":"present","response":"present","rt":1342.5,"correct":true,"confidence":1},{"trial_n":127,"min":87,"max":168,"target":"absent","response":"present","rt":1316.6000000238,"correct":false,"confidence":1},{"trial_n":128,"min":86,"max":169,"target":"present","response":"present","rt":1168.1999999881,"correct":true,"confidence":1},{"trial_n":129,"min":86,"max":169,"target":"present","response":"present","rt":981.39999997616,"correct":true,"confidence":4},{"trial_n":130,"min":87,"max":168,"target":"present","response":"present","rt":1071.5,"correct":true,"confidence":3},{"trial_n":131,"min":87,"max":168,"target":"absent","response":"absent","rt":1246,"correct":true,"confidence":4},{"trial_n":132,"min":88,"max":167,"target":"absent","response":"absent","rt":1090.7000000179,"correct":true,"confidence":3},{"trial_n":133,"min":88,"max":167,"target":"absent","response":"absent","rt":1043.099999994,"correct":true,"confidence":2},{"trial_n":134,"min":89,"max":166,"target":"absent","response":"absent","rt":1111.6999999881,"correct":true,"confidence":3},{"trial_n":135,"min":89,"max":166,"target":"absent","response":"present","rt":1260,"correct":false,"confidence":1},{"trial_n":136,"min":88,"max":167,"target":"present","response":"present","rt":1367.2000000179,"correct":true,"confidence":3},{"trial_n":137,"min":88,"max":167,"target":"present","response":"present","rt":1884.900000006,"correct":true,"confidence":3},{"trial_n":138,"min":89,"max":166,"target":"present","response":"present","rt":1923.2999999821,"correct":true,"confidence":2},{"trial_n":139,"min":89,"max":166,"target":"absent","response":"absent","rt":1299.8999999762,"correct":true,"confidence":4},{"trial_n":140,"min":90,"max":165,"target":"absent","response":"present","rt":2187.1999999881,"correct":false,"confidence":1}]