[{"trial_n":1,"min":25,"max":230,"target":"present","response":"present","rt":5935.6000000238,"correct":true,"confidence":-1},{"trial_n":2,"min":25,"max":230,"target":"present","response":"present","rt":5288.6999999881,"correct":true,"confidence":-1},{"trial_n":3,"min":41,"max":214,"target":"absent","response":"absent","rt":1161.5999999642,"correct":true,"confidence":-1},{"trial_n":4,"min":41,"max":214,"target":"absent","response":"absent","rt":1375.3999999762,"correct":true,"confidence":-1},{"trial_n":5,"min":57,"max":198,"target":"present","response":"present","rt":1017,"correct":true,"confidence":-1},{"trial_n":6,"min":57,"max":198,"target":"absent","response":"absent","rt":1147.3999999762,"correct":true,"confidence":-1},{"trial_n":7,"min":73,"max":182,"target":"absent","response":"absent","rt":3376.3000000119,"correct":true,"confidence":-1},{"trial_n":8,"min":73,"max":182,"target":"absent","response":"absent","rt":795.39999997616,"correct":true,"confidence":-1},{"trial_n":9,"min":89,"max":166,"target":"present","response":"absent","rt":725.90000003576,"correct":false,"confidence":-1},{"trial_n":10,"min":73,"max":182,"target":"present","response":"present","rt":6150.7999999523,"correct":true,"confidence":-1},{"trial_n":11,"min":73,"max":182,"target":"absent","response":"absent","rt":928.5,"correct":true,"confidence":-1},{"trial_n":12,"min":81,"max":174,"target":"present","response":"present","rt":1429.8999999762,"correct":true,"confidence":-1},{"trial_n":13,"min":81,"max":174,"target":"present","response":"absent","rt":1646.6999999881,"correct":false,"confidence":-1},{"trial_n":14,"min":73,"max":182,"target":"present","response":"absent","rt":917.39999997616,"correct":false,"confidence":-1},{"trial_n":15,"min":65,"max":190,"target":"present","response":"present","rt":1140.7999999523,"correct":true,"confidence":-1},{"trial_n":16,"min":65,"max":190,"target":"absent","response":"absent","rt":1827.2000000477,"correct":true,"confidence":-1},{"trial_n":17,"min":73,"max":182,"target":"absent","response":"absent","rt":1391.1999999881,"correct":true,"confidence":-1},{"trial_n":18,"min":73,"max":182,"target":"present","response":"present","rt":1147.8000000119,"correct":true,"confidence":-1},{"trial_n":19,"min":81,"max":174,"target":"absent","response":"absent","rt":1060.7999999523,"correct":true,"confidence":-1},{"trial_n":20,"min":81,"max":174,"target":"absent","response":"absent","rt":1500.5,"correct":true,"confidence":-1},{"trial_n":21,"min":85,"max":170,"target":"present","response":"present","rt":1478.2999999523,"correct":true,"confidence":4},{"trial_n":22,"min":85,"max":170,"target":"present","response":"absent","rt":1358.1000000238,"correct":false,"confidence":3},{"trial_n":23,"min":81,"max":174,"target":"present","response":"absent","rt":1131.8999999762,"correct":false,"confidence":3},{"trial_n":24,"min":77,"max":178,"target":"absent","response":"absent","rt":3353.8000000119,"correct":true,"confidence":2},{"trial_n":25,"min":77,"max":178,"target":"present","response":"present","rt":906.59999996424,"correct":true,"confidence":4},{"trial_n":26,"min":81,"max":174,"target":"present","response":"present","rt":1671.5,"correct":true,"confidence":3},{"trial_n":27,"min":81,"max":174,"target":"present","response":"present","rt":1920.4000000358,"correct":true,"confidence":2},{"trial_n":28,"min":85,"max":170,"target":"present","response":"absent","rt":1367.6999999881,"correct":false,"confidence":3},{"trial_n":29,"min":81,"max":174,"target":"absent","response":"present","rt":1570.5999999642,"correct":false,"confidence":3},{"trial_n":30,"min":77,"max":178,"target":"present","response":"present","rt":1043.1999999881,"correct":true,"confidence":4},{"trial_n":31,"min":77,"max":178,"target":"absent","response":"absent","rt":1646.6000000238,"correct":true,"confidence":2},{"trial_n":32,"min":79,"max":176,"target":"absent","response":"absent","rt":1669.3000000119,"correct":true,"confidence":2},{"trial_n":33,"min":79,"max":176,"target":"present","response":"absent","rt":2034,"correct":false,"confidence":1},{"trial_n":34,"min":77,"max":178,"target":"present","response":"present","rt":883.5,"correct":true,"confidence":4},{"trial_n":35,"min":77,"max":178,"target":"present","response":"present","rt":2398.9000000358,"correct":true,"confidence":1},{"trial_n":36,"min":79,"max":176,"target":"present","response":"present","rt":1103,"correct":true,"confidence":4},{"trial_n":37,"min":79,"max":176,"target":"absent","response":"absent","rt":938,"correct":true,"confidence":2},{"trial_n":38,"min":81,"max":174,"target":"present","response":"present","rt":1062,"correct":true,"confidence":3},{"trial_n":39,"min":81,"max":174,"target":"present","response":"present","rt":1579.3999999762,"correct":true,"confidence":4},{"trial_n":40,"min":83,"max":172,"target":"present","response":"present","rt":1664.8999999762,"correct":true,"confidence":3},{"trial_n":41,"min":83,"max":172,"target":"absent","response":"absent","rt":2229.4000000358,"correct":true,"confidence":3},{"trial_n":42,"min":84,"max":171,"target":"absent","response":"absent","rt":868.69999998808,"correct":true,"confidence":3},{"trial_n":43,"min":84,"max":171,"target":"absent","response":"absent","rt":928,"correct":true,"confidence":3},{"trial_n":44,"min":85,"max":170,"target":"absent","response":"absent","rt":1113.6000000238,"correct":true,"confidence":3},{"trial_n":45,"min":85,"max":170,"target":"present","response":"present","rt":778.89999997616,"correct":true,"confidence":3},{"trial_n":46,"min":86,"max":169,"target":"absent","response":"absent","rt":1206.3000000119,"correct":true,"confidence":3},{"trial_n":47,"min":86,"max":169,"target":"present","response":"absent","rt":2998.1999999881,"correct":false,"confidence":2},{"trial_n":48,"min":85,"max":170,"target":"present","response":"present","rt":1453.3000000119,"correct":true,"confidence":3},{"trial_n":49,"min":85,"max":170,"target":"present","response":"absent","rt":1788.0999999642,"correct":false,"confidence":2},{"trial_n":50,"min":84,"max":171,"target":"present","response":"absent","rt":1065.3999999762,"correct":false,"confidence":3},{"trial_n":51,"min":83,"max":172,"target":"present","response":"present","rt":1409.1000000238,"correct":true,"confidence":3},{"trial_n":52,"min":83,"max":172,"target":"absent","response":"absent","rt":877.60000002384,"correct":true,"confidence":4},{"trial_n":53,"min":84,"max":171,"target":"absent","response":"absent","rt":1536,"correct":true,"confidence":3},{"trial_n":54,"min":84,"max":171,"target":"absent","response":"absent","rt":747.29999995232,"correct":true,"confidence":4},{"trial_n":55,"min":85,"max":170,"target":"present","response":"present","rt":2343.1999999881,"correct":true,"confidence":3},{"trial_n":56,"min":85,"max":170,"target":"present","response":"absent","rt":1008.9000000358,"correct":false,"confidence":2},{"trial_n":57,"min":84,"max":171,"target":"absent","response":"absent","rt":861.40000003576,"correct":true,"confidence":2},{"trial_n":58,"min":84,"max":171,"target":"absent","response":"present","rt":1191.1999999881,"correct":false,"confidence":3},{"trial_n":59,"min":83,"max":172,"target":"present","response":"present","rt":1021.1999999881,"correct":true,"confidence":4},{"trial_n":60,"min":83,"max":172,"target":"absent","response":"absent","rt":919.90000003576,"correct":true,"confidence":2},{"trial_n":61,"min":84,"max":171,"target":"present","response":"present","rt":1375.4000000358,"correct":true,"confidence":4},{"trial_n":62,"min":84,"max":171,"target":"absent","response":"absent","rt":724.5,"correct":true,"confidence":2},{"trial_n":63,"min":85,"max":170,"target":"absent","response":"absent","rt":1178,"correct":true,"confidence":2},{"trial_n":64,"min":85,"max":170,"target":"present","response":"present","rt":2268.6000000238,"correct":true,"confidence":3},{"trial_n":65,"min":86,"max":169,"target":"absent","response":"absent","rt":1977.0999999642,"correct":true,"confidence":3},{"trial_n":66,"min":86,"max":169,"target":"absent","response":"absent","rt":935.19999998808,"correct":true,"confidence":3},{"trial_n":67,"min":87,"max":168,"target":"absent","response":"present","rt":1940.3999999762,"correct":false,"confidence":2},{"trial_n":68,"min":86,"max":169,"target":"absent","response":"absent","rt":1126.1999999881,"correct":true,"confidence":3},{"trial_n":69,"min":86,"max":169,"target":"absent","response":"present","rt":1837.5999999642,"correct":false,"confidence":2},{"trial_n":70,"min":85,"max":170,"target":"absent","response":"present","rt":1650.9000000358,"correct":false,"confidence":2},{"trial_n":71,"min":41,"max":214,"target":"present","response":"present","rt":3521,"correct":true,"confidence":-1},{"trial_n":72,"min":41,"max":214,"target":"present","response":"present","rt":966.5,"correct":true,"confidence":-1},{"trial_n":73,"min":57,"max":198,"target":"absent","response":"absent","rt":1292.1000000238,"correct":true,"confidence":-1},{"trial_n":74,"min":57,"max":198,"target":"absent","response":"absent","rt":396.60000002384,"correct":true,"confidence":-1},{"trial_n":75,"min":73,"max":182,"target":"present","response":"present","rt":531.70000004768,"correct":true,"confidence":-1},{"trial_n":76,"min":73,"max":182,"target":"absent","response":"absent","rt":772.30000001192,"correct":true,"confidence":-1},{"trial_n":77,"min":89,"max":166,"target":"present","response":"present","rt":472.29999995232,"correct":true,"confidence":-1},{"trial_n":78,"min":89,"max":166,"target":"absent","response":"absent","rt":412.60000002384,"correct":true,"confidence":-1},{"trial_n":79,"min":105,"max":150,"target":"absent","response":"absent","rt":1082.5999999642,"correct":true,"confidence":-1},{"trial_n":80,"min":105,"max":150,"target":"present","response":"present","rt":454.40000003576,"correct":true,"confidence":-1},{"trial_n":81,"min":113,"max":142,"target":"absent","response":"absent","rt":1105.3000000119,"correct":true,"confidence":-1},{"trial_n":82,"min":113,"max":142,"target":"absent","response":"present","rt":750.19999998808,"correct":false,"confidence":-1},{"trial_n":83,"min":105,"max":150,"target":"absent","response":"absent","rt":2199.3000000119,"correct":true,"confidence":-1},{"trial_n":84,"min":105,"max":150,"target":"absent","response":"absent","rt":530.10000002384,"correct":true,"confidence":-1},{"trial_n":85,"min":113,"max":142,"target":"absent","response":"absent","rt":376,"correct":true,"confidence":-1},{"trial_n":86,"min":113,"max":142,"target":"present","response":"absent","rt":3876.0999999642,"correct":false,"confidence":-1},{"trial_n":87,"min":105,"max":150,"target":"present","response":"absent","rt":503.89999997616,"correct":false,"confidence":-1},{"trial_n":88,"min":97,"max":158,"target":"present","response":"present","rt":666.10000002384,"correct":true,"confidence":-1},{"trial_n":89,"min":97,"max":158,"target":"absent","response":"absent","rt":509.10000002384,"correct":true,"confidence":-1},{"trial_n":90,"min":105,"max":150,"target":"present","response":"present","rt":637.5,"correct":true,"confidence":-1},{"trial_n":91,"min":105,"max":150,"target":"absent","response":"present","rt":572.29999995232,"correct":false,"confidence":3},{"trial_n":92,"min":101,"max":154,"target":"present","response":"present","rt":609.89999997616,"correct":true,"confidence":2},{"trial_n":93,"min":101,"max":154,"target":"absent","response":"absent","rt":1198.8000000119,"correct":true,"confidence":1},{"trial_n":94,"min":105,"max":150,"target":"present","response":"present","rt":468.5,"correct":true,"confidence":1},{"trial_n":95,"min":105,"max":150,"target":"absent","response":"present","rt":687.30000001192,"correct":false,"confidence":1},{"trial_n":96,"min":101,"max":154,"target":"absent","response":"present","rt":1565.3000000119,"correct":false,"confidence":2},{"trial_n":97,"min":97,"max":158,"target":"present","response":"present","rt":539.10000002384,"correct":true,"confidence":1},{"trial_n":98,"min":97,"max":158,"target":"present","response":"present","rt":546.59999996424,"correct":true,"confidence":1},{"trial_n":99,"min":101,"max":154,"target":"absent","response":"absent","rt":205,"correct":true,"confidence":1},{"trial_n":100,"min":101,"max":154,"target":"absent","response":"present","rt":271.60000002384,"correct":false,"confidence":1},{"trial_n":101,"min":99,"max":156,"target":"absent","response":"present","rt":412.10000002384,"correct":false,"confidence":1},{"trial_n":102,"min":97,"max":158,"target":"absent","response":"present","rt":428.59999996424,"correct":false,"confidence":1},{"trial_n":103,"min":95,"max":160,"target":"present","response":"absent","rt":4533,"correct":false,"confidence":2},{"trial_n":104,"min":93,"max":162,"target":"absent","response":"present","rt":1275.1999999881,"correct":false,"confidence":1},{"trial_n":105,"min":91,"max":164,"target":"present","response":"present","rt":531.80000001192,"correct":true,"confidence":4},{"trial_n":106,"min":91,"max":164,"target":"absent","response":"absent","rt":1222.2000000477,"correct":true,"confidence":1},{"trial_n":107,"min":93,"max":162,"target":"present","response":"present","rt":350.10000002384,"correct":true,"confidence":4},{"trial_n":108,"min":93,"max":162,"target":"absent","response":"present","rt":1321.8999999762,"correct":false,"confidence":1},{"trial_n":109,"min":91,"max":164,"target":"present","response":"absent","rt":918.39999997616,"correct":false,"confidence":1},{"trial_n":110,"min":89,"max":166,"target":"present","response":"present","rt":532,"correct":true,"confidence":3},{"trial_n":111,"min":89,"max":166,"target":"present","response":"present","rt":1565.9000000358,"correct":true,"confidence":1},{"trial_n":112,"min":90,"max":165,"target":"absent","response":"absent","rt":1031.0999999642,"correct":true,"confidence":2},{"trial_n":113,"min":90,"max":165,"target":"present","response":"present","rt":562.80000001192,"correct":true,"confidence":2},{"trial_n":114,"min":91,"max":164,"target":"absent","response":"present","rt":724,"correct":false,"confidence":2},{"trial_n":115,"min":90,"max":165,"target":"present","response":"present","rt":1037.5,"correct":true,"confidence":2},{"trial_n":116,"min":90,"max":165,"target":"absent","response":"present","rt":737.30000001192,"correct":false,"confidence":1},{"trial_n":117,"min":89,"max":166,"target":"present","response":"present","rt":484.60000002384,"correct":true,"confidence":1},{"trial_n":118,"min":89,"max":166,"target":"present","response":"present","rt":487.20000004768,"correct":true,"confidence":3},{"trial_n":119,"min":90,"max":165,"target":"present","response":"present","rt":345.19999998808,"correct":true,"confidence":1},{"trial_n":120,"min":90,"max":165,"target":"present","response":"present","rt":959,"correct":true,"confidence":2},{"trial_n":121,"min":91,"max":164,"target":"present","response":"present","rt":1732,"correct":true,"confidence":1},{"trial_n":122,"min":91,"max":164,"target":"present","response":"present","rt":995.80000001192,"correct":true,"confidence":2},{"trial_n":123,"min":92,"max":163,"target":"present","response":"present","rt":1335.4000000358,"correct":true,"confidence":1},{"trial_n":124,"min":92,"max":163,"target":"absent","response":"present","rt":984.59999996424,"correct":false,"confidence":1},{"trial_n":125,"min":91,"max":164,"target":"absent","response":"present","rt":1305.2000000477,"correct":false,"confidence":1},{"trial_n":126,"min":90,"max":165,"target":"absent","response":"present","rt":1113.5,"correct":false,"confidence":1},{"trial_n":127,"min":89,"max":166,"target":"absent","response":"present","rt":894.69999998808,"correct":false,"confidence":1},{"trial_n":128,"min":88,"max":167,"target":"present","response":"present","rt":992.69999998808,"correct":true,"confidence":2},{"trial_n":129,"min":88,"max":167,"target":"present","response":"present","rt":1679.6999999881,"correct":true,"confidence":1},{"trial_n":130,"min":89,"max":166,"target":"absent","response":"present","rt":813.39999997616,"correct":false,"confidence":1},{"trial_n":131,"min":88,"max":167,"target":"present","response":"present","rt":1471.2000000477,"correct":true,"confidence":1},{"trial_n":132,"min":88,"max":167,"target":"present","response":"present","rt":847,"correct":true,"confidence":3},{"trial_n":133,"min":89,"max":166,"target":"absent","response":"present","rt":1242.6000000238,"correct":false,"confidence":1},{"trial_n":134,"min":88,"max":167,"target":"present","response":"present","rt":1223.6999999881,"correct":true,"confidence":2},{"trial_n":135,"min":88,"max":167,"target":"absent","response":"absent","rt":1275.8999999762,"correct":true,"confidence":2},{"trial_n":136,"min":89,"max":166,"target":"absent","response":"absent","rt":1311.3000000119,"correct":true,"confidence":2},{"trial_n":137,"min":89,"max":166,"target":"present","response":"present","rt":1138.1999999881,"correct":true,"confidence":2},{"trial_n":138,"min":90,"max":165,"target":"present","response":"present","rt":1284.3000000119,"correct":true,"confidence":3},{"trial_n":139,"min":90,"max":165,"target":"absent","response":"present","rt":1969.7000000477,"correct":false,"confidence":2},{"trial_n":140,"min":89,"max":166,"target":"present","response":"present","rt":1096.6000000238,"correct":true,"confidence":3}]