[{"trial_n":1,"n_dots":4.25,"target":"left","response":"left","rt":2219.1000000001,"correct":true,"confidence":-1},{"trial_n":2,"n_dots":4.25,"target":"right","response":"right","rt":477.5,"correct":true,"confidence":-1},{"trial_n":3,"n_dots":3.85,"target":"left","response":"left","rt":1794.3999999999,"correct":true,"confidence":-1},{"trial_n":4,"n_dots":3.85,"target":"right","response":"right","rt":596.70000000019,"correct":true,"confidence":-1},{"trial_n":5,"n_dots":3.45,"target":"left","response":"left","rt":527.5,"correct":true,"confidence":-1},{"trial_n":6,"n_dots":3.45,"target":"left","response":"right","rt":546,"correct":false,"confidence":-1},{"trial_n":7,"n_dots":3.85,"target":"right","response":"right","rt":562.89999999991,"correct":true,"confidence":-1},{"trial_n":8,"n_dots":3.85,"target":"right","response":"right","rt":494.10000000009,"correct":true,"confidence":-1},{"trial_n":9,"n_dots":3.65,"target":"left","response":"left","rt":27.600000000093,"correct":true,"confidence":-1},{"trial_n":10,"n_dots":3.65,"target":"left","response":"left","rt":794,"correct":true,"confidence":-1},{"trial_n":11,"n_dots":3.45,"target":"right","response":"right","rt":530,"correct":true,"confidence":-1},{"trial_n":12,"n_dots":3.45,"target":"left","response":"left","rt":806.69999999972,"correct":true,"confidence":-1},{"trial_n":13,"n_dots":3.35,"target":"right","response":"left","rt":734.5,"correct":false,"confidence":-1},{"trial_n":14,"n_dots":3.45,"target":"left","response":"left","rt":456.10000000009,"correct":true,"confidence":-1},{"trial_n":15,"n_dots":3.45,"target":"left","response":"right","rt":2587.2000000002,"correct":false,"confidence":-1},{"trial_n":16,"n_dots":3.55,"target":"left","response":"right","rt":1602.3999999999,"correct":false,"confidence":-1},{"trial_n":17,"n_dots":3.65,"target":"left","response":"left","rt":522.5,"correct":true,"confidence":-1},{"trial_n":18,"n_dots":3.65,"target":"left","response":"left","rt":673.89999999991,"correct":true,"confidence":-1},{"trial_n":19,"n_dots":3.55,"target":"left","response":"left","rt":691.29999999981,"correct":true,"confidence":-1},{"trial_n":20,"n_dots":3.55,"target":"right","response":"left","rt":663.39999999991,"correct":false,"confidence":-1},{"trial_n":21,"n_dots":3.65,"target":"left","response":"left","rt":1307.6000000006,"correct":true,"confidence":3},{"trial_n":22,"n_dots":3.65,"target":"left","response":"right","rt":2507.8999999994,"correct":false,"confidence":3},{"trial_n":23,"n_dots":3.75,"target":"left","response":"left","rt":1018.0999999996,"correct":true,"confidence":3},{"trial_n":24,"n_dots":3.75,"target":"right","response":"right","rt":738.60000000056,"correct":true,"confidence":4},{"trial_n":25,"n_dots":3.65,"target":"left","response":"left","rt":367.40000000037,"correct":true,"confidence":3},{"trial_n":26,"n_dots":3.65,"target":"left","response":"right","rt":1355.7999999998,"correct":false,"confidence":4},{"trial_n":27,"n_dots":3.75,"target":"right","response":"right","rt":1162.5,"correct":true,"confidence":4},{"trial_n":28,"n_dots":3.75,"target":"left","response":"right","rt":774,"correct":false,"confidence":4},{"trial_n":29,"n_dots":3.85,"target":"left","response":"left","rt":390,"correct":true,"confidence":3},{"trial_n":30,"n_dots":3.85,"target":"right","response":"right","rt":2642.2000000002,"correct":true,"confidence":4},{"trial_n":31,"n_dots":3.75,"target":"left","response":"left","rt":509.29999999981,"correct":true,"confidence":3},{"trial_n":32,"n_dots":3.75,"target":"right","response":"right","rt":376.79999999981,"correct":true,"confidence":5},{"trial_n":33,"n_dots":3.65,"target":"left","response":"right","rt":571.29999999981,"correct":false,"confidence":3},{"trial_n":34,"n_dots":3.75,"target":"right","response":"right","rt":426.90000000037,"correct":true,"confidence":4},{"trial_n":35,"n_dots":3.75,"target":"right","response":"right","rt":423.29999999981,"correct":true,"confidence":5},{"trial_n":36,"n_dots":3.65,"target":"left","response":"right","rt":622.79999999981,"correct":false,"confidence":3},{"trial_n":37,"n_dots":3.75,"target":"right","response":"right","rt":649.89999999944,"correct":true,"confidence":3},{"trial_n":38,"n_dots":3.75,"target":"left","response":"left","rt":266,"correct":true,"confidence":5},{"trial_n":39,"n_dots":3.65,"target":"left","response":"left","rt":400.5,"correct":true,"confidence":4},{"trial_n":40,"n_dots":3.65,"target":"right","response":"right","rt":108.39999999944,"correct":true,"confidence":4},{"trial_n":41,"n_dots":3.55,"target":"left","response":"left","rt":744.29999999981,"correct":true,"confidence":4},{"trial_n":42,"n_dots":3.55,"target":"right","response":"right","rt":372.70000000019,"correct":true,"confidence":4},{"trial_n":43,"n_dots":3.45,"target":"right","response":"right","rt":149.79999999981,"correct":true,"confidence":3},{"trial_n":44,"n_dots":3.45,"target":"left","response":"left","rt":99,"correct":true,"confidence":4},{"trial_n":45,"n_dots":3.35,"target":"left","response":"left","rt":204.39999999944,"correct":true,"confidence":4},{"trial_n":46,"n_dots":3.35,"target":"right","response":"right","rt":222.39999999944,"correct":true,"confidence":4},{"trial_n":47,"n_dots":3.25,"target":"left","response":"left","rt":663.40000000037,"correct":true,"confidence":4},{"trial_n":48,"n_dots":3.25,"target":"right","response":"right","rt":357.80000000075,"correct":true,"confidence":4},{"trial_n":49,"n_dots":3.15,"target":"left","response":"right","rt":367.39999999944,"correct":false,"confidence":4},{"trial_n":50,"n_dots":3.25,"target":"left","response":"left","rt":215.70000000019,"correct":true,"confidence":4},{"trial_n":51,"n_dots":3.25,"target":"left","response":"left","rt":33.299999999814,"correct":true,"confidence":4},{"trial_n":52,"n_dots":3.15,"target":"right","response":"right","rt":631.20000000019,"correct":true,"confidence":4},{"trial_n":53,"n_dots":3.15,"target":"right","response":"left","rt":61.599999999627,"correct":false,"confidence":3},{"trial_n":54,"n_dots":3.25,"target":"right","response":"right","rt":309.79999999981,"correct":true,"confidence":3},{"trial_n":55,"n_dots":3.25,"target":"left","response":"left","rt":248.09999999963,"correct":true,"confidence":4},{"trial_n":56,"n_dots":3.15,"target":"left","response":"left","rt":417.90000000037,"correct":true,"confidence":3},{"trial_n":57,"n_dots":3.15,"target":"right","response":"right","rt":521.20000000019,"correct":true,"confidence":3},{"trial_n":58,"n_dots":3.05,"target":"left","response":"left","rt":295.39999999944,"correct":true,"confidence":4},{"trial_n":59,"n_dots":3.05,"target":"left","response":"left","rt":400,"correct":true,"confidence":4},{"trial_n":60,"n_dots":2.95,"target":"right","response":"right","rt":289.79999999981,"correct":true,"confidence":4},{"trial_n":61,"n_dots":2.95,"target":"right","response":"right","rt":280.09999999963,"correct":true,"confidence":3},{"trial_n":62,"n_dots":2.85,"target":"right","response":"right","rt":94.400000000373,"correct":true,"confidence":3},{"trial_n":63,"n_dots":2.85,"target":"right","response":"right","rt":49,"correct":true,"confidence":2},{"trial_n":64,"n_dots":2.75,"target":"left","response":"left","rt":313.09999999963,"correct":true,"confidence":4},{"trial_n":65,"n_dots":2.75,"target":"right","response":"right","rt":541.89999999944,"correct":true,"confidence":4},{"trial_n":66,"n_dots":2.65,"target":"right","response":"right","rt":385.20000000019,"correct":true,"confidence":4},{"trial_n":67,"n_dots":2.65,"target":"right","response":"right","rt":273.20000000019,"correct":true,"confidence":3},{"trial_n":68,"n_dots":2.55,"target":"left","response":"right","rt":4.7000000001863,"correct":false,"confidence":3},{"trial_n":69,"n_dots":2.65,"target":"right","response":"right","rt":359.19999999925,"correct":true,"confidence":4},{"trial_n":70,"n_dots":2.65,"target":"left","response":"left","rt":533.29999999981,"correct":true,"confidence":4},{"trial_n":71,"n_dots":2.55,"target":"right","response":"right","rt":67.200000000186,"correct":true,"confidence":4},{"trial_n":72,"n_dots":2.55,"target":"left","response":"left","rt":333.40000000037,"correct":true,"confidence":4},{"trial_n":73,"n_dots":2.45,"target":"right","response":"right","rt":432.90000000037,"correct":true,"confidence":4},{"trial_n":74,"n_dots":2.45,"target":"left","response":"left","rt":97.5,"correct":true,"confidence":4},{"trial_n":75,"n_dots":2.35,"target":"left","response":"right","rt":814.90000000037,"correct":false,"confidence":4},{"trial_n":76,"n_dots":2.45,"target":"right","response":"right","rt":477.5,"correct":true,"confidence":4},{"trial_n":77,"n_dots":2.45,"target":"left","response":"right","rt":849,"correct":false,"confidence":3},{"trial_n":78,"n_dots":2.55,"target":"right","response":"right","rt":1157.5,"correct":true,"confidence":4},{"trial_n":79,"n_dots":2.55,"target":"right","response":"right","rt":13.599999999627,"correct":true,"confidence":4},{"trial_n":80,"n_dots":2.45,"target":"right","response":"right","rt":732.89999999944,"correct":true,"confidence":4},{"trial_n":81,"n_dots":2.45,"target":"right","response":"left","rt":3197.7999999998,"correct":false,"confidence":3},{"trial_n":82,"n_dots":2.55,"target":"left","response":"right","rt":2818.1000000006,"correct":false,"confidence":4},{"trial_n":83,"n_dots":2.65,"target":"left","response":"right","rt":422.5,"correct":false,"confidence":4},{"trial_n":84,"n_dots":2.75,"target":"right","response":"right","rt":330.10000000056,"correct":true,"confidence":4},{"trial_n":85,"n_dots":2.75,"target":"right","response":"left","rt":1312.7999999998,"correct":false,"confidence":4},{"trial_n":86,"n_dots":2.85,"target":"right","response":"right","rt":422.5,"correct":true,"confidence":4},{"trial_n":87,"n_dots":2.85,"target":"left","response":"right","rt":362.09999999963,"correct":false,"confidence":3},{"trial_n":88,"n_dots":2.95,"target":"left","response":"left","rt":437.60000000056,"correct":true,"confidence":4},{"trial_n":89,"n_dots":2.95,"target":"left","response":"right","rt":228.70000000019,"correct":false,"confidence":4},{"trial_n":90,"n_dots":3.05,"target":"left","response":"left","rt":259.20000000019,"correct":true,"confidence":4},{"trial_n":91,"n_dots":3.05,"target":"right","response":"right","rt":289.59999999963,"correct":true,"confidence":4},{"trial_n":92,"n_dots":2.95,"target":"left","response":"right","rt":247.5,"correct":false,"confidence":2},{"trial_n":93,"n_dots":3.05,"target":"right","response":"right","rt":265,"correct":true,"confidence":4},{"trial_n":94,"n_dots":3.05,"target":"right","response":"right","rt":326.29999999981,"correct":true,"confidence":4},{"trial_n":95,"n_dots":2.95,"target":"right","response":"right","rt":365,"correct":true,"confidence":4},{"trial_n":96,"n_dots":2.95,"target":"right","response":"left","rt":265.70000000019,"correct":false,"confidence":4},{"trial_n":97,"n_dots":3.05,"target":"right","response":"right","rt":310.09999999963,"correct":true,"confidence":3},{"trial_n":98,"n_dots":3.05,"target":"left","response":"left","rt":364.5,"correct":true,"confidence":3},{"trial_n":99,"n_dots":2.95,"target":"right","response":"right","rt":299.80000000075,"correct":true,"confidence":4},{"trial_n":100,"n_dots":2.95,"target":"right","response":"right","rt":331.90000000037,"correct":true,"confidence":3},{"trial_n":101,"n_dots":2.85,"target":"right","response":"right","rt":863.40000000037,"correct":true,"confidence":4},{"trial_n":102,"n_dots":2.85,"target":"right","response":"right","rt":576.09999999963,"correct":true,"confidence":3},{"trial_n":103,"n_dots":2.75,"target":"left","response":"left","rt":485.19999999925,"correct":true,"confidence":4},{"trial_n":104,"n_dots":2.75,"target":"left","response":"right","rt":279.79999999981,"correct":false,"confidence":4},{"trial_n":105,"n_dots":2.85,"target":"left","response":"right","rt":323.29999999981,"correct":false,"confidence":3},{"trial_n":106,"n_dots":2.95,"target":"right","response":"right","rt":29.099999999627,"correct":true,"confidence":3},{"trial_n":107,"n_dots":2.95,"target":"right","response":"left","rt":298.69999999925,"correct":false,"confidence":3},{"trial_n":108,"n_dots":3.05,"target":"left","response":"right","rt":236.59999999963,"correct":false,"confidence":4},{"trial_n":109,"n_dots":3.15,"target":"left","response":"right","rt":469.29999999981,"correct":false,"confidence":4},{"trial_n":110,"n_dots":3.25,"target":"right","response":"right","rt":244.70000000019,"correct":true,"confidence":4},{"trial_n":111,"n_dots":3.25,"target":"left","response":"left","rt":149.29999999981,"correct":true,"confidence":4},{"trial_n":112,"n_dots":3.15,"target":"right","response":"right","rt":282.20000000019,"correct":true,"confidence":4},{"trial_n":113,"n_dots":3.15,"target":"left","response":"left","rt":145.40000000037,"correct":true,"confidence":3},{"trial_n":114,"n_dots":3.05,"target":"right","response":"right","rt":104.39999999944,"correct":true,"confidence":3},{"trial_n":115,"n_dots":3.05,"target":"left","response":"left","rt":209.79999999981,"correct":true,"confidence":4},{"trial_n":116,"n_dots":2.95,"target":"right","response":"right","rt":478.89999999944,"correct":true,"confidence":4},{"trial_n":117,"n_dots":2.95,"target":"right","response":"right","rt":222.79999999981,"correct":true,"confidence":4},{"trial_n":118,"n_dots":2.85,"target":"left","response":"left","rt":226.59999999963,"correct":true,"confidence":4},{"trial_n":119,"n_dots":2.85,"target":"right","response":"left","rt":135.5,"correct":false,"confidence":4},{"trial_n":120,"n_dots":2.95,"target":"right","response":"left","rt":133.70000000019,"correct":false,"confidence":4}]