[{"trial_n":1,"span":8,"encoder":"85177222","distractor":"85172222","target":"present","response":"present","rt":"5666","correct":true,"confidence":-1},{"trial_n":2,"span":8,"encoder":"90395414","distractor":"93395414","target":"present","response":"absent","rt":"3846","correct":false,"confidence":-1},{"trial_n":3,"span":6,"encoder":"778004","distractor":"778064","target":"absent","response":"absent","rt":"3112","correct":true,"confidence":-1},{"trial_n":4,"span":6,"encoder":"699384","distractor":"099384","target":"absent","response":"present","rt":"2318","correct":false,"confidence":-1},{"trial_n":5,"span":4,"encoder":"8937","distractor":"8933","target":"present","response":"present","rt":"3019","correct":true,"confidence":-1},{"trial_n":6,"span":4,"encoder":"7361","distractor":"7661","target":"absent","response":"absent","rt":"2241","correct":true,"confidence":-1},{"trial_n":7,"span":6,"encoder":"154574","distractor":"154174","target":"present","response":"present","rt":"4406","correct":true,"confidence":-1},{"trial_n":8,"span":6,"encoder":"564655","distractor":"564695","target":"present","response":"present","rt":"2034","correct":true,"confidence":-1},{"trial_n":9,"span":8,"encoder":"52009081","distractor":"52002081","target":"absent","response":"present","rt":"3459","correct":false,"confidence":-1},{"trial_n":10,"span":6,"encoder":"097664","distractor":"097654","target":"present","response":"present","rt":"2276","correct":true,"confidence":-1},{"trial_n":11,"span":6,"encoder":"325998","distractor":"325948","target":"absent","response":"absent","rt":"2287","correct":true,"confidence":-1},{"trial_n":12,"span":7,"encoder":"8839114","distractor":"8838114","target":"present","response":"present","rt":"4654","correct":true,"confidence":-1},{"trial_n":13,"span":7,"encoder":"5651807","distractor":"5351807","target":"present","response":"present","rt":"1774","correct":true,"confidence":-1},{"trial_n":14,"span":8,"encoder":"59619293","distractor":"39619293","target":"present","response":"present","rt":"2105","correct":true,"confidence":-1},{"trial_n":15,"span":8,"encoder":"10842347","distractor":"15842347","target":"present","response":"present","rt":"1513","correct":true,"confidence":-1},{"trial_n":16,"span":9,"encoder":"339559816","distractor":"339559916","target":"present","response":"absent","rt":"2062","correct":false,"confidence":-1},{"trial_n":17,"span":8,"encoder":"67482213","distractor":"67482219","target":"absent","response":"present","rt":"2070","correct":false,"confidence":-1},{"trial_n":18,"span":7,"encoder":"4155026","distractor":"4155926","target":"absent","response":"absent","rt":"2544","correct":true,"confidence":-1},{"trial_n":19,"span":7,"encoder":"5047258","distractor":"5047858","target":"present","response":"present","rt":"2496","correct":true,"confidence":-1},{"trial_n":20,"span":8,"encoder":"14240402","distractor":"14240602","target":"absent","response":"present","rt":"3054","correct":false,"confidence":-1},{"trial_n":21,"span":7,"encoder":"7914362","distractor":"7917362","target":"present","response":"present","rt":"3768","correct":true,"confidence":2},{"trial_n":22,"span":7,"encoder":"9751594","distractor":"9711594","target":"absent","response":"present","rt":"4368","correct":false,"confidence":3},{"trial_n":23,"span":6,"encoder":"990371","distractor":"990370","target":"present","response":"present","rt":"7836","correct":true,"confidence":3},{"trial_n":24,"span":6,"encoder":"516188","distractor":"616188","target":"present","response":"present","rt":"2437","correct":true,"confidence":4},{"trial_n":25,"span":7,"encoder":"1742136","distractor":"1742130","target":"present","response":"present","rt":"7005","correct":true,"confidence":3},{"trial_n":26,"span":7,"encoder":"4027806","distractor":"4827806","target":"present","response":"present","rt":"7432","correct":true,"confidence":3},{"trial_n":27,"span":8,"encoder":"84853008","distractor":"84353008","target":"present","response":"absent","rt":"4307","correct":false,"confidence":2},{"trial_n":28,"span":7,"encoder":"8140668","distractor":"8146668","target":"present","response":"present","rt":"3147","correct":true,"confidence":3},{"trial_n":29,"span":7,"encoder":"9578242","distractor":"8578242","target":"absent","response":"absent","rt":"5385","correct":true,"confidence":2},{"trial_n":30,"span":8,"encoder":"76511544","distractor":"76511545","target":"absent","response":"absent","rt":"2413","correct":true,"confidence":3},{"trial_n":31,"span":8,"encoder":"11205580","distractor":"11202580","target":"absent","response":"absent","rt":"4627","correct":true,"confidence":3},{"trial_n":32,"span":9,"encoder":"598087337","distractor":"598087387","target":"present","response":"absent","rt":"3235","correct":false,"confidence":3},{"trial_n":33,"span":8,"encoder":"06747831","distractor":"06747811","target":"present","response":"absent","rt":"7516.0000000001","correct":false,"confidence":3},{"trial_n":34,"span":7,"encoder":"0407591","distractor":"2407591","target":"absent","response":"absent","rt":"2460","correct":true,"confidence":4},{"trial_n":35,"span":7,"encoder":"9946365","distractor":"9946345","target":"present","response":"absent","rt":"6267.9999999999","correct":false,"confidence":3},{"trial_n":36,"span":6,"encoder":"717966","distractor":"717996","target":"absent","response":"present","rt":"2385","correct":false,"confidence":4},{"trial_n":37,"span":5,"encoder":"47036","distractor":"47936","target":"absent","response":"absent","rt":"2299.0000000001","correct":true,"confidence":4},{"trial_n":38,"span":5,"encoder":"42034","distractor":"42064","target":"present","response":"present","rt":"2500","correct":true,"confidence":4},{"trial_n":39,"span":6,"encoder":"297038","distractor":"298038","target":"present","response":"present","rt":"2131","correct":true,"confidence":4},{"trial_n":40,"span":6,"encoder":"495404","distractor":"795404","target":"present","response":"present","rt":"1732","correct":true,"confidence":4},{"trial_n":41,"span":7,"encoder":"2246284","distractor":"2246084","target":"absent","response":"absent","rt":"2132.9999999999","correct":true,"confidence":4},{"trial_n":42,"span":7,"encoder":"3689545","distractor":"3689544","target":"absent","response":"present","rt":"4403","correct":false,"confidence":3},{"trial_n":43,"span":6,"encoder":"455984","distractor":"455784","target":"absent","response":"absent","rt":"3344","correct":true,"confidence":3},{"trial_n":44,"span":6,"encoder":"553997","distractor":"553197","target":"present","response":"present","rt":"4485","correct":true,"confidence":3},{"trial_n":45,"span":7,"encoder":"5430385","distractor":"5431385","target":"present","response":"present","rt":"3076","correct":true,"confidence":3},{"trial_n":46,"span":7,"encoder":"4060948","distractor":"6060948","target":"absent","response":"absent","rt":"2207","correct":true,"confidence":4},{"trial_n":47,"span":8,"encoder":"37353205","distractor":"37353275","target":"absent","response":"absent","rt":"1931","correct":true,"confidence":4},{"trial_n":48,"span":8,"encoder":"65896793","distractor":"65836793","target":"present","response":"present","rt":"5055","correct":true,"confidence":2},{"trial_n":49,"span":9,"encoder":"943380989","distractor":"973380989","target":"absent","response":"absent","rt":"5709","correct":true,"confidence":3},{"trial_n":50,"span":9,"encoder":"572206900","distractor":"372206900","target":"present","response":"present","rt":"3930.0000000001","correct":true,"confidence":2},{"trial_n":51,"span":10,"encoder":"0688997262","distractor":"0588997262","target":"present","response":"present","rt":"2865","correct":true,"confidence":2},{"trial_n":52,"span":10,"encoder":"1714365972","distractor":"1716365972","target":"absent","response":"present","rt":"5726","correct":false,"confidence":1},{"trial_n":53,"span":9,"encoder":"805115507","distractor":"405115507","target":"absent","response":"absent","rt":"2053","correct":true,"confidence":3},{"trial_n":54,"span":9,"encoder":"709862351","distractor":"708862351","target":"present","response":"present","rt":"4444","correct":true,"confidence":2},{"trial_n":55,"span":10,"encoder":"0167768041","distractor":"0167761041","target":"absent","response":"present","rt":"4094.9999999999","correct":false,"confidence":3},{"trial_n":56,"span":9,"encoder":"308652436","distractor":"308652432","target":"present","response":"present","rt":"3346","correct":true,"confidence":3},{"trial_n":57,"span":9,"encoder":"014521777","distractor":"014521977","target":"absent","response":"present","rt":"3264","correct":false,"confidence":2},{"trial_n":58,"span":8,"encoder":"37494654","distractor":"30494654","target":"present","response":"absent","rt":"4695","correct":false,"confidence":2},{"trial_n":59,"span":7,"encoder":"5339921","distractor":"5339721","target":"present","response":"present","rt":"2509","correct":true,"confidence":3},{"trial_n":60,"span":7,"encoder":"8273233","distractor":"8276233","target":"absent","response":"present","rt":"4276","correct":false,"confidence":3},{"trial_n":61,"span":6,"encoder":"985342","distractor":"985302","target":"absent","response":"present","rt":"2241","correct":false,"confidence":3},{"trial_n":62,"span":5,"encoder":"05659","distractor":"65659","target":"absent","response":"absent","rt":"2011.0000000001","correct":true,"confidence":5},{"trial_n":63,"span":5,"encoder":"04597","distractor":"04587","target":"absent","response":"absent","rt":"1995","correct":true,"confidence":5},{"trial_n":64,"span":6,"encoder":"332665","distractor":"342665","target":"absent","response":"absent","rt":"2346","correct":true,"confidence":4},{"trial_n":65,"span":6,"encoder":"027811","distractor":"027810","target":"present","response":"present","rt":"2067","correct":true,"confidence":3},{"trial_n":66,"span":7,"encoder":"0374618","distractor":"0374688","target":"present","response":"present","rt":"2311","correct":true,"confidence":3},{"trial_n":67,"span":7,"encoder":"0926023","distractor":"0926033","target":"absent","response":"present","rt":"2521","correct":false,"confidence":3},{"trial_n":68,"span":6,"encoder":"850337","distractor":"850367","target":"absent","response":"absent","rt":"2238.9999999999","correct":true,"confidence":3},{"trial_n":69,"span":6,"encoder":"732754","distractor":"712754","target":"absent","response":"absent","rt":"1913","correct":true,"confidence":4},{"trial_n":70,"span":7,"encoder":"9034461","distractor":"9034481","target":"absent","response":"present","rt":"3823","correct":false,"confidence":2},{"trial_n":71,"span":8,"encoder":"06529509","distractor":"02529509","target":"present","response":"absent","rt":"4817","correct":false,"confidence":-1},{"trial_n":72,"span":7,"encoder":"5535890","distractor":"1535890","target":"present","response":"absent","rt":"2791","correct":false,"confidence":-1},{"trial_n":73,"span":6,"encoder":"918859","distractor":"918959","target":"absent","response":"present","rt":"4398.0000000001","correct":false,"confidence":-1},{"trial_n":74,"span":5,"encoder":"15463","distractor":"19463","target":"absent","response":"present","rt":"2917.9999999999","correct":false,"confidence":-1},{"trial_n":75,"span":4,"encoder":"5632","distractor":"5633","target":"present","response":"present","rt":"4216","correct":true,"confidence":-1},{"trial_n":76,"span":4,"encoder":"7131","distractor":"2131","target":"absent","response":"absent","rt":"2650","correct":true,"confidence":-1},{"trial_n":77,"span":5,"encoder":"89065","distractor":"89565","target":"present","response":"present","rt":"3608","correct":true,"confidence":-1},{"trial_n":78,"span":5,"encoder":"02994","distractor":"07994","target":"present","response":"present","rt":"4096","correct":true,"confidence":-1},{"trial_n":79,"span":6,"encoder":"210312","distractor":"210322","target":"present","response":"present","rt":"4834","correct":true,"confidence":-1},{"trial_n":80,"span":6,"encoder":"971317","distractor":"971315","target":"absent","response":"absent","rt":"4822","correct":true,"confidence":-1},{"trial_n":81,"span":7,"encoder":"7919248","distractor":"7119248","target":"present","response":"present","rt":"6624","correct":true,"confidence":-1},{"trial_n":82,"span":7,"encoder":"2734954","distractor":"2734254","target":"present","response":"present","rt":"4443.0000000001","correct":true,"confidence":-1},{"trial_n":83,"span":8,"encoder":"84968565","distractor":"84938565","target":"absent","response":"absent","rt":"6588.9999999999","correct":true,"confidence":-1},{"trial_n":84,"span":8,"encoder":"34997036","distractor":"44997036","target":"present","response":"present","rt":"5228","correct":true,"confidence":-1},{"trial_n":85,"span":9,"encoder":"518492047","distractor":"518492017","target":"absent","response":"absent","rt":"2639","correct":true,"confidence":-1},{"trial_n":86,"span":9,"encoder":"203516348","distractor":"253516348","target":"absent","response":"absent","rt":"10504","correct":true,"confidence":-1},{"trial_n":87,"span":10,"encoder":"5290582700","distractor":"5298582700","target":"present","response":"present","rt":"12080","correct":true,"confidence":-1},{"trial_n":88,"span":10,"encoder":"0599861022","distractor":"0519861022","target":"present","response":"absent","rt":"5003.0000000001","correct":false,"confidence":-1},{"trial_n":89,"span":9,"encoder":"558191219","distractor":"518191219","target":"absent","response":"present","rt":"9462","correct":false,"confidence":-1},{"trial_n":90,"span":8,"encoder":"63662195","distractor":"63669195","target":"present","response":"absent","rt":"6361.9999999999","correct":false,"confidence":-1},{"trial_n":91,"span":7,"encoder":"2460339","distractor":"2460389","target":"absent","response":"present","rt":"6575","correct":false,"confidence":2},{"trial_n":92,"span":6,"encoder":"051958","distractor":"052958","target":"absent","response":"absent","rt":"3281","correct":true,"confidence":3},{"trial_n":93,"span":6,"encoder":"087064","distractor":"687064","target":"present","response":"present","rt":"6570.0000000001","correct":true,"confidence":2},{"trial_n":94,"span":7,"encoder":"3008295","distractor":"3007295","target":"absent","response":"absent","rt":"2873.9999999999","correct":true,"confidence":3},{"trial_n":95,"span":7,"encoder":"6107875","distractor":"6507875","target":"present","response":"present","rt":"6199.9999999999","correct":true,"confidence":2},{"trial_n":96,"span":8,"encoder":"70086312","distractor":"70086319","target":"absent","response":"absent","rt":"3250","correct":true,"confidence":4},{"trial_n":97,"span":8,"encoder":"25953181","distractor":"25953183","target":"present","response":"present","rt":"2891","correct":true,"confidence":3},{"trial_n":98,"span":9,"encoder":"088549687","distractor":"088579687","target":"present","response":"present","rt":"8954.9999999999","correct":true,"confidence":2},{"trial_n":99,"span":9,"encoder":"898232623","distractor":"898232622","target":"absent","response":"absent","rt":"2460.0000000001","correct":true,"confidence":3},{"trial_n":100,"span":10,"encoder":"1054683396","distractor":"1055683396","target":"present","response":"absent","rt":"7891","correct":false,"confidence":1},{"trial_n":101,"span":9,"encoder":"832820804","distractor":"852820804","target":"absent","response":"absent","rt":"4856.9999999998","correct":true,"confidence":3},{"trial_n":102,"span":9,"encoder":"172430999","distractor":"172430997","target":"absent","response":"absent","rt":"2512","correct":true,"confidence":4},{"trial_n":103,"span":10,"encoder":"2890626084","distractor":"2590626084","target":"present","response":"absent","rt":"4220","correct":false,"confidence":3},{"trial_n":104,"span":9,"encoder":"781234481","distractor":"787234481","target":"present","response":"absent","rt":"5744","correct":false,"confidence":3},{"trial_n":105,"span":8,"encoder":"25834367","distractor":"25734367","target":"present","response":"present","rt":"5612","correct":true,"confidence":1},{"trial_n":106,"span":8,"encoder":"47971518","distractor":"47971514","target":"present","response":"present","rt":"3336.0000000002","correct":true,"confidence":3},{"trial_n":107,"span":9,"encoder":"637379839","distractor":"737379839","target":"absent","response":"absent","rt":"5359","correct":true,"confidence":3},{"trial_n":108,"span":9,"encoder":"558774916","distractor":"558674916","target":"present","response":"present","rt":"6085","correct":true,"confidence":2},{"trial_n":109,"span":10,"encoder":"7662434413","distractor":"0662434413","target":"absent","response":"absent","rt":"4661","correct":true,"confidence":4},{"trial_n":110,"span":10,"encoder":"0810101804","distractor":"3810101804","target":"absent","response":"absent","rt":"3579.9999999998","correct":true,"confidence":4},{"trial_n":111,"span":11,"encoder":"31511014075","distractor":"31551014075","target":"present","response":"present","rt":"9170.0000000002","correct":true,"confidence":1},{"trial_n":112,"span":11,"encoder":"18951381595","distractor":"18951381795","target":"absent","response":"present","rt":"3144","correct":false,"confidence":2},{"trial_n":113,"span":10,"encoder":"7334752776","distractor":"7334752716","target":"absent","response":"absent","rt":"2861","correct":true,"confidence":3},{"trial_n":114,"span":10,"encoder":"7568054704","distractor":"7568059704","target":"absent","response":"absent","rt":"4111.0000000002","correct":true,"confidence":3},{"trial_n":115,"span":11,"encoder":"60358214216","distractor":"60358214219","target":"present","response":"present","rt":"7818","correct":true,"confidence":2},{"trial_n":116,"span":11,"encoder":"52683892922","distractor":"52683892921","target":"present","response":"absent","rt":"16135","correct":false,"confidence":3},{"trial_n":117,"span":10,"encoder":"1231003351","distractor":"1238003351","target":"absent","response":"absent","rt":"10093","correct":true,"confidence":2},{"trial_n":118,"span":10,"encoder":"0051222517","distractor":"0651222517","target":"absent","response":"absent","rt":"4860","correct":true,"confidence":4},{"trial_n":119,"span":11,"encoder":"18504535473","distractor":"38504535473","target":"present","response":"present","rt":"8688","correct":true,"confidence":2},{"trial_n":120,"span":11,"encoder":"09635098171","distractor":"09635098161","target":"present","response":"present","rt":"9501","correct":true,"confidence":3},{"trial_n":121,"span":12,"encoder":"558607659531","distractor":"556607659531","target":"present","response":"present","rt":"5022","correct":true,"confidence":3},{"trial_n":122,"span":12,"encoder":"204330643390","distractor":"204330643350","target":"absent","response":"absent","rt":"2560","correct":true,"confidence":4},{"trial_n":123,"span":13,"encoder":"9684011867444","distractor":"9684911867444","target":"absent","response":"absent","rt":"7890","correct":true,"confidence":2},{"trial_n":124,"span":13,"encoder":"2031692657646","distractor":"2031697657646","target":"absent","response":"present","rt":"10657","correct":false,"confidence":1},{"trial_n":125,"span":12,"encoder":"420204132107","distractor":"420204532107","target":"present","response":"present","rt":"5695","correct":true,"confidence":2},{"trial_n":126,"span":12,"encoder":"136249543717","distractor":"336249543717","target":"absent","response":"absent","rt":"3711","correct":true,"confidence":3},{"trial_n":127,"span":13,"encoder":"7849561385883","distractor":"7848561385883","target":"present","response":"absent","rt":"5427","correct":false,"confidence":2},{"trial_n":128,"span":12,"encoder":"369204289939","distractor":"360204289939","target":"present","response":"present","rt":"3642","correct":true,"confidence":2},{"trial_n":129,"span":12,"encoder":"109187246193","distractor":"109187246163","target":"present","response":"present","rt":"7031","correct":true,"confidence":3},{"trial_n":130,"span":13,"encoder":"7866392733638","distractor":"7866392033638","target":"absent","response":"absent","rt":"3048","correct":true,"confidence":3},{"trial_n":131,"span":13,"encoder":"6052730497855","distractor":"6852730497855","target":"absent","response":"absent","rt":"4405","correct":true,"confidence":2},{"trial_n":132,"span":14,"encoder":"31347861449652","distractor":"41347861449652","target":"present","response":"present","rt":"4158.0000000002","correct":true,"confidence":3},{"trial_n":133,"span":14,"encoder":"58474181778966","distractor":"58474183778966","target":"present","response":"present","rt":"14255","correct":true,"confidence":3},{"trial_n":134,"span":15,"encoder":"870513125324755","distractor":"870513125724755","target":"absent","response":"present","rt":"6760","correct":false,"confidence":2},{"trial_n":135,"span":14,"encoder":"57934842079597","distractor":"57934842079599","target":"absent","response":"present","rt":"5633","correct":false,"confidence":3},{"trial_n":136,"span":13,"encoder":"4847268271069","distractor":"4547268271069","target":"absent","response":"present","rt":"3240","correct":false,"confidence":3},{"trial_n":137,"span":12,"encoder":"866579327033","distractor":"866579327633","target":"present","response":"present","rt":"3689","correct":true,"confidence":3},{"trial_n":138,"span":12,"encoder":"171882406874","distractor":"171889406874","target":"absent","response":"present","rt":"7839.0000000002","correct":false,"confidence":3},{"trial_n":139,"span":11,"encoder":"05994591880","distractor":"05994591882","target":"present","response":"present","rt":"2573","correct":true,"confidence":3},{"trial_n":140,"span":11,"encoder":"36920903491","distractor":"36930903491","target":"absent","response":"present","rt":"2975","correct":false,"confidence":1}]