[{"trial_n":1,"min":25,"max":230,"target":"present","response":"present","rt":1872,"correct":true,"confidence":-1},{"trial_n":2,"min":25,"max":230,"target":"present","response":"present","rt":979,"correct":true,"confidence":-1},{"trial_n":3,"min":41,"max":214,"target":"absent","response":"absent","rt":735,"correct":true,"confidence":-1},{"trial_n":4,"min":41,"max":214,"target":"absent","response":"absent","rt":733,"correct":true,"confidence":-1},{"trial_n":5,"min":57,"max":198,"target":"present","response":"present","rt":645,"correct":true,"confidence":-1},{"trial_n":6,"min":57,"max":198,"target":"absent","response":"absent","rt":1186,"correct":true,"confidence":-1},{"trial_n":7,"min":73,"max":182,"target":"present","response":"present","rt":945,"correct":true,"confidence":-1},{"trial_n":8,"min":73,"max":182,"target":"present","response":"absent","rt":1564,"correct":false,"confidence":-1},{"trial_n":9,"min":57,"max":198,"target":"absent","response":"absent","rt":1302,"correct":true,"confidence":-1},{"trial_n":10,"min":57,"max":198,"target":"absent","response":"absent","rt":1119,"correct":true,"confidence":-1},{"trial_n":11,"min":65,"max":190,"target":"present","response":"present","rt":846,"correct":true,"confidence":-1},{"trial_n":12,"min":65,"max":190,"target":"present","response":"present","rt":898,"correct":true,"confidence":-1},{"trial_n":13,"min":73,"max":182,"target":"absent","response":"absent","rt":1004,"correct":true,"confidence":-1},{"trial_n":14,"min":73,"max":182,"target":"present","response":"present","rt":664,"correct":true,"confidence":-1},{"trial_n":15,"min":81,"max":174,"target":"present","response":"present","rt":648,"correct":true,"confidence":-1},{"trial_n":16,"min":81,"max":174,"target":"absent","response":"absent","rt":954,"correct":true,"confidence":-1},{"trial_n":17,"min":89,"max":166,"target":"present","response":"absent","rt":681,"correct":false,"confidence":-1},{"trial_n":18,"min":81,"max":174,"target":"absent","response":"absent","rt":870.00000000001,"correct":true,"confidence":-1},{"trial_n":19,"min":81,"max":174,"target":"present","response":"present","rt":647,"correct":true,"confidence":-1},{"trial_n":20,"min":89,"max":166,"target":"absent","response":"absent","rt":1105,"correct":true,"confidence":-1},{"trial_n":21,"min":89,"max":166,"target":"present","response":"absent","rt":1082,"correct":false,"confidence":3},{"trial_n":22,"min":85,"max":170,"target":"present","response":"absent","rt":1382,"correct":false,"confidence":2},{"trial_n":23,"min":81,"max":174,"target":"absent","response":"present","rt":1189,"correct":false,"confidence":3},{"trial_n":24,"min":77,"max":178,"target":"absent","response":"absent","rt":2040,"correct":true,"confidence":3},{"trial_n":25,"min":77,"max":178,"target":"absent","response":"present","rt":1055,"correct":false,"confidence":3},{"trial_n":26,"min":73,"max":182,"target":"absent","response":"present","rt":1423,"correct":false,"confidence":3},{"trial_n":27,"min":69,"max":186,"target":"present","response":"present","rt":666,"correct":true,"confidence":5},{"trial_n":28,"min":69,"max":186,"target":"present","response":"present","rt":650,"correct":true,"confidence":5},{"trial_n":29,"min":73,"max":182,"target":"present","response":"present","rt":750,"correct":true,"confidence":5},{"trial_n":30,"min":73,"max":182,"target":"absent","response":"present","rt":773,"correct":false,"confidence":4},{"trial_n":31,"min":71,"max":184,"target":"absent","response":"absent","rt":1225,"correct":true,"confidence":2},{"trial_n":32,"min":71,"max":184,"target":"absent","response":"absent","rt":2123,"correct":true,"confidence":3},{"trial_n":33,"min":73,"max":182,"target":"present","response":"present","rt":650,"correct":true,"confidence":5},{"trial_n":34,"min":73,"max":182,"target":"present","response":"present","rt":868,"correct":true,"confidence":5},{"trial_n":35,"min":75,"max":180,"target":"absent","response":"absent","rt":1908,"correct":true,"confidence":3},{"trial_n":36,"min":75,"max":180,"target":"absent","response":"absent","rt":1407,"correct":true,"confidence":2},{"trial_n":37,"min":77,"max":178,"target":"present","response":"present","rt":986,"correct":true,"confidence":4},{"trial_n":38,"min":77,"max":178,"target":"present","response":"present","rt":703.00000000001,"correct":true,"confidence":5},{"trial_n":39,"min":79,"max":176,"target":"absent","response":"absent","rt":1392,"correct":true,"confidence":2},{"trial_n":40,"min":79,"max":176,"target":"present","response":"present","rt":602,"correct":true,"confidence":4},{"trial_n":41,"min":80,"max":175,"target":"present","response":"present","rt":686,"correct":true,"confidence":5},{"trial_n":42,"min":80,"max":175,"target":"absent","response":"present","rt":1976,"correct":false,"confidence":3},{"trial_n":43,"min":79,"max":176,"target":"present","response":"present","rt":670,"correct":true,"confidence":4},{"trial_n":44,"min":79,"max":176,"target":"absent","response":"absent","rt":1175,"correct":true,"confidence":2},{"trial_n":45,"min":80,"max":175,"target":"present","response":"present","rt":903,"correct":true,"confidence":4},{"trial_n":46,"min":80,"max":175,"target":"present","response":"present","rt":771,"correct":true,"confidence":4},{"trial_n":47,"min":81,"max":174,"target":"present","response":"present","rt":904,"correct":true,"confidence":3},{"trial_n":48,"min":81,"max":174,"target":"absent","response":"present","rt":1476,"correct":false,"confidence":2},{"trial_n":49,"min":80,"max":175,"target":"absent","response":"absent","rt":2527,"correct":true,"confidence":2},{"trial_n":50,"min":80,"max":175,"target":"present","response":"present","rt":737,"correct":true,"confidence":4},{"trial_n":51,"min":81,"max":174,"target":"present","response":"present","rt":688,"correct":true,"confidence":5},{"trial_n":52,"min":81,"max":174,"target":"present","response":"present","rt":772,"correct":true,"confidence":5},{"trial_n":53,"min":82,"max":173,"target":"present","response":"present","rt":1238,"correct":true,"confidence":5},{"trial_n":54,"min":82,"max":173,"target":"absent","response":"absent","rt":1028,"correct":true,"confidence":2},{"trial_n":55,"min":83,"max":172,"target":"present","response":"present","rt":690,"correct":true,"confidence":5},{"trial_n":56,"min":83,"max":172,"target":"absent","response":"absent","rt":1561,"correct":true,"confidence":3},{"trial_n":57,"min":84,"max":171,"target":"present","response":"present","rt":622,"correct":true,"confidence":5},{"trial_n":58,"min":84,"max":171,"target":"present","response":"present","rt":4374,"correct":true,"confidence":3},{"trial_n":59,"min":85,"max":170,"target":"present","response":"present","rt":722,"correct":true,"confidence":4},{"trial_n":60,"min":85,"max":170,"target":"absent","response":"absent","rt":1178,"correct":true,"confidence":4},{"trial_n":61,"min":86,"max":169,"target":"absent","response":"present","rt":896,"correct":false,"confidence":4},{"trial_n":62,"min":85,"max":170,"target":"absent","response":"absent","rt":795.99999999997,"correct":true,"confidence":2},{"trial_n":63,"min":85,"max":170,"target":"absent","response":"absent","rt":929,"correct":true,"confidence":3},{"trial_n":64,"min":86,"max":169,"target":"absent","response":"absent","rt":963,"correct":true,"confidence":4},{"trial_n":65,"min":86,"max":169,"target":"absent","response":"absent","rt":813,"correct":true,"confidence":4},{"trial_n":66,"min":87,"max":168,"target":"absent","response":"absent","rt":4080,"correct":true,"confidence":2},{"trial_n":67,"min":87,"max":168,"target":"absent","response":"absent","rt":780,"correct":true,"confidence":5},{"trial_n":68,"min":88,"max":167,"target":"present","response":"present","rt":741,"correct":true,"confidence":3},{"trial_n":69,"min":88,"max":167,"target":"present","response":"present","rt":1391,"correct":true,"confidence":3},{"trial_n":70,"min":89,"max":166,"target":"absent","response":"absent","rt":930.99999999997,"correct":true,"confidence":5},{"trial_n":71,"min":41,"max":214,"target":"present","response":"present","rt":988.99999999997,"correct":true,"confidence":-1},{"trial_n":72,"min":41,"max":214,"target":"present","response":"present","rt":572,"correct":true,"confidence":-1},{"trial_n":73,"min":57,"max":198,"target":"absent","response":"absent","rt":887,"correct":true,"confidence":-1},{"trial_n":74,"min":57,"max":198,"target":"absent","response":"absent","rt":1222,"correct":true,"confidence":-1},{"trial_n":75,"min":73,"max":182,"target":"present","response":"present","rt":716,"correct":true,"confidence":-1},{"trial_n":76,"min":73,"max":182,"target":"absent","response":"present","rt":713,"correct":false,"confidence":-1},{"trial_n":77,"min":57,"max":198,"target":"present","response":"present","rt":657,"correct":true,"confidence":-1},{"trial_n":78,"min":57,"max":198,"target":"absent","response":"absent","rt":856,"correct":true,"confidence":-1},{"trial_n":79,"min":73,"max":182,"target":"present","response":"present","rt":657,"correct":true,"confidence":-1},{"trial_n":80,"min":73,"max":182,"target":"present","response":"present","rt":557.99999999997,"correct":true,"confidence":-1},{"trial_n":81,"min":81,"max":174,"target":"present","response":"present","rt":757,"correct":true,"confidence":-1},{"trial_n":82,"min":81,"max":174,"target":"present","response":"present","rt":1089,"correct":true,"confidence":-1},{"trial_n":83,"min":89,"max":166,"target":"present","response":"absent","rt":1024,"correct":false,"confidence":-1},{"trial_n":84,"min":81,"max":174,"target":"present","response":"present","rt":1140,"correct":true,"confidence":-1},{"trial_n":85,"min":81,"max":174,"target":"absent","response":"absent","rt":790,"correct":true,"confidence":-1},{"trial_n":86,"min":89,"max":166,"target":"present","response":"present","rt":791,"correct":true,"confidence":-1},{"trial_n":87,"min":89,"max":166,"target":"present","response":"present","rt":826,"correct":true,"confidence":-1},{"trial_n":88,"min":97,"max":158,"target":"present","response":"present","rt":825,"correct":true,"confidence":-1},{"trial_n":89,"min":97,"max":158,"target":"absent","response":"absent","rt":1191,"correct":true,"confidence":-1},{"trial_n":90,"min":105,"max":150,"target":"present","response":"absent","rt":1090.9999999999,"correct":false,"confidence":-1},{"trial_n":91,"min":101,"max":154,"target":"present","response":"present","rt":1076,"correct":true,"confidence":1},{"trial_n":92,"min":101,"max":154,"target":"present","response":"present","rt":810,"correct":true,"confidence":1},{"trial_n":93,"min":105,"max":150,"target":"present","response":"present","rt":825,"correct":true,"confidence":1},{"trial_n":94,"min":105,"max":150,"target":"present","response":"present","rt":1542,"correct":true,"confidence":2},{"trial_n":95,"min":109,"max":146,"target":"absent","response":"present","rt":1192.0000000001,"correct":false,"confidence":1},{"trial_n":96,"min":105,"max":150,"target":"absent","response":"present","rt":809,"correct":false,"confidence":3},{"trial_n":97,"min":101,"max":154,"target":"absent","response":"present","rt":1109,"correct":false,"confidence":3},{"trial_n":98,"min":97,"max":158,"target":"absent","response":"present","rt":744,"correct":false,"confidence":2},{"trial_n":99,"min":93,"max":162,"target":"present","response":"present","rt":760,"correct":true,"confidence":3},{"trial_n":100,"min":93,"max":162,"target":"absent","response":"present","rt":926,"correct":false,"confidence":1},{"trial_n":101,"min":91,"max":164,"target":"absent","response":"absent","rt":926.99999999994,"correct":true,"confidence":2},{"trial_n":102,"min":91,"max":164,"target":"present","response":"present","rt":893,"correct":true,"confidence":2},{"trial_n":103,"min":93,"max":162,"target":"present","response":"present","rt":1093,"correct":true,"confidence":3},{"trial_n":104,"min":93,"max":162,"target":"absent","response":"present","rt":1311,"correct":false,"confidence":3},{"trial_n":105,"min":91,"max":164,"target":"absent","response":"present","rt":895,"correct":false,"confidence":3},{"trial_n":106,"min":89,"max":166,"target":"absent","response":"present","rt":827.00000000006,"correct":false,"confidence":1},{"trial_n":107,"min":87,"max":168,"target":"present","response":"present","rt":1246,"correct":true,"confidence":4},{"trial_n":108,"min":87,"max":168,"target":"absent","response":"present","rt":1144.9999999999,"correct":false,"confidence":3},{"trial_n":109,"min":85,"max":170,"target":"present","response":"present","rt":1045,"correct":true,"confidence":1},{"trial_n":110,"min":85,"max":170,"target":"absent","response":"absent","rt":1145,"correct":true,"confidence":3},{"trial_n":111,"min":86,"max":169,"target":"present","response":"present","rt":711,"correct":true,"confidence":4},{"trial_n":112,"min":86,"max":169,"target":"absent","response":"absent","rt":912.00000000006,"correct":true,"confidence":4},{"trial_n":113,"min":87,"max":168,"target":"absent","response":"present","rt":1111.9999999999,"correct":false,"confidence":3},{"trial_n":114,"min":86,"max":169,"target":"absent","response":"absent","rt":1229,"correct":true,"confidence":3},{"trial_n":115,"min":86,"max":169,"target":"absent","response":"present","rt":895,"correct":false,"confidence":2},{"trial_n":116,"min":85,"max":170,"target":"present","response":"present","rt":829,"correct":true,"confidence":5},{"trial_n":117,"min":85,"max":170,"target":"absent","response":"present","rt":913,"correct":false,"confidence":3},{"trial_n":118,"min":84,"max":171,"target":"present","response":"present","rt":1314.0000000001,"correct":true,"confidence":5},{"trial_n":119,"min":84,"max":171,"target":"present","response":"present","rt":565.00000000006,"correct":true,"confidence":5},{"trial_n":120,"min":85,"max":170,"target":"absent","response":"present","rt":915.00000000006,"correct":false,"confidence":4},{"trial_n":121,"min":84,"max":171,"target":"absent","response":"present","rt":4164,"correct":false,"confidence":3},{"trial_n":122,"min":83,"max":172,"target":"absent","response":"absent","rt":1430,"correct":true,"confidence":2},{"trial_n":123,"min":83,"max":172,"target":"present","response":"present","rt":547.00000000006,"correct":true,"confidence":4},{"trial_n":124,"min":84,"max":171,"target":"absent","response":"present","rt":998.00000000006,"correct":false,"confidence":3},{"trial_n":125,"min":83,"max":172,"target":"present","response":"present","rt":632,"correct":true,"confidence":4},{"trial_n":126,"min":83,"max":172,"target":"present","response":"present","rt":1116,"correct":true,"confidence":4},{"trial_n":127,"min":84,"max":171,"target":"present","response":"present","rt":1114,"correct":true,"confidence":4},{"trial_n":128,"min":84,"max":171,"target":"absent","response":"present","rt":699,"correct":false,"confidence":4},{"trial_n":129,"min":83,"max":172,"target":"absent","response":"present","rt":698.00000000006,"correct":false,"confidence":3},{"trial_n":130,"min":82,"max":173,"target":"present","response":"present","rt":883.99999999994,"correct":true,"confidence":5},{"trial_n":131,"min":82,"max":173,"target":"present","response":"present","rt":665,"correct":true,"confidence":5},{"trial_n":132,"min":83,"max":172,"target":"absent","response":"present","rt":850,"correct":false,"confidence":4},{"trial_n":133,"min":82,"max":173,"target":"absent","response":"absent","rt":1133,"correct":true,"confidence":4},{"trial_n":134,"min":82,"max":173,"target":"absent","response":"present","rt":868,"correct":false,"confidence":3},{"trial_n":135,"min":81,"max":174,"target":"present","response":"present","rt":917,"correct":true,"confidence":5},{"trial_n":136,"min":81,"max":174,"target":"absent","response":"absent","rt":1049.9999999999,"correct":true,"confidence":5},{"trial_n":137,"min":82,"max":173,"target":"absent","response":"present","rt":1049.9999999999,"correct":false,"confidence":2},{"trial_n":138,"min":81,"max":174,"target":"present","response":"present","rt":534,"correct":true,"confidence":5},{"trial_n":139,"min":81,"max":174,"target":"absent","response":"absent","rt":1168,"correct":true,"confidence":4},{"trial_n":140,"min":82,"max":173,"target":"present","response":"present","rt":634,"correct":true,"confidence":5}]