[{"trial_n":1,"span":8,"encoder":"46785544","distractor":"46785444","target":"present","response":"present","rt":"4075.7000000002","correct":true,"confidence":-1},{"trial_n":2,"span":8,"encoder":"50514225","distractor":"50514725","target":"present","response":"absent","rt":"892.5","correct":false,"confidence":-1},{"trial_n":3,"span":6,"encoder":"057244","distractor":"017244","target":"absent","response":"absent","rt":"2420.7000000002","correct":true,"confidence":-1},{"trial_n":4,"span":6,"encoder":"741319","distractor":"742319","target":"absent","response":"present","rt":"1465.8999999994","correct":false,"confidence":-1},{"trial_n":5,"span":4,"encoder":"7477","distractor":"6477","target":"present","response":"present","rt":"1317.2999999998","correct":true,"confidence":-1},{"trial_n":6,"span":4,"encoder":"6480","distractor":"6484","target":"present","response":"present","rt":"1050.2999999998","correct":true,"confidence":-1},{"trial_n":7,"span":6,"encoder":"488761","distractor":"188761","target":"absent","response":"present","rt":"1606.0999999996","correct":false,"confidence":-1},{"trial_n":8,"span":4,"encoder":"7466","distractor":"7566","target":"present","response":"present","rt":"685","correct":true,"confidence":-1},{"trial_n":9,"span":4,"encoder":"6331","distractor":"6351","target":"present","response":"present","rt":"530.09999999963","correct":true,"confidence":-1},{"trial_n":10,"span":6,"encoder":"945885","distractor":"445885","target":"present","response":"present","rt":"576.5","correct":true,"confidence":-1},{"trial_n":11,"span":6,"encoder":"113149","distractor":"113199","target":"absent","response":"absent","rt":"942.10000000056","correct":true,"confidence":-1},{"trial_n":12,"span":7,"encoder":"2368001","distractor":"2368401","target":"present","response":"present","rt":"698.70000000019","correct":true,"confidence":-1},{"trial_n":13,"span":7,"encoder":"0641068","distractor":"0641028","target":"present","response":"present","rt":"826.70000000019","correct":true,"confidence":-1},{"trial_n":14,"span":8,"encoder":"58751657","distractor":"58051657","target":"absent","response":"present","rt":"874.39999999944","correct":false,"confidence":-1},{"trial_n":15,"span":7,"encoder":"5877996","distractor":"5876996","target":"present","response":"present","rt":"1425.9000000004","correct":true,"confidence":-1},{"trial_n":16,"span":7,"encoder":"5755977","distractor":"5735977","target":"present","response":"present","rt":"469.5","correct":true,"confidence":-1},{"trial_n":17,"span":8,"encoder":"28619260","distractor":"28819260","target":"present","response":"present","rt":"769.80000000075","correct":true,"confidence":-1},{"trial_n":18,"span":8,"encoder":"68024058","distractor":"62024058","target":"present","response":"present","rt":"644.79999999981","correct":true,"confidence":-1},{"trial_n":19,"span":9,"encoder":"683622318","distractor":"283622318","target":"present","response":"present","rt":"541.40000000037","correct":true,"confidence":-1},{"trial_n":20,"span":9,"encoder":"521501371","distractor":"921501371","target":"present","response":"present","rt":"540.40000000037","correct":true,"confidence":-1},{"trial_n":21,"span":10,"encoder":"8153264543","distractor":"8153264643","target":"absent","response":"present","rt":"730.40000000037","correct":false,"confidence":3},{"trial_n":22,"span":9,"encoder":"062206355","distractor":"362206355","target":"present","response":"present","rt":"1823","correct":true,"confidence":5},{"trial_n":23,"span":9,"encoder":"059755287","distractor":"059765287","target":"absent","response":"absent","rt":"1614.1000000006","correct":true,"confidence":5},{"trial_n":24,"span":10,"encoder":"0399706728","distractor":"5399706728","target":"absent","response":"absent","rt":"1889.6999999993","correct":true,"confidence":3},{"trial_n":25,"span":10,"encoder":"7982961726","distractor":"7582961726","target":"present","response":"absent","rt":"1519.9000000004","correct":false,"confidence":3},{"trial_n":26,"span":9,"encoder":"356872294","distractor":"356172294","target":"absent","response":"present","rt":"1586.9000000004","correct":false,"confidence":4},{"trial_n":27,"span":8,"encoder":"40974555","distractor":"40974552","target":"absent","response":"absent","rt":"1363.4000000004","correct":true,"confidence":5},{"trial_n":28,"span":8,"encoder":"73716353","distractor":"73717353","target":"present","response":"present","rt":"1193.7000000002","correct":true,"confidence":3},{"trial_n":29,"span":9,"encoder":"552352090","distractor":"552252090","target":"absent","response":"present","rt":"1020","correct":false,"confidence":4},{"trial_n":30,"span":8,"encoder":"25535548","distractor":"25535549","target":"present","response":"present","rt":"1930.2000000002","correct":true,"confidence":3},{"trial_n":31,"span":8,"encoder":"76609320","distractor":"76609380","target":"absent","response":"absent","rt":"1882.3999999994","correct":true,"confidence":3},{"trial_n":32,"span":9,"encoder":"929507347","distractor":"729507347","target":"present","response":"present","rt":"1536.3999999994","correct":true,"confidence":4},{"trial_n":33,"span":9,"encoder":"887792229","distractor":"887792225","target":"present","response":"present","rt":"1706.2999999998","correct":true,"confidence":4},{"trial_n":34,"span":10,"encoder":"0423120943","distractor":"0423120947","target":"absent","response":"absent","rt":"1701.2000000002","correct":true,"confidence":5},{"trial_n":35,"span":10,"encoder":"7882734310","distractor":"7182734310","target":"absent","response":"present","rt":"916.69999999925","correct":false,"confidence":4},{"trial_n":36,"span":9,"encoder":"028558615","distractor":"028598615","target":"absent","response":"present","rt":"844.10000000056","correct":false,"confidence":4},{"trial_n":37,"span":8,"encoder":"23363722","distractor":"23263722","target":"present","response":"present","rt":"820.39999999944","correct":true,"confidence":3},{"trial_n":38,"span":8,"encoder":"59735710","distractor":"59735010","target":"present","response":"present","rt":"975.79999999981","correct":true,"confidence":4},{"trial_n":39,"span":9,"encoder":"636466708","distractor":"636446708","target":"absent","response":"present","rt":"1806.7999999998","correct":false,"confidence":5},{"trial_n":40,"span":8,"encoder":"22773793","distractor":"28773793","target":"present","response":"present","rt":"1117","correct":true,"confidence":3},{"trial_n":41,"span":8,"encoder":"40393070","distractor":"40393040","target":"present","response":"present","rt":"1092.5999999996","correct":true,"confidence":3},{"trial_n":42,"span":9,"encoder":"797539670","distractor":"797439670","target":"absent","response":"present","rt":"2146.8000000007","correct":false,"confidence":4},{"trial_n":43,"span":8,"encoder":"65657746","distractor":"85657746","target":"absent","response":"present","rt":"1741.3999999994","correct":false,"confidence":3},{"trial_n":44,"span":7,"encoder":"2033944","distractor":"2033844","target":"absent","response":"absent","rt":"4551.5999999996","correct":true,"confidence":4},{"trial_n":45,"span":7,"encoder":"1916234","distractor":"1916239","target":"present","response":"present","rt":"1315.6999999993","correct":true,"confidence":4},{"trial_n":46,"span":8,"encoder":"65391095","distractor":"65891095","target":"absent","response":"present","rt":"1224.0999999996","correct":false,"confidence":4},{"trial_n":47,"span":7,"encoder":"4656816","distractor":"4646816","target":"absent","response":"absent","rt":"1543.2999999998","correct":true,"confidence":3},{"trial_n":48,"span":7,"encoder":"6153238","distractor":"6153268","target":"present","response":"present","rt":"1063.8999999994","correct":true,"confidence":4},{"trial_n":49,"span":8,"encoder":"96080631","distractor":"56080631","target":"absent","response":"absent","rt":"1995.5","correct":true,"confidence":5},{"trial_n":50,"span":8,"encoder":"79822954","distractor":"72822954","target":"absent","response":"present","rt":"5744.5999999996","correct":false,"confidence":3},{"trial_n":51,"span":7,"encoder":"4444502","distractor":"4444302","target":"absent","response":"present","rt":"1567","correct":false,"confidence":4},{"trial_n":52,"span":6,"encoder":"452491","distractor":"453491","target":"present","response":"present","rt":"1147.5999999996","correct":true,"confidence":4},{"trial_n":53,"span":6,"encoder":"691640","distractor":"691440","target":"absent","response":"absent","rt":"2255.6000000006","correct":true,"confidence":2},{"trial_n":54,"span":7,"encoder":"1956329","distractor":"1956322","target":"present","response":"present","rt":"911.5","correct":true,"confidence":4},{"trial_n":55,"span":7,"encoder":"1598010","distractor":"1598410","target":"present","response":"present","rt":"2622.1000000006","correct":true,"confidence":3},{"trial_n":56,"span":8,"encoder":"26804346","distractor":"23804346","target":"absent","response":"absent","rt":"1459.2999999998","correct":true,"confidence":3},{"trial_n":57,"span":8,"encoder":"13171489","distractor":"19171489","target":"absent","response":"present","rt":"942","correct":false,"confidence":4},{"trial_n":58,"span":7,"encoder":"8197559","distractor":"7197559","target":"present","response":"present","rt":"1306.6000000006","correct":true,"confidence":5},{"trial_n":59,"span":7,"encoder":"8387824","distractor":"8387924","target":"absent","response":"absent","rt":"3201.0999999996","correct":true,"confidence":1},{"trial_n":60,"span":8,"encoder":"42729526","distractor":"42729566","target":"absent","response":"absent","rt":"1621","correct":true,"confidence":1},{"trial_n":61,"span":8,"encoder":"14121024","distractor":"14124024","target":"absent","response":"present","rt":"1387.7999999998","correct":false,"confidence":4},{"trial_n":62,"span":7,"encoder":"7110653","distractor":"7110651","target":"absent","response":"present","rt":"981.30000000075","correct":false,"confidence":4},{"trial_n":63,"span":6,"encoder":"750509","distractor":"750579","target":"present","response":"present","rt":"1399.1999999993","correct":true,"confidence":3},{"trial_n":64,"span":6,"encoder":"044008","distractor":"034008","target":"absent","response":"present","rt":"878.10000000056","correct":false,"confidence":4},{"trial_n":65,"span":5,"encoder":"02565","distractor":"52565","target":"present","response":"present","rt":"728.90000000037","correct":true,"confidence":5},{"trial_n":66,"span":5,"encoder":"65947","distractor":"65347","target":"present","response":"present","rt":"804.39999999944","correct":true,"confidence":4},{"trial_n":67,"span":6,"encoder":"317636","distractor":"317436","target":"present","response":"present","rt":"1384.2999999998","correct":true,"confidence":3},{"trial_n":68,"span":6,"encoder":"660911","distractor":"664911","target":"absent","response":"absent","rt":"1490.8999999994","correct":true,"confidence":4},{"trial_n":69,"span":7,"encoder":"8604014","distractor":"8204014","target":"absent","response":"absent","rt":"1289.0999999996","correct":true,"confidence":3},{"trial_n":70,"span":7,"encoder":"8927408","distractor":"8927608","target":"present","response":"present","rt":"889.89999999944","correct":true,"confidence":3},{"trial_n":71,"span":8,"encoder":"65266963","distractor":"65286963","target":"present","response":"absent","rt":"2870.1000000006","correct":false,"confidence":-1},{"trial_n":72,"span":7,"encoder":"4897362","distractor":"4847362","target":"present","response":"absent","rt":"3101.7000000002","correct":false,"confidence":-1},{"trial_n":73,"span":6,"encoder":"308514","distractor":"708514","target":"absent","response":"present","rt":"5262.7000000002","correct":false,"confidence":-1},{"trial_n":74,"span":5,"encoder":"79527","distractor":"79524","target":"absent","response":"absent","rt":"3429","correct":true,"confidence":-1},{"trial_n":75,"span":5,"encoder":"51777","distractor":"51774","target":"present","response":"present","rt":"2860.2000000002","correct":true,"confidence":-1},{"trial_n":76,"span":6,"encoder":"016428","distractor":"416428","target":"absent","response":"absent","rt":"1349","correct":true,"confidence":-1},{"trial_n":77,"span":6,"encoder":"313688","distractor":"353688","target":"absent","response":"absent","rt":"459","correct":true,"confidence":-1},{"trial_n":78,"span":7,"encoder":"6603889","distractor":"6643889","target":"absent","response":"absent","rt":"1807","correct":true,"confidence":-1},{"trial_n":79,"span":7,"encoder":"7696091","distractor":"7606091","target":"absent","response":"absent","rt":"641.5","correct":true,"confidence":-1},{"trial_n":80,"span":8,"encoder":"88145624","distractor":"88195624","target":"present","response":"present","rt":"2210.4000000004","correct":true,"confidence":-1},{"trial_n":81,"span":8,"encoder":"65021578","distractor":"65021571","target":"present","response":"absent","rt":"568.79999999981","correct":false,"confidence":-1},{"trial_n":82,"span":7,"encoder":"6906074","distractor":"6906078","target":"absent","response":"present","rt":"557.20000000019","correct":false,"confidence":-1},{"trial_n":83,"span":6,"encoder":"721858","distractor":"711858","target":"absent","response":"absent","rt":"1102.5","correct":true,"confidence":-1},{"trial_n":84,"span":6,"encoder":"511930","distractor":"211930","target":"present","response":"present","rt":"2751.4000000004","correct":true,"confidence":-1},{"trial_n":85,"span":7,"encoder":"1518709","distractor":"2518709","target":"absent","response":"present","rt":"530.5","correct":false,"confidence":-1},{"trial_n":86,"span":6,"encoder":"256417","distractor":"276417","target":"absent","response":"absent","rt":"494.70000000019","correct":true,"confidence":-1},{"trial_n":87,"span":6,"encoder":"819627","distractor":"816627","target":"absent","response":"present","rt":"497.90000000037","correct":false,"confidence":-1},{"trial_n":88,"span":5,"encoder":"86873","distractor":"86173","target":"present","response":"present","rt":"1887.1999999993","correct":true,"confidence":-1},{"trial_n":89,"span":5,"encoder":"37488","distractor":"37483","target":"absent","response":"absent","rt":"1156.5999999996","correct":true,"confidence":-1},{"trial_n":90,"span":6,"encoder":"160386","distractor":"168386","target":"present","response":"absent","rt":"3679.6000000006","correct":false,"confidence":-1},{"trial_n":91,"span":5,"encoder":"88128","distractor":"88168","target":"present","response":"present","rt":"1655.1000000006","correct":true,"confidence":3},{"trial_n":92,"span":5,"encoder":"56164","distractor":"56154","target":"absent","response":"absent","rt":"2891.5999999996","correct":true,"confidence":3},{"trial_n":93,"span":6,"encoder":"383532","distractor":"382532","target":"absent","response":"present","rt":"811.39999999944","correct":false,"confidence":3},{"trial_n":94,"span":5,"encoder":"00196","distractor":"30196","target":"absent","response":"absent","rt":"1084.9000000004","correct":true,"confidence":3},{"trial_n":95,"span":5,"encoder":"96249","distractor":"06249","target":"present","response":"present","rt":"1446.5","correct":true,"confidence":4},{"trial_n":96,"span":6,"encoder":"078443","distractor":"178443","target":"present","response":"absent","rt":"2183.0999999996","correct":false,"confidence":3},{"trial_n":97,"span":5,"encoder":"75292","distractor":"75792","target":"absent","response":"absent","rt":"1435.2000000002","correct":true,"confidence":3},{"trial_n":98,"span":5,"encoder":"35975","distractor":"35475","target":"absent","response":"absent","rt":"1858.5999999996","correct":true,"confidence":4},{"trial_n":99,"span":6,"encoder":"277650","distractor":"217650","target":"present","response":"absent","rt":"1003.1000000006","correct":false,"confidence":3},{"trial_n":100,"span":5,"encoder":"00242","distractor":"04242","target":"absent","response":"absent","rt":"1149.4000000004","correct":true,"confidence":5},{"trial_n":101,"span":5,"encoder":"70704","distractor":"79704","target":"present","response":"absent","rt":"747.70000000019","correct":false,"confidence":4},{"trial_n":102,"span":4,"encoder":"7714","distractor":"7914","target":"absent","response":"present","rt":"1494.8999999994","correct":false,"confidence":3},{"trial_n":103,"span":3,"encoder":"381","distractor":"385","target":"present","response":"present","rt":"24698.399999999","correct":true,"confidence":4},{"trial_n":104,"span":3,"encoder":"615","distractor":"715","target":"absent","response":"absent","rt":"1024.5","correct":true,"confidence":5},{"trial_n":105,"span":4,"encoder":"5480","distractor":"5489","target":"absent","response":"absent","rt":"2622.7000000002","correct":true,"confidence":5},{"trial_n":106,"span":4,"encoder":"0587","distractor":"0537","target":"present","response":"present","rt":"2223","correct":true,"confidence":1},{"trial_n":107,"span":5,"encoder":"98624","distractor":"38624","target":"absent","response":"absent","rt":"2346.1000000006","correct":true,"confidence":3},{"trial_n":108,"span":5,"encoder":"70729","distractor":"70709","target":"present","response":"present","rt":"1232.9000000004","correct":true,"confidence":3},{"trial_n":109,"span":6,"encoder":"782475","distractor":"782473","target":"present","response":"present","rt":"1104.9000000004","correct":true,"confidence":3},{"trial_n":110,"span":6,"encoder":"158823","distractor":"150823","target":"absent","response":"present","rt":"2131.5999999996","correct":false,"confidence":2},{"trial_n":111,"span":5,"encoder":"21583","distractor":"21533","target":"present","response":"present","rt":"1612.4000000004","correct":true,"confidence":3},{"trial_n":112,"span":5,"encoder":"50909","distractor":"58909","target":"present","response":"absent","rt":"728.10000000056","correct":false,"confidence":3},{"trial_n":113,"span":4,"encoder":"0871","distractor":"0171","target":"absent","response":"present","rt":"7503.7999999998","correct":false,"confidence":1},{"trial_n":114,"span":3,"encoder":"405","distractor":"401","target":"absent","response":"absent","rt":"1090.0999999996","correct":true,"confidence":3},{"trial_n":115,"span":3,"encoder":"331","distractor":"334","target":"absent","response":"absent","rt":"901.5","correct":true,"confidence":5},{"trial_n":116,"span":4,"encoder":"2813","distractor":"2843","target":"present","response":"present","rt":"835.59999999963","correct":true,"confidence":4},{"trial_n":117,"span":4,"encoder":"8417","distractor":"6417","target":"present","response":"absent","rt":"2158.5999999996","correct":false,"confidence":4},{"trial_n":118,"span":3,"encoder":"468","distractor":"461","target":"absent","response":"absent","rt":"947.29999999981","correct":true,"confidence":4},{"trial_n":119,"span":3,"encoder":"994","distractor":"997","target":"present","response":"absent","rt":"1673.7999999998","correct":false,"confidence":4},{"trial_n":120,"span":2,"encoder":"75","distractor":"76","target":"present","response":"absent","rt":"928.5","correct":false,"confidence":1},{"trial_n":121,"span":2,"encoder":"99","distractor":"19","target":"absent","response":"absent","rt":"637.29999999981","correct":true,"confidence":5},{"trial_n":122,"span":2,"encoder":"01","distractor":"05","target":"present","response":"present","rt":"1745.8999999994","correct":true,"confidence":5},{"trial_n":123,"span":3,"encoder":"659","distractor":"679","target":"absent","response":"absent","rt":"2273.2000000002","correct":true,"confidence":5},{"trial_n":124,"span":3,"encoder":"402","distractor":"400","target":"absent","response":"absent","rt":"1172.5999999996","correct":true,"confidence":5},{"trial_n":125,"span":4,"encoder":"9832","distractor":"9892","target":"present","response":"present","rt":"1679.5999999996","correct":true,"confidence":4},{"trial_n":126,"span":4,"encoder":"6229","distractor":"6249","target":"present","response":"present","rt":"2321.5","correct":true,"confidence":5},{"trial_n":127,"span":5,"encoder":"22014","distractor":"62014","target":"present","response":"present","rt":"3245.7999999998","correct":true,"confidence":5},{"trial_n":128,"span":5,"encoder":"64205","distractor":"64905","target":"present","response":"present","rt":"2034.2999999998","correct":true,"confidence":4},{"trial_n":129,"span":6,"encoder":"697991","distractor":"597991","target":"absent","response":"absent","rt":"2194.2000000002","correct":true,"confidence":4},{"trial_n":130,"span":6,"encoder":"102141","distractor":"902141","target":"present","response":"present","rt":"1846.2000000002","correct":true,"confidence":4},{"trial_n":131,"span":7,"encoder":"4896861","distractor":"4897861","target":"present","response":"present","rt":"1940.2999999998","correct":true,"confidence":3},{"trial_n":132,"span":7,"encoder":"1460705","distractor":"1460505","target":"present","response":"absent","rt":"1867.1000000006","correct":false,"confidence":4},{"trial_n":133,"span":6,"encoder":"121858","distractor":"171858","target":"present","response":"present","rt":"1143.5999999996","correct":true,"confidence":4},{"trial_n":134,"span":6,"encoder":"564449","distractor":"544449","target":"present","response":"absent","rt":"1372.2000000002","correct":false,"confidence":2},{"trial_n":135,"span":5,"encoder":"33909","distractor":"33979","target":"absent","response":"absent","rt":"1327.5999999996","correct":true,"confidence":5},{"trial_n":136,"span":5,"encoder":"65607","distractor":"65606","target":"present","response":"present","rt":"870.20000000019","correct":true,"confidence":5},{"trial_n":137,"span":6,"encoder":"382676","distractor":"382679","target":"present","response":"present","rt":"1079.5","correct":true,"confidence":5},{"trial_n":138,"span":6,"encoder":"061123","distractor":"661123","target":"absent","response":"present","rt":"2125.7999999998","correct":false,"confidence":2},{"trial_n":139,"span":5,"encoder":"82848","distractor":"32848","target":"absent","response":"absent","rt":"3312.6000000006","correct":true,"confidence":3},{"trial_n":140,"span":5,"encoder":"04168","distractor":"04164","target":"present","response":"present","rt":"1445.0999999996","correct":true,"confidence":4}]