[{"trial_n":1,"span":8,"encoder":"76417919","distractor":"36417919","target":"present","response":"present","rt":"3536","correct":true,"confidence":-1},{"trial_n":2,"span":8,"encoder":"98535455","distractor":"78535455","target":"present","response":"present","rt":"3358","correct":true,"confidence":-1},{"trial_n":3,"span":10,"encoder":"6553716353","distractor":"6553016353","target":"absent","response":"absent","rt":"1921","correct":true,"confidence":-1},{"trial_n":4,"span":10,"encoder":"2364549919","distractor":"2364549915","target":"absent","response":"present","rt":"4252","correct":false,"confidence":-1},{"trial_n":5,"span":8,"encoder":"49373958","distractor":"49373948","target":"present","response":"present","rt":"1609","correct":true,"confidence":-1},{"trial_n":6,"span":8,"encoder":"12060240","distractor":"12460240","target":"absent","response":"present","rt":"2194","correct":false,"confidence":-1},{"trial_n":7,"span":6,"encoder":"285816","distractor":"685816","target":"present","response":"present","rt":"1436","correct":true,"confidence":-1},{"trial_n":8,"span":6,"encoder":"024732","distractor":"026732","target":"present","response":"present","rt":"2285","correct":true,"confidence":-1},{"trial_n":9,"span":8,"encoder":"12158404","distractor":"16158404","target":"present","response":"present","rt":"2040","correct":true,"confidence":-1},{"trial_n":10,"span":8,"encoder":"06656873","distractor":"16656873","target":"present","response":"absent","rt":"2329","correct":false,"confidence":-1},{"trial_n":11,"span":6,"encoder":"192285","distractor":"692285","target":"present","response":"present","rt":"768","correct":true,"confidence":-1},{"trial_n":12,"span":6,"encoder":"255710","distractor":"257710","target":"absent","response":"present","rt":"1568","correct":false,"confidence":-1},{"trial_n":13,"span":5,"encoder":"97168","distractor":"94168","target":"present","response":"present","rt":"1548","correct":true,"confidence":-1},{"trial_n":14,"span":5,"encoder":"08197","distractor":"08117","target":"present","response":"present","rt":"1816","correct":true,"confidence":-1},{"trial_n":15,"span":6,"encoder":"494171","distractor":"494121","target":"present","response":"absent","rt":"1468","correct":false,"confidence":-1},{"trial_n":16,"span":5,"encoder":"87763","distractor":"87733","target":"absent","response":"absent","rt":"1297","correct":true,"confidence":-1},{"trial_n":17,"span":5,"encoder":"53148","distractor":"53248","target":"absent","response":"absent","rt":"1481","correct":true,"confidence":-1},{"trial_n":18,"span":6,"encoder":"970550","distractor":"970555","target":"absent","response":"absent","rt":"1819","correct":true,"confidence":-1},{"trial_n":19,"span":6,"encoder":"910133","distractor":"910833","target":"absent","response":"present","rt":"1287","correct":false,"confidence":-1},{"trial_n":20,"span":5,"encoder":"96661","distractor":"96161","target":"present","response":"present","rt":"1144","correct":true,"confidence":-1},{"trial_n":21,"span":5,"encoder":"22840","distractor":"22800","target":"absent","response":"absent","rt":"1818","correct":true,"confidence":5},{"trial_n":22,"span":6,"encoder":"924821","distractor":"924824","target":"present","response":"absent","rt":"1469","correct":false,"confidence":5},{"trial_n":23,"span":5,"encoder":"63363","distractor":"69363","target":"absent","response":"absent","rt":"1584","correct":true,"confidence":5},{"trial_n":24,"span":5,"encoder":"52146","distractor":"52186","target":"present","response":"present","rt":"1949","correct":true,"confidence":5},{"trial_n":25,"span":6,"encoder":"115286","distractor":"113286","target":"absent","response":"absent","rt":"1353","correct":true,"confidence":5},{"trial_n":26,"span":6,"encoder":"796434","distractor":"896434","target":"present","response":"present","rt":"2653","correct":true,"confidence":4},{"trial_n":27,"span":7,"encoder":"0317752","distractor":"0717752","target":"absent","response":"absent","rt":"1475","correct":true,"confidence":5},{"trial_n":28,"span":7,"encoder":"3819793","distractor":"3829793","target":"absent","response":"absent","rt":"1725","correct":true,"confidence":5},{"trial_n":29,"span":8,"encoder":"62490865","distractor":"67490865","target":"absent","response":"absent","rt":"1431","correct":true,"confidence":4},{"trial_n":30,"span":8,"encoder":"23982754","distractor":"23982254","target":"absent","response":"absent","rt":"4197","correct":true,"confidence":4},{"trial_n":31,"span":9,"encoder":"085358710","distractor":"085358780","target":"absent","response":"absent","rt":"3238","correct":true,"confidence":3},{"trial_n":32,"span":9,"encoder":"841989239","distractor":"841989289","target":"present","response":"present","rt":"2414","correct":true,"confidence":4},{"trial_n":33,"span":10,"encoder":"5911818995","distractor":"5911818925","target":"absent","response":"absent","rt":"5387","correct":true,"confidence":3},{"trial_n":34,"span":10,"encoder":"0287178087","distractor":"0287178089","target":"absent","response":"absent","rt":"3105","correct":true,"confidence":4},{"trial_n":35,"span":11,"encoder":"34583895431","distractor":"34583895331","target":"absent","response":"present","rt":"3642","correct":false,"confidence":3},{"trial_n":36,"span":10,"encoder":"2207634626","distractor":"2207634656","target":"absent","response":"absent","rt":"2087","correct":true,"confidence":4},{"trial_n":37,"span":10,"encoder":"6691003277","distractor":"6691003377","target":"present","response":"present","rt":"1420.0000000001","correct":true,"confidence":4},{"trial_n":38,"span":11,"encoder":"83903051226","distractor":"83903251226","target":"absent","response":"present","rt":"3110.0000000001","correct":false,"confidence":3},{"trial_n":39,"span":10,"encoder":"5027335294","distractor":"5047335294","target":"present","response":"present","rt":"1405","correct":true,"confidence":3},{"trial_n":40,"span":10,"encoder":"4628784226","distractor":"4628784626","target":"absent","response":"absent","rt":"1954","correct":true,"confidence":4},{"trial_n":41,"span":11,"encoder":"54281694597","distractor":"24281694597","target":"present","response":"present","rt":"1512","correct":true,"confidence":3},{"trial_n":42,"span":11,"encoder":"61127376313","distractor":"61127676313","target":"present","response":"absent","rt":"3643","correct":false,"confidence":2},{"trial_n":43,"span":10,"encoder":"6355814293","distractor":"6359814293","target":"present","response":"present","rt":"1583.9999999999","correct":true,"confidence":3},{"trial_n":44,"span":10,"encoder":"4569383711","distractor":"3569383711","target":"absent","response":"absent","rt":"4055","correct":true,"confidence":2},{"trial_n":45,"span":11,"encoder":"63792331715","distractor":"63792331745","target":"present","response":"present","rt":"1244","correct":true,"confidence":3},{"trial_n":46,"span":11,"encoder":"32286043278","distractor":"02286043278","target":"absent","response":"present","rt":"3109.9999999999","correct":false,"confidence":3},{"trial_n":47,"span":10,"encoder":"4000616682","distractor":"4000616687","target":"present","response":"absent","rt":"4188","correct":false,"confidence":3},{"trial_n":48,"span":9,"encoder":"923070664","distractor":"923070669","target":"absent","response":"absent","rt":"2850","correct":true,"confidence":3},{"trial_n":49,"span":9,"encoder":"533517785","distractor":"533517795","target":"absent","response":"absent","rt":"1700","correct":true,"confidence":3},{"trial_n":50,"span":10,"encoder":"9149355492","distractor":"9149355495","target":"present","response":"present","rt":"1755","correct":true,"confidence":2},{"trial_n":51,"span":10,"encoder":"5589929808","distractor":"5583929808","target":"absent","response":"absent","rt":"1408","correct":true,"confidence":3},{"trial_n":52,"span":11,"encoder":"15112439835","distractor":"15115439835","target":"present","response":"present","rt":"1927","correct":true,"confidence":4},{"trial_n":53,"span":11,"encoder":"21345069268","distractor":"21345169268","target":"absent","response":"present","rt":"1475","correct":false,"confidence":3},{"trial_n":54,"span":10,"encoder":"4244801048","distractor":"4244801049","target":"present","response":"present","rt":"1537","correct":true,"confidence":4},{"trial_n":55,"span":10,"encoder":"5924833773","distractor":"5924836773","target":"absent","response":"present","rt":"1272","correct":false,"confidence":3},{"trial_n":56,"span":9,"encoder":"712234979","distractor":"710234979","target":"present","response":"present","rt":"1301.0000000001","correct":true,"confidence":4},{"trial_n":57,"span":9,"encoder":"309026313","distractor":"309026393","target":"present","response":"present","rt":"3184","correct":true,"confidence":3},{"trial_n":58,"span":10,"encoder":"8083657970","distractor":"8063657970","target":"present","response":"present","rt":"5655","correct":true,"confidence":3},{"trial_n":59,"span":10,"encoder":"5918338465","distractor":"5918738465","target":"present","response":"present","rt":"3688.0000000001","correct":true,"confidence":4},{"trial_n":60,"span":11,"encoder":"53488414520","distractor":"58488414520","target":"present","response":"present","rt":"3006","correct":true,"confidence":3},{"trial_n":61,"span":11,"encoder":"82559592632","distractor":"82559542632","target":"absent","response":"present","rt":"2345","correct":false,"confidence":3},{"trial_n":62,"span":10,"encoder":"4661824629","distractor":"6661824629","target":"present","response":"absent","rt":"4221","correct":false,"confidence":3},{"trial_n":63,"span":9,"encoder":"350844810","distractor":"550844810","target":"absent","response":"present","rt":"1634","correct":false,"confidence":3},{"trial_n":64,"span":8,"encoder":"84996316","distractor":"84696316","target":"present","response":"present","rt":"1930","correct":true,"confidence":5},{"trial_n":65,"span":8,"encoder":"30645051","distractor":"30645050","target":"absent","response":"absent","rt":"2228","correct":true,"confidence":5},{"trial_n":66,"span":9,"encoder":"287574128","distractor":"287574129","target":"present","response":"present","rt":"3001","correct":true,"confidence":4},{"trial_n":67,"span":9,"encoder":"033078676","distractor":"733078676","target":"present","response":"present","rt":"2600","correct":true,"confidence":3},{"trial_n":68,"span":10,"encoder":"6119191042","distractor":"6119491042","target":"absent","response":"absent","rt":"3468.9999999999","correct":true,"confidence":3},{"trial_n":69,"span":10,"encoder":"8596488116","distractor":"8593488116","target":"absent","response":"present","rt":"2471","correct":false,"confidence":4},{"trial_n":70,"span":9,"encoder":"278912876","distractor":"274912876","target":"present","response":"present","rt":"3215.0000000001","correct":true,"confidence":4},{"trial_n":71,"span":8,"encoder":"94038208","distractor":"94035208","target":"present","response":"present","rt":"4694","correct":true,"confidence":-1},{"trial_n":72,"span":8,"encoder":"55198176","distractor":"55195176","target":"present","response":"present","rt":"2994","correct":true,"confidence":-1},{"trial_n":73,"span":9,"encoder":"919588379","distractor":"929588379","target":"absent","response":"absent","rt":"7315","correct":true,"confidence":-1},{"trial_n":74,"span":9,"encoder":"580218841","distractor":"580918841","target":"absent","response":"absent","rt":"4066","correct":true,"confidence":-1},{"trial_n":75,"span":10,"encoder":"3055197980","distractor":"3055197987","target":"present","response":"present","rt":"3203","correct":true,"confidence":-1},{"trial_n":76,"span":10,"encoder":"2878724466","distractor":"2878754466","target":"present","response":"present","rt":"4886","correct":true,"confidence":-1},{"trial_n":77,"span":11,"encoder":"57630290284","distractor":"57630296284","target":"absent","response":"absent","rt":"3573.9999999999","correct":true,"confidence":-1},{"trial_n":78,"span":11,"encoder":"07497347386","distractor":"07497347381","target":"absent","response":"present","rt":"1907.9999999999","correct":false,"confidence":-1},{"trial_n":79,"span":10,"encoder":"8733397633","distractor":"8733399633","target":"absent","response":"absent","rt":"2534.9999999999","correct":true,"confidence":-1},{"trial_n":80,"span":10,"encoder":"8373130534","distractor":"8373133534","target":"absent","response":"absent","rt":"1903.0000000001","correct":true,"confidence":-1},{"trial_n":81,"span":11,"encoder":"68949238251","distractor":"68149238251","target":"present","response":"present","rt":"5959.0000000001","correct":true,"confidence":-1},{"trial_n":82,"span":11,"encoder":"06650632500","distractor":"06650662500","target":"absent","response":"absent","rt":"32105","correct":true,"confidence":-1},{"trial_n":83,"span":12,"encoder":"067600394945","distractor":"067600374945","target":"absent","response":"absent","rt":"6283","correct":true,"confidence":-1},{"trial_n":84,"span":12,"encoder":"308504384598","distractor":"307504384598","target":"absent","response":"present","rt":"4432.9999999998","correct":false,"confidence":-1},{"trial_n":85,"span":11,"encoder":"96802174596","distractor":"96882174596","target":"present","response":"absent","rt":"13183","correct":false,"confidence":-1},{"trial_n":86,"span":10,"encoder":"7976617629","distractor":"7976617619","target":"present","response":"absent","rt":"3835","correct":false,"confidence":-1},{"trial_n":87,"span":9,"encoder":"198382208","distractor":"196382208","target":"present","response":"present","rt":"2281","correct":true,"confidence":-1},{"trial_n":88,"span":9,"encoder":"859672487","distractor":"859673487","target":"present","response":"present","rt":"1682","correct":true,"confidence":-1},{"trial_n":89,"span":10,"encoder":"1201002678","distractor":"1201002978","target":"present","response":"present","rt":"2686.0000000002","correct":true,"confidence":-1},{"trial_n":90,"span":10,"encoder":"7563663285","distractor":"7563662285","target":"absent","response":"absent","rt":"2154","correct":true,"confidence":-1},{"trial_n":91,"span":11,"encoder":"45667734544","distractor":"45667734574","target":"absent","response":"present","rt":"7727","correct":false,"confidence":3},{"trial_n":92,"span":10,"encoder":"8445674949","distractor":"3445674949","target":"present","response":"absent","rt":"35351","correct":false,"confidence":2},{"trial_n":93,"span":9,"encoder":"981169437","distractor":"981169467","target":"present","response":"present","rt":"2016","correct":true,"confidence":3},{"trial_n":94,"span":9,"encoder":"562701785","distractor":"562701705","target":"absent","response":"absent","rt":"1860.0000000002","correct":true,"confidence":3},{"trial_n":95,"span":10,"encoder":"0514786031","distractor":"0514780031","target":"absent","response":"present","rt":"4252","correct":false,"confidence":4},{"trial_n":96,"span":9,"encoder":"914811832","distractor":"914811532","target":"absent","response":"absent","rt":"1613","correct":true,"confidence":5},{"trial_n":97,"span":9,"encoder":"754454178","distractor":"354454178","target":"absent","response":"present","rt":"5077","correct":false,"confidence":3},{"trial_n":98,"span":8,"encoder":"80872289","distractor":"80972289","target":"present","response":"absent","rt":"2025","correct":false,"confidence":3},{"trial_n":99,"span":7,"encoder":"4112719","distractor":"4118719","target":"present","response":"absent","rt":"49119","correct":false,"confidence":2},{"trial_n":100,"span":6,"encoder":"887387","distractor":"887383","target":"present","response":"present","rt":"1369","correct":true,"confidence":5},{"trial_n":101,"span":6,"encoder":"573116","distractor":"673116","target":"absent","response":"absent","rt":"1871","correct":true,"confidence":5},{"trial_n":102,"span":7,"encoder":"6427179","distractor":"6427173","target":"present","response":"present","rt":"1040","correct":true,"confidence":5},{"trial_n":103,"span":7,"encoder":"9207049","distractor":"5207049","target":"present","response":"present","rt":"2823","correct":true,"confidence":3},{"trial_n":104,"span":8,"encoder":"81390351","distractor":"81320351","target":"present","response":"present","rt":"3125","correct":true,"confidence":3},{"trial_n":105,"span":8,"encoder":"73722177","distractor":"73732177","target":"present","response":"absent","rt":"1943","correct":false,"confidence":3},{"trial_n":106,"span":7,"encoder":"1830843","distractor":"1830846","target":"present","response":"present","rt":"1007","correct":true,"confidence":5},{"trial_n":107,"span":7,"encoder":"2041913","distractor":"2141913","target":"absent","response":"absent","rt":"2090","correct":true,"confidence":5},{"trial_n":108,"span":8,"encoder":"18506822","distractor":"18504822","target":"absent","response":"absent","rt":"1976","correct":true,"confidence":5},{"trial_n":109,"span":8,"encoder":"85814326","distractor":"87814326","target":"present","response":"absent","rt":"3694","correct":false,"confidence":3},{"trial_n":110,"span":7,"encoder":"5881454","distractor":"5889454","target":"present","response":"present","rt":"2940","correct":true,"confidence":2},{"trial_n":111,"span":7,"encoder":"8371929","distractor":"8371919","target":"present","response":"present","rt":"640","correct":true,"confidence":3},{"trial_n":112,"span":8,"encoder":"39166527","distractor":"39166529","target":"present","response":"absent","rt":"3079.0000000005","correct":false,"confidence":3},{"trial_n":113,"span":7,"encoder":"5367288","distractor":"5367283","target":"absent","response":"absent","rt":"922","correct":true,"confidence":2},{"trial_n":114,"span":7,"encoder":"0800017","distractor":"0800077","target":"absent","response":"absent","rt":"2408","correct":true,"confidence":5},{"trial_n":115,"span":8,"encoder":"42822857","distractor":"40822857","target":"present","response":"absent","rt":"4042.9999999995","correct":false,"confidence":2},{"trial_n":116,"span":7,"encoder":"6626191","distractor":"7626191","target":"absent","response":"absent","rt":"1121.9999999995","correct":true,"confidence":4},{"trial_n":117,"span":7,"encoder":"0581044","distractor":"0581094","target":"present","response":"absent","rt":"1222","correct":false,"confidence":3},{"trial_n":118,"span":6,"encoder":"383606","distractor":"383646","target":"absent","response":"present","rt":"1268","correct":false,"confidence":3},{"trial_n":119,"span":5,"encoder":"96788","distractor":"96798","target":"present","response":"present","rt":"1214","correct":true,"confidence":4},{"trial_n":120,"span":5,"encoder":"06006","distractor":"06806","target":"absent","response":"absent","rt":"3113.0000000005","correct":true,"confidence":3},{"trial_n":121,"span":6,"encoder":"727352","distractor":"327352","target":"present","response":"present","rt":"3572","correct":true,"confidence":3},{"trial_n":122,"span":6,"encoder":"347842","distractor":"327842","target":"absent","response":"present","rt":"4736","correct":false,"confidence":2},{"trial_n":123,"span":5,"encoder":"57802","distractor":"17802","target":"present","response":"present","rt":"1431","correct":true,"confidence":4},{"trial_n":124,"span":5,"encoder":"58783","distractor":"58183","target":"absent","response":"absent","rt":"1480","correct":true,"confidence":4},{"trial_n":125,"span":6,"encoder":"601060","distractor":"601860","target":"present","response":"present","rt":"1348.0000000005","correct":true,"confidence":4},{"trial_n":126,"span":6,"encoder":"802744","distractor":"842744","target":"absent","response":"absent","rt":"1800.9999999995","correct":true,"confidence":3},{"trial_n":127,"span":7,"encoder":"3407737","distractor":"0407737","target":"absent","response":"absent","rt":"9406","correct":true,"confidence":2},{"trial_n":128,"span":7,"encoder":"4285896","distractor":"4285898","target":"absent","response":"absent","rt":"1589","correct":true,"confidence":5},{"trial_n":129,"span":8,"encoder":"23547397","distractor":"23247397","target":"absent","response":"absent","rt":"2711","correct":true,"confidence":3},{"trial_n":130,"span":8,"encoder":"09638662","distractor":"09638622","target":"present","response":"present","rt":"2343","correct":true,"confidence":5},{"trial_n":131,"span":9,"encoder":"887037514","distractor":"884037514","target":"absent","response":"absent","rt":"5134","correct":true,"confidence":3},{"trial_n":132,"span":9,"encoder":"558764297","distractor":"558784297","target":"present","response":"present","rt":"3182","correct":true,"confidence":3},{"trial_n":133,"span":10,"encoder":"3093209232","distractor":"3093200232","target":"absent","response":"present","rt":"1831","correct":false,"confidence":2},{"trial_n":134,"span":9,"encoder":"565440523","distractor":"535440523","target":"present","response":"present","rt":"3815","correct":true,"confidence":3},{"trial_n":135,"span":9,"encoder":"311367766","distractor":"310367766","target":"present","response":"absent","rt":"2848","correct":false,"confidence":2},{"trial_n":136,"span":8,"encoder":"35057851","distractor":"35058851","target":"absent","response":"present","rt":"3795","correct":false,"confidence":3},{"trial_n":137,"span":7,"encoder":"5577801","distractor":"6577801","target":"present","response":"present","rt":"2557","correct":true,"confidence":2},{"trial_n":138,"span":7,"encoder":"2481446","distractor":"2481546","target":"absent","response":"present","rt":"10072","correct":false,"confidence":3},{"trial_n":139,"span":6,"encoder":"147835","distractor":"187835","target":"absent","response":"absent","rt":"2251","correct":true,"confidence":2},{"trial_n":140,"span":6,"encoder":"215468","distractor":"615468","target":"present","response":"present","rt":"1369","correct":true,"confidence":5}]