[{"trial_n":1,"min":25,"max":230,"target":"present","response":"absent","rt":7712.3999999762,"correct":false,"confidence":-1},{"trial_n":2,"min":25,"max":230,"target":"present","response":"present","rt":1946.2000000477,"correct":true,"confidence":-1},{"trial_n":3,"min":25,"max":230,"target":"absent","response":"absent","rt":1065,"correct":true,"confidence":-1},{"trial_n":4,"min":41,"max":214,"target":"absent","response":"absent","rt":870.19999998808,"correct":true,"confidence":-1},{"trial_n":5,"min":41,"max":214,"target":"present","response":"present","rt":854,"correct":true,"confidence":-1},{"trial_n":6,"min":57,"max":198,"target":"absent","response":"absent","rt":893.60000002384,"correct":true,"confidence":-1},{"trial_n":7,"min":57,"max":198,"target":"present","response":"present","rt":808.80000001192,"correct":true,"confidence":-1},{"trial_n":8,"min":73,"max":182,"target":"absent","response":"absent","rt":873.69999998808,"correct":true,"confidence":-1},{"trial_n":9,"min":73,"max":182,"target":"absent","response":"absent","rt":724.80000001192,"correct":true,"confidence":-1},{"trial_n":10,"min":89,"max":166,"target":"present","response":"absent","rt":663.89999997616,"correct":false,"confidence":-1},{"trial_n":11,"min":81,"max":174,"target":"present","response":"present","rt":1016.4000000358,"correct":true,"confidence":-1},{"trial_n":12,"min":81,"max":174,"target":"present","response":"present","rt":813.89999997616,"correct":true,"confidence":-1},{"trial_n":13,"min":89,"max":166,"target":"absent","response":"absent","rt":1229.1000000238,"correct":true,"confidence":-1},{"trial_n":14,"min":89,"max":166,"target":"present","response":"present","rt":1198.3000000119,"correct":true,"confidence":-1},{"trial_n":15,"min":97,"max":158,"target":"absent","response":"absent","rt":1299.9000000358,"correct":true,"confidence":-1},{"trial_n":16,"min":97,"max":158,"target":"present","response":"absent","rt":928.39999997616,"correct":false,"confidence":-1},{"trial_n":17,"min":89,"max":166,"target":"absent","response":"absent","rt":1161.5,"correct":true,"confidence":-1},{"trial_n":18,"min":89,"max":166,"target":"absent","response":"absent","rt":1128.7999999523,"correct":true,"confidence":-1},{"trial_n":19,"min":97,"max":158,"target":"present","response":"present","rt":801.19999998808,"correct":true,"confidence":-1},{"trial_n":20,"min":97,"max":158,"target":"present","response":"present","rt":1123.5,"correct":true,"confidence":-1},{"trial_n":21,"min":101,"max":154,"target":"present","response":"present","rt":1013.5999999642,"correct":true,"confidence":2},{"trial_n":22,"min":101,"max":154,"target":"absent","response":"present","rt":996.19999998808,"correct":false,"confidence":2},{"trial_n":23,"min":97,"max":158,"target":"absent","response":"absent","rt":2142.8000000119,"correct":true,"confidence":2},{"trial_n":24,"min":97,"max":158,"target":"present","response":"present","rt":988.80000001192,"correct":true,"confidence":2},{"trial_n":25,"min":101,"max":154,"target":"present","response":"present","rt":962.89999997616,"correct":true,"confidence":2},{"trial_n":26,"min":101,"max":154,"target":"absent","response":"present","rt":1084,"correct":false,"confidence":2},{"trial_n":27,"min":97,"max":158,"target":"absent","response":"absent","rt":1019.1999999881,"correct":true,"confidence":2},{"trial_n":28,"min":97,"max":158,"target":"present","response":"present","rt":1907.3000000119,"correct":true,"confidence":2},{"trial_n":29,"min":101,"max":154,"target":"absent","response":"absent","rt":1333.8999999762,"correct":true,"confidence":3},{"trial_n":30,"min":101,"max":154,"target":"absent","response":"present","rt":685.09999996424,"correct":false,"confidence":3},{"trial_n":31,"min":99,"max":156,"target":"absent","response":"present","rt":1082.3000000119,"correct":false,"confidence":3},{"trial_n":32,"min":97,"max":158,"target":"present","response":"present","rt":1355.4000000358,"correct":true,"confidence":2},{"trial_n":33,"min":97,"max":158,"target":"absent","response":"present","rt":1038.6999999881,"correct":false,"confidence":2},{"trial_n":34,"min":95,"max":160,"target":"present","response":"present","rt":1504.5,"correct":true,"confidence":2},{"trial_n":35,"min":95,"max":160,"target":"present","response":"absent","rt":1048.8000000119,"correct":false,"confidence":2},{"trial_n":36,"min":93,"max":162,"target":"absent","response":"present","rt":1123.3999999762,"correct":false,"confidence":2},{"trial_n":37,"min":91,"max":164,"target":"present","response":"present","rt":1076,"correct":true,"confidence":2},{"trial_n":38,"min":91,"max":164,"target":"absent","response":"absent","rt":1212.1999999881,"correct":true,"confidence":3},{"trial_n":39,"min":93,"max":162,"target":"present","response":"absent","rt":1624.3999999762,"correct":false,"confidence":2},{"trial_n":40,"min":91,"max":164,"target":"absent","response":"absent","rt":1447.3999999762,"correct":true,"confidence":3},{"trial_n":41,"min":91,"max":164,"target":"absent","response":"absent","rt":1019.6000000238,"correct":true,"confidence":3},{"trial_n":42,"min":92,"max":163,"target":"present","response":"absent","rt":1386.3000000119,"correct":false,"confidence":4},{"trial_n":43,"min":91,"max":164,"target":"present","response":"present","rt":2911.2000000477,"correct":true,"confidence":2},{"trial_n":44,"min":91,"max":164,"target":"present","response":"present","rt":1273.5,"correct":true,"confidence":2},{"trial_n":45,"min":92,"max":163,"target":"present","response":"present","rt":1750.5999999642,"correct":true,"confidence":2},{"trial_n":46,"min":92,"max":163,"target":"absent","response":"absent","rt":2577.4000000358,"correct":true,"confidence":3},{"trial_n":47,"min":93,"max":162,"target":"present","response":"present","rt":890.10000002384,"correct":true,"confidence":4},{"trial_n":48,"min":93,"max":162,"target":"absent","response":"present","rt":2493,"correct":false,"confidence":1},{"trial_n":49,"min":92,"max":163,"target":"present","response":"present","rt":952.30000001192,"correct":true,"confidence":4},{"trial_n":50,"min":92,"max":163,"target":"absent","response":"present","rt":1167.9000000358,"correct":false,"confidence":2},{"trial_n":51,"min":91,"max":164,"target":"present","response":"present","rt":1292.1999999881,"correct":true,"confidence":2},{"trial_n":52,"min":91,"max":164,"target":"present","response":"present","rt":1477.1999999881,"correct":true,"confidence":2},{"trial_n":53,"min":92,"max":163,"target":"present","response":"absent","rt":2103.9000000358,"correct":false,"confidence":2},{"trial_n":54,"min":91,"max":164,"target":"absent","response":"absent","rt":1315.8999999762,"correct":true,"confidence":2},{"trial_n":55,"min":91,"max":164,"target":"absent","response":"present","rt":1310.6000000238,"correct":false,"confidence":2},{"trial_n":56,"min":90,"max":165,"target":"absent","response":"absent","rt":1567.1999999881,"correct":true,"confidence":2},{"trial_n":57,"min":90,"max":165,"target":"present","response":"absent","rt":675.90000003576,"correct":false,"confidence":4},{"trial_n":58,"min":89,"max":166,"target":"present","response":"present","rt":744,"correct":true,"confidence":4},{"trial_n":59,"min":89,"max":166,"target":"absent","response":"absent","rt":1497.8000000119,"correct":true,"confidence":1},{"trial_n":60,"min":90,"max":165,"target":"present","response":"absent","rt":2917.1999999881,"correct":false,"confidence":2},{"trial_n":61,"min":89,"max":166,"target":"present","response":"absent","rt":1496.9000000358,"correct":false,"confidence":1},{"trial_n":62,"min":88,"max":167,"target":"absent","response":"absent","rt":915.89999997616,"correct":true,"confidence":2},{"trial_n":63,"min":88,"max":167,"target":"absent","response":"present","rt":1231.9000000358,"correct":false,"confidence":2},{"trial_n":64,"min":87,"max":168,"target":"absent","response":"present","rt":1079.7999999523,"correct":false,"confidence":2},{"trial_n":65,"min":86,"max":169,"target":"absent","response":"present","rt":1060.1000000238,"correct":false,"confidence":3},{"trial_n":66,"min":85,"max":170,"target":"absent","response":"absent","rt":643.30000001192,"correct":true,"confidence":3},{"trial_n":67,"min":85,"max":170,"target":"present","response":"present","rt":1045.4000000358,"correct":true,"confidence":2},{"trial_n":68,"min":86,"max":169,"target":"present","response":"absent","rt":853.69999998808,"correct":false,"confidence":4},{"trial_n":69,"min":85,"max":170,"target":"present","response":"present","rt":1224,"correct":true,"confidence":3},{"trial_n":70,"min":85,"max":170,"target":"absent","response":"absent","rt":857.69999998808,"correct":true,"confidence":3},{"trial_n":71,"min":41,"max":214,"target":"present","response":"absent","rt":5368.6000000238,"correct":false,"confidence":-1},{"trial_n":72,"min":41,"max":214,"target":"present","response":"present","rt":1048.8000000119,"correct":true,"confidence":-1},{"trial_n":73,"min":41,"max":214,"target":"absent","response":"absent","rt":1396.3000000119,"correct":true,"confidence":-1},{"trial_n":74,"min":57,"max":198,"target":"absent","response":"absent","rt":885.90000003576,"correct":true,"confidence":-1},{"trial_n":75,"min":57,"max":198,"target":"present","response":"present","rt":713.09999996424,"correct":true,"confidence":-1},{"trial_n":76,"min":73,"max":182,"target":"present","response":"present","rt":832.59999996424,"correct":true,"confidence":-1},{"trial_n":77,"min":73,"max":182,"target":"present","response":"present","rt":795.5,"correct":true,"confidence":-1},{"trial_n":78,"min":89,"max":166,"target":"present","response":"present","rt":1616.8999999762,"correct":true,"confidence":-1},{"trial_n":79,"min":89,"max":166,"target":"absent","response":"present","rt":1261.8999999762,"correct":false,"confidence":-1},{"trial_n":80,"min":73,"max":182,"target":"absent","response":"absent","rt":929.60000002384,"correct":true,"confidence":-1},{"trial_n":81,"min":73,"max":182,"target":"absent","response":"absent","rt":1712.5999999642,"correct":true,"confidence":-1},{"trial_n":82,"min":81,"max":174,"target":"present","response":"present","rt":992.89999997616,"correct":true,"confidence":-1},{"trial_n":83,"min":81,"max":174,"target":"absent","response":"absent","rt":753.40000003576,"correct":true,"confidence":-1},{"trial_n":84,"min":89,"max":166,"target":"present","response":"present","rt":992.80000001192,"correct":true,"confidence":-1},{"trial_n":85,"min":89,"max":166,"target":"absent","response":"absent","rt":923.60000002384,"correct":true,"confidence":-1},{"trial_n":86,"min":97,"max":158,"target":"present","response":"present","rt":1551.6999999881,"correct":true,"confidence":-1},{"trial_n":87,"min":97,"max":158,"target":"absent","response":"absent","rt":897.29999995232,"correct":true,"confidence":-1},{"trial_n":88,"min":105,"max":150,"target":"absent","response":"absent","rt":1365.3999999762,"correct":true,"confidence":-1},{"trial_n":89,"min":105,"max":150,"target":"present","response":"absent","rt":993,"correct":false,"confidence":-1},{"trial_n":90,"min":97,"max":158,"target":"absent","response":"absent","rt":1597.1000000238,"correct":true,"confidence":-1},{"trial_n":91,"min":97,"max":158,"target":"absent","response":"absent","rt":1754.4000000358,"correct":true,"confidence":1},{"trial_n":92,"min":101,"max":154,"target":"present","response":"present","rt":930.39999997616,"correct":true,"confidence":2},{"trial_n":93,"min":101,"max":154,"target":"present","response":"present","rt":688.90000003576,"correct":true,"confidence":2},{"trial_n":94,"min":105,"max":150,"target":"absent","response":"present","rt":770.10000002384,"correct":false,"confidence":2},{"trial_n":95,"min":101,"max":154,"target":"present","response":"present","rt":957.70000004768,"correct":true,"confidence":2},{"trial_n":96,"min":101,"max":154,"target":"present","response":"present","rt":925.59999996424,"correct":true,"confidence":2},{"trial_n":97,"min":105,"max":150,"target":"absent","response":"absent","rt":948.30000001192,"correct":true,"confidence":3},{"trial_n":98,"min":105,"max":150,"target":"absent","response":"absent","rt":784,"correct":true,"confidence":2},{"trial_n":99,"min":109,"max":146,"target":"present","response":"present","rt":886.80000001192,"correct":true,"confidence":2},{"trial_n":100,"min":109,"max":146,"target":"absent","response":"present","rt":903.19999998808,"correct":false,"confidence":2},{"trial_n":101,"min":107,"max":148,"target":"present","response":"absent","rt":1279,"correct":false,"confidence":2},{"trial_n":102,"min":105,"max":150,"target":"absent","response":"absent","rt":935.19999998808,"correct":true,"confidence":2},{"trial_n":103,"min":105,"max":150,"target":"absent","response":"present","rt":2372.3000000119,"correct":false,"confidence":1},{"trial_n":104,"min":103,"max":152,"target":"present","response":"present","rt":898.70000004768,"correct":true,"confidence":2},{"trial_n":105,"min":103,"max":152,"target":"present","response":"present","rt":794.39999997616,"correct":true,"confidence":2},{"trial_n":106,"min":105,"max":150,"target":"present","response":"present","rt":926.29999995232,"correct":true,"confidence":2},{"trial_n":107,"min":105,"max":150,"target":"present","response":"absent","rt":1107.2999999523,"correct":false,"confidence":4},{"trial_n":108,"min":103,"max":152,"target":"present","response":"absent","rt":1290.5,"correct":false,"confidence":2},{"trial_n":109,"min":101,"max":154,"target":"present","response":"absent","rt":1100.2000000477,"correct":false,"confidence":2},{"trial_n":110,"min":99,"max":156,"target":"absent","response":"absent","rt":1084.3000000119,"correct":true,"confidence":2},{"trial_n":111,"min":99,"max":156,"target":"absent","response":"present","rt":783.5,"correct":false,"confidence":2},{"trial_n":112,"min":98,"max":157,"target":"present","response":"present","rt":1312.3000000119,"correct":true,"confidence":2},{"trial_n":113,"min":98,"max":157,"target":"present","response":"absent","rt":896.40000003576,"correct":false,"confidence":3},{"trial_n":114,"min":97,"max":158,"target":"absent","response":"present","rt":1050.3000000119,"correct":false,"confidence":2},{"trial_n":115,"min":96,"max":159,"target":"present","response":"present","rt":777.30000001192,"correct":true,"confidence":3},{"trial_n":116,"min":96,"max":159,"target":"absent","response":"absent","rt":851.09999996424,"correct":true,"confidence":3},{"trial_n":117,"min":97,"max":158,"target":"present","response":"present","rt":825.30000001192,"correct":true,"confidence":2},{"trial_n":118,"min":97,"max":158,"target":"present","response":"present","rt":848.5,"correct":true,"confidence":2},{"trial_n":119,"min":98,"max":157,"target":"absent","response":"present","rt":607.40000003576,"correct":false,"confidence":2},{"trial_n":120,"min":97,"max":158,"target":"absent","response":"present","rt":779.90000003576,"correct":false,"confidence":2},{"trial_n":121,"min":96,"max":159,"target":"present","response":"present","rt":643.40000003576,"correct":true,"confidence":2},{"trial_n":122,"min":96,"max":159,"target":"present","response":"present","rt":1180,"correct":true,"confidence":2},{"trial_n":123,"min":97,"max":158,"target":"absent","response":"absent","rt":881.90000003576,"correct":true,"confidence":3},{"trial_n":124,"min":97,"max":158,"target":"present","response":"present","rt":967.60000002384,"correct":true,"confidence":2},{"trial_n":125,"min":98,"max":157,"target":"present","response":"present","rt":851.59999996424,"correct":true,"confidence":2},{"trial_n":126,"min":98,"max":157,"target":"absent","response":"present","rt":989.59999996424,"correct":false,"confidence":2},{"trial_n":127,"min":97,"max":158,"target":"present","response":"absent","rt":1073.3000000119,"correct":false,"confidence":3},{"trial_n":128,"min":96,"max":159,"target":"absent","response":"present","rt":795.10000002384,"correct":false,"confidence":2},{"trial_n":129,"min":95,"max":160,"target":"present","response":"present","rt":2097.9000000358,"correct":true,"confidence":1},{"trial_n":130,"min":95,"max":160,"target":"absent","response":"present","rt":854.60000002384,"correct":false,"confidence":1},{"trial_n":131,"min":94,"max":161,"target":"absent","response":"absent","rt":1465.9000000358,"correct":true,"confidence":2},{"trial_n":132,"min":94,"max":161,"target":"absent","response":"absent","rt":956.89999997616,"correct":true,"confidence":2},{"trial_n":133,"min":95,"max":160,"target":"absent","response":"present","rt":614.90000003576,"correct":false,"confidence":2},{"trial_n":134,"min":94,"max":161,"target":"absent","response":"absent","rt":800.69999998808,"correct":true,"confidence":2},{"trial_n":135,"min":94,"max":161,"target":"absent","response":"absent","rt":955.80000001192,"correct":true,"confidence":3},{"trial_n":136,"min":95,"max":160,"target":"absent","response":"absent","rt":1819.9000000358,"correct":true,"confidence":2},{"trial_n":137,"min":95,"max":160,"target":"present","response":"present","rt":1105.3999999762,"correct":true,"confidence":1},{"trial_n":138,"min":96,"max":159,"target":"present","response":"present","rt":908,"correct":true,"confidence":2},{"trial_n":139,"min":96,"max":159,"target":"absent","response":"absent","rt":728,"correct":true,"confidence":2},{"trial_n":140,"min":97,"max":158,"target":"present","response":"present","rt":1230.1999999881,"correct":true,"confidence":1}]