[{"trial_n":1,"n_dots":4.25,"target":"right","response":"right","rt":3618,"correct":true,"confidence":-1},{"trial_n":2,"n_dots":4.25,"target":"left","response":"right","rt":1238,"correct":false,"confidence":-1},{"trial_n":3,"n_dots":4.65,"target":"left","response":"left","rt":740,"correct":true,"confidence":-1},{"trial_n":4,"n_dots":4.65,"target":"left","response":"right","rt":825,"correct":false,"confidence":-1},{"trial_n":5,"n_dots":5.05,"target":"left","response":"left","rt":556,"correct":true,"confidence":-1},{"trial_n":6,"n_dots":5.05,"target":"left","response":"left","rt":407,"correct":true,"confidence":-1},{"trial_n":7,"n_dots":4.65,"target":"left","response":"left","rt":609,"correct":true,"confidence":-1},{"trial_n":8,"n_dots":4.65,"target":"right","response":"right","rt":542,"correct":true,"confidence":-1},{"trial_n":9,"n_dots":4.45,"target":"left","response":"left","rt":256,"correct":true,"confidence":-1},{"trial_n":10,"n_dots":4.45,"target":"left","response":"left","rt":608,"correct":true,"confidence":-1},{"trial_n":11,"n_dots":4.25,"target":"left","response":"left","rt":474,"correct":true,"confidence":-1},{"trial_n":12,"n_dots":4.25,"target":"right","response":"right","rt":374,"correct":true,"confidence":-1},{"trial_n":13,"n_dots":4.15,"target":"left","response":"right","rt":692,"correct":false,"confidence":-1},{"trial_n":14,"n_dots":4.25,"target":"right","response":"right","rt":907,"correct":true,"confidence":-1},{"trial_n":15,"n_dots":4.25,"target":"left","response":"left","rt":774,"correct":true,"confidence":-1},{"trial_n":16,"n_dots":4.15,"target":"right","response":"right","rt":591,"correct":true,"confidence":-1},{"trial_n":17,"n_dots":4.15,"target":"left","response":"left","rt":640,"correct":true,"confidence":-1},{"trial_n":18,"n_dots":4.05,"target":"left","response":"left","rt":708,"correct":true,"confidence":-1},{"trial_n":19,"n_dots":4.05,"target":"left","response":"left","rt":572.00000000001,"correct":true,"confidence":-1},{"trial_n":20,"n_dots":3.95,"target":"right","response":"right","rt":623,"correct":true,"confidence":-1},{"trial_n":21,"n_dots":3.95,"target":"left","response":"left","rt":609,"correct":true,"confidence":2},{"trial_n":22,"n_dots":3.85,"target":"right","response":"right","rt":675.00000000001,"correct":true,"confidence":3},{"trial_n":23,"n_dots":3.85,"target":"left","response":"left","rt":705.00000000001,"correct":true,"confidence":4},{"trial_n":24,"n_dots":3.75,"target":"right","response":"right","rt":742.00000000001,"correct":true,"confidence":4},{"trial_n":25,"n_dots":3.75,"target":"right","response":"right","rt":2192,"correct":true,"confidence":3},{"trial_n":26,"n_dots":3.65,"target":"right","response":"right","rt":677,"correct":true,"confidence":4},{"trial_n":27,"n_dots":3.65,"target":"left","response":"right","rt":639.99999999999,"correct":false,"confidence":3},{"trial_n":28,"n_dots":3.75,"target":"left","response":"right","rt":759.99999999999,"correct":false,"confidence":2},{"trial_n":29,"n_dots":3.85,"target":"left","response":"right","rt":841,"correct":false,"confidence":3},{"trial_n":30,"n_dots":3.95,"target":"left","response":"left","rt":690,"correct":true,"confidence":3},{"trial_n":31,"n_dots":3.95,"target":"left","response":"right","rt":893,"correct":false,"confidence":3},{"trial_n":32,"n_dots":4.05,"target":"left","response":"left","rt":923.00000000001,"correct":true,"confidence":1},{"trial_n":33,"n_dots":4.05,"target":"right","response":"right","rt":1057,"correct":true,"confidence":5},{"trial_n":34,"n_dots":3.95,"target":"right","response":"right","rt":591.00000000001,"correct":true,"confidence":4},{"trial_n":35,"n_dots":3.95,"target":"right","response":"right","rt":574.99999999997,"correct":true,"confidence":4},{"trial_n":36,"n_dots":3.85,"target":"right","response":"right","rt":676,"correct":true,"confidence":4},{"trial_n":37,"n_dots":3.85,"target":"left","response":"left","rt":725,"correct":true,"confidence":4},{"trial_n":38,"n_dots":3.75,"target":"left","response":"right","rt":657,"correct":false,"confidence":3},{"trial_n":39,"n_dots":3.85,"target":"right","response":"right","rt":610,"correct":true,"confidence":4},{"trial_n":40,"n_dots":3.85,"target":"right","response":"right","rt":693,"correct":true,"confidence":5},{"trial_n":41,"n_dots":3.75,"target":"right","response":"left","rt":738.99999999997,"correct":false,"confidence":3},{"trial_n":42,"n_dots":3.85,"target":"right","response":"right","rt":542,"correct":true,"confidence":4},{"trial_n":43,"n_dots":3.85,"target":"left","response":"left","rt":592.00000000003,"correct":true,"confidence":5},{"trial_n":44,"n_dots":3.75,"target":"left","response":"right","rt":559,"correct":false,"confidence":4},{"trial_n":45,"n_dots":3.85,"target":"right","response":"right","rt":590.99999999997,"correct":true,"confidence":5},{"trial_n":46,"n_dots":3.85,"target":"right","response":"right","rt":542,"correct":true,"confidence":5},{"trial_n":47,"n_dots":3.75,"target":"right","response":"right","rt":542,"correct":true,"confidence":5},{"trial_n":48,"n_dots":3.75,"target":"right","response":"right","rt":574,"correct":true,"confidence":5},{"trial_n":49,"n_dots":3.65,"target":"right","response":"right","rt":542.99999999997,"correct":true,"confidence":4},{"trial_n":50,"n_dots":3.65,"target":"left","response":"right","rt":558,"correct":false,"confidence":3},{"trial_n":51,"n_dots":3.75,"target":"right","response":"right","rt":525,"correct":true,"confidence":3},{"trial_n":52,"n_dots":3.75,"target":"left","response":"right","rt":1191,"correct":false,"confidence":3},{"trial_n":53,"n_dots":3.85,"target":"left","response":"right","rt":993,"correct":false,"confidence":3},{"trial_n":54,"n_dots":3.95,"target":"left","response":"left","rt":1176,"correct":true,"confidence":3},{"trial_n":55,"n_dots":3.95,"target":"left","response":"left","rt":421.99999999997,"correct":true,"confidence":4},{"trial_n":56,"n_dots":3.85,"target":"left","response":"left","rt":675,"correct":true,"confidence":5},{"trial_n":57,"n_dots":3.85,"target":"left","response":"left","rt":1025,"correct":true,"confidence":3},{"trial_n":58,"n_dots":3.75,"target":"left","response":"left","rt":506,"correct":true,"confidence":4},{"trial_n":59,"n_dots":3.75,"target":"left","response":"left","rt":523,"correct":true,"confidence":4},{"trial_n":60,"n_dots":3.65,"target":"left","response":"left","rt":642.00000000003,"correct":true,"confidence":5},{"trial_n":61,"n_dots":3.65,"target":"right","response":"right","rt":426,"correct":true,"confidence":5},{"trial_n":62,"n_dots":3.55,"target":"right","response":"right","rt":458,"correct":true,"confidence":4},{"trial_n":63,"n_dots":3.55,"target":"right","response":"right","rt":508.00000000003,"correct":true,"confidence":4},{"trial_n":64,"n_dots":3.45,"target":"left","response":"left","rt":608.99999999997,"correct":true,"confidence":3},{"trial_n":65,"n_dots":3.45,"target":"left","response":"left","rt":1007,"correct":true,"confidence":1},{"trial_n":66,"n_dots":3.35,"target":"right","response":"right","rt":575,"correct":true,"confidence":1},{"trial_n":67,"n_dots":3.35,"target":"right","response":"right","rt":655.99999999997,"correct":true,"confidence":2},{"trial_n":68,"n_dots":3.25,"target":"left","response":"left","rt":793.00000000003,"correct":true,"confidence":1},{"trial_n":69,"n_dots":3.25,"target":"right","response":"right","rt":476,"correct":true,"confidence":5},{"trial_n":70,"n_dots":3.15,"target":"left","response":"right","rt":608.00000000003,"correct":false,"confidence":3},{"trial_n":71,"n_dots":3.25,"target":"right","response":"right","rt":522.00000000003,"correct":true,"confidence":4},{"trial_n":72,"n_dots":3.25,"target":"right","response":"right","rt":409,"correct":true,"confidence":3},{"trial_n":73,"n_dots":3.15,"target":"right","response":"right","rt":592.00000000006,"correct":true,"confidence":3},{"trial_n":74,"n_dots":3.15,"target":"left","response":"left","rt":906,"correct":true,"confidence":1},{"trial_n":75,"n_dots":3.05,"target":"left","response":"right","rt":808,"correct":false,"confidence":3},{"trial_n":76,"n_dots":3.15,"target":"right","response":"right","rt":676,"correct":true,"confidence":4},{"trial_n":77,"n_dots":3.15,"target":"left","response":"right","rt":791,"correct":false,"confidence":3},{"trial_n":78,"n_dots":3.25,"target":"right","response":"right","rt":540,"correct":true,"confidence":3},{"trial_n":79,"n_dots":3.25,"target":"right","response":"left","rt":659,"correct":false,"confidence":1},{"trial_n":80,"n_dots":3.35,"target":"left","response":"right","rt":791,"correct":false,"confidence":4},{"trial_n":81,"n_dots":3.45,"target":"left","response":"left","rt":543,"correct":true,"confidence":4},{"trial_n":82,"n_dots":3.45,"target":"right","response":"left","rt":892,"correct":false,"confidence":3},{"trial_n":83,"n_dots":3.55,"target":"right","response":"right","rt":443,"correct":true,"confidence":5},{"trial_n":84,"n_dots":3.55,"target":"right","response":"right","rt":474,"correct":true,"confidence":5},{"trial_n":85,"n_dots":3.45,"target":"right","response":"right","rt":607,"correct":true,"confidence":5},{"trial_n":86,"n_dots":3.45,"target":"right","response":"right","rt":692,"correct":true,"confidence":4},{"trial_n":87,"n_dots":3.35,"target":"right","response":"right","rt":576,"correct":true,"confidence":4},{"trial_n":88,"n_dots":3.35,"target":"left","response":"left","rt":839,"correct":true,"confidence":1},{"trial_n":89,"n_dots":3.25,"target":"right","response":"right","rt":525,"correct":true,"confidence":3},{"trial_n":90,"n_dots":3.25,"target":"left","response":"left","rt":508.00000000006,"correct":true,"confidence":4},{"trial_n":91,"n_dots":3.15,"target":"right","response":"right","rt":492,"correct":true,"confidence":4},{"trial_n":92,"n_dots":3.15,"target":"left","response":"left","rt":607,"correct":true,"confidence":1},{"trial_n":93,"n_dots":3.05,"target":"left","response":"right","rt":242.00000000006,"correct":false,"confidence":4},{"trial_n":94,"n_dots":3.15,"target":"right","response":"right","rt":442,"correct":true,"confidence":5},{"trial_n":95,"n_dots":3.15,"target":"right","response":"right","rt":473,"correct":true,"confidence":5},{"trial_n":96,"n_dots":3.05,"target":"right","response":"right","rt":592.99999999994,"correct":true,"confidence":3},{"trial_n":97,"n_dots":3.05,"target":"right","response":"right","rt":508,"correct":true,"confidence":4},{"trial_n":98,"n_dots":2.95,"target":"left","response":"left","rt":557.99999999994,"correct":true,"confidence":4},{"trial_n":99,"n_dots":2.95,"target":"left","response":"right","rt":491.99999999994,"correct":false,"confidence":3},{"trial_n":100,"n_dots":3.05,"target":"right","response":"right","rt":657.99999999994,"correct":true,"confidence":5},{"trial_n":101,"n_dots":3.05,"target":"left","response":"right","rt":594,"correct":false,"confidence":4},{"trial_n":102,"n_dots":3.15,"target":"right","response":"right","rt":441,"correct":true,"confidence":3},{"trial_n":103,"n_dots":3.15,"target":"right","response":"right","rt":307.99999999994,"correct":true,"confidence":5},{"trial_n":104,"n_dots":3.05,"target":"right","response":"right","rt":525.99999999994,"correct":true,"confidence":5},{"trial_n":105,"n_dots":3.05,"target":"left","response":"right","rt":488.99999999994,"correct":false,"confidence":4},{"trial_n":106,"n_dots":3.15,"target":"left","response":"left","rt":609.99999999994,"correct":true,"confidence":5},{"trial_n":107,"n_dots":3.15,"target":"left","response":"right","rt":626,"correct":false,"confidence":3},{"trial_n":108,"n_dots":3.25,"target":"right","response":"right","rt":424,"correct":true,"confidence":3},{"trial_n":109,"n_dots":3.25,"target":"right","response":"right","rt":374,"correct":true,"confidence":4},{"trial_n":110,"n_dots":3.15,"target":"left","response":"right","rt":391.00000000006,"correct":false,"confidence":4},{"trial_n":111,"n_dots":3.25,"target":"right","response":"right","rt":742.00000000006,"correct":true,"confidence":5},{"trial_n":112,"n_dots":3.25,"target":"right","response":"right","rt":438,"correct":true,"confidence":5},{"trial_n":113,"n_dots":3.15,"target":"left","response":"left","rt":488,"correct":true,"confidence":3},{"trial_n":114,"n_dots":3.15,"target":"right","response":"left","rt":526,"correct":false,"confidence":2},{"trial_n":115,"n_dots":3.25,"target":"right","response":"right","rt":226,"correct":true,"confidence":4},{"trial_n":116,"n_dots":3.25,"target":"right","response":"right","rt":757,"correct":true,"confidence":4},{"trial_n":117,"n_dots":3.15,"target":"right","response":"right","rt":576,"correct":true,"confidence":3},{"trial_n":118,"n_dots":3.15,"target":"left","response":"right","rt":575,"correct":false,"confidence":4},{"trial_n":119,"n_dots":3.25,"target":"left","response":"left","rt":608.99999999994,"correct":true,"confidence":3},{"trial_n":120,"n_dots":3.25,"target":"left","response":"right","rt":940,"correct":false,"confidence":3}]