[{"trial_n":1,"min":25,"max":230,"target":"present","response":"present","rt":5350.3999999911,"correct":true,"confidence":-1},{"trial_n":2,"min":25,"max":230,"target":"present","response":"present","rt":2592.799999997,"correct":true,"confidence":-1},{"trial_n":3,"min":41,"max":214,"target":"absent","response":"present","rt":1333.299999997,"correct":false,"confidence":-1},{"trial_n":4,"min":25,"max":230,"target":"absent","response":"absent","rt":1498,"correct":true,"confidence":-1},{"trial_n":5,"min":25,"max":230,"target":"present","response":"absent","rt":1203.8999999911,"correct":false,"confidence":-1},{"trial_n":6,"min":9,"max":246,"target":"present","response":"present","rt":1521.799999997,"correct":true,"confidence":-1},{"trial_n":7,"min":9,"max":246,"target":"present","response":"present","rt":1135.200000003,"correct":true,"confidence":-1},{"trial_n":8,"min":25,"max":230,"target":"present","response":"present","rt":1254.8999999911,"correct":true,"confidence":-1},{"trial_n":9,"min":25,"max":230,"target":"absent","response":"absent","rt":1473.1999999881,"correct":true,"confidence":-1},{"trial_n":10,"min":41,"max":214,"target":"present","response":"present","rt":1552.5,"correct":true,"confidence":-1},{"trial_n":11,"min":41,"max":214,"target":"absent","response":"absent","rt":1279.099999994,"correct":true,"confidence":-1},{"trial_n":12,"min":49,"max":206,"target":"absent","response":"absent","rt":1150.6000000089,"correct":true,"confidence":-1},{"trial_n":13,"min":49,"max":206,"target":"present","response":"present","rt":1971.400000006,"correct":true,"confidence":-1},{"trial_n":14,"min":57,"max":198,"target":"absent","response":"absent","rt":1686.5,"correct":true,"confidence":-1},{"trial_n":15,"min":57,"max":198,"target":"absent","response":"absent","rt":1422.5,"correct":true,"confidence":-1},{"trial_n":16,"min":65,"max":190,"target":"present","response":"present","rt":1344,"correct":true,"confidence":-1},{"trial_n":17,"min":65,"max":190,"target":"absent","response":"absent","rt":1322,"correct":true,"confidence":-1},{"trial_n":18,"min":73,"max":182,"target":"absent","response":"absent","rt":1244.8000000119,"correct":true,"confidence":-1},{"trial_n":19,"min":73,"max":182,"target":"absent","response":"absent","rt":1218.200000003,"correct":true,"confidence":-1},{"trial_n":20,"min":81,"max":174,"target":"present","response":"absent","rt":1353.8000000119,"correct":false,"confidence":-1},{"trial_n":21,"min":77,"max":178,"target":"absent","response":"absent","rt":1271.599999994,"correct":true,"confidence":5},{"trial_n":22,"min":77,"max":178,"target":"absent","response":"absent","rt":2751.099999994,"correct":true,"confidence":5},{"trial_n":23,"min":81,"max":174,"target":"absent","response":"absent","rt":2193.1000000089,"correct":true,"confidence":5},{"trial_n":24,"min":81,"max":174,"target":"absent","response":"present","rt":1678.400000006,"correct":false,"confidence":3},{"trial_n":25,"min":77,"max":178,"target":"present","response":"present","rt":1463.200000003,"correct":true,"confidence":5},{"trial_n":26,"min":77,"max":178,"target":"absent","response":"absent","rt":2623.299999997,"correct":true,"confidence":4},{"trial_n":27,"min":81,"max":174,"target":"present","response":"absent","rt":1496.799999997,"correct":false,"confidence":3},{"trial_n":28,"min":77,"max":178,"target":"absent","response":"absent","rt":1075.099999994,"correct":true,"confidence":3},{"trial_n":29,"min":77,"max":178,"target":"present","response":"present","rt":1052.099999994,"correct":true,"confidence":4},{"trial_n":30,"min":81,"max":174,"target":"absent","response":"absent","rt":864.89999999106,"correct":true,"confidence":3},{"trial_n":31,"min":81,"max":174,"target":"absent","response":"absent","rt":961,"correct":true,"confidence":4},{"trial_n":32,"min":83,"max":172,"target":"absent","response":"absent","rt":626.29999999702,"correct":true,"confidence":4},{"trial_n":33,"min":83,"max":172,"target":"absent","response":"absent","rt":430.79999999702,"correct":true,"confidence":4},{"trial_n":34,"min":85,"max":170,"target":"present","response":"absent","rt":826.5,"correct":false,"confidence":4},{"trial_n":35,"min":83,"max":172,"target":"present","response":"absent","rt":569.20000000298,"correct":false,"confidence":4},{"trial_n":36,"min":81,"max":174,"target":"present","response":"present","rt":853.60000000894,"correct":true,"confidence":4},{"trial_n":37,"min":81,"max":174,"target":"absent","response":"absent","rt":874.20000000298,"correct":true,"confidence":4},{"trial_n":38,"min":83,"max":172,"target":"absent","response":"absent","rt":792.29999999702,"correct":true,"confidence":5},{"trial_n":39,"min":83,"max":172,"target":"present","response":"present","rt":1030.700000003,"correct":true,"confidence":4},{"trial_n":40,"min":85,"max":170,"target":"present","response":"absent","rt":818.39999999106,"correct":false,"confidence":5},{"trial_n":41,"min":84,"max":171,"target":"present","response":"absent","rt":687,"correct":false,"confidence":4},{"trial_n":42,"min":83,"max":172,"target":"present","response":"absent","rt":469.40000000596,"correct":false,"confidence":4},{"trial_n":43,"min":82,"max":173,"target":"absent","response":"absent","rt":682.5,"correct":true,"confidence":5},{"trial_n":44,"min":82,"max":173,"target":"absent","response":"absent","rt":493.90000000596,"correct":true,"confidence":5},{"trial_n":45,"min":83,"max":172,"target":"absent","response":"absent","rt":347.09999999404,"correct":true,"confidence":5},{"trial_n":46,"min":83,"max":172,"target":"absent","response":"absent","rt":428.90000000596,"correct":true,"confidence":5},{"trial_n":47,"min":84,"max":171,"target":"present","response":"absent","rt":734,"correct":false,"confidence":5},{"trial_n":48,"min":83,"max":172,"target":"present","response":"present","rt":932.09999999404,"correct":true,"confidence":4},{"trial_n":49,"min":83,"max":172,"target":"absent","response":"absent","rt":625.70000000298,"correct":true,"confidence":5},{"trial_n":50,"min":84,"max":171,"target":"present","response":"absent","rt":503,"correct":false,"confidence":5},{"trial_n":51,"min":83,"max":172,"target":"present","response":"present","rt":1022.700000003,"correct":true,"confidence":3},{"trial_n":52,"min":83,"max":172,"target":"present","response":"absent","rt":1110.299999997,"correct":false,"confidence":4},{"trial_n":53,"min":82,"max":173,"target":"absent","response":"absent","rt":371.20000000298,"correct":true,"confidence":4},{"trial_n":54,"min":82,"max":173,"target":"present","response":"present","rt":1141.799999997,"correct":true,"confidence":3},{"trial_n":55,"min":83,"max":172,"target":"absent","response":"absent","rt":772.5,"correct":true,"confidence":4},{"trial_n":56,"min":83,"max":172,"target":"present","response":"absent","rt":376.09999999404,"correct":false,"confidence":1},{"trial_n":57,"min":82,"max":173,"target":"present","response":"absent","rt":1428.099999994,"correct":false,"confidence":5},{"trial_n":58,"min":81,"max":174,"target":"absent","response":"absent","rt":531.90000000596,"correct":true,"confidence":5},{"trial_n":59,"min":81,"max":174,"target":"absent","response":"absent","rt":351,"correct":true,"confidence":5},{"trial_n":60,"min":82,"max":173,"target":"present","response":"absent","rt":269,"correct":false,"confidence":5},{"trial_n":61,"min":81,"max":174,"target":"present","response":"absent","rt":593.79999999702,"correct":false,"confidence":5},{"trial_n":62,"min":80,"max":175,"target":"present","response":"present","rt":1188.5,"correct":true,"confidence":3},{"trial_n":63,"min":80,"max":175,"target":"absent","response":"absent","rt":805.79999999702,"correct":true,"confidence":5},{"trial_n":64,"min":81,"max":174,"target":"absent","response":"absent","rt":337.60000000894,"correct":true,"confidence":5},{"trial_n":65,"min":81,"max":174,"target":"present","response":"absent","rt":310.89999999106,"correct":false,"confidence":5},{"trial_n":66,"min":80,"max":175,"target":"present","response":"absent","rt":362.60000000894,"correct":false,"confidence":5},{"trial_n":67,"min":79,"max":176,"target":"present","response":"present","rt":940.09999999404,"correct":true,"confidence":5},{"trial_n":68,"min":79,"max":176,"target":"present","response":"absent","rt":682.30000001192,"correct":false,"confidence":5},{"trial_n":69,"min":78,"max":177,"target":"present","response":"absent","rt":474.5,"correct":false,"confidence":5},{"trial_n":70,"min":77,"max":178,"target":"absent","response":"absent","rt":397.39999999106,"correct":true,"confidence":5},{"trial_n":71,"min":41,"max":214,"target":"present","response":"present","rt":4107.299999997,"correct":true,"confidence":-1},{"trial_n":72,"min":41,"max":214,"target":"present","response":"present","rt":802.69999998808,"correct":true,"confidence":-1},{"trial_n":73,"min":57,"max":198,"target":"absent","response":"absent","rt":449.09999999404,"correct":true,"confidence":-1},{"trial_n":74,"min":57,"max":198,"target":"absent","response":"absent","rt":556.20000000298,"correct":true,"confidence":-1},{"trial_n":75,"min":73,"max":182,"target":"present","response":"present","rt":427.29999999702,"correct":true,"confidence":-1},{"trial_n":76,"min":73,"max":182,"target":"absent","response":"absent","rt":1189.200000003,"correct":true,"confidence":-1},{"trial_n":77,"min":89,"max":166,"target":"absent","response":"absent","rt":643.20000000298,"correct":true,"confidence":-1},{"trial_n":78,"min":89,"max":166,"target":"present","response":"absent","rt":577.39999999106,"correct":false,"confidence":-1},{"trial_n":79,"min":73,"max":182,"target":"present","response":"present","rt":444.40000000596,"correct":true,"confidence":-1},{"trial_n":80,"min":73,"max":182,"target":"present","response":"present","rt":435.20000000298,"correct":true,"confidence":-1},{"trial_n":81,"min":81,"max":174,"target":"present","response":"present","rt":512.70000000298,"correct":true,"confidence":-1},{"trial_n":82,"min":81,"max":174,"target":"absent","response":"absent","rt":729.20000000298,"correct":true,"confidence":-1},{"trial_n":83,"min":89,"max":166,"target":"absent","response":"present","rt":1247.700000003,"correct":false,"confidence":-1},{"trial_n":84,"min":81,"max":174,"target":"present","response":"present","rt":401.90000000596,"correct":true,"confidence":-1},{"trial_n":85,"min":81,"max":174,"target":"present","response":"present","rt":435.5,"correct":true,"confidence":-1},{"trial_n":86,"min":89,"max":166,"target":"absent","response":"absent","rt":811.20000000298,"correct":true,"confidence":-1},{"trial_n":87,"min":89,"max":166,"target":"absent","response":"absent","rt":869.10000000894,"correct":true,"confidence":-1},{"trial_n":88,"min":97,"max":158,"target":"absent","response":"absent","rt":461.90000000596,"correct":true,"confidence":-1},{"trial_n":89,"min":97,"max":158,"target":"present","response":"absent","rt":409.70000000298,"correct":false,"confidence":-1},{"trial_n":90,"min":89,"max":166,"target":"absent","response":"absent","rt":487.79999999702,"correct":true,"confidence":-1},{"trial_n":91,"min":89,"max":166,"target":"absent","response":"absent","rt":680.59999999404,"correct":true,"confidence":3},{"trial_n":92,"min":93,"max":162,"target":"present","response":"present","rt":518.5,"correct":true,"confidence":4},{"trial_n":93,"min":93,"max":162,"target":"present","response":"present","rt":880.79999999702,"correct":true,"confidence":5},{"trial_n":94,"min":97,"max":158,"target":"present","response":"present","rt":869.39999999106,"correct":true,"confidence":5},{"trial_n":95,"min":97,"max":158,"target":"absent","response":"present","rt":1470.8999999911,"correct":false,"confidence":3},{"trial_n":96,"min":93,"max":162,"target":"present","response":"present","rt":559.69999998808,"correct":true,"confidence":5},{"trial_n":97,"min":93,"max":162,"target":"present","response":"present","rt":1209.299999997,"correct":true,"confidence":4},{"trial_n":98,"min":97,"max":158,"target":"absent","response":"present","rt":1068.5,"correct":false,"confidence":2},{"trial_n":99,"min":93,"max":162,"target":"present","response":"present","rt":2033.299999997,"correct":true,"confidence":2},{"trial_n":100,"min":93,"max":162,"target":"absent","response":"present","rt":1191,"correct":false,"confidence":2},{"trial_n":101,"min":91,"max":164,"target":"present","response":"present","rt":1333.599999994,"correct":true,"confidence":2},{"trial_n":102,"min":91,"max":164,"target":"absent","response":"present","rt":788.20000000298,"correct":false,"confidence":2},{"trial_n":103,"min":89,"max":166,"target":"present","response":"present","rt":686,"correct":true,"confidence":1},{"trial_n":104,"min":89,"max":166,"target":"present","response":"present","rt":609.20000000298,"correct":true,"confidence":1},{"trial_n":105,"min":91,"max":164,"target":"absent","response":"present","rt":648.80000001192,"correct":false,"confidence":1},{"trial_n":106,"min":89,"max":166,"target":"present","response":"present","rt":720,"correct":true,"confidence":1},{"trial_n":107,"min":89,"max":166,"target":"absent","response":"absent","rt":626.20000000298,"correct":true,"confidence":2},{"trial_n":108,"min":91,"max":164,"target":"absent","response":"absent","rt":768.09999999404,"correct":true,"confidence":1},{"trial_n":109,"min":91,"max":164,"target":"absent","response":"present","rt":1345.6999999881,"correct":false,"confidence":2},{"trial_n":110,"min":89,"max":166,"target":"absent","response":"absent","rt":1238.599999994,"correct":true,"confidence":3},{"trial_n":111,"min":89,"max":166,"target":"present","response":"absent","rt":870.59999999404,"correct":false,"confidence":2},{"trial_n":112,"min":88,"max":167,"target":"absent","response":"absent","rt":807.10000000894,"correct":true,"confidence":2},{"trial_n":113,"min":88,"max":167,"target":"present","response":"absent","rt":562.10000000894,"correct":false,"confidence":2},{"trial_n":114,"min":87,"max":168,"target":"present","response":"present","rt":623.70000000298,"correct":true,"confidence":2},{"trial_n":115,"min":87,"max":168,"target":"present","response":"present","rt":537.90000000596,"correct":true,"confidence":1},{"trial_n":116,"min":88,"max":167,"target":"absent","response":"present","rt":743.5,"correct":false,"confidence":1},{"trial_n":117,"min":87,"max":168,"target":"absent","response":"present","rt":816.30000001192,"correct":false,"confidence":1},{"trial_n":118,"min":86,"max":169,"target":"present","response":"present","rt":788,"correct":true,"confidence":1},{"trial_n":119,"min":86,"max":169,"target":"absent","response":"absent","rt":699.59999999404,"correct":true,"confidence":5},{"trial_n":120,"min":87,"max":168,"target":"absent","response":"absent","rt":2344.299999997,"correct":true,"confidence":1},{"trial_n":121,"min":87,"max":168,"target":"absent","response":"present","rt":1883.200000003,"correct":false,"confidence":5},{"trial_n":122,"min":86,"max":169,"target":"absent","response":"present","rt":827.5,"correct":false,"confidence":5},{"trial_n":123,"min":85,"max":170,"target":"present","response":"present","rt":514.90000000596,"correct":true,"confidence":5},{"trial_n":124,"min":85,"max":170,"target":"present","response":"present","rt":869.40000000596,"correct":true,"confidence":5},{"trial_n":125,"min":86,"max":169,"target":"present","response":"present","rt":1655,"correct":true,"confidence":2},{"trial_n":126,"min":86,"max":169,"target":"absent","response":"absent","rt":659.59999999404,"correct":true,"confidence":5},{"trial_n":127,"min":87,"max":168,"target":"absent","response":"absent","rt":508,"correct":true,"confidence":5},{"trial_n":128,"min":87,"max":168,"target":"absent","response":"absent","rt":818.39999999106,"correct":true,"confidence":5},{"trial_n":129,"min":88,"max":167,"target":"present","response":"present","rt":831.29999999702,"correct":true,"confidence":1},{"trial_n":130,"min":88,"max":167,"target":"present","response":"present","rt":894.90000000596,"correct":true,"confidence":3},{"trial_n":131,"min":89,"max":166,"target":"absent","response":"present","rt":840.80000001192,"correct":false,"confidence":1},{"trial_n":132,"min":88,"max":167,"target":"present","response":"present","rt":652.70000000298,"correct":true,"confidence":5},{"trial_n":133,"min":88,"max":167,"target":"absent","response":"absent","rt":1798.5,"correct":true,"confidence":5},{"trial_n":134,"min":89,"max":166,"target":"present","response":"absent","rt":933.70000000298,"correct":false,"confidence":1},{"trial_n":135,"min":88,"max":167,"target":"present","response":"absent","rt":250.29999999702,"correct":false,"confidence":2},{"trial_n":136,"min":87,"max":168,"target":"present","response":"present","rt":1149,"correct":true,"confidence":3},{"trial_n":137,"min":87,"max":168,"target":"absent","response":"absent","rt":639.60000000894,"correct":true,"confidence":5},{"trial_n":138,"min":88,"max":167,"target":"present","response":"absent","rt":727.60000000894,"correct":false,"confidence":2},{"trial_n":139,"min":87,"max":168,"target":"absent","response":"absent","rt":666,"correct":true,"confidence":2},{"trial_n":140,"min":87,"max":168,"target":"present","response":"absent","rt":1411.6999999881,"correct":false,"confidence":1}]