[{"trial_n":1,"n_dots":4.25,"target":"left","response":"left","rt":3140.3999999762,"correct":true,"confidence":-1},{"trial_n":2,"n_dots":4.25,"target":"right","response":"right","rt":712.19999998808,"correct":true,"confidence":-1},{"trial_n":3,"n_dots":3.85,"target":"left","response":"right","rt":924.80000001192,"correct":false,"confidence":-1},{"trial_n":4,"n_dots":4.25,"target":"right","response":"left","rt":486.39999997616,"correct":false,"confidence":-1},{"trial_n":5,"n_dots":4.65,"target":"right","response":"right","rt":481.60000002384,"correct":true,"confidence":-1},{"trial_n":6,"n_dots":4.65,"target":"left","response":"left","rt":466.59999996424,"correct":true,"confidence":-1},{"trial_n":7,"n_dots":4.25,"target":"right","response":"right","rt":425,"correct":true,"confidence":-1},{"trial_n":8,"n_dots":4.25,"target":"left","response":"left","rt":443,"correct":true,"confidence":-1},{"trial_n":9,"n_dots":4.05,"target":"right","response":"right","rt":373.70000004768,"correct":true,"confidence":-1},{"trial_n":10,"n_dots":4.05,"target":"right","response":"right","rt":386.70000004768,"correct":true,"confidence":-1},{"trial_n":11,"n_dots":3.85,"target":"right","response":"right","rt":421.40000003576,"correct":true,"confidence":-1},{"trial_n":12,"n_dots":3.85,"target":"left","response":"left","rt":417,"correct":true,"confidence":-1},{"trial_n":13,"n_dots":3.75,"target":"right","response":"left","rt":649.30000001192,"correct":false,"confidence":-1},{"trial_n":14,"n_dots":3.85,"target":"right","response":"right","rt":421.70000004768,"correct":true,"confidence":-1},{"trial_n":15,"n_dots":3.85,"target":"left","response":"left","rt":400.89999997616,"correct":true,"confidence":-1},{"trial_n":16,"n_dots":3.75,"target":"left","response":"right","rt":592.30000001192,"correct":false,"confidence":-1},{"trial_n":17,"n_dots":3.85,"target":"left","response":"left","rt":472.70000004768,"correct":true,"confidence":-1},{"trial_n":18,"n_dots":3.85,"target":"right","response":"right","rt":293.60000002384,"correct":true,"confidence":-1},{"trial_n":19,"n_dots":3.75,"target":"right","response":"left","rt":1027.3000000119,"correct":false,"confidence":-1},{"trial_n":20,"n_dots":3.85,"target":"right","response":"right","rt":385.20000004768,"correct":true,"confidence":-1},{"trial_n":21,"n_dots":3.85,"target":"left","response":"left","rt":850.80000001192,"correct":true,"confidence":2},{"trial_n":22,"n_dots":3.75,"target":"right","response":"right","rt":958.19999998808,"correct":true,"confidence":3},{"trial_n":23,"n_dots":3.75,"target":"right","response":"right","rt":1018.3999999762,"correct":true,"confidence":1},{"trial_n":24,"n_dots":3.65,"target":"right","response":"right","rt":638.89999997616,"correct":true,"confidence":2},{"trial_n":25,"n_dots":3.65,"target":"right","response":"right","rt":709.39999997616,"correct":true,"confidence":3},{"trial_n":26,"n_dots":3.55,"target":"left","response":"left","rt":968.19999998808,"correct":true,"confidence":2},{"trial_n":27,"n_dots":3.55,"target":"left","response":"left","rt":586.69999998808,"correct":true,"confidence":2},{"trial_n":28,"n_dots":3.45,"target":"right","response":"right","rt":574.89999997616,"correct":true,"confidence":2},{"trial_n":29,"n_dots":3.45,"target":"right","response":"left","rt":620.29999995232,"correct":false,"confidence":2},{"trial_n":30,"n_dots":3.55,"target":"left","response":"right","rt":995.5,"correct":false,"confidence":2},{"trial_n":31,"n_dots":3.65,"target":"right","response":"right","rt":628.90000003576,"correct":true,"confidence":3},{"trial_n":32,"n_dots":3.65,"target":"right","response":"right","rt":597.29999995232,"correct":true,"confidence":3},{"trial_n":33,"n_dots":3.55,"target":"left","response":"right","rt":510,"correct":false,"confidence":3},{"trial_n":34,"n_dots":3.65,"target":"right","response":"right","rt":574.89999997616,"correct":true,"confidence":3},{"trial_n":35,"n_dots":3.65,"target":"left","response":"left","rt":481.39999997616,"correct":true,"confidence":3},{"trial_n":36,"n_dots":3.55,"target":"left","response":"left","rt":576.80000001192,"correct":true,"confidence":3},{"trial_n":37,"n_dots":3.55,"target":"right","response":"right","rt":382.39999997616,"correct":true,"confidence":2},{"trial_n":38,"n_dots":3.45,"target":"left","response":"left","rt":504.90000003576,"correct":true,"confidence":2},{"trial_n":39,"n_dots":3.45,"target":"right","response":"right","rt":489.80000001192,"correct":true,"confidence":2},{"trial_n":40,"n_dots":3.35,"target":"right","response":"right","rt":694.69999998808,"correct":true,"confidence":3},{"trial_n":41,"n_dots":3.35,"target":"left","response":"left","rt":1066.6999999881,"correct":true,"confidence":3},{"trial_n":42,"n_dots":3.25,"target":"left","response":"left","rt":729,"correct":true,"confidence":2},{"trial_n":43,"n_dots":3.25,"target":"left","response":"left","rt":617.39999997616,"correct":true,"confidence":2},{"trial_n":44,"n_dots":3.15,"target":"left","response":"right","rt":560.30000001192,"correct":false,"confidence":2},{"trial_n":45,"n_dots":3.25,"target":"right","response":"right","rt":516.69999998808,"correct":true,"confidence":3},{"trial_n":46,"n_dots":3.25,"target":"left","response":"left","rt":694.39999997616,"correct":true,"confidence":2},{"trial_n":47,"n_dots":3.15,"target":"left","response":"left","rt":647.39999997616,"correct":true,"confidence":3},{"trial_n":48,"n_dots":3.15,"target":"right","response":"right","rt":1275.5,"correct":true,"confidence":2},{"trial_n":49,"n_dots":3.05,"target":"right","response":"right","rt":856.5,"correct":true,"confidence":2},{"trial_n":50,"n_dots":3.05,"target":"right","response":"right","rt":1043.5999999642,"correct":true,"confidence":3},{"trial_n":51,"n_dots":2.95,"target":"right","response":"right","rt":991.80000001192,"correct":true,"confidence":2},{"trial_n":52,"n_dots":2.95,"target":"left","response":"left","rt":858.39999997616,"correct":true,"confidence":2},{"trial_n":53,"n_dots":2.85,"target":"right","response":"right","rt":777.5,"correct":true,"confidence":3},{"trial_n":54,"n_dots":2.85,"target":"right","response":"right","rt":457.10000002384,"correct":true,"confidence":3},{"trial_n":55,"n_dots":2.75,"target":"right","response":"left","rt":726.69999998808,"correct":false,"confidence":1},{"trial_n":56,"n_dots":2.85,"target":"right","response":"right","rt":541.30000001192,"correct":true,"confidence":3},{"trial_n":57,"n_dots":2.85,"target":"left","response":"left","rt":632.30000001192,"correct":true,"confidence":2},{"trial_n":58,"n_dots":2.75,"target":"right","response":"left","rt":1230.3999999762,"correct":false,"confidence":1},{"trial_n":59,"n_dots":2.85,"target":"left","response":"left","rt":612.10000002384,"correct":true,"confidence":2},{"trial_n":60,"n_dots":2.85,"target":"right","response":"right","rt":416.90000003576,"correct":true,"confidence":2},{"trial_n":61,"n_dots":2.75,"target":"left","response":"left","rt":3433.5,"correct":true,"confidence":2},{"trial_n":62,"n_dots":2.75,"target":"right","response":"left","rt":464.80000001192,"correct":false,"confidence":2},{"trial_n":63,"n_dots":2.85,"target":"right","response":"right","rt":633.19999998808,"correct":true,"confidence":2},{"trial_n":64,"n_dots":2.85,"target":"left","response":"left","rt":318.29999995232,"correct":true,"confidence":2},{"trial_n":65,"n_dots":2.75,"target":"left","response":"left","rt":224.30000001192,"correct":true,"confidence":2},{"trial_n":66,"n_dots":2.75,"target":"left","response":"right","rt":570.40000003576,"correct":false,"confidence":3},{"trial_n":67,"n_dots":2.85,"target":"left","response":"left","rt":512.90000003576,"correct":true,"confidence":2},{"trial_n":68,"n_dots":2.85,"target":"left","response":"right","rt":38,"correct":false,"confidence":3},{"trial_n":69,"n_dots":2.95,"target":"left","response":"left","rt":621.80000001192,"correct":true,"confidence":2},{"trial_n":70,"n_dots":2.95,"target":"left","response":"left","rt":1043.5999999642,"correct":true,"confidence":2},{"trial_n":71,"n_dots":2.85,"target":"left","response":"right","rt":365.69999998808,"correct":false,"confidence":2},{"trial_n":72,"n_dots":2.95,"target":"left","response":"right","rt":503.5,"correct":false,"confidence":2},{"trial_n":73,"n_dots":3.05,"target":"right","response":"right","rt":369.10000002384,"correct":true,"confidence":3},{"trial_n":74,"n_dots":3.05,"target":"left","response":"left","rt":320.20000004768,"correct":true,"confidence":3},{"trial_n":75,"n_dots":2.95,"target":"right","response":"right","rt":49.699999988079,"correct":true,"confidence":3},{"trial_n":76,"n_dots":2.95,"target":"right","response":"right","rt":390.69999998808,"correct":true,"confidence":3},{"trial_n":77,"n_dots":2.85,"target":"right","response":"right","rt":353.89999997616,"correct":true,"confidence":4},{"trial_n":78,"n_dots":2.85,"target":"left","response":"left","rt":612.69999998808,"correct":true,"confidence":3},{"trial_n":79,"n_dots":2.75,"target":"left","response":"right","rt":776.89999997616,"correct":false,"confidence":2},{"trial_n":80,"n_dots":2.85,"target":"left","response":"left","rt":409.5,"correct":true,"confidence":2},{"trial_n":81,"n_dots":2.85,"target":"right","response":"right","rt":319.39999997616,"correct":true,"confidence":3},{"trial_n":82,"n_dots":2.75,"target":"right","response":"right","rt":329.30000001192,"correct":true,"confidence":3},{"trial_n":83,"n_dots":2.75,"target":"left","response":"left","rt":539.89999997616,"correct":true,"confidence":2},{"trial_n":84,"n_dots":2.65,"target":"left","response":"left","rt":349.19999998808,"correct":true,"confidence":3},{"trial_n":85,"n_dots":2.65,"target":"right","response":"right","rt":344.09999996424,"correct":true,"confidence":2},{"trial_n":86,"n_dots":2.55,"target":"left","response":"left","rt":336.30000001192,"correct":true,"confidence":2},{"trial_n":87,"n_dots":2.55,"target":"left","response":"left","rt":267,"correct":true,"confidence":2},{"trial_n":88,"n_dots":2.45,"target":"left","response":"left","rt":445.10000002384,"correct":true,"confidence":2},{"trial_n":89,"n_dots":2.45,"target":"right","response":"right","rt":479.80000001192,"correct":true,"confidence":3},{"trial_n":90,"n_dots":2.35,"target":"left","response":"left","rt":404.10000002384,"correct":true,"confidence":2},{"trial_n":91,"n_dots":2.35,"target":"right","response":"right","rt":324.40000003576,"correct":true,"confidence":2},{"trial_n":92,"n_dots":2.25,"target":"left","response":"right","rt":185.89999997616,"correct":false,"confidence":3},{"trial_n":93,"n_dots":2.35,"target":"left","response":"right","rt":511.60000002384,"correct":false,"confidence":3},{"trial_n":94,"n_dots":2.45,"target":"right","response":"right","rt":373.90000003576,"correct":true,"confidence":3},{"trial_n":95,"n_dots":2.45,"target":"left","response":"left","rt":304.69999998808,"correct":true,"confidence":2},{"trial_n":96,"n_dots":2.35,"target":"right","response":"left","rt":383.89999997616,"correct":false,"confidence":2},{"trial_n":97,"n_dots":2.45,"target":"left","response":"left","rt":432.19999998808,"correct":true,"confidence":2},{"trial_n":98,"n_dots":2.45,"target":"left","response":"right","rt":320.79999995232,"correct":false,"confidence":2},{"trial_n":99,"n_dots":2.55,"target":"left","response":"left","rt":168,"correct":true,"confidence":2},{"trial_n":100,"n_dots":2.55,"target":"right","response":"right","rt":689.80000001192,"correct":true,"confidence":3},{"trial_n":101,"n_dots":2.45,"target":"left","response":"left","rt":783.40000003576,"correct":true,"confidence":2},{"trial_n":102,"n_dots":2.45,"target":"left","response":"left","rt":519.30000001192,"correct":true,"confidence":2},{"trial_n":103,"n_dots":2.35,"target":"right","response":"right","rt":174.59999996424,"correct":true,"confidence":3},{"trial_n":104,"n_dots":2.35,"target":"right","response":"right","rt":741.30000001192,"correct":true,"confidence":2},{"trial_n":105,"n_dots":2.25,"target":"left","response":"right","rt":570.19999998808,"correct":false,"confidence":2},{"trial_n":106,"n_dots":2.35,"target":"left","response":"left","rt":424.60000002384,"correct":true,"confidence":2},{"trial_n":107,"n_dots":2.35,"target":"left","response":"right","rt":317.89999997616,"correct":false,"confidence":3},{"trial_n":108,"n_dots":2.45,"target":"left","response":"left","rt":101.39999997616,"correct":true,"confidence":3},{"trial_n":109,"n_dots":2.45,"target":"right","response":"right","rt":87.700000047684,"correct":true,"confidence":3},{"trial_n":110,"n_dots":2.35,"target":"right","response":"left","rt":10.699999988079,"correct":false,"confidence":2},{"trial_n":111,"n_dots":2.45,"target":"right","response":"right","rt":605.30000001192,"correct":true,"confidence":2},{"trial_n":112,"n_dots":2.45,"target":"right","response":"right","rt":30.400000035763,"correct":true,"confidence":2},{"trial_n":113,"n_dots":2.35,"target":"right","response":"right","rt":43.699999988079,"correct":true,"confidence":3},{"trial_n":114,"n_dots":2.35,"target":"right","response":"right","rt":14,"correct":true,"confidence":3},{"trial_n":115,"n_dots":2.25,"target":"left","response":"right","rt":814.80000001192,"correct":false,"confidence":3},{"trial_n":116,"n_dots":2.35,"target":"right","response":"right","rt":192.30000001192,"correct":true,"confidence":2},{"trial_n":117,"n_dots":2.35,"target":"left","response":"right","rt":684.19999998808,"correct":false,"confidence":2},{"trial_n":118,"n_dots":2.45,"target":"right","response":"left","rt":448.39999997616,"correct":false,"confidence":3},{"trial_n":119,"n_dots":2.55,"target":"left","response":"left","rt":98.800000011921,"correct":true,"confidence":3},{"trial_n":120,"n_dots":2.55,"target":"right","response":"right","rt":448.80000001192,"correct":true,"confidence":3}]