[{"trial_n":1,"min":25,"max":230,"target":"present","response":"absent","rt":5418,"correct":false,"confidence":-1},{"trial_n":2,"min":25,"max":230,"target":"present","response":"present","rt":710,"correct":true,"confidence":-1},{"trial_n":3,"min":25,"max":230,"target":"absent","response":"present","rt":609.00000000047,"correct":false,"confidence":-1},{"trial_n":4,"min":9,"max":246,"target":"absent","response":"present","rt":2427.9999999995,"correct":false,"confidence":-1},{"trial_n":5,"min":0,"max":255,"target":"present","response":"present","rt":2766,"correct":true,"confidence":-1},{"trial_n":6,"min":0,"max":255,"target":"absent","response":"absent","rt":647,"correct":true,"confidence":-1},{"trial_n":7,"min":16,"max":239,"target":"absent","response":"absent","rt":543,"correct":true,"confidence":-1},{"trial_n":8,"min":16,"max":239,"target":"present","response":"present","rt":519.00000000047,"correct":true,"confidence":-1},{"trial_n":9,"min":32,"max":223,"target":"present","response":"present","rt":548,"correct":true,"confidence":-1},{"trial_n":10,"min":32,"max":223,"target":"present","response":"present","rt":603,"correct":true,"confidence":-1},{"trial_n":11,"min":40,"max":215,"target":"absent","response":"absent","rt":562,"correct":true,"confidence":-1},{"trial_n":12,"min":40,"max":215,"target":"present","response":"present","rt":635,"correct":true,"confidence":-1},{"trial_n":13,"min":48,"max":207,"target":"absent","response":"absent","rt":594,"correct":true,"confidence":-1},{"trial_n":14,"min":48,"max":207,"target":"absent","response":"absent","rt":477,"correct":true,"confidence":-1},{"trial_n":15,"min":56,"max":199,"target":"absent","response":"absent","rt":461,"correct":true,"confidence":-1},{"trial_n":16,"min":56,"max":199,"target":"absent","response":"absent","rt":529,"correct":true,"confidence":-1},{"trial_n":17,"min":64,"max":191,"target":"present","response":"present","rt":470.00000000047,"correct":true,"confidence":-1},{"trial_n":18,"min":64,"max":191,"target":"absent","response":"absent","rt":578,"correct":true,"confidence":-1},{"trial_n":19,"min":72,"max":183,"target":"present","response":"present","rt":500,"correct":true,"confidence":-1},{"trial_n":20,"min":72,"max":183,"target":"absent","response":"absent","rt":578.99999999953,"correct":true,"confidence":-1},{"trial_n":21,"min":76,"max":179,"target":"absent","response":"absent","rt":580,"correct":true,"confidence":5},{"trial_n":22,"min":76,"max":179,"target":"present","response":"present","rt":713.99999999953,"correct":true,"confidence":5},{"trial_n":23,"min":80,"max":175,"target":"absent","response":"absent","rt":497,"correct":true,"confidence":5},{"trial_n":24,"min":80,"max":175,"target":"absent","response":"absent","rt":1413,"correct":true,"confidence":5},{"trial_n":25,"min":84,"max":171,"target":"absent","response":"present","rt":896,"correct":false,"confidence":3},{"trial_n":26,"min":80,"max":175,"target":"present","response":"absent","rt":881,"correct":false,"confidence":3},{"trial_n":27,"min":76,"max":179,"target":"absent","response":"absent","rt":814,"correct":true,"confidence":4},{"trial_n":28,"min":76,"max":179,"target":"present","response":"absent","rt":882,"correct":false,"confidence":3},{"trial_n":29,"min":72,"max":183,"target":"absent","response":"absent","rt":612,"correct":true,"confidence":5},{"trial_n":30,"min":72,"max":183,"target":"present","response":"absent","rt":682.00000000047,"correct":false,"confidence":3},{"trial_n":31,"min":70,"max":185,"target":"absent","response":"absent","rt":665,"correct":true,"confidence":4},{"trial_n":32,"min":70,"max":185,"target":"absent","response":"absent","rt":514,"correct":true,"confidence":5},{"trial_n":33,"min":72,"max":183,"target":"present","response":"present","rt":636,"correct":true,"confidence":3},{"trial_n":34,"min":72,"max":183,"target":"present","response":"absent","rt":720,"correct":false,"confidence":3},{"trial_n":35,"min":70,"max":185,"target":"present","response":"present","rt":654,"correct":true,"confidence":1},{"trial_n":36,"min":70,"max":185,"target":"absent","response":"absent","rt":1197,"correct":true,"confidence":1},{"trial_n":37,"min":72,"max":183,"target":"absent","response":"absent","rt":780.00000000047,"correct":true,"confidence":4},{"trial_n":38,"min":72,"max":183,"target":"present","response":"present","rt":570,"correct":true,"confidence":3},{"trial_n":39,"min":74,"max":181,"target":"absent","response":"absent","rt":613.00000000047,"correct":true,"confidence":3},{"trial_n":40,"min":74,"max":181,"target":"present","response":"absent","rt":1118,"correct":false,"confidence":3},{"trial_n":41,"min":73,"max":182,"target":"present","response":"absent","rt":623,"correct":false,"confidence":3},{"trial_n":42,"min":72,"max":183,"target":"present","response":"present","rt":704,"correct":true,"confidence":5},{"trial_n":43,"min":72,"max":183,"target":"present","response":"present","rt":537,"correct":true,"confidence":5},{"trial_n":44,"min":73,"max":182,"target":"present","response":"present","rt":469,"correct":true,"confidence":5},{"trial_n":45,"min":73,"max":182,"target":"present","response":"present","rt":553,"correct":true,"confidence":5},{"trial_n":46,"min":74,"max":181,"target":"absent","response":"absent","rt":429,"correct":true,"confidence":5},{"trial_n":47,"min":74,"max":181,"target":"absent","response":"absent","rt":680,"correct":true,"confidence":4},{"trial_n":48,"min":75,"max":180,"target":"absent","response":"absent","rt":580,"correct":true,"confidence":4},{"trial_n":49,"min":75,"max":180,"target":"present","response":"absent","rt":1283,"correct":false,"confidence":2},{"trial_n":50,"min":74,"max":181,"target":"absent","response":"absent","rt":563,"correct":true,"confidence":5},{"trial_n":51,"min":74,"max":181,"target":"absent","response":"absent","rt":514,"correct":true,"confidence":5},{"trial_n":52,"min":75,"max":180,"target":"present","response":"present","rt":632,"correct":true,"confidence":4},{"trial_n":53,"min":75,"max":180,"target":"absent","response":"absent","rt":481,"correct":true,"confidence":5},{"trial_n":54,"min":76,"max":179,"target":"absent","response":"absent","rt":480,"correct":true,"confidence":5},{"trial_n":55,"min":76,"max":179,"target":"absent","response":"absent","rt":1314,"correct":true,"confidence":5},{"trial_n":56,"min":77,"max":178,"target":"present","response":"present","rt":454,"correct":true,"confidence":4},{"trial_n":57,"min":77,"max":178,"target":"present","response":"present","rt":553.00000000047,"correct":true,"confidence":4},{"trial_n":58,"min":78,"max":177,"target":"present","response":"present","rt":602,"correct":true,"confidence":5},{"trial_n":59,"min":78,"max":177,"target":"present","response":"present","rt":452,"correct":true,"confidence":5},{"trial_n":60,"min":79,"max":176,"target":"absent","response":"absent","rt":477.99999999953,"correct":true,"confidence":5},{"trial_n":61,"min":79,"max":176,"target":"present","response":"present","rt":668,"correct":true,"confidence":3},{"trial_n":62,"min":80,"max":175,"target":"present","response":"absent","rt":499.00000000047,"correct":false,"confidence":5},{"trial_n":63,"min":79,"max":176,"target":"absent","response":"absent","rt":411,"correct":true,"confidence":5},{"trial_n":64,"min":79,"max":176,"target":"present","response":"present","rt":737,"correct":true,"confidence":3},{"trial_n":65,"min":80,"max":175,"target":"present","response":"absent","rt":603.99999999953,"correct":false,"confidence":4},{"trial_n":66,"min":79,"max":176,"target":"present","response":"absent","rt":553.99999999953,"correct":false,"confidence":4},{"trial_n":67,"min":78,"max":177,"target":"present","response":"absent","rt":853,"correct":false,"confidence":3},{"trial_n":68,"min":77,"max":178,"target":"absent","response":"present","rt":564,"correct":false,"confidence":2},{"trial_n":69,"min":76,"max":179,"target":"present","response":"absent","rt":452.00000000047,"correct":false,"confidence":5},{"trial_n":70,"min":75,"max":180,"target":"absent","response":"absent","rt":396,"correct":true,"confidence":4},{"trial_n":71,"min":41,"max":214,"target":"present","response":"present","rt":895,"correct":true,"confidence":-1},{"trial_n":72,"min":41,"max":214,"target":"present","response":"present","rt":364,"correct":true,"confidence":-1},{"trial_n":73,"min":57,"max":198,"target":"absent","response":"absent","rt":484,"correct":true,"confidence":-1},{"trial_n":74,"min":57,"max":198,"target":"absent","response":"present","rt":614,"correct":false,"confidence":-1},{"trial_n":75,"min":41,"max":214,"target":"present","response":"absent","rt":679.99999999953,"correct":false,"confidence":-1},{"trial_n":76,"min":25,"max":230,"target":"present","response":"present","rt":833.00000000047,"correct":true,"confidence":-1},{"trial_n":77,"min":25,"max":230,"target":"absent","response":"present","rt":1297,"correct":false,"confidence":-1},{"trial_n":78,"min":9,"max":246,"target":"present","response":"absent","rt":1467,"correct":false,"confidence":-1},{"trial_n":79,"min":0,"max":255,"target":"present","response":"present","rt":749,"correct":true,"confidence":-1},{"trial_n":80,"min":0,"max":255,"target":"present","response":"present","rt":1897,"correct":true,"confidence":-1},{"trial_n":81,"min":8,"max":247,"target":"present","response":"present","rt":460,"correct":true,"confidence":-1},{"trial_n":82,"min":8,"max":247,"target":"absent","response":"absent","rt":661,"correct":true,"confidence":-1},{"trial_n":83,"min":16,"max":239,"target":"present","response":"present","rt":515,"correct":true,"confidence":-1},{"trial_n":84,"min":16,"max":239,"target":"present","response":"present","rt":514,"correct":true,"confidence":-1},{"trial_n":85,"min":24,"max":231,"target":"present","response":"present","rt":599,"correct":true,"confidence":-1},{"trial_n":86,"min":24,"max":231,"target":"present","response":"present","rt":582.99999999953,"correct":true,"confidence":-1},{"trial_n":87,"min":32,"max":223,"target":"present","response":"present","rt":466,"correct":true,"confidence":-1},{"trial_n":88,"min":32,"max":223,"target":"absent","response":"absent","rt":365,"correct":true,"confidence":-1},{"trial_n":89,"min":40,"max":215,"target":"present","response":"present","rt":531,"correct":true,"confidence":-1},{"trial_n":90,"min":40,"max":215,"target":"present","response":"present","rt":430,"correct":true,"confidence":-1},{"trial_n":91,"min":44,"max":211,"target":"absent","response":"absent","rt":462,"correct":true,"confidence":4},{"trial_n":92,"min":44,"max":211,"target":"absent","response":"absent","rt":529,"correct":true,"confidence":5},{"trial_n":93,"min":48,"max":207,"target":"absent","response":"absent","rt":667,"correct":true,"confidence":5},{"trial_n":94,"min":48,"max":207,"target":"absent","response":"absent","rt":584,"correct":true,"confidence":5},{"trial_n":95,"min":52,"max":203,"target":"absent","response":"absent","rt":516,"correct":true,"confidence":5},{"trial_n":96,"min":52,"max":203,"target":"present","response":"present","rt":434.99999999953,"correct":true,"confidence":5},{"trial_n":97,"min":56,"max":199,"target":"absent","response":"absent","rt":432,"correct":true,"confidence":5},{"trial_n":98,"min":56,"max":199,"target":"absent","response":"present","rt":817,"correct":false,"confidence":3},{"trial_n":99,"min":52,"max":203,"target":"absent","response":"absent","rt":466,"correct":true,"confidence":5},{"trial_n":100,"min":52,"max":203,"target":"absent","response":"absent","rt":461,"correct":true,"confidence":5},{"trial_n":101,"min":54,"max":201,"target":"absent","response":"absent","rt":715,"correct":true,"confidence":5},{"trial_n":102,"min":54,"max":201,"target":"absent","response":"absent","rt":583,"correct":true,"confidence":4},{"trial_n":103,"min":56,"max":199,"target":"absent","response":"absent","rt":518,"correct":true,"confidence":5},{"trial_n":104,"min":56,"max":199,"target":"absent","response":"absent","rt":519,"correct":true,"confidence":5},{"trial_n":105,"min":58,"max":197,"target":"present","response":"present","rt":416,"correct":true,"confidence":5},{"trial_n":106,"min":58,"max":197,"target":"absent","response":"present","rt":648,"correct":false,"confidence":5},{"trial_n":107,"min":56,"max":199,"target":"present","response":"present","rt":484,"correct":true,"confidence":4},{"trial_n":108,"min":56,"max":199,"target":"present","response":"present","rt":1652.0000000005,"correct":true,"confidence":4},{"trial_n":109,"min":58,"max":197,"target":"present","response":"present","rt":652,"correct":true,"confidence":5},{"trial_n":110,"min":58,"max":197,"target":"present","response":"present","rt":435.99999999953,"correct":true,"confidence":5},{"trial_n":111,"min":59,"max":196,"target":"present","response":"present","rt":433,"correct":true,"confidence":5},{"trial_n":112,"min":59,"max":196,"target":"present","response":"absent","rt":750,"correct":false,"confidence":2},{"trial_n":113,"min":58,"max":197,"target":"absent","response":"absent","rt":683,"correct":true,"confidence":5},{"trial_n":114,"min":58,"max":197,"target":"present","response":"present","rt":432,"correct":true,"confidence":1},{"trial_n":115,"min":59,"max":196,"target":"absent","response":"absent","rt":651,"correct":true,"confidence":4},{"trial_n":116,"min":59,"max":196,"target":"absent","response":"absent","rt":669,"correct":true,"confidence":5},{"trial_n":117,"min":60,"max":195,"target":"absent","response":"absent","rt":551,"correct":true,"confidence":5},{"trial_n":118,"min":60,"max":195,"target":"present","response":"present","rt":417,"correct":true,"confidence":5},{"trial_n":119,"min":61,"max":194,"target":"present","response":"present","rt":379,"correct":true,"confidence":5},{"trial_n":120,"min":61,"max":194,"target":"present","response":"present","rt":429,"correct":true,"confidence":5},{"trial_n":121,"min":62,"max":193,"target":"absent","response":"absent","rt":505,"correct":true,"confidence":5},{"trial_n":122,"min":62,"max":193,"target":"present","response":"present","rt":684,"correct":true,"confidence":5},{"trial_n":123,"min":63,"max":192,"target":"present","response":"present","rt":649,"correct":true,"confidence":4},{"trial_n":124,"min":63,"max":192,"target":"absent","response":"absent","rt":468,"correct":true,"confidence":4},{"trial_n":125,"min":64,"max":191,"target":"absent","response":"present","rt":618,"correct":false,"confidence":2},{"trial_n":126,"min":63,"max":192,"target":"absent","response":"absent","rt":499.00000000047,"correct":true,"confidence":5},{"trial_n":127,"min":63,"max":192,"target":"absent","response":"absent","rt":549,"correct":true,"confidence":5},{"trial_n":128,"min":64,"max":191,"target":"present","response":"present","rt":551,"correct":true,"confidence":5},{"trial_n":129,"min":64,"max":191,"target":"absent","response":"absent","rt":748.99999999953,"correct":true,"confidence":5},{"trial_n":130,"min":65,"max":190,"target":"present","response":"present","rt":399,"correct":true,"confidence":5},{"trial_n":131,"min":65,"max":190,"target":"absent","response":"absent","rt":553,"correct":true,"confidence":4},{"trial_n":132,"min":66,"max":189,"target":"present","response":"present","rt":634,"correct":true,"confidence":4},{"trial_n":133,"min":66,"max":189,"target":"present","response":"present","rt":534,"correct":true,"confidence":4},{"trial_n":134,"min":67,"max":188,"target":"absent","response":"present","rt":569,"correct":false,"confidence":1},{"trial_n":135,"min":66,"max":189,"target":"absent","response":"absent","rt":668,"correct":true,"confidence":5},{"trial_n":136,"min":66,"max":189,"target":"absent","response":"absent","rt":936,"correct":true,"confidence":5},{"trial_n":137,"min":67,"max":188,"target":"present","response":"present","rt":2051,"correct":true,"confidence":1},{"trial_n":138,"min":67,"max":188,"target":"present","response":"present","rt":765,"correct":true,"confidence":4},{"trial_n":139,"min":68,"max":187,"target":"absent","response":"absent","rt":646.99999999953,"correct":true,"confidence":5},{"trial_n":140,"min":68,"max":187,"target":"present","response":"present","rt":462,"correct":true,"confidence":5}]