[{"trial_n":1,"span":8,"encoder":"52904247","distractor":"52902247","target":"present","response":"present","rt":"3527.8999999762","correct":true,"confidence":-1},{"trial_n":2,"span":8,"encoder":"38543505","distractor":"31543505","target":"present","response":"present","rt":"2629.8000000119","correct":true,"confidence":-1},{"trial_n":3,"span":10,"encoder":"3886325757","distractor":"3886325157","target":"absent","response":"present","rt":"3017.1000000238","correct":false,"confidence":-1},{"trial_n":4,"span":8,"encoder":"41070930","distractor":"41070934","target":"absent","response":"absent","rt":"1608.1999999881","correct":true,"confidence":-1},{"trial_n":5,"span":8,"encoder":"87199942","distractor":"87139942","target":"present","response":"present","rt":"2828.3000000119","correct":true,"confidence":-1},{"trial_n":6,"span":10,"encoder":"5870369994","distractor":"5870069994","target":"absent","response":"absent","rt":"3288.3000000119","correct":true,"confidence":-1},{"trial_n":7,"span":10,"encoder":"9226269682","distractor":"9226279682","target":"absent","response":"present","rt":"3132.6999999881","correct":false,"confidence":-1},{"trial_n":8,"span":8,"encoder":"72866789","distractor":"72866781","target":"present","response":"present","rt":"2362.1000000238","correct":true,"confidence":-1},{"trial_n":9,"span":8,"encoder":"70117084","distractor":"76117084","target":"present","response":"absent","rt":"2110.5","correct":false,"confidence":-1},{"trial_n":10,"span":6,"encoder":"949275","distractor":"049275","target":"present","response":"present","rt":"1842.3000000119","correct":true,"confidence":-1},{"trial_n":11,"span":6,"encoder":"862207","distractor":"872207","target":"present","response":"present","rt":"1723","correct":true,"confidence":-1},{"trial_n":12,"span":7,"encoder":"2842756","distractor":"2842556","target":"absent","response":"absent","rt":"2154","correct":true,"confidence":-1},{"trial_n":13,"span":7,"encoder":"9360176","distractor":"9300176","target":"present","response":"present","rt":"2735.9000000358","correct":true,"confidence":-1},{"trial_n":14,"span":8,"encoder":"77727198","distractor":"77724198","target":"absent","response":"absent","rt":"4787.6000000238","correct":true,"confidence":-1},{"trial_n":15,"span":8,"encoder":"65076028","distractor":"60076028","target":"present","response":"present","rt":"2002.1999999881","correct":true,"confidence":-1},{"trial_n":16,"span":9,"encoder":"323497166","distractor":"923497166","target":"present","response":"present","rt":"2966.6999999881","correct":true,"confidence":-1},{"trial_n":17,"span":9,"encoder":"437393476","distractor":"417393476","target":"present","response":"present","rt":"1990.5","correct":true,"confidence":-1},{"trial_n":18,"span":10,"encoder":"6782882114","distractor":"6782884114","target":"absent","response":"absent","rt":"4193.1000000238","correct":true,"confidence":-1},{"trial_n":19,"span":10,"encoder":"3640431684","distractor":"3640431683","target":"present","response":"present","rt":"2644.1000000238","correct":true,"confidence":-1},{"trial_n":20,"span":11,"encoder":"58923783444","distractor":"58923783454","target":"absent","response":"absent","rt":"1630.3000000119","correct":true,"confidence":-1},{"trial_n":21,"span":11,"encoder":"53877709874","distractor":"53877709872","target":"absent","response":"absent","rt":"1409.5999999642","correct":true,"confidence":4},{"trial_n":22,"span":12,"encoder":"864707425391","distractor":"864707425691","target":"absent","response":"present","rt":"2034.6000000238","correct":false,"confidence":2},{"trial_n":23,"span":11,"encoder":"66911021831","distractor":"66911061831","target":"present","response":"present","rt":"2357","correct":true,"confidence":3},{"trial_n":24,"span":11,"encoder":"32362690764","distractor":"42362690764","target":"present","response":"present","rt":"4945.1000000238","correct":true,"confidence":2},{"trial_n":25,"span":12,"encoder":"304735936917","distractor":"394735936917","target":"absent","response":"present","rt":"3611.1999999881","correct":false,"confidence":3},{"trial_n":26,"span":11,"encoder":"84559214134","distractor":"84559210134","target":"absent","response":"present","rt":"3089.7999999523","correct":false,"confidence":2},{"trial_n":27,"span":10,"encoder":"2398475982","distractor":"3398475982","target":"present","response":"present","rt":"4505.8999999762","correct":true,"confidence":2},{"trial_n":28,"span":10,"encoder":"3120201676","distractor":"3120501676","target":"absent","response":"present","rt":"2431.1000000238","correct":false,"confidence":2},{"trial_n":29,"span":9,"encoder":"983121278","distractor":"983121978","target":"absent","response":"present","rt":"2821.3999999762","correct":false,"confidence":1},{"trial_n":30,"span":8,"encoder":"07462198","distractor":"97462198","target":"absent","response":"present","rt":"4825.3000000119","correct":false,"confidence":1},{"trial_n":31,"span":7,"encoder":"7443955","distractor":"1443955","target":"absent","response":"absent","rt":"3273.1999999881","correct":true,"confidence":4},{"trial_n":32,"span":7,"encoder":"7033221","distractor":"7031221","target":"present","response":"present","rt":"2034.5","correct":true,"confidence":4},{"trial_n":33,"span":8,"encoder":"96654903","distractor":"96634903","target":"absent","response":"absent","rt":"3133.0999999642","correct":true,"confidence":3},{"trial_n":34,"span":8,"encoder":"45794774","distractor":"45704774","target":"present","response":"absent","rt":"6198.3000000119","correct":false,"confidence":2},{"trial_n":35,"span":7,"encoder":"0053876","distractor":"0153876","target":"present","response":"present","rt":"4906.5999999642","correct":true,"confidence":2},{"trial_n":36,"span":7,"encoder":"6814959","distractor":"7814959","target":"present","response":"present","rt":"2669","correct":true,"confidence":2},{"trial_n":37,"span":8,"encoder":"36737305","distractor":"36737105","target":"absent","response":"absent","rt":"2431","correct":true,"confidence":3},{"trial_n":38,"span":8,"encoder":"56201116","distractor":"06201116","target":"absent","response":"absent","rt":"2533.8999999762","correct":true,"confidence":4},{"trial_n":39,"span":9,"encoder":"574935195","distractor":"474935195","target":"present","response":"present","rt":"2572","correct":true,"confidence":2},{"trial_n":40,"span":9,"encoder":"239331585","distractor":"239331580","target":"present","response":"present","rt":"2563.5999999642","correct":true,"confidence":2},{"trial_n":41,"span":10,"encoder":"3933705250","distractor":"8933705250","target":"present","response":"present","rt":"3214.4000000358","correct":true,"confidence":4},{"trial_n":42,"span":10,"encoder":"7848252772","distractor":"7348252772","target":"present","response":"present","rt":"3046.0999999642","correct":true,"confidence":2},{"trial_n":43,"span":11,"encoder":"23456584875","distractor":"23456584874","target":"present","response":"present","rt":"3370","correct":true,"confidence":3},{"trial_n":44,"span":11,"encoder":"03096747808","distractor":"03096447808","target":"absent","response":"present","rt":"3102.6999999881","correct":false,"confidence":2},{"trial_n":45,"span":10,"encoder":"4566455679","distractor":"4566455179","target":"present","response":"present","rt":"3136.1999999881","correct":true,"confidence":4},{"trial_n":46,"span":10,"encoder":"7139475968","distractor":"7139475969","target":"absent","response":"absent","rt":"2087.6999999881","correct":true,"confidence":3},{"trial_n":47,"span":11,"encoder":"99065790547","distractor":"99065792547","target":"present","response":"present","rt":"2017.1999999881","correct":true,"confidence":1},{"trial_n":48,"span":11,"encoder":"10453855304","distractor":"13453855304","target":"present","response":"present","rt":"3337.3000000119","correct":true,"confidence":2},{"trial_n":49,"span":12,"encoder":"119459869508","distractor":"119459869908","target":"present","response":"present","rt":"2350.6999999881","correct":true,"confidence":2},{"trial_n":50,"span":12,"encoder":"262036689831","distractor":"262096689831","target":"absent","response":"absent","rt":"4578.8999999762","correct":true,"confidence":3},{"trial_n":51,"span":13,"encoder":"5792429735108","distractor":"5492429735108","target":"absent","response":"present","rt":"4708.8000000119","correct":false,"confidence":2},{"trial_n":52,"span":12,"encoder":"745196069626","distractor":"745196069636","target":"absent","response":"absent","rt":"3152.4000000358","correct":true,"confidence":3},{"trial_n":53,"span":12,"encoder":"208948831042","distractor":"208948831342","target":"absent","response":"absent","rt":"4267.2999999523","correct":true,"confidence":4},{"trial_n":54,"span":13,"encoder":"8589970371099","distractor":"8589970471099","target":"present","response":"absent","rt":"4281.3999999762","correct":false,"confidence":3},{"trial_n":55,"span":12,"encoder":"665634244878","distractor":"665634344878","target":"absent","response":"absent","rt":"6647.9000000358","correct":true,"confidence":2},{"trial_n":56,"span":12,"encoder":"428953236462","distractor":"428957236462","target":"present","response":"present","rt":"3538.3000000119","correct":true,"confidence":2},{"trial_n":57,"span":13,"encoder":"9084927630032","distractor":"0084927630032","target":"present","response":"present","rt":"3320.5","correct":true,"confidence":3},{"trial_n":58,"span":13,"encoder":"6921364112487","distractor":"6921364118487","target":"absent","response":"present","rt":"5700.3000000119","correct":false,"confidence":2},{"trial_n":59,"span":12,"encoder":"249305320948","distractor":"649305320948","target":"present","response":"present","rt":"2700.8999999762","correct":true,"confidence":3},{"trial_n":60,"span":12,"encoder":"099221703871","distractor":"099221703811","target":"absent","response":"absent","rt":"6294.1999999881","correct":true,"confidence":2},{"trial_n":61,"span":13,"encoder":"4798896666196","distractor":"4798896266196","target":"absent","response":"absent","rt":"4756.4000000358","correct":true,"confidence":4},{"trial_n":62,"span":13,"encoder":"6938056167825","distractor":"6938056167828","target":"absent","response":"absent","rt":"1443.5","correct":true,"confidence":5},{"trial_n":63,"span":14,"encoder":"73395101398016","distractor":"73395101397016","target":"present","response":"present","rt":"5731.3000000119","correct":true,"confidence":1},{"trial_n":64,"span":14,"encoder":"74412372886646","distractor":"74412352886646","target":"absent","response":"present","rt":"2996.5999999642","correct":false,"confidence":3},{"trial_n":65,"span":13,"encoder":"5664195094600","distractor":"5864195094600","target":"absent","response":"absent","rt":"4015.6999999881","correct":true,"confidence":4},{"trial_n":66,"span":13,"encoder":"2274919025311","distractor":"2224919025311","target":"present","response":"present","rt":"3139.5","correct":true,"confidence":3},{"trial_n":67,"span":14,"encoder":"45931120992444","distractor":"05931120992444","target":"absent","response":"absent","rt":"5595.2999999523","correct":true,"confidence":2},{"trial_n":68,"span":14,"encoder":"34313502032266","distractor":"34313501032266","target":"absent","response":"present","rt":"4737.4000000358","correct":false,"confidence":2},{"trial_n":69,"span":13,"encoder":"2196192074137","distractor":"2196192014137","target":"present","response":"present","rt":"2551.1000000238","correct":true,"confidence":3},{"trial_n":70,"span":13,"encoder":"6420429753691","distractor":"6420429653691","target":"present","response":"present","rt":"2933.1000000238","correct":true,"confidence":3},{"trial_n":71,"span":8,"encoder":"17107915","distractor":"16107915","target":"present","response":"present","rt":"7912","correct":true,"confidence":-1},{"trial_n":72,"span":8,"encoder":"61216563","distractor":"61216503","target":"present","response":"present","rt":"2610.8000000119","correct":true,"confidence":-1},{"trial_n":73,"span":9,"encoder":"097484095","distractor":"097384095","target":"absent","response":"absent","rt":"4140.8000000119","correct":true,"confidence":-1},{"trial_n":74,"span":9,"encoder":"728123226","distractor":"718123226","target":"absent","response":"absent","rt":"4435.1000000238","correct":true,"confidence":-1},{"trial_n":75,"span":10,"encoder":"6349096823","distractor":"6349096893","target":"present","response":"present","rt":"1959.6000000238","correct":true,"confidence":-1},{"trial_n":76,"span":10,"encoder":"4726590966","distractor":"4726500966","target":"present","response":"present","rt":"5510.1000000238","correct":true,"confidence":-1},{"trial_n":77,"span":11,"encoder":"86272483356","distractor":"86272783356","target":"absent","response":"absent","rt":"4630.1999999881","correct":true,"confidence":-1},{"trial_n":78,"span":11,"encoder":"95839738283","distractor":"95836738283","target":"absent","response":"present","rt":"3806.8999999762","correct":false,"confidence":-1},{"trial_n":79,"span":10,"encoder":"3946013000","distractor":"7946013000","target":"absent","response":"absent","rt":"5392.1000000238","correct":true,"confidence":-1},{"trial_n":80,"span":10,"encoder":"8783685256","distractor":"8783682256","target":"absent","response":"absent","rt":"2020.5","correct":true,"confidence":-1},{"trial_n":81,"span":11,"encoder":"78956885990","distractor":"78956885970","target":"absent","response":"absent","rt":"5360.8000000119","correct":true,"confidence":-1},{"trial_n":82,"span":11,"encoder":"18489425656","distractor":"78489425656","target":"present","response":"present","rt":"10178.399999976","correct":true,"confidence":-1},{"trial_n":83,"span":12,"encoder":"051819378178","distractor":"051819378278","target":"present","response":"present","rt":"8264","correct":true,"confidence":-1},{"trial_n":84,"span":12,"encoder":"917900766485","distractor":"917900776485","target":"present","response":"present","rt":"5462","correct":true,"confidence":-1},{"trial_n":85,"span":13,"encoder":"6301536210554","distractor":"6301536210559","target":"present","response":"present","rt":"3517.4000000358","correct":true,"confidence":-1},{"trial_n":86,"span":13,"encoder":"7517472560232","distractor":"6517472560232","target":"present","response":"present","rt":"7500.2000000477","correct":true,"confidence":-1},{"trial_n":87,"span":14,"encoder":"46346903408273","distractor":"46326903408273","target":"absent","response":"present","rt":"6958.8000000119","correct":false,"confidence":-1},{"trial_n":88,"span":13,"encoder":"7087846089474","distractor":"7087846089424","target":"present","response":"present","rt":"2932.1999999881","correct":true,"confidence":-1},{"trial_n":89,"span":13,"encoder":"2189849979348","distractor":"2181849979348","target":"absent","response":"absent","rt":"4389.0999999642","correct":true,"confidence":-1},{"trial_n":90,"span":14,"encoder":"69224839691117","distractor":"69224839691317","target":"absent","response":"absent","rt":"3160.8000000119","correct":true,"confidence":-1},{"trial_n":91,"span":14,"encoder":"06286478916193","distractor":"06286478916113","target":"absent","response":"absent","rt":"5082.0999999642","correct":true,"confidence":5},{"trial_n":92,"span":15,"encoder":"902725453939155","distractor":"900725453939155","target":"absent","response":"absent","rt":"5597.8000000119","correct":true,"confidence":4},{"trial_n":93,"span":15,"encoder":"624691764330928","distractor":"624691764330948","target":"absent","response":"absent","rt":"5279","correct":true,"confidence":3},{"trial_n":94,"span":16,"encoder":"1067862384798556","distractor":"1067862382798556","target":"absent","response":"present","rt":"8910.9000000358","correct":false,"confidence":1},{"trial_n":95,"span":15,"encoder":"018312006562617","distractor":"018312006562618","target":"present","response":"present","rt":"6480.9000000358","correct":true,"confidence":4},{"trial_n":96,"span":15,"encoder":"122291385898706","distractor":"122291305898706","target":"absent","response":"present","rt":"16536.100000024","correct":false,"confidence":1},{"trial_n":97,"span":14,"encoder":"21110037176314","distractor":"21110037176374","target":"present","response":"present","rt":"4647.7999999523","correct":true,"confidence":4},{"trial_n":98,"span":14,"encoder":"31349866400794","distractor":"31340866400794","target":"absent","response":"absent","rt":"6756.8999999762","correct":true,"confidence":1},{"trial_n":99,"span":15,"encoder":"006098023356102","distractor":"006098023376102","target":"present","response":"present","rt":"6038.9000000358","correct":true,"confidence":4},{"trial_n":100,"span":15,"encoder":"695601417696031","distractor":"635601417696031","target":"present","response":"present","rt":"8399","correct":true,"confidence":2},{"trial_n":101,"span":16,"encoder":"2073463064491028","distractor":"2173463064491028","target":"absent","response":"present","rt":"9298","correct":false,"confidence":3},{"trial_n":102,"span":15,"encoder":"033512570571570","distractor":"033512570571510","target":"present","response":"present","rt":"3697","correct":true,"confidence":3},{"trial_n":103,"span":15,"encoder":"736073643123078","distractor":"736073643123028","target":"present","response":"present","rt":"4338.3000000119","correct":true,"confidence":4},{"trial_n":104,"span":16,"encoder":"6258641183063085","distractor":"6258041183063085","target":"absent","response":"absent","rt":"9452.8000000119","correct":true,"confidence":1},{"trial_n":105,"span":16,"encoder":"5605708038630554","distractor":"5605708031630554","target":"absent","response":"absent","rt":"8476.8999999762","correct":true,"confidence":2},{"trial_n":106,"span":17,"encoder":"55414636461309571","distractor":"55414636461307571","target":"present","response":"present","rt":"8787.3000000119","correct":true,"confidence":1},{"trial_n":107,"span":17,"encoder":"01437055542640070","distractor":"01437055542640030","target":"present","response":"present","rt":"4627.1000000238","correct":true,"confidence":3},{"trial_n":108,"span":18,"encoder":"168466160575461749","distractor":"148466160575461749","target":"absent","response":"present","rt":"8190.6000000238","correct":false,"confidence":2},{"trial_n":109,"span":17,"encoder":"73787347374615930","distractor":"73787347274615930","target":"present","response":"absent","rt":"9461.8000000119","correct":false,"confidence":2},{"trial_n":110,"span":16,"encoder":"2414107301734730","distractor":"2404107301734730","target":"present","response":"absent","rt":"6667.4000000358","correct":false,"confidence":1},{"trial_n":111,"span":15,"encoder":"889074274023764","distractor":"819074274023764","target":"present","response":"present","rt":"4201.1999999881","correct":true,"confidence":5},{"trial_n":112,"span":15,"encoder":"802773838706092","distractor":"802770838706092","target":"present","response":"absent","rt":"7890.6999999881","correct":false,"confidence":2},{"trial_n":113,"span":14,"encoder":"83682516890427","distractor":"83682514890427","target":"present","response":"present","rt":"6082","correct":true,"confidence":2},{"trial_n":114,"span":14,"encoder":"51236331789594","distractor":"51236331786594","target":"present","response":"present","rt":"8030.6000000238","correct":true,"confidence":1},{"trial_n":115,"span":15,"encoder":"283863186780441","distractor":"283863186781441","target":"present","response":"present","rt":"4123.3000000119","correct":true,"confidence":5},{"trial_n":116,"span":15,"encoder":"277756593092289","distractor":"277756593098289","target":"present","response":"present","rt":"4815.6999999881","correct":true,"confidence":4},{"trial_n":117,"span":16,"encoder":"1687733344142306","distractor":"1687733344142356","target":"absent","response":"absent","rt":"4254.5","correct":true,"confidence":5},{"trial_n":118,"span":16,"encoder":"4159606951263931","distractor":"4159656951263931","target":"present","response":"absent","rt":"7656.6999999881","correct":false,"confidence":1},{"trial_n":119,"span":15,"encoder":"482920425114642","distractor":"482926425114642","target":"present","response":"absent","rt":"6927","correct":false,"confidence":1},{"trial_n":120,"span":14,"encoder":"13322659997957","distractor":"13322609997957","target":"absent","response":"present","rt":"7507.1999999881","correct":false,"confidence":2},{"trial_n":121,"span":13,"encoder":"7627978456414","distractor":"7627478456414","target":"present","response":"present","rt":"8463.5","correct":true,"confidence":2},{"trial_n":122,"span":13,"encoder":"3004653218624","distractor":"3004653218614","target":"present","response":"present","rt":"6305.6999999881","correct":true,"confidence":5},{"trial_n":123,"span":14,"encoder":"62051629748149","distractor":"62051669748149","target":"absent","response":"present","rt":"6132.8000000119","correct":false,"confidence":2},{"trial_n":124,"span":13,"encoder":"4727297312163","distractor":"4727297312103","target":"absent","response":"absent","rt":"3229.6999999881","correct":true,"confidence":4},{"trial_n":125,"span":13,"encoder":"2484840420848","distractor":"2484840020848","target":"present","response":"present","rt":"5561.2000000477","correct":true,"confidence":2},{"trial_n":126,"span":14,"encoder":"32870579939711","distractor":"42870579939711","target":"absent","response":"absent","rt":"11748.599999964","correct":true,"confidence":4},{"trial_n":127,"span":14,"encoder":"78481766659801","distractor":"78481766639801","target":"present","response":"present","rt":"6094","correct":true,"confidence":1},{"trial_n":128,"span":15,"encoder":"444728893886544","distractor":"444708893886544","target":"present","response":"present","rt":"9780.5","correct":true,"confidence":1},{"trial_n":129,"span":15,"encoder":"332916192992906","distractor":"332916122992906","target":"absent","response":"absent","rt":"4856.6000000238","correct":true,"confidence":1},{"trial_n":130,"span":16,"encoder":"1428594966104830","distractor":"1428594966104839","target":"absent","response":"absent","rt":"2768.3999999762","correct":true,"confidence":4},{"trial_n":131,"span":16,"encoder":"5060945930027153","distractor":"1060945930027153","target":"present","response":"present","rt":"7789.5","correct":true,"confidence":2},{"trial_n":132,"span":17,"encoder":"54098204848001073","distractor":"64098204848001073","target":"present","response":"present","rt":"6789.7000000477","correct":true,"confidence":3},{"trial_n":133,"span":17,"encoder":"75603658409928353","distractor":"75603658409927353","target":"absent","response":"present","rt":"10716.300000012","correct":false,"confidence":2},{"trial_n":134,"span":16,"encoder":"9727686432297244","distractor":"9727686432397244","target":"absent","response":"present","rt":"6849.1000000238","correct":false,"confidence":2},{"trial_n":135,"span":15,"encoder":"555654715040292","distractor":"555654715840292","target":"absent","response":"absent","rt":"8590.9000000358","correct":true,"confidence":1},{"trial_n":136,"span":15,"encoder":"082305032207177","distractor":"062305032207177","target":"present","response":"present","rt":"6080.6000000238","correct":true,"confidence":2},{"trial_n":137,"span":16,"encoder":"0552357406847047","distractor":"0552657406847047","target":"absent","response":"present","rt":"5810.2000000477","correct":false,"confidence":1},{"trial_n":138,"span":15,"encoder":"014038609883738","distractor":"014038609883038","target":"absent","response":"absent","rt":"9354.5","correct":true,"confidence":1},{"trial_n":139,"span":15,"encoder":"591266287113954","distractor":"591266287113934","target":"absent","response":"absent","rt":"2271","correct":true,"confidence":5},{"trial_n":140,"span":16,"encoder":"8653885095739305","distractor":"5653885095739305","target":"absent","response":"present","rt":"5653.3999999762","correct":false,"confidence":2}]