[{"trial_n":1,"n_dots":4.25,"target":"right","response":"right","rt":1476.599999994,"correct":true,"confidence":-1},{"trial_n":2,"n_dots":4.25,"target":"left","response":"left","rt":408.19999998808,"correct":true,"confidence":-1},{"trial_n":3,"n_dots":3.85,"target":"left","response":"left","rt":350,"correct":true,"confidence":-1},{"trial_n":4,"n_dots":3.85,"target":"left","response":"left","rt":303.40000000596,"correct":true,"confidence":-1},{"trial_n":5,"n_dots":3.45,"target":"right","response":"right","rt":856.09999999404,"correct":true,"confidence":-1},{"trial_n":6,"n_dots":3.45,"target":"right","response":"right","rt":576.59999999404,"correct":true,"confidence":-1},{"trial_n":7,"n_dots":3.05,"target":"right","response":"left","rt":263.80000001192,"correct":false,"confidence":-1},{"trial_n":8,"n_dots":3.25,"target":"left","response":"right","rt":436.40000000596,"correct":false,"confidence":-1},{"trial_n":9,"n_dots":3.45,"target":"left","response":"left","rt":494.90000000596,"correct":true,"confidence":-1},{"trial_n":10,"n_dots":3.45,"target":"left","response":"left","rt":427.79999998212,"correct":true,"confidence":-1},{"trial_n":11,"n_dots":3.25,"target":"right","response":"right","rt":513.69999998808,"correct":true,"confidence":-1},{"trial_n":12,"n_dots":3.25,"target":"right","response":"left","rt":480.29999998212,"correct":false,"confidence":-1},{"trial_n":13,"n_dots":3.35,"target":"right","response":"right","rt":248.69999998808,"correct":true,"confidence":-1},{"trial_n":14,"n_dots":3.35,"target":"left","response":"left","rt":819.80000001192,"correct":true,"confidence":-1},{"trial_n":15,"n_dots":3.25,"target":"left","response":"right","rt":387.19999998808,"correct":false,"confidence":-1},{"trial_n":16,"n_dots":3.35,"target":"right","response":"left","rt":1137.1999999881,"correct":false,"confidence":-1},{"trial_n":17,"n_dots":3.45,"target":"left","response":"left","rt":571,"correct":true,"confidence":-1},{"trial_n":18,"n_dots":3.45,"target":"left","response":"left","rt":400.79999998212,"correct":true,"confidence":-1},{"trial_n":19,"n_dots":3.35,"target":"right","response":"right","rt":410.30000001192,"correct":true,"confidence":-1},{"trial_n":20,"n_dots":3.35,"target":"right","response":"left","rt":916.59999999404,"correct":false,"confidence":-1},{"trial_n":21,"n_dots":3.45,"target":"left","response":"left","rt":79,"correct":true,"confidence":3},{"trial_n":22,"n_dots":3.45,"target":"right","response":"left","rt":708.60000002384,"correct":false,"confidence":4},{"trial_n":23,"n_dots":3.55,"target":"left","response":"left","rt":390.69999998808,"correct":true,"confidence":5},{"trial_n":24,"n_dots":3.55,"target":"left","response":"left","rt":731.69999998808,"correct":true,"confidence":4},{"trial_n":25,"n_dots":3.45,"target":"right","response":"left","rt":1663.6999999881,"correct":false,"confidence":2},{"trial_n":26,"n_dots":3.55,"target":"left","response":"left","rt":333.10000002384,"correct":true,"confidence":4},{"trial_n":27,"n_dots":3.55,"target":"left","response":"left","rt":402.09999999404,"correct":true,"confidence":3},{"trial_n":28,"n_dots":3.45,"target":"right","response":"left","rt":376.5,"correct":false,"confidence":3},{"trial_n":29,"n_dots":3.55,"target":"left","response":"left","rt":650.90000000596,"correct":true,"confidence":2},{"trial_n":30,"n_dots":3.55,"target":"right","response":"right","rt":371.40000000596,"correct":true,"confidence":4},{"trial_n":31,"n_dots":3.45,"target":"left","response":"left","rt":829.69999998808,"correct":true,"confidence":3},{"trial_n":32,"n_dots":3.45,"target":"left","response":"left","rt":366.60000002384,"correct":true,"confidence":4},{"trial_n":33,"n_dots":3.35,"target":"right","response":"right","rt":713.5,"correct":true,"confidence":1},{"trial_n":34,"n_dots":3.35,"target":"left","response":"left","rt":1384.5,"correct":true,"confidence":2},{"trial_n":35,"n_dots":3.25,"target":"right","response":"left","rt":516.09999999404,"correct":false,"confidence":4},{"trial_n":36,"n_dots":3.35,"target":"right","response":"right","rt":554,"correct":true,"confidence":3},{"trial_n":37,"n_dots":3.35,"target":"left","response":"left","rt":294.69999998808,"correct":true,"confidence":4},{"trial_n":38,"n_dots":3.25,"target":"left","response":"left","rt":763.40000000596,"correct":true,"confidence":4},{"trial_n":39,"n_dots":3.25,"target":"right","response":"left","rt":493,"correct":false,"confidence":2},{"trial_n":40,"n_dots":3.35,"target":"left","response":"left","rt":351.5,"correct":true,"confidence":4},{"trial_n":41,"n_dots":3.35,"target":"right","response":"left","rt":393.5,"correct":false,"confidence":2},{"trial_n":42,"n_dots":3.45,"target":"left","response":"left","rt":226.79999998212,"correct":true,"confidence":2},{"trial_n":43,"n_dots":3.45,"target":"right","response":"right","rt":16258.400000006,"correct":true,"confidence":1},{"trial_n":44,"n_dots":3.35,"target":"right","response":"left","rt":446.30000001192,"correct":false,"confidence":2},{"trial_n":45,"n_dots":3.45,"target":"left","response":"left","rt":152.20000001788,"correct":true,"confidence":3},{"trial_n":46,"n_dots":3.45,"target":"left","response":"left","rt":342.29999998212,"correct":true,"confidence":2},{"trial_n":47,"n_dots":3.35,"target":"left","response":"left","rt":305.60000002384,"correct":true,"confidence":4},{"trial_n":48,"n_dots":3.35,"target":"left","response":"left","rt":1245.8000000119,"correct":true,"confidence":3},{"trial_n":49,"n_dots":3.25,"target":"left","response":"left","rt":369.80000001192,"correct":true,"confidence":2},{"trial_n":50,"n_dots":3.25,"target":"right","response":"left","rt":740.70000001788,"correct":false,"confidence":4},{"trial_n":51,"n_dots":3.35,"target":"left","response":"left","rt":353.90000000596,"correct":true,"confidence":3},{"trial_n":52,"n_dots":3.35,"target":"right","response":"right","rt":318.5,"correct":true,"confidence":3},{"trial_n":53,"n_dots":3.25,"target":"right","response":"left","rt":384,"correct":false,"confidence":2},{"trial_n":54,"n_dots":3.35,"target":"right","response":"left","rt":373.5,"correct":false,"confidence":3},{"trial_n":55,"n_dots":3.45,"target":"right","response":"right","rt":366.29999998212,"correct":true,"confidence":2},{"trial_n":56,"n_dots":3.45,"target":"left","response":"left","rt":346.40000000596,"correct":true,"confidence":2},{"trial_n":57,"n_dots":3.35,"target":"right","response":"right","rt":374.09999999404,"correct":true,"confidence":2},{"trial_n":58,"n_dots":3.35,"target":"right","response":"left","rt":270.39999997616,"correct":false,"confidence":2},{"trial_n":59,"n_dots":3.45,"target":"right","response":"right","rt":279.59999999404,"correct":true,"confidence":2},{"trial_n":60,"n_dots":3.45,"target":"right","response":"right","rt":2125.900000006,"correct":true,"confidence":2},{"trial_n":61,"n_dots":3.35,"target":"left","response":"left","rt":796.20000001788,"correct":true,"confidence":4},{"trial_n":62,"n_dots":3.35,"target":"right","response":"right","rt":527.70000001788,"correct":true,"confidence":3},{"trial_n":63,"n_dots":3.25,"target":"left","response":"left","rt":1325.2000000179,"correct":true,"confidence":2},{"trial_n":64,"n_dots":3.25,"target":"right","response":"right","rt":174.5,"correct":true,"confidence":3},{"trial_n":65,"n_dots":3.15,"target":"right","response":"left","rt":217.90000000596,"correct":false,"confidence":2},{"trial_n":66,"n_dots":3.25,"target":"left","response":"left","rt":361.19999998808,"correct":true,"confidence":2},{"trial_n":67,"n_dots":3.25,"target":"right","response":"right","rt":291.19999998808,"correct":true,"confidence":3},{"trial_n":68,"n_dots":3.15,"target":"left","response":"left","rt":385.29999998212,"correct":true,"confidence":2},{"trial_n":69,"n_dots":3.15,"target":"left","response":"left","rt":393.40000000596,"correct":true,"confidence":2},{"trial_n":70,"n_dots":3.05,"target":"right","response":"left","rt":382.79999998212,"correct":false,"confidence":3},{"trial_n":71,"n_dots":3.15,"target":"left","response":"left","rt":382.59999999404,"correct":true,"confidence":4},{"trial_n":72,"n_dots":3.15,"target":"left","response":"left","rt":353,"correct":true,"confidence":3},{"trial_n":73,"n_dots":3.05,"target":"right","response":"left","rt":452.10000002384,"correct":false,"confidence":2},{"trial_n":74,"n_dots":3.15,"target":"left","response":"left","rt":333.70000001788,"correct":true,"confidence":3},{"trial_n":75,"n_dots":3.15,"target":"left","response":"left","rt":373.5,"correct":true,"confidence":3},{"trial_n":76,"n_dots":3.05,"target":"left","response":"left","rt":168.70000001788,"correct":true,"confidence":2},{"trial_n":77,"n_dots":3.05,"target":"left","response":"left","rt":455.89999997616,"correct":true,"confidence":3},{"trial_n":78,"n_dots":2.95,"target":"left","response":"left","rt":369.80000001192,"correct":true,"confidence":2},{"trial_n":79,"n_dots":2.95,"target":"right","response":"right","rt":468.19999998808,"correct":true,"confidence":3},{"trial_n":80,"n_dots":2.85,"target":"left","response":"left","rt":492.30000001192,"correct":true,"confidence":1},{"trial_n":81,"n_dots":2.85,"target":"right","response":"left","rt":1049.2000000179,"correct":false,"confidence":3},{"trial_n":82,"n_dots":2.95,"target":"right","response":"left","rt":324,"correct":false,"confidence":3},{"trial_n":83,"n_dots":3.05,"target":"right","response":"right","rt":369.19999998808,"correct":true,"confidence":2},{"trial_n":84,"n_dots":3.05,"target":"right","response":"left","rt":374.59999999404,"correct":false,"confidence":2},{"trial_n":85,"n_dots":3.15,"target":"right","response":"right","rt":500.79999998212,"correct":true,"confidence":2},{"trial_n":86,"n_dots":3.15,"target":"left","response":"left","rt":495.30000001192,"correct":true,"confidence":4},{"trial_n":87,"n_dots":3.05,"target":"left","response":"left","rt":467.5,"correct":true,"confidence":3},{"trial_n":88,"n_dots":3.05,"target":"right","response":"left","rt":1038.400000006,"correct":false,"confidence":3},{"trial_n":89,"n_dots":3.15,"target":"right","response":"left","rt":391.90000000596,"correct":false,"confidence":2},{"trial_n":90,"n_dots":3.25,"target":"right","response":"right","rt":80.40000000596,"correct":true,"confidence":4},{"trial_n":91,"n_dots":3.25,"target":"right","response":"left","rt":413.19999998808,"correct":false,"confidence":2},{"trial_n":92,"n_dots":3.35,"target":"right","response":"right","rt":191,"correct":true,"confidence":4},{"trial_n":93,"n_dots":3.35,"target":"right","response":"left","rt":556.40000000596,"correct":false,"confidence":3},{"trial_n":94,"n_dots":3.45,"target":"left","response":"left","rt":257.29999998212,"correct":true,"confidence":4},{"trial_n":95,"n_dots":3.45,"target":"left","response":"left","rt":463.30000001192,"correct":true,"confidence":4},{"trial_n":96,"n_dots":3.35,"target":"left","response":"left","rt":513.59999999404,"correct":true,"confidence":3},{"trial_n":97,"n_dots":3.35,"target":"left","response":"left","rt":367.39999997616,"correct":true,"confidence":3},{"trial_n":98,"n_dots":3.25,"target":"left","response":"left","rt":422.90000000596,"correct":true,"confidence":2},{"trial_n":99,"n_dots":3.25,"target":"left","response":"left","rt":354.30000001192,"correct":true,"confidence":3},{"trial_n":100,"n_dots":3.15,"target":"right","response":"left","rt":510.59999999404,"correct":false,"confidence":4},{"trial_n":101,"n_dots":3.25,"target":"left","response":"left","rt":332,"correct":true,"confidence":3},{"trial_n":102,"n_dots":3.25,"target":"right","response":"left","rt":382.60000002384,"correct":false,"confidence":4},{"trial_n":103,"n_dots":3.35,"target":"left","response":"left","rt":292.69999998808,"correct":true,"confidence":3},{"trial_n":104,"n_dots":3.35,"target":"left","response":"left","rt":536.40000000596,"correct":true,"confidence":4},{"trial_n":105,"n_dots":3.25,"target":"right","response":"right","rt":907.09999999404,"correct":true,"confidence":4},{"trial_n":106,"n_dots":3.25,"target":"right","response":"left","rt":568.69999998808,"correct":false,"confidence":3},{"trial_n":107,"n_dots":3.35,"target":"left","response":"left","rt":3105.6999999881,"correct":true,"confidence":2},{"trial_n":108,"n_dots":3.35,"target":"left","response":"left","rt":63.799999982119,"correct":true,"confidence":3},{"trial_n":109,"n_dots":3.25,"target":"left","response":"left","rt":612.30000001192,"correct":true,"confidence":3},{"trial_n":110,"n_dots":3.25,"target":"right","response":"right","rt":500.09999999404,"correct":true,"confidence":3},{"trial_n":111,"n_dots":3.15,"target":"right","response":"left","rt":123,"correct":false,"confidence":2},{"trial_n":112,"n_dots":3.25,"target":"right","response":"right","rt":890.30000001192,"correct":true,"confidence":3},{"trial_n":113,"n_dots":3.25,"target":"right","response":"left","rt":516.80000001192,"correct":false,"confidence":3},{"trial_n":114,"n_dots":3.35,"target":"right","response":"left","rt":1089.6999999881,"correct":false,"confidence":3},{"trial_n":115,"n_dots":3.45,"target":"left","response":"left","rt":336,"correct":true,"confidence":2},{"trial_n":116,"n_dots":3.45,"target":"left","response":"left","rt":373.69999998808,"correct":true,"confidence":3},{"trial_n":117,"n_dots":3.35,"target":"right","response":"right","rt":394.10000002384,"correct":true,"confidence":1},{"trial_n":118,"n_dots":3.35,"target":"left","response":"left","rt":367.69999998808,"correct":true,"confidence":3},{"trial_n":119,"n_dots":3.25,"target":"right","response":"left","rt":415.59999999404,"correct":false,"confidence":2},{"trial_n":120,"n_dots":3.35,"target":"right","response":"right","rt":509.40000000596,"correct":true,"confidence":3}]