[{"trial_n":1,"min":25,"max":230,"target":"present","response":"absent","rt":2497.2999999821,"correct":false,"confidence":-1},{"trial_n":2,"min":25,"max":230,"target":"present","response":"present","rt":898.09999999404,"correct":true,"confidence":-1},{"trial_n":3,"min":25,"max":230,"target":"absent","response":"absent","rt":705.59999999404,"correct":true,"confidence":-1},{"trial_n":4,"min":41,"max":214,"target":"absent","response":"absent","rt":305.79999998212,"correct":true,"confidence":-1},{"trial_n":5,"min":41,"max":214,"target":"present","response":"present","rt":446,"correct":true,"confidence":-1},{"trial_n":6,"min":57,"max":198,"target":"absent","response":"absent","rt":254,"correct":true,"confidence":-1},{"trial_n":7,"min":57,"max":198,"target":"present","response":"present","rt":357,"correct":true,"confidence":-1},{"trial_n":8,"min":73,"max":182,"target":"present","response":"present","rt":340.30000001192,"correct":true,"confidence":-1},{"trial_n":9,"min":73,"max":182,"target":"present","response":"present","rt":268,"correct":true,"confidence":-1},{"trial_n":10,"min":89,"max":166,"target":"absent","response":"absent","rt":387,"correct":true,"confidence":-1},{"trial_n":11,"min":89,"max":166,"target":"present","response":"absent","rt":388.40000000596,"correct":false,"confidence":-1},{"trial_n":12,"min":81,"max":174,"target":"absent","response":"absent","rt":557.30000001192,"correct":true,"confidence":-1},{"trial_n":13,"min":81,"max":174,"target":"present","response":"absent","rt":337.89999997616,"correct":false,"confidence":-1},{"trial_n":14,"min":73,"max":182,"target":"present","response":"present","rt":321.89999997616,"correct":true,"confidence":-1},{"trial_n":15,"min":73,"max":182,"target":"present","response":"absent","rt":395,"correct":false,"confidence":-1},{"trial_n":16,"min":65,"max":190,"target":"absent","response":"absent","rt":723.59999999404,"correct":true,"confidence":-1},{"trial_n":17,"min":65,"max":190,"target":"absent","response":"present","rt":514.5,"correct":false,"confidence":-1},{"trial_n":18,"min":57,"max":198,"target":"present","response":"present","rt":366.80000001192,"correct":true,"confidence":-1},{"trial_n":19,"min":57,"max":198,"target":"present","response":"present","rt":264.5,"correct":true,"confidence":-1},{"trial_n":20,"min":65,"max":190,"target":"present","response":"present","rt":302.90000000596,"correct":true,"confidence":-1},{"trial_n":21,"min":65,"max":190,"target":"absent","response":"absent","rt":1112.2000000179,"correct":true,"confidence":3},{"trial_n":22,"min":69,"max":186,"target":"present","response":"present","rt":593.90000000596,"correct":true,"confidence":4},{"trial_n":23,"min":69,"max":186,"target":"absent","response":"absent","rt":917.80000001192,"correct":true,"confidence":2},{"trial_n":24,"min":73,"max":182,"target":"absent","response":"absent","rt":1231.6999999881,"correct":true,"confidence":3},{"trial_n":25,"min":73,"max":182,"target":"present","response":"present","rt":794.40000000596,"correct":true,"confidence":5},{"trial_n":26,"min":77,"max":178,"target":"present","response":"present","rt":567.19999998808,"correct":true,"confidence":4},{"trial_n":27,"min":77,"max":178,"target":"present","response":"present","rt":472.80000001192,"correct":true,"confidence":4},{"trial_n":28,"min":81,"max":174,"target":"present","response":"present","rt":671.5,"correct":true,"confidence":4},{"trial_n":29,"min":81,"max":174,"target":"present","response":"absent","rt":1822.400000006,"correct":false,"confidence":1},{"trial_n":30,"min":77,"max":178,"target":"absent","response":"present","rt":387.59999999404,"correct":false,"confidence":1},{"trial_n":31,"min":75,"max":180,"target":"present","response":"present","rt":378.60000002384,"correct":true,"confidence":5},{"trial_n":32,"min":75,"max":180,"target":"absent","response":"absent","rt":1153.5,"correct":true,"confidence":2},{"trial_n":33,"min":77,"max":178,"target":"present","response":"absent","rt":572.09999999404,"correct":false,"confidence":2},{"trial_n":34,"min":75,"max":180,"target":"present","response":"present","rt":348.19999998808,"correct":true,"confidence":3},{"trial_n":35,"min":75,"max":180,"target":"present","response":"present","rt":345.79999998212,"correct":true,"confidence":3},{"trial_n":36,"min":77,"max":178,"target":"absent","response":"absent","rt":935.09999999404,"correct":true,"confidence":2},{"trial_n":37,"min":77,"max":178,"target":"present","response":"present","rt":415.5,"correct":true,"confidence":4},{"trial_n":38,"min":79,"max":176,"target":"absent","response":"absent","rt":783.5,"correct":true,"confidence":2},{"trial_n":39,"min":79,"max":176,"target":"present","response":"present","rt":814.59999999404,"correct":true,"confidence":3},{"trial_n":40,"min":81,"max":174,"target":"absent","response":"absent","rt":599,"correct":true,"confidence":4},{"trial_n":41,"min":81,"max":174,"target":"absent","response":"present","rt":1217.5,"correct":false,"confidence":2},{"trial_n":42,"min":80,"max":175,"target":"absent","response":"absent","rt":477.5,"correct":true,"confidence":2},{"trial_n":43,"min":80,"max":175,"target":"absent","response":"absent","rt":420,"correct":true,"confidence":3},{"trial_n":44,"min":81,"max":174,"target":"present","response":"present","rt":302.80000001192,"correct":true,"confidence":4},{"trial_n":45,"min":81,"max":174,"target":"absent","response":"absent","rt":273.5,"correct":true,"confidence":3},{"trial_n":46,"min":82,"max":173,"target":"absent","response":"absent","rt":4954.1999999881,"correct":true,"confidence":1},{"trial_n":47,"min":82,"max":173,"target":"absent","response":"absent","rt":471.19999998808,"correct":true,"confidence":2},{"trial_n":48,"min":83,"max":172,"target":"absent","response":"present","rt":346.20000001788,"correct":false,"confidence":3},{"trial_n":49,"min":82,"max":173,"target":"absent","response":"absent","rt":392.29999998212,"correct":true,"confidence":2},{"trial_n":50,"min":82,"max":173,"target":"absent","response":"present","rt":347.79999998212,"correct":false,"confidence":3},{"trial_n":51,"min":81,"max":174,"target":"present","response":"present","rt":348.69999998808,"correct":true,"confidence":4},{"trial_n":52,"min":81,"max":174,"target":"absent","response":"present","rt":305,"correct":false,"confidence":3},{"trial_n":53,"min":80,"max":175,"target":"present","response":"present","rt":226.30000001192,"correct":true,"confidence":3},{"trial_n":54,"min":80,"max":175,"target":"absent","response":"absent","rt":669.30000001192,"correct":true,"confidence":3},{"trial_n":55,"min":81,"max":174,"target":"absent","response":"present","rt":301.89999997616,"correct":false,"confidence":3},{"trial_n":56,"min":80,"max":175,"target":"present","response":"present","rt":188.70000001788,"correct":true,"confidence":4},{"trial_n":57,"min":80,"max":175,"target":"present","response":"present","rt":436,"correct":true,"confidence":4},{"trial_n":58,"min":81,"max":174,"target":"absent","response":"absent","rt":688.5,"correct":true,"confidence":2},{"trial_n":59,"min":81,"max":174,"target":"present","response":"present","rt":473.09999999404,"correct":true,"confidence":3},{"trial_n":60,"min":82,"max":173,"target":"present","response":"present","rt":241.5,"correct":true,"confidence":4},{"trial_n":61,"min":82,"max":173,"target":"absent","response":"absent","rt":1158.6999999881,"correct":true,"confidence":3},{"trial_n":62,"min":83,"max":172,"target":"absent","response":"present","rt":304.79999998212,"correct":false,"confidence":3},{"trial_n":63,"min":82,"max":173,"target":"present","response":"present","rt":208.40000000596,"correct":true,"confidence":5},{"trial_n":64,"min":82,"max":173,"target":"absent","response":"absent","rt":410.5,"correct":true,"confidence":3},{"trial_n":65,"min":83,"max":172,"target":"present","response":"present","rt":262.5,"correct":true,"confidence":3},{"trial_n":66,"min":83,"max":172,"target":"absent","response":"absent","rt":407.79999998212,"correct":true,"confidence":3},{"trial_n":67,"min":84,"max":171,"target":"present","response":"present","rt":227,"correct":true,"confidence":3},{"trial_n":68,"min":84,"max":171,"target":"present","response":"present","rt":355.79999998212,"correct":true,"confidence":3},{"trial_n":69,"min":85,"max":170,"target":"absent","response":"absent","rt":492,"correct":true,"confidence":4},{"trial_n":70,"min":85,"max":170,"target":"absent","response":"absent","rt":295.30000001192,"correct":true,"confidence":4},{"trial_n":71,"min":41,"max":214,"target":"present","response":"present","rt":2886,"correct":true,"confidence":-1},{"trial_n":72,"min":41,"max":214,"target":"present","response":"present","rt":480.09999999404,"correct":true,"confidence":-1},{"trial_n":73,"min":57,"max":198,"target":"absent","response":"absent","rt":176.40000000596,"correct":true,"confidence":-1},{"trial_n":74,"min":57,"max":198,"target":"absent","response":"absent","rt":498.09999999404,"correct":true,"confidence":-1},{"trial_n":75,"min":73,"max":182,"target":"present","response":"present","rt":413.39999997616,"correct":true,"confidence":-1},{"trial_n":76,"min":73,"max":182,"target":"absent","response":"absent","rt":801.19999998808,"correct":true,"confidence":-1},{"trial_n":77,"min":89,"max":166,"target":"present","response":"present","rt":596.40000000596,"correct":true,"confidence":-1},{"trial_n":78,"min":89,"max":166,"target":"absent","response":"absent","rt":1409.900000006,"correct":true,"confidence":-1},{"trial_n":79,"min":105,"max":150,"target":"absent","response":"present","rt":703,"correct":false,"confidence":-1},{"trial_n":80,"min":89,"max":166,"target":"present","response":"present","rt":743.90000000596,"correct":true,"confidence":-1},{"trial_n":81,"min":89,"max":166,"target":"absent","response":"present","rt":723.69999998808,"correct":false,"confidence":-1},{"trial_n":82,"min":81,"max":174,"target":"present","response":"absent","rt":158.19999998808,"correct":false,"confidence":-1},{"trial_n":83,"min":73,"max":182,"target":"absent","response":"absent","rt":534.20000001788,"correct":true,"confidence":-1},{"trial_n":84,"min":73,"max":182,"target":"present","response":"present","rt":199.09999999404,"correct":true,"confidence":-1},{"trial_n":85,"min":81,"max":174,"target":"present","response":"present","rt":480.30000001192,"correct":true,"confidence":-1},{"trial_n":86,"min":81,"max":174,"target":"present","response":"present","rt":303.5,"correct":true,"confidence":-1},{"trial_n":87,"min":89,"max":166,"target":"absent","response":"present","rt":420.5,"correct":false,"confidence":-1},{"trial_n":88,"min":81,"max":174,"target":"present","response":"absent","rt":502.30000001192,"correct":false,"confidence":-1},{"trial_n":89,"min":73,"max":182,"target":"absent","response":"present","rt":519.30000001192,"correct":false,"confidence":-1},{"trial_n":90,"min":65,"max":190,"target":"absent","response":"absent","rt":213.79999998212,"correct":true,"confidence":-1},{"trial_n":91,"min":65,"max":190,"target":"absent","response":"absent","rt":600.70000001788,"correct":true,"confidence":3},{"trial_n":92,"min":69,"max":186,"target":"absent","response":"present","rt":27550.5,"correct":false,"confidence":1},{"trial_n":93,"min":65,"max":190,"target":"absent","response":"absent","rt":516,"correct":true,"confidence":5},{"trial_n":94,"min":65,"max":190,"target":"present","response":"present","rt":541.90000000596,"correct":true,"confidence":4},{"trial_n":95,"min":69,"max":186,"target":"present","response":"present","rt":179.79999998212,"correct":true,"confidence":4},{"trial_n":96,"min":69,"max":186,"target":"present","response":"present","rt":470.69999998808,"correct":true,"confidence":4},{"trial_n":97,"min":73,"max":182,"target":"present","response":"present","rt":185.19999998808,"correct":true,"confidence":5},{"trial_n":98,"min":73,"max":182,"target":"present","response":"present","rt":260.79999998212,"correct":true,"confidence":5},{"trial_n":99,"min":77,"max":178,"target":"present","response":"present","rt":387.5,"correct":true,"confidence":4},{"trial_n":100,"min":77,"max":178,"target":"absent","response":"absent","rt":454,"correct":true,"confidence":3},{"trial_n":101,"min":79,"max":176,"target":"present","response":"present","rt":546.40000000596,"correct":true,"confidence":3},{"trial_n":102,"min":79,"max":176,"target":"absent","response":"absent","rt":426.90000000596,"correct":true,"confidence":3},{"trial_n":103,"min":81,"max":174,"target":"absent","response":"present","rt":414.20000001788,"correct":false,"confidence":3},{"trial_n":104,"min":79,"max":176,"target":"absent","response":"absent","rt":366.5,"correct":true,"confidence":3},{"trial_n":105,"min":79,"max":176,"target":"present","response":"present","rt":330.20000001788,"correct":true,"confidence":3},{"trial_n":106,"min":81,"max":174,"target":"absent","response":"absent","rt":398.59999999404,"correct":true,"confidence":4},{"trial_n":107,"min":81,"max":174,"target":"present","response":"present","rt":378.5,"correct":true,"confidence":3},{"trial_n":108,"min":83,"max":172,"target":"present","response":"present","rt":447,"correct":true,"confidence":2},{"trial_n":109,"min":83,"max":172,"target":"present","response":"present","rt":297.40000000596,"correct":true,"confidence":3},{"trial_n":110,"min":85,"max":170,"target":"absent","response":"present","rt":264.5,"correct":false,"confidence":1},{"trial_n":111,"min":84,"max":171,"target":"present","response":"present","rt":271.59999999404,"correct":true,"confidence":4},{"trial_n":112,"min":84,"max":171,"target":"present","response":"present","rt":264.59999999404,"correct":true,"confidence":4},{"trial_n":113,"min":85,"max":170,"target":"absent","response":"absent","rt":211.30000001192,"correct":true,"confidence":3},{"trial_n":114,"min":85,"max":170,"target":"present","response":"present","rt":398.79999998212,"correct":true,"confidence":3},{"trial_n":115,"min":86,"max":169,"target":"present","response":"present","rt":413.59999999404,"correct":true,"confidence":3},{"trial_n":116,"min":86,"max":169,"target":"absent","response":"present","rt":958.40000000596,"correct":false,"confidence":3},{"trial_n":117,"min":85,"max":170,"target":"present","response":"present","rt":44.600000023842,"correct":true,"confidence":4},{"trial_n":118,"min":85,"max":170,"target":"present","response":"present","rt":184.69999998808,"correct":true,"confidence":5},{"trial_n":119,"min":86,"max":169,"target":"present","response":"present","rt":451.20000001788,"correct":true,"confidence":3},{"trial_n":120,"min":86,"max":169,"target":"absent","response":"present","rt":559.80000001192,"correct":false,"confidence":1},{"trial_n":121,"min":85,"max":170,"target":"present","response":"present","rt":276.5,"correct":true,"confidence":3},{"trial_n":122,"min":85,"max":170,"target":"present","response":"present","rt":913.80000001192,"correct":true,"confidence":4},{"trial_n":123,"min":86,"max":169,"target":"absent","response":"absent","rt":744.59999999404,"correct":true,"confidence":3},{"trial_n":124,"min":86,"max":169,"target":"absent","response":"absent","rt":512,"correct":true,"confidence":4},{"trial_n":125,"min":87,"max":168,"target":"absent","response":"present","rt":450.90000000596,"correct":false,"confidence":1},{"trial_n":126,"min":86,"max":169,"target":"present","response":"absent","rt":251.19999998808,"correct":false,"confidence":1},{"trial_n":127,"min":85,"max":170,"target":"absent","response":"absent","rt":360.30000001192,"correct":true,"confidence":4},{"trial_n":128,"min":85,"max":170,"target":"absent","response":"present","rt":6335.7999999821,"correct":false,"confidence":1},{"trial_n":129,"min":84,"max":171,"target":"present","response":"absent","rt":508,"correct":false,"confidence":1},{"trial_n":130,"min":83,"max":172,"target":"present","response":"present","rt":450.70000001788,"correct":true,"confidence":3},{"trial_n":131,"min":83,"max":172,"target":"absent","response":"present","rt":394.69999998808,"correct":false,"confidence":3},{"trial_n":132,"min":82,"max":173,"target":"absent","response":"present","rt":515.5,"correct":false,"confidence":3},{"trial_n":133,"min":81,"max":174,"target":"absent","response":"absent","rt":293.89999997616,"correct":true,"confidence":2},{"trial_n":134,"min":81,"max":174,"target":"absent","response":"absent","rt":559,"correct":true,"confidence":3},{"trial_n":135,"min":82,"max":173,"target":"absent","response":"absent","rt":385.09999999404,"correct":true,"confidence":4},{"trial_n":136,"min":82,"max":173,"target":"present","response":"present","rt":238.59999999404,"correct":true,"confidence":4},{"trial_n":137,"min":83,"max":172,"target":"present","response":"present","rt":170.90000000596,"correct":true,"confidence":4},{"trial_n":138,"min":83,"max":172,"target":"present","response":"present","rt":387,"correct":true,"confidence":4},{"trial_n":139,"min":84,"max":171,"target":"absent","response":"present","rt":351.60000002384,"correct":false,"confidence":4},{"trial_n":140,"min":83,"max":172,"target":"absent","response":"absent","rt":270.90000000596,"correct":true,"confidence":4}]