[{"trial_n":1,"span":8,"encoder":"09312524","distractor":"09316524","target":"present","response":"present","rt":"3425.099999994","correct":true,"confidence":-1},{"trial_n":2,"span":8,"encoder":"85253144","distractor":"85259144","target":"present","response":"present","rt":"2921.3999999911","correct":true,"confidence":-1},{"trial_n":3,"span":10,"encoder":"9816925019","distractor":"9216925019","target":"absent","response":"present","rt":"3446.099999994","correct":false,"confidence":-1},{"trial_n":4,"span":8,"encoder":"11985576","distractor":"11985526","target":"absent","response":"absent","rt":"2939.3999999911","correct":true,"confidence":-1},{"trial_n":5,"span":8,"encoder":"34658618","distractor":"34658616","target":"present","response":"absent","rt":"2863.700000003","correct":false,"confidence":-1},{"trial_n":6,"span":6,"encoder":"388405","distractor":"388305","target":"present","response":"absent","rt":"2319.6000000089","correct":false,"confidence":-1},{"trial_n":7,"span":4,"encoder":"3906","distractor":"3806","target":"present","response":"present","rt":"2319","correct":true,"confidence":-1},{"trial_n":8,"span":4,"encoder":"1363","distractor":"3363","target":"present","response":"present","rt":"1425.6000000089","correct":true,"confidence":-1},{"trial_n":9,"span":6,"encoder":"235416","distractor":"235410","target":"present","response":"present","rt":"1498.599999994","correct":true,"confidence":-1},{"trial_n":10,"span":6,"encoder":"481806","distractor":"481802","target":"present","response":"absent","rt":"3521.900000006","correct":false,"confidence":-1},{"trial_n":11,"span":4,"encoder":"6091","distractor":"3091","target":"absent","response":"absent","rt":"1526.700000003","correct":true,"confidence":-1},{"trial_n":12,"span":4,"encoder":"8741","distractor":"8701","target":"present","response":"present","rt":"1427.099999994","correct":true,"confidence":-1},{"trial_n":13,"span":5,"encoder":"89705","distractor":"89708","target":"absent","response":"absent","rt":"1921.400000006","correct":true,"confidence":-1},{"trial_n":14,"span":5,"encoder":"18092","distractor":"88092","target":"present","response":"present","rt":"3082.5","correct":true,"confidence":-1},{"trial_n":15,"span":6,"encoder":"959811","distractor":"959816","target":"absent","response":"absent","rt":"1681","correct":true,"confidence":-1},{"trial_n":16,"span":6,"encoder":"824064","distractor":"724064","target":"absent","response":"absent","rt":"2062.799999997","correct":true,"confidence":-1},{"trial_n":17,"span":7,"encoder":"3534758","distractor":"7534758","target":"absent","response":"absent","rt":"1793.3000000119","correct":true,"confidence":-1},{"trial_n":18,"span":7,"encoder":"2483416","distractor":"2283416","target":"absent","response":"absent","rt":"1557.700000003","correct":true,"confidence":-1},{"trial_n":19,"span":8,"encoder":"12044426","distractor":"12048426","target":"present","response":"present","rt":"2785","correct":true,"confidence":-1},{"trial_n":20,"span":8,"encoder":"88774530","distractor":"88374530","target":"present","response":"present","rt":"3215.099999994","correct":true,"confidence":-1},{"trial_n":21,"span":9,"encoder":"713876686","distractor":"713876687","target":"present","response":"present","rt":"3926","correct":true,"confidence":5},{"trial_n":22,"span":9,"encoder":"197693041","distractor":"797693041","target":"present","response":"present","rt":"4104.8999999911","correct":true,"confidence":5},{"trial_n":23,"span":10,"encoder":"9081462671","distractor":"9081262671","target":"absent","response":"absent","rt":"5026.599999994","correct":true,"confidence":5},{"trial_n":24,"span":10,"encoder":"9999851997","distractor":"9999871997","target":"absent","response":"present","rt":"4671.799999997","correct":false,"confidence":5},{"trial_n":25,"span":9,"encoder":"294873203","distractor":"294473203","target":"present","response":"present","rt":"5005.700000003","correct":true,"confidence":4},{"trial_n":26,"span":9,"encoder":"717531948","distractor":"716531948","target":"present","response":"present","rt":"3920.6000000089","correct":true,"confidence":5},{"trial_n":27,"span":10,"encoder":"0376444627","distractor":"0376444527","target":"present","response":"absent","rt":"5579.8999999911","correct":false,"confidence":5},{"trial_n":28,"span":9,"encoder":"296330278","distractor":"296330478","target":"absent","response":"present","rt":"5929.799999997","correct":false,"confidence":5},{"trial_n":29,"span":8,"encoder":"29759663","distractor":"29959663","target":"present","response":"absent","rt":"3879.8999999911","correct":false,"confidence":5},{"trial_n":30,"span":7,"encoder":"9762392","distractor":"9762312","target":"present","response":"present","rt":"2738.5","correct":true,"confidence":5},{"trial_n":31,"span":7,"encoder":"4764304","distractor":"4704304","target":"absent","response":"absent","rt":"1797.200000003","correct":true,"confidence":5},{"trial_n":32,"span":8,"encoder":"40304551","distractor":"42304551","target":"absent","response":"absent","rt":"1653.6000000089","correct":true,"confidence":5},{"trial_n":33,"span":8,"encoder":"95811182","distractor":"95811181","target":"absent","response":"absent","rt":"2823","correct":true,"confidence":5},{"trial_n":34,"span":9,"encoder":"964262117","distractor":"964262115","target":"absent","response":"absent","rt":"2573.3000000119","correct":true,"confidence":5},{"trial_n":35,"span":9,"encoder":"634475242","distractor":"934475242","target":"absent","response":"absent","rt":"2146.099999994","correct":true,"confidence":5},{"trial_n":36,"span":10,"encoder":"5717219850","distractor":"5712219850","target":"absent","response":"absent","rt":"4851.299999997","correct":true,"confidence":4},{"trial_n":37,"span":10,"encoder":"4062614677","distractor":"4062614377","target":"present","response":"present","rt":"3460.700000003","correct":true,"confidence":5},{"trial_n":38,"span":11,"encoder":"45447757708","distractor":"45447757706","target":"absent","response":"absent","rt":"4873.200000003","correct":true,"confidence":5},{"trial_n":39,"span":11,"encoder":"75035995146","distractor":"75035995144","target":"present","response":"present","rt":"8322.200000003","correct":true,"confidence":3},{"trial_n":40,"span":12,"encoder":"775214573729","distractor":"775214573720","target":"present","response":"present","rt":"7110.299999997","correct":true,"confidence":4},{"trial_n":41,"span":12,"encoder":"974568875623","distractor":"974568275623","target":"present","response":"present","rt":"5711.5","correct":true,"confidence":4},{"trial_n":42,"span":13,"encoder":"0734461072720","distractor":"2734461072720","target":"absent","response":"absent","rt":"3706.200000003","correct":true,"confidence":4},{"trial_n":43,"span":13,"encoder":"0542122301888","distractor":"0542122301898","target":"absent","response":"absent","rt":"2245.6999999881","correct":true,"confidence":5},{"trial_n":44,"span":14,"encoder":"64996731029793","distractor":"64996731829793","target":"absent","response":"absent","rt":"3742.299999997","correct":true,"confidence":5},{"trial_n":45,"span":14,"encoder":"37717734714193","distractor":"37717734714199","target":"present","response":"present","rt":"4778.599999994","correct":true,"confidence":5},{"trial_n":46,"span":15,"encoder":"560141201280309","distractor":"560142201280309","target":"present","response":"absent","rt":"6051.900000006","correct":false,"confidence":4},{"trial_n":47,"span":14,"encoder":"22041329829444","distractor":"22041309829444","target":"absent","response":"present","rt":"5116.599999994","correct":false,"confidence":5},{"trial_n":48,"span":13,"encoder":"0608485773449","distractor":"0608485733449","target":"absent","response":"absent","rt":"4275.700000003","correct":true,"confidence":4},{"trial_n":49,"span":13,"encoder":"4517233153831","distractor":"4517233193831","target":"absent","response":"present","rt":"6331.5","correct":false,"confidence":2},{"trial_n":50,"span":12,"encoder":"638859424908","distractor":"538859424908","target":"present","response":"present","rt":"4972.1000000089","correct":true,"confidence":5},{"trial_n":51,"span":12,"encoder":"361741957843","distractor":"361741957841","target":"absent","response":"absent","rt":"4194.5","correct":true,"confidence":5},{"trial_n":52,"span":13,"encoder":"1643233305967","distractor":"1643933305967","target":"absent","response":"present","rt":"4679.299999997","correct":false,"confidence":5},{"trial_n":53,"span":12,"encoder":"282145059799","distractor":"282145359799","target":"absent","response":"absent","rt":"5962.6999999881","correct":true,"confidence":3},{"trial_n":54,"span":12,"encoder":"764346038081","distractor":"764336038081","target":"present","response":"present","rt":"2863.700000003","correct":true,"confidence":5},{"trial_n":55,"span":13,"encoder":"2472431081924","distractor":"2472431087924","target":"present","response":"present","rt":"3814.3999999911","correct":true,"confidence":5},{"trial_n":56,"span":13,"encoder":"6454021512575","distractor":"6454021512572","target":"present","response":"present","rt":"6337.3999999911","correct":true,"confidence":5},{"trial_n":57,"span":14,"encoder":"90758540733318","distractor":"40758540733318","target":"absent","response":"present","rt":"5331","correct":false,"confidence":4},{"trial_n":58,"span":13,"encoder":"5125715598383","distractor":"5125715098383","target":"present","response":"present","rt":"6329.799999997","correct":true,"confidence":3},{"trial_n":59,"span":13,"encoder":"1634743509068","distractor":"1734743509068","target":"absent","response":"absent","rt":"4455","correct":true,"confidence":3},{"trial_n":60,"span":14,"encoder":"15285829294026","distractor":"15285829254026","target":"present","response":"absent","rt":"5653.599999994","correct":false,"confidence":3},{"trial_n":61,"span":13,"encoder":"0356817392395","distractor":"0386817392395","target":"absent","response":"present","rt":"7039.799999997","correct":false,"confidence":5},{"trial_n":62,"span":12,"encoder":"624677992081","distractor":"924677992081","target":"present","response":"present","rt":"3386.200000003","correct":true,"confidence":3},{"trial_n":63,"span":12,"encoder":"020866064139","distractor":"020826064139","target":"absent","response":"absent","rt":"4396","correct":true,"confidence":5},{"trial_n":64,"span":13,"encoder":"0920945642798","distractor":"0920245642798","target":"absent","response":"present","rt":"5539","correct":false,"confidence":3},{"trial_n":65,"span":12,"encoder":"969124192246","distractor":"969624192246","target":"present","response":"present","rt":"4308.5","correct":true,"confidence":5},{"trial_n":66,"span":12,"encoder":"761762573501","distractor":"761765573501","target":"absent","response":"absent","rt":"3313.5","correct":true,"confidence":5},{"trial_n":67,"span":13,"encoder":"5756968958847","distractor":"5156968958847","target":"present","response":"present","rt":"5085.700000003","correct":true,"confidence":5},{"trial_n":68,"span":13,"encoder":"1933550292893","distractor":"1933560292893","target":"absent","response":"absent","rt":"5191.200000003","correct":true,"confidence":2},{"trial_n":69,"span":14,"encoder":"49988672360770","distractor":"49988672360070","target":"present","response":"present","rt":"3495.5","correct":true,"confidence":5},{"trial_n":70,"span":14,"encoder":"72105264743552","distractor":"72105264743542","target":"present","response":"present","rt":"3987.5","correct":true,"confidence":4},{"trial_n":71,"span":8,"encoder":"62756655","distractor":"62056655","target":"present","response":"present","rt":"3838.299999997","correct":true,"confidence":-1},{"trial_n":72,"span":8,"encoder":"49906846","distractor":"49906946","target":"present","response":"present","rt":"3200.8999999911","correct":true,"confidence":-1},{"trial_n":73,"span":9,"encoder":"019531977","distractor":"019531957","target":"absent","response":"absent","rt":"3352.799999997","correct":true,"confidence":-1},{"trial_n":74,"span":9,"encoder":"489168149","distractor":"489128149","target":"absent","response":"absent","rt":"3255.200000003","correct":true,"confidence":-1},{"trial_n":75,"span":10,"encoder":"0644713695","distractor":"0344713695","target":"present","response":"absent","rt":"7675.1999999881","correct":false,"confidence":-1},{"trial_n":76,"span":9,"encoder":"931573008","distractor":"941573008","target":"present","response":"present","rt":"5339.6000000089","correct":true,"confidence":-1},{"trial_n":77,"span":9,"encoder":"365409358","distractor":"364409358","target":"absent","response":"absent","rt":"2898.200000003","correct":true,"confidence":-1},{"trial_n":78,"span":10,"encoder":"1201801726","distractor":"1201801786","target":"present","response":"present","rt":"5138.3000000119","correct":true,"confidence":-1},{"trial_n":79,"span":10,"encoder":"4617448339","distractor":"4617448337","target":"absent","response":"absent","rt":"3361.799999997","correct":true,"confidence":-1},{"trial_n":80,"span":11,"encoder":"85533146800","distractor":"85533146000","target":"present","response":"present","rt":"3505.5","correct":true,"confidence":-1},{"trial_n":81,"span":11,"encoder":"12909650202","distractor":"12909620202","target":"present","response":"present","rt":"6181.200000003","correct":true,"confidence":-1},{"trial_n":82,"span":12,"encoder":"578964938512","distractor":"578934938512","target":"absent","response":"absent","rt":"4921.299999997","correct":true,"confidence":-1},{"trial_n":83,"span":12,"encoder":"592424234244","distractor":"692424234244","target":"present","response":"present","rt":"6406.5","correct":true,"confidence":-1},{"trial_n":84,"span":13,"encoder":"9953348895826","distractor":"9959348895826","target":"absent","response":"present","rt":"8298.3000000119","correct":false,"confidence":-1},{"trial_n":85,"span":12,"encoder":"924648843694","distractor":"924618843694","target":"present","response":"present","rt":"6783","correct":true,"confidence":-1},{"trial_n":86,"span":12,"encoder":"198893662798","distractor":"198843662798","target":"present","response":"present","rt":"5330.900000006","correct":true,"confidence":-1},{"trial_n":87,"span":13,"encoder":"3306214089590","distractor":"3306214089190","target":"absent","response":"absent","rt":"3690.8999999911","correct":true,"confidence":-1},{"trial_n":88,"span":13,"encoder":"8711921050170","distractor":"8711921040170","target":"present","response":"present","rt":"4691","correct":true,"confidence":-1},{"trial_n":89,"span":14,"encoder":"15500102920066","distractor":"15500102940066","target":"present","response":"present","rt":"6497.700000003","correct":true,"confidence":-1},{"trial_n":90,"span":14,"encoder":"99931806912859","distractor":"99931806912854","target":"present","response":"present","rt":"2805.6000000089","correct":true,"confidence":-1},{"trial_n":91,"span":15,"encoder":"001275038297028","distractor":"071275038297028","target":"present","response":"present","rt":"6000.799999997","correct":true,"confidence":4},{"trial_n":92,"span":15,"encoder":"614915596886200","distractor":"614915596886100","target":"present","response":"present","rt":"2541.200000003","correct":true,"confidence":5},{"trial_n":93,"span":16,"encoder":"8309206749833294","distractor":"8309206746833294","target":"present","response":"present","rt":"12912.399999991","correct":true,"confidence":3},{"trial_n":94,"span":16,"encoder":"5527984508441551","distractor":"5527984502441551","target":"absent","response":"absent","rt":"12739.5","correct":true,"confidence":3},{"trial_n":95,"span":17,"encoder":"90443038872353677","distractor":"90443038872353676","target":"present","response":"present","rt":"1746.3999999911","correct":true,"confidence":5},{"trial_n":96,"span":17,"encoder":"70764632649872747","distractor":"70764637649872747","target":"absent","response":"present","rt":"7224.700000003","correct":false,"confidence":3},{"trial_n":97,"span":16,"encoder":"3733153656126275","distractor":"3433153656126275","target":"absent","response":"absent","rt":"7830.700000003","correct":true,"confidence":3},{"trial_n":98,"span":16,"encoder":"0060787292320429","distractor":"0060787292320129","target":"absent","response":"absent","rt":"10961.599999994","correct":true,"confidence":5},{"trial_n":99,"span":17,"encoder":"38759504371176650","distractor":"38759502371176650","target":"absent","response":"present","rt":"11672.299999997","correct":false,"confidence":3},{"trial_n":100,"span":16,"encoder":"2197619634363265","distractor":"2197619734363265","target":"absent","response":"present","rt":"10011","correct":false,"confidence":3},{"trial_n":101,"span":15,"encoder":"311982293301865","distractor":"371982293301865","target":"present","response":"present","rt":"13581.5","correct":true,"confidence":5},{"trial_n":102,"span":15,"encoder":"684406166917099","distractor":"684406166917039","target":"absent","response":"absent","rt":"2582.599999994","correct":true,"confidence":5},{"trial_n":103,"span":16,"encoder":"1441515521606779","distractor":"1441515521606770","target":"present","response":"present","rt":"2140.900000006","correct":true,"confidence":5},{"trial_n":104,"span":16,"encoder":"0734938561310486","distractor":"0734938561310586","target":"absent","response":"absent","rt":"2345.8000000119","correct":true,"confidence":5},{"trial_n":105,"span":17,"encoder":"81886487759988956","distractor":"81884487759988956","target":"absent","response":"present","rt":"10078.900000006","correct":false,"confidence":2},{"trial_n":106,"span":16,"encoder":"9994103715632592","distractor":"3994103715632592","target":"present","response":"present","rt":"3984.5","correct":true,"confidence":5},{"trial_n":107,"span":16,"encoder":"3003963184225195","distractor":"3006963184225195","target":"present","response":"present","rt":"8612","correct":true,"confidence":2},{"trial_n":108,"span":17,"encoder":"58627619456383230","distractor":"58627619456388230","target":"present","response":"present","rt":"3511.900000006","correct":true,"confidence":5},{"trial_n":109,"span":17,"encoder":"32507444802923856","distractor":"30507444802923856","target":"absent","response":"absent","rt":"13728.600000009","correct":true,"confidence":3},{"trial_n":110,"span":18,"encoder":"396848607880782213","distractor":"396848607880782013","target":"absent","response":"absent","rt":"2045.5","correct":true,"confidence":5},{"trial_n":111,"span":18,"encoder":"198635743659701987","distractor":"198635743659701983","target":"absent","response":"absent","rt":"2510.1999999881","correct":true,"confidence":5},{"trial_n":112,"span":19,"encoder":"8945670290287783081","distractor":"8945770290287783081","target":"absent","response":"absent","rt":"5896.400000006","correct":true,"confidence":4},{"trial_n":113,"span":19,"encoder":"5163333194044358600","distractor":"5163333194044359600","target":"absent","response":"absent","rt":"3379.299999997","correct":true,"confidence":5},{"trial_n":114,"span":20,"encoder":"60592780793849224913","distractor":"60592780793849224943","target":"absent","response":"absent","rt":"2283.900000006","correct":true,"confidence":5},{"trial_n":115,"span":20,"encoder":"08369406744629096225","distractor":"08369406774629096225","target":"present","response":"present","rt":"6843.599999994","correct":true,"confidence":3},{"trial_n":116,"span":21,"encoder":"906990221278228416183","distractor":"906910221278228416183","target":"present","response":"present","rt":"7778.5","correct":true,"confidence":5},{"trial_n":117,"span":21,"encoder":"395898910377311061909","distractor":"395898910377301061909","target":"present","response":"present","rt":"7015.1999999881","correct":true,"confidence":5},{"trial_n":118,"span":22,"encoder":"7632267260234793843613","distractor":"7632237260234793843613","target":"absent","response":"absent","rt":"10312.799999997","correct":true,"confidence":3},{"trial_n":119,"span":22,"encoder":"8986677129292737102510","distractor":"8986677129292737102810","target":"present","response":"present","rt":"2697.5","correct":true,"confidence":5},{"trial_n":120,"span":23,"encoder":"79577309677097960779403","distractor":"79577309677597960779403","target":"absent","response":"present","rt":"14232.200000003","correct":false,"confidence":2},{"trial_n":121,"span":22,"encoder":"4938809480025367233774","distractor":"1938809480025367233774","target":"absent","response":"absent","rt":"9998.099999994","correct":true,"confidence":5},{"trial_n":122,"span":22,"encoder":"1937050444875184338700","distractor":"1437050444875184338700","target":"absent","response":"present","rt":"5779.5","correct":false,"confidence":5},{"trial_n":123,"span":21,"encoder":"944173861263437151043","distractor":"984173861263437151043","target":"present","response":"present","rt":"5062.700000003","correct":true,"confidence":5},{"trial_n":124,"span":21,"encoder":"566297951659843458744","distractor":"566257951659843458744","target":"present","response":"absent","rt":"8198.200000003","correct":false,"confidence":5},{"trial_n":125,"span":20,"encoder":"33825850227074407921","distractor":"39825850227074407921","target":"present","response":"present","rt":"4129.6999999881","correct":true,"confidence":5},{"trial_n":126,"span":20,"encoder":"05413965949593958526","distractor":"05413965949523958526","target":"present","response":"present","rt":"5614.400000006","correct":true,"confidence":1},{"trial_n":127,"span":21,"encoder":"396195148550724937692","distractor":"396185148550724937692","target":"present","response":"present","rt":"7959.799999997","correct":true,"confidence":1},{"trial_n":128,"span":21,"encoder":"077453407036254469354","distractor":"077453407016254469354","target":"absent","response":"absent","rt":"9027.299999997","correct":true,"confidence":3},{"trial_n":129,"span":22,"encoder":"1249234175973676873860","distractor":"1249254175973676873860","target":"present","response":"present","rt":"5862.3999999911","correct":true,"confidence":1},{"trial_n":130,"span":22,"encoder":"0999305850257451264290","distractor":"0999305850256451264290","target":"absent","response":"present","rt":"7629.799999997","correct":false,"confidence":1},{"trial_n":131,"span":21,"encoder":"413345303774247425510","distractor":"413345303774247425570","target":"absent","response":"absent","rt":"6997.6000000089","correct":true,"confidence":4},{"trial_n":132,"span":21,"encoder":"341730432436331150222","distractor":"341730432436331180222","target":"absent","response":"absent","rt":"2746.400000006","correct":true,"confidence":5},{"trial_n":133,"span":22,"encoder":"4546911760624670836986","distractor":"4543911760624670836986","target":"present","response":"absent","rt":"6614.799999997","correct":false,"confidence":1},{"trial_n":134,"span":21,"encoder":"571592022628886634980","distractor":"521592022628886634980","target":"present","response":"present","rt":"6895.5","correct":true,"confidence":4},{"trial_n":135,"span":21,"encoder":"977529991884884994851","distractor":"957529991884884994851","target":"absent","response":"absent","rt":"5497","correct":true,"confidence":5},{"trial_n":136,"span":22,"encoder":"8497415145976912426731","distractor":"9497415145976912426731","target":"absent","response":"present","rt":"3131.799999997","correct":false,"confidence":5},{"trial_n":137,"span":21,"encoder":"559780840541685386111","distractor":"559780840541885386111","target":"absent","response":"absent","rt":"5066.5","correct":true,"confidence":1},{"trial_n":138,"span":21,"encoder":"779405148567992000418","distractor":"779405148967992000418","target":"present","response":"absent","rt":"5278","correct":false,"confidence":1},{"trial_n":139,"span":20,"encoder":"93208519856688594278","distractor":"93208519856688394278","target":"absent","response":"absent","rt":"3698.599999994","correct":true,"confidence":1},{"trial_n":140,"span":20,"encoder":"61829154729820387701","distractor":"61829154729420387701","target":"present","response":"present","rt":"10576.799999997","correct":true,"confidence":1}]