[{"trial_n":1,"min":25,"max":230,"target":"present","response":"present","rt":2777.8999999762,"correct":true,"confidence":-1},{"trial_n":2,"min":25,"max":230,"target":"present","response":"present","rt":783.20000004768,"correct":true,"confidence":-1},{"trial_n":3,"min":41,"max":214,"target":"absent","response":"absent","rt":1155,"correct":true,"confidence":-1},{"trial_n":4,"min":41,"max":214,"target":"absent","response":"absent","rt":3249.6000000238,"correct":true,"confidence":-1},{"trial_n":5,"min":57,"max":198,"target":"present","response":"present","rt":633.10000002384,"correct":true,"confidence":-1},{"trial_n":6,"min":57,"max":198,"target":"present","response":"absent","rt":373.19999992847,"correct":false,"confidence":-1},{"trial_n":7,"min":41,"max":214,"target":"absent","response":"absent","rt":966.20000004768,"correct":true,"confidence":-1},{"trial_n":8,"min":41,"max":214,"target":"present","response":"present","rt":355,"correct":true,"confidence":-1},{"trial_n":9,"min":57,"max":198,"target":"present","response":"present","rt":547.5,"correct":true,"confidence":-1},{"trial_n":10,"min":57,"max":198,"target":"absent","response":"absent","rt":327.39999997616,"correct":true,"confidence":-1},{"trial_n":11,"min":65,"max":190,"target":"absent","response":"absent","rt":293.29999995232,"correct":true,"confidence":-1},{"trial_n":12,"min":65,"max":190,"target":"absent","response":"absent","rt":228.60000002384,"correct":true,"confidence":-1},{"trial_n":13,"min":73,"max":182,"target":"absent","response":"absent","rt":659.5,"correct":true,"confidence":-1},{"trial_n":14,"min":73,"max":182,"target":"present","response":"present","rt":346.10000002384,"correct":true,"confidence":-1},{"trial_n":15,"min":81,"max":174,"target":"present","response":"present","rt":165.80000007153,"correct":true,"confidence":-1},{"trial_n":16,"min":81,"max":174,"target":"absent","response":"absent","rt":750.69999992847,"correct":true,"confidence":-1},{"trial_n":17,"min":89,"max":166,"target":"absent","response":"absent","rt":1066.1999999285,"correct":true,"confidence":-1},{"trial_n":18,"min":89,"max":166,"target":"present","response":"absent","rt":270.09999990463,"correct":false,"confidence":-1},{"trial_n":19,"min":81,"max":174,"target":"absent","response":"present","rt":486.89999997616,"correct":false,"confidence":-1},{"trial_n":20,"min":73,"max":182,"target":"present","response":"present","rt":650.29999995232,"correct":true,"confidence":-1},{"trial_n":21,"min":73,"max":182,"target":"present","response":"absent","rt":548.70000004768,"correct":false,"confidence":2},{"trial_n":22,"min":69,"max":186,"target":"absent","response":"absent","rt":456.19999992847,"correct":true,"confidence":5},{"trial_n":23,"min":69,"max":186,"target":"absent","response":"absent","rt":397.20000004768,"correct":true,"confidence":5},{"trial_n":24,"min":73,"max":182,"target":"absent","response":"absent","rt":331.59999990463,"correct":true,"confidence":5},{"trial_n":25,"min":73,"max":182,"target":"present","response":"present","rt":1041.5,"correct":true,"confidence":5},{"trial_n":26,"min":77,"max":178,"target":"absent","response":"absent","rt":359.29999995232,"correct":true,"confidence":3},{"trial_n":27,"min":77,"max":178,"target":"present","response":"present","rt":1536.7000000477,"correct":true,"confidence":5},{"trial_n":28,"min":81,"max":174,"target":"present","response":"absent","rt":352.69999992847,"correct":false,"confidence":1},{"trial_n":29,"min":77,"max":178,"target":"absent","response":"absent","rt":5504.1999999285,"correct":true,"confidence":4},{"trial_n":30,"min":77,"max":178,"target":"present","response":"present","rt":2086.2999999523,"correct":true,"confidence":3},{"trial_n":31,"min":79,"max":176,"target":"present","response":"absent","rt":456.5,"correct":false,"confidence":4},{"trial_n":32,"min":77,"max":178,"target":"absent","response":"absent","rt":650.39999997616,"correct":true,"confidence":4},{"trial_n":33,"min":77,"max":178,"target":"present","response":"present","rt":604.70000004768,"correct":true,"confidence":4},{"trial_n":34,"min":79,"max":176,"target":"absent","response":"absent","rt":632.80000007153,"correct":true,"confidence":5},{"trial_n":35,"min":79,"max":176,"target":"absent","response":"absent","rt":1224.2999999523,"correct":true,"confidence":4},{"trial_n":36,"min":81,"max":174,"target":"present","response":"absent","rt":678.19999992847,"correct":false,"confidence":2},{"trial_n":37,"min":79,"max":176,"target":"absent","response":"absent","rt":2125.1000000238,"correct":true,"confidence":3},{"trial_n":38,"min":79,"max":176,"target":"present","response":"present","rt":3861.5,"correct":true,"confidence":3},{"trial_n":39,"min":81,"max":174,"target":"present","response":"present","rt":552.60000002384,"correct":true,"confidence":5},{"trial_n":40,"min":81,"max":174,"target":"absent","response":"present","rt":1516.3999999762,"correct":false,"confidence":2},{"trial_n":41,"min":80,"max":175,"target":"present","response":"present","rt":350.69999992847,"correct":true,"confidence":5},{"trial_n":42,"min":80,"max":175,"target":"present","response":"present","rt":1435.9000000954,"correct":true,"confidence":3},{"trial_n":43,"min":81,"max":174,"target":"absent","response":"present","rt":387.20000004768,"correct":false,"confidence":2},{"trial_n":44,"min":80,"max":175,"target":"absent","response":"absent","rt":634.79999995232,"correct":true,"confidence":3},{"trial_n":45,"min":80,"max":175,"target":"present","response":"absent","rt":409.79999995232,"correct":false,"confidence":3},{"trial_n":46,"min":79,"max":176,"target":"present","response":"absent","rt":711.70000004768,"correct":false,"confidence":4},{"trial_n":47,"min":78,"max":177,"target":"present","response":"present","rt":1444.2000000477,"correct":true,"confidence":4},{"trial_n":48,"min":78,"max":177,"target":"absent","response":"absent","rt":397.20000004768,"correct":true,"confidence":3},{"trial_n":49,"min":79,"max":176,"target":"absent","response":"absent","rt":853,"correct":true,"confidence":3},{"trial_n":50,"min":79,"max":176,"target":"present","response":"absent","rt":876.30000007153,"correct":false,"confidence":4},{"trial_n":51,"min":78,"max":177,"target":"absent","response":"absent","rt":569.70000004768,"correct":true,"confidence":3},{"trial_n":52,"min":78,"max":177,"target":"absent","response":"absent","rt":522,"correct":true,"confidence":4},{"trial_n":53,"min":79,"max":176,"target":"absent","response":"absent","rt":593.89999997616,"correct":true,"confidence":4},{"trial_n":54,"min":79,"max":176,"target":"absent","response":"absent","rt":529.30000007153,"correct":true,"confidence":4},{"trial_n":55,"min":80,"max":175,"target":"present","response":"present","rt":415.79999995232,"correct":true,"confidence":4},{"trial_n":56,"min":80,"max":175,"target":"present","response":"present","rt":431.30000007153,"correct":true,"confidence":4},{"trial_n":57,"min":81,"max":174,"target":"absent","response":"absent","rt":915.60000002384,"correct":true,"confidence":5},{"trial_n":58,"min":81,"max":174,"target":"absent","response":"absent","rt":658.19999992847,"correct":true,"confidence":4},{"trial_n":59,"min":82,"max":173,"target":"present","response":"present","rt":1156.1000000238,"correct":true,"confidence":3},{"trial_n":60,"min":82,"max":173,"target":"absent","response":"absent","rt":1286.5,"correct":true,"confidence":2},{"trial_n":61,"min":83,"max":172,"target":"present","response":"present","rt":336.70000004768,"correct":true,"confidence":4},{"trial_n":62,"min":83,"max":172,"target":"present","response":"present","rt":491.10000002384,"correct":true,"confidence":4},{"trial_n":63,"min":84,"max":171,"target":"absent","response":"absent","rt":1546.8000000715,"correct":true,"confidence":3},{"trial_n":64,"min":84,"max":171,"target":"present","response":"absent","rt":599,"correct":false,"confidence":4},{"trial_n":65,"min":83,"max":172,"target":"present","response":"present","rt":358.29999995232,"correct":true,"confidence":3},{"trial_n":66,"min":83,"max":172,"target":"absent","response":"absent","rt":1146,"correct":true,"confidence":2},{"trial_n":67,"min":84,"max":171,"target":"present","response":"present","rt":272,"correct":true,"confidence":5},{"trial_n":68,"min":84,"max":171,"target":"present","response":"present","rt":353.39999997616,"correct":true,"confidence":5},{"trial_n":69,"min":85,"max":170,"target":"absent","response":"present","rt":476.70000004768,"correct":false,"confidence":2},{"trial_n":70,"min":84,"max":171,"target":"present","response":"absent","rt":1634.9000000954,"correct":false,"confidence":3},{"trial_n":71,"min":41,"max":214,"target":"present","response":"present","rt":4204.6999999285,"correct":true,"confidence":-1},{"trial_n":72,"min":41,"max":214,"target":"present","response":"present","rt":938.89999997616,"correct":true,"confidence":-1},{"trial_n":73,"min":57,"max":198,"target":"absent","response":"absent","rt":478.5,"correct":true,"confidence":-1},{"trial_n":74,"min":57,"max":198,"target":"absent","response":"absent","rt":421.90000009537,"correct":true,"confidence":-1},{"trial_n":75,"min":73,"max":182,"target":"present","response":"present","rt":317.29999995232,"correct":true,"confidence":-1},{"trial_n":76,"min":73,"max":182,"target":"absent","response":"absent","rt":278.70000004768,"correct":true,"confidence":-1},{"trial_n":77,"min":89,"max":166,"target":"absent","response":"absent","rt":307.59999990463,"correct":true,"confidence":-1},{"trial_n":78,"min":89,"max":166,"target":"present","response":"present","rt":587.19999992847,"correct":true,"confidence":-1},{"trial_n":79,"min":105,"max":150,"target":"present","response":"absent","rt":890.5,"correct":false,"confidence":-1},{"trial_n":80,"min":89,"max":166,"target":"absent","response":"present","rt":694.90000009537,"correct":false,"confidence":-1},{"trial_n":81,"min":81,"max":174,"target":"present","response":"present","rt":302.69999992847,"correct":true,"confidence":-1},{"trial_n":82,"min":81,"max":174,"target":"present","response":"present","rt":306.60000002384,"correct":true,"confidence":-1},{"trial_n":83,"min":89,"max":166,"target":"absent","response":"absent","rt":1123.9000000954,"correct":true,"confidence":-1},{"trial_n":84,"min":89,"max":166,"target":"absent","response":"present","rt":649.10000002384,"correct":false,"confidence":-1},{"trial_n":85,"min":81,"max":174,"target":"absent","response":"absent","rt":370.60000002384,"correct":true,"confidence":-1},{"trial_n":86,"min":81,"max":174,"target":"present","response":"absent","rt":1697.0999999046,"correct":false,"confidence":-1},{"trial_n":87,"min":73,"max":182,"target":"absent","response":"absent","rt":1273.2000000477,"correct":true,"confidence":-1},{"trial_n":88,"min":73,"max":182,"target":"present","response":"present","rt":889,"correct":true,"confidence":-1},{"trial_n":89,"min":81,"max":174,"target":"present","response":"present","rt":368.29999995232,"correct":true,"confidence":-1},{"trial_n":90,"min":81,"max":174,"target":"absent","response":"absent","rt":494.30000007153,"correct":true,"confidence":-1},{"trial_n":91,"min":85,"max":170,"target":"present","response":"present","rt":495.10000002384,"correct":true,"confidence":4},{"trial_n":92,"min":85,"max":170,"target":"present","response":"present","rt":604.80000007153,"correct":true,"confidence":5},{"trial_n":93,"min":89,"max":166,"target":"absent","response":"absent","rt":671.80000007153,"correct":true,"confidence":4},{"trial_n":94,"min":89,"max":166,"target":"absent","response":"absent","rt":1146.8999999762,"correct":true,"confidence":2},{"trial_n":95,"min":93,"max":162,"target":"absent","response":"absent","rt":1250.6999999285,"correct":true,"confidence":3},{"trial_n":96,"min":93,"max":162,"target":"present","response":"present","rt":1588,"correct":true,"confidence":3},{"trial_n":97,"min":97,"max":158,"target":"present","response":"absent","rt":1048.6000000238,"correct":false,"confidence":2},{"trial_n":98,"min":93,"max":162,"target":"present","response":"present","rt":920.20000004768,"correct":true,"confidence":3},{"trial_n":99,"min":93,"max":162,"target":"absent","response":"absent","rt":871.09999990463,"correct":true,"confidence":3},{"trial_n":100,"min":97,"max":158,"target":"absent","response":"present","rt":2595.6000000238,"correct":false,"confidence":2},{"trial_n":101,"min":95,"max":160,"target":"present","response":"present","rt":1487.1000000238,"correct":true,"confidence":4},{"trial_n":102,"min":95,"max":160,"target":"absent","response":"present","rt":1313.2999999523,"correct":false,"confidence":3},{"trial_n":103,"min":93,"max":162,"target":"present","response":"absent","rt":666.10000002384,"correct":false,"confidence":2},{"trial_n":104,"min":91,"max":164,"target":"present","response":"present","rt":260.10000002384,"correct":true,"confidence":4},{"trial_n":105,"min":91,"max":164,"target":"absent","response":"absent","rt":545.79999995232,"correct":true,"confidence":5},{"trial_n":106,"min":93,"max":162,"target":"present","response":"absent","rt":978.5,"correct":false,"confidence":3},{"trial_n":107,"min":91,"max":164,"target":"absent","response":"absent","rt":1067.2999999523,"correct":true,"confidence":2},{"trial_n":108,"min":91,"max":164,"target":"absent","response":"absent","rt":663.10000002384,"correct":true,"confidence":3},{"trial_n":109,"min":93,"max":162,"target":"absent","response":"absent","rt":1506.5,"correct":true,"confidence":4},{"trial_n":110,"min":93,"max":162,"target":"present","response":"present","rt":383.79999995232,"correct":true,"confidence":2},{"trial_n":111,"min":94,"max":161,"target":"absent","response":"absent","rt":359.20000004768,"correct":true,"confidence":3},{"trial_n":112,"min":94,"max":161,"target":"present","response":"absent","rt":2506.1999999285,"correct":false,"confidence":3},{"trial_n":113,"min":93,"max":162,"target":"present","response":"absent","rt":782.89999997616,"correct":false,"confidence":3},{"trial_n":114,"min":92,"max":163,"target":"absent","response":"absent","rt":1738.6000000238,"correct":true,"confidence":4},{"trial_n":115,"min":92,"max":163,"target":"present","response":"absent","rt":2627.9000000954,"correct":false,"confidence":1},{"trial_n":116,"min":91,"max":164,"target":"present","response":"present","rt":539.29999995232,"correct":true,"confidence":2},{"trial_n":117,"min":91,"max":164,"target":"present","response":"absent","rt":501.5,"correct":false,"confidence":2},{"trial_n":118,"min":90,"max":165,"target":"present","response":"present","rt":994.5,"correct":true,"confidence":3},{"trial_n":119,"min":90,"max":165,"target":"absent","response":"present","rt":1101.5999999046,"correct":false,"confidence":4},{"trial_n":120,"min":89,"max":166,"target":"present","response":"present","rt":852.29999995232,"correct":true,"confidence":3},{"trial_n":121,"min":89,"max":166,"target":"present","response":"present","rt":470.10000002384,"correct":true,"confidence":3},{"trial_n":122,"min":90,"max":165,"target":"absent","response":"absent","rt":473.5,"correct":true,"confidence":2},{"trial_n":123,"min":90,"max":165,"target":"absent","response":"absent","rt":702.30000007153,"correct":true,"confidence":3},{"trial_n":124,"min":91,"max":164,"target":"absent","response":"absent","rt":1304.2000000477,"correct":true,"confidence":2},{"trial_n":125,"min":91,"max":164,"target":"present","response":"absent","rt":2588.1000000238,"correct":false,"confidence":1},{"trial_n":126,"min":90,"max":165,"target":"absent","response":"absent","rt":2044.3000000715,"correct":true,"confidence":3},{"trial_n":127,"min":90,"max":165,"target":"absent","response":"absent","rt":4097.3000000715,"correct":true,"confidence":3},{"trial_n":128,"min":91,"max":164,"target":"present","response":"present","rt":1827.6000000238,"correct":true,"confidence":4},{"trial_n":129,"min":91,"max":164,"target":"present","response":"absent","rt":2354,"correct":false,"confidence":3},{"trial_n":130,"min":90,"max":165,"target":"present","response":"present","rt":1885.8000000715,"correct":true,"confidence":3},{"trial_n":131,"min":90,"max":165,"target":"absent","response":"absent","rt":888,"correct":true,"confidence":3},{"trial_n":132,"min":91,"max":164,"target":"absent","response":"absent","rt":915,"correct":true,"confidence":3},{"trial_n":133,"min":91,"max":164,"target":"absent","response":"present","rt":2037.8999999762,"correct":false,"confidence":1},{"trial_n":134,"min":90,"max":165,"target":"absent","response":"absent","rt":806.5,"correct":true,"confidence":1},{"trial_n":135,"min":90,"max":165,"target":"present","response":"absent","rt":1458.6000000238,"correct":false,"confidence":1},{"trial_n":136,"min":89,"max":166,"target":"absent","response":"present","rt":711.79999995232,"correct":false,"confidence":1},{"trial_n":137,"min":88,"max":167,"target":"present","response":"absent","rt":739.69999992847,"correct":false,"confidence":3},{"trial_n":138,"min":87,"max":168,"target":"present","response":"absent","rt":1003.2999999523,"correct":false,"confidence":3},{"trial_n":139,"min":86,"max":169,"target":"present","response":"absent","rt":2847,"correct":false,"confidence":2},{"trial_n":140,"min":85,"max":170,"target":"absent","response":"absent","rt":1508.6000000238,"correct":true,"confidence":1}]