[{"trial_n":1,"n_dots":4.25,"target":"right","response":"right","rt":6733,"correct":true,"confidence":-1},{"trial_n":2,"n_dots":4.25,"target":"right","response":"left","rt":986.00000000001,"correct":false,"confidence":-1},{"trial_n":3,"n_dots":4.65,"target":"left","response":"left","rt":456.00000000001,"correct":true,"confidence":-1},{"trial_n":4,"n_dots":4.65,"target":"right","response":"right","rt":599.00000000001,"correct":true,"confidence":-1},{"trial_n":5,"n_dots":4.25,"target":"right","response":"right","rt":475,"correct":true,"confidence":-1},{"trial_n":6,"n_dots":4.25,"target":"right","response":"right","rt":783.99999999999,"correct":true,"confidence":-1},{"trial_n":7,"n_dots":3.85,"target":"left","response":"left","rt":485,"correct":true,"confidence":-1},{"trial_n":8,"n_dots":3.85,"target":"left","response":"left","rt":453.00000000001,"correct":true,"confidence":-1},{"trial_n":9,"n_dots":3.65,"target":"left","response":"left","rt":443,"correct":true,"confidence":-1},{"trial_n":10,"n_dots":3.65,"target":"left","response":"right","rt":461,"correct":false,"confidence":-1},{"trial_n":11,"n_dots":3.85,"target":"right","response":"right","rt":386,"correct":true,"confidence":-1},{"trial_n":12,"n_dots":3.85,"target":"left","response":"left","rt":370,"correct":true,"confidence":-1},{"trial_n":13,"n_dots":3.75,"target":"left","response":"left","rt":411,"correct":true,"confidence":-1},{"trial_n":14,"n_dots":3.75,"target":"right","response":"right","rt":454.99999999999,"correct":true,"confidence":-1},{"trial_n":15,"n_dots":3.65,"target":"left","response":"left","rt":384,"correct":true,"confidence":-1},{"trial_n":16,"n_dots":3.65,"target":"right","response":"right","rt":587,"correct":true,"confidence":-1},{"trial_n":17,"n_dots":3.55,"target":"right","response":"left","rt":396.99999999999,"correct":false,"confidence":-1},{"trial_n":18,"n_dots":3.65,"target":"right","response":"right","rt":704.99999999999,"correct":true,"confidence":-1},{"trial_n":19,"n_dots":3.65,"target":"left","response":"left","rt":545,"correct":true,"confidence":-1},{"trial_n":20,"n_dots":3.55,"target":"left","response":"left","rt":381,"correct":true,"confidence":-1},{"trial_n":21,"n_dots":3.55,"target":"right","response":"left","rt":368,"correct":false,"confidence":4},{"trial_n":22,"n_dots":3.65,"target":"left","response":"left","rt":789,"correct":true,"confidence":3},{"trial_n":23,"n_dots":3.65,"target":"left","response":"left","rt":1389,"correct":true,"confidence":4},{"trial_n":24,"n_dots":3.55,"target":"left","response":"left","rt":1061,"correct":true,"confidence":3},{"trial_n":25,"n_dots":3.55,"target":"left","response":"right","rt":1789,"correct":false,"confidence":2},{"trial_n":26,"n_dots":3.65,"target":"right","response":"right","rt":1193,"correct":true,"confidence":2},{"trial_n":27,"n_dots":3.65,"target":"right","response":"left","rt":895,"correct":false,"confidence":3},{"trial_n":28,"n_dots":3.75,"target":"left","response":"left","rt":749,"correct":true,"confidence":4},{"trial_n":29,"n_dots":3.75,"target":"left","response":"left","rt":801,"correct":true,"confidence":4},{"trial_n":30,"n_dots":3.65,"target":"right","response":"left","rt":997,"correct":false,"confidence":2},{"trial_n":31,"n_dots":3.75,"target":"right","response":"right","rt":1170,"correct":true,"confidence":1},{"trial_n":32,"n_dots":3.75,"target":"left","response":"left","rt":1696,"correct":true,"confidence":2},{"trial_n":33,"n_dots":3.65,"target":"right","response":"right","rt":834,"correct":true,"confidence":3},{"trial_n":34,"n_dots":3.65,"target":"left","response":"left","rt":1011,"correct":true,"confidence":2},{"trial_n":35,"n_dots":3.55,"target":"left","response":"left","rt":956,"correct":true,"confidence":2},{"trial_n":36,"n_dots":3.55,"target":"left","response":"left","rt":875,"correct":true,"confidence":3},{"trial_n":37,"n_dots":3.45,"target":"right","response":"right","rt":912,"correct":true,"confidence":2},{"trial_n":38,"n_dots":3.45,"target":"right","response":"right","rt":955,"correct":true,"confidence":2},{"trial_n":39,"n_dots":3.35,"target":"left","response":"left","rt":872,"correct":true,"confidence":3},{"trial_n":40,"n_dots":3.35,"target":"left","response":"left","rt":685,"correct":true,"confidence":3},{"trial_n":41,"n_dots":3.25,"target":"left","response":"left","rt":995,"correct":true,"confidence":2},{"trial_n":42,"n_dots":3.25,"target":"left","response":"right","rt":1125,"correct":false,"confidence":1},{"trial_n":43,"n_dots":3.35,"target":"right","response":"right","rt":918,"correct":true,"confidence":1},{"trial_n":44,"n_dots":3.35,"target":"left","response":"left","rt":848.00000000003,"correct":true,"confidence":2},{"trial_n":45,"n_dots":3.25,"target":"right","response":"right","rt":1051,"correct":true,"confidence":2},{"trial_n":46,"n_dots":3.25,"target":"right","response":"right","rt":1940,"correct":true,"confidence":2},{"trial_n":47,"n_dots":3.15,"target":"right","response":"right","rt":997.00000000003,"correct":true,"confidence":1},{"trial_n":48,"n_dots":3.15,"target":"left","response":"left","rt":837,"correct":true,"confidence":2},{"trial_n":49,"n_dots":3.05,"target":"left","response":"left","rt":1671,"correct":true,"confidence":1},{"trial_n":50,"n_dots":3.05,"target":"right","response":"right","rt":715,"correct":true,"confidence":3},{"trial_n":51,"n_dots":2.95,"target":"left","response":"right","rt":972.99999999994,"correct":false,"confidence":2},{"trial_n":52,"n_dots":3.05,"target":"right","response":"right","rt":780,"correct":true,"confidence":2},{"trial_n":53,"n_dots":3.05,"target":"right","response":"right","rt":1600,"correct":true,"confidence":2},{"trial_n":54,"n_dots":2.95,"target":"right","response":"right","rt":651,"correct":true,"confidence":2},{"trial_n":55,"n_dots":2.95,"target":"right","response":"right","rt":640,"correct":true,"confidence":2},{"trial_n":56,"n_dots":2.85,"target":"right","response":"right","rt":649,"correct":true,"confidence":3},{"trial_n":57,"n_dots":2.85,"target":"right","response":"right","rt":846,"correct":true,"confidence":1},{"trial_n":58,"n_dots":2.75,"target":"right","response":"left","rt":882,"correct":false,"confidence":1},{"trial_n":59,"n_dots":2.85,"target":"right","response":"left","rt":1365,"correct":false,"confidence":2},{"trial_n":60,"n_dots":2.95,"target":"left","response":"left","rt":885.00000000006,"correct":true,"confidence":2},{"trial_n":61,"n_dots":2.95,"target":"left","response":"right","rt":726,"correct":false,"confidence":2},{"trial_n":62,"n_dots":3.05,"target":"left","response":"left","rt":652,"correct":true,"confidence":4},{"trial_n":63,"n_dots":3.05,"target":"right","response":"right","rt":756,"correct":true,"confidence":3},{"trial_n":64,"n_dots":2.95,"target":"right","response":"right","rt":791,"correct":true,"confidence":3},{"trial_n":65,"n_dots":2.95,"target":"right","response":"right","rt":879,"correct":true,"confidence":2},{"trial_n":66,"n_dots":2.85,"target":"left","response":"right","rt":818.00000000006,"correct":false,"confidence":2},{"trial_n":67,"n_dots":2.95,"target":"left","response":"left","rt":738,"correct":true,"confidence":2},{"trial_n":68,"n_dots":2.95,"target":"left","response":"left","rt":663,"correct":true,"confidence":3},{"trial_n":69,"n_dots":2.85,"target":"right","response":"left","rt":797,"correct":false,"confidence":2},{"trial_n":70,"n_dots":2.95,"target":"left","response":"left","rt":668.00000000006,"correct":true,"confidence":2},{"trial_n":71,"n_dots":2.95,"target":"right","response":"right","rt":852,"correct":true,"confidence":2},{"trial_n":72,"n_dots":2.85,"target":"right","response":"right","rt":1066.9999999999,"correct":true,"confidence":2},{"trial_n":73,"n_dots":2.85,"target":"right","response":"left","rt":686,"correct":false,"confidence":3},{"trial_n":74,"n_dots":2.95,"target":"left","response":"left","rt":755.00000000006,"correct":true,"confidence":2},{"trial_n":75,"n_dots":2.95,"target":"right","response":"right","rt":709,"correct":true,"confidence":2},{"trial_n":76,"n_dots":2.85,"target":"right","response":"left","rt":696,"correct":false,"confidence":3},{"trial_n":77,"n_dots":2.95,"target":"left","response":"left","rt":1542,"correct":true,"confidence":1},{"trial_n":78,"n_dots":2.95,"target":"left","response":"left","rt":811,"correct":true,"confidence":2},{"trial_n":79,"n_dots":2.85,"target":"right","response":"right","rt":1033,"correct":true,"confidence":3},{"trial_n":80,"n_dots":2.85,"target":"left","response":"left","rt":745,"correct":true,"confidence":3},{"trial_n":81,"n_dots":2.75,"target":"left","response":"left","rt":733.99999999994,"correct":true,"confidence":3},{"trial_n":82,"n_dots":2.75,"target":"left","response":"left","rt":828.99999999994,"correct":true,"confidence":1},{"trial_n":83,"n_dots":2.65,"target":"left","response":"left","rt":791.99999999994,"correct":true,"confidence":3},{"trial_n":84,"n_dots":2.65,"target":"left","response":"left","rt":703,"correct":true,"confidence":3},{"trial_n":85,"n_dots":2.55,"target":"left","response":"left","rt":798,"correct":true,"confidence":1},{"trial_n":86,"n_dots":2.55,"target":"right","response":"right","rt":764,"correct":true,"confidence":2},{"trial_n":87,"n_dots":2.45,"target":"left","response":"right","rt":814,"correct":false,"confidence":2},{"trial_n":88,"n_dots":2.55,"target":"right","response":"right","rt":666,"correct":true,"confidence":2},{"trial_n":89,"n_dots":2.55,"target":"right","response":"right","rt":727.00000000006,"correct":true,"confidence":1},{"trial_n":90,"n_dots":2.45,"target":"left","response":"left","rt":794,"correct":true,"confidence":3},{"trial_n":91,"n_dots":2.45,"target":"right","response":"right","rt":702,"correct":true,"confidence":2},{"trial_n":92,"n_dots":2.35,"target":"right","response":"left","rt":742.00000000012,"correct":false,"confidence":2},{"trial_n":93,"n_dots":2.45,"target":"left","response":"right","rt":776.00000000006,"correct":false,"confidence":1},{"trial_n":94,"n_dots":2.55,"target":"right","response":"left","rt":1125,"correct":false,"confidence":1},{"trial_n":95,"n_dots":2.65,"target":"right","response":"right","rt":770.99999999988,"correct":true,"confidence":2},{"trial_n":96,"n_dots":2.65,"target":"right","response":"left","rt":711,"correct":false,"confidence":2},{"trial_n":97,"n_dots":2.75,"target":"right","response":"right","rt":658,"correct":true,"confidence":3},{"trial_n":98,"n_dots":2.75,"target":"left","response":"left","rt":1004,"correct":true,"confidence":1},{"trial_n":99,"n_dots":2.65,"target":"left","response":"right","rt":682,"correct":false,"confidence":2},{"trial_n":100,"n_dots":2.75,"target":"right","response":"right","rt":738,"correct":true,"confidence":2},{"trial_n":101,"n_dots":2.75,"target":"right","response":"left","rt":644,"correct":false,"confidence":3},{"trial_n":102,"n_dots":2.85,"target":"left","response":"left","rt":743,"correct":true,"confidence":3},{"trial_n":103,"n_dots":2.85,"target":"left","response":"right","rt":700,"correct":false,"confidence":3},{"trial_n":104,"n_dots":2.95,"target":"left","response":"left","rt":773,"correct":true,"confidence":2},{"trial_n":105,"n_dots":2.95,"target":"left","response":"right","rt":660,"correct":false,"confidence":2},{"trial_n":106,"n_dots":3.05,"target":"left","response":"right","rt":738,"correct":false,"confidence":2},{"trial_n":107,"n_dots":3.15,"target":"right","response":"left","rt":862.00000000012,"correct":false,"confidence":2},{"trial_n":108,"n_dots":3.25,"target":"left","response":"right","rt":770,"correct":false,"confidence":2},{"trial_n":109,"n_dots":3.35,"target":"left","response":"right","rt":610,"correct":false,"confidence":2},{"trial_n":110,"n_dots":3.45,"target":"right","response":"right","rt":594,"correct":true,"confidence":3},{"trial_n":111,"n_dots":3.45,"target":"left","response":"left","rt":810,"correct":true,"confidence":2},{"trial_n":112,"n_dots":3.35,"target":"right","response":"left","rt":790,"correct":false,"confidence":1},{"trial_n":113,"n_dots":3.45,"target":"right","response":"right","rt":705,"correct":true,"confidence":1},{"trial_n":114,"n_dots":3.45,"target":"right","response":"left","rt":879,"correct":false,"confidence":1},{"trial_n":115,"n_dots":3.55,"target":"left","response":"left","rt":682,"correct":true,"confidence":4},{"trial_n":116,"n_dots":3.55,"target":"left","response":"left","rt":860,"correct":true,"confidence":3},{"trial_n":117,"n_dots":3.45,"target":"right","response":"right","rt":933,"correct":true,"confidence":2},{"trial_n":118,"n_dots":3.45,"target":"right","response":"right","rt":842,"correct":true,"confidence":1},{"trial_n":119,"n_dots":3.35,"target":"left","response":"right","rt":1172,"correct":false,"confidence":1},{"trial_n":120,"n_dots":3.45,"target":"right","response":"right","rt":753,"correct":true,"confidence":2}]