[{"trial_n":1,"span":8,"encoder":"82059692","distractor":"82059592","target":"present","response":"present","rt":"3703","correct":true,"confidence":-1},{"trial_n":2,"span":8,"encoder":"36235245","distractor":"36235275","target":"present","response":"absent","rt":"5128","correct":false,"confidence":-1},{"trial_n":3,"span":6,"encoder":"063407","distractor":"063437","target":"absent","response":"absent","rt":"2783","correct":true,"confidence":-1},{"trial_n":4,"span":6,"encoder":"788182","distractor":"787182","target":"absent","response":"absent","rt":"4870","correct":true,"confidence":-1},{"trial_n":5,"span":8,"encoder":"93714889","distractor":"95714889","target":"present","response":"absent","rt":"3206","correct":false,"confidence":-1},{"trial_n":6,"span":6,"encoder":"041708","distractor":"041705","target":"absent","response":"present","rt":"3717","correct":false,"confidence":-1},{"trial_n":7,"span":4,"encoder":"6999","distractor":"9999","target":"present","response":"present","rt":"3154","correct":true,"confidence":-1},{"trial_n":8,"span":4,"encoder":"0561","distractor":"0565","target":"absent","response":"absent","rt":"1532","correct":true,"confidence":-1},{"trial_n":9,"span":6,"encoder":"404981","distractor":"405981","target":"absent","response":"present","rt":"3792","correct":false,"confidence":-1},{"trial_n":10,"span":4,"encoder":"1544","distractor":"1504","target":"absent","response":"present","rt":"2167","correct":false,"confidence":-1},{"trial_n":11,"span":2,"encoder":"86","distractor":"81","target":"absent","response":"absent","rt":"1551","correct":true,"confidence":-1},{"trial_n":12,"span":2,"encoder":"46","distractor":"49","target":"absent","response":"absent","rt":"1205","correct":true,"confidence":-1},{"trial_n":13,"span":3,"encoder":"087","distractor":"097","target":"absent","response":"absent","rt":"1195","correct":true,"confidence":-1},{"trial_n":14,"span":3,"encoder":"693","distractor":"293","target":"present","response":"present","rt":"838","correct":true,"confidence":-1},{"trial_n":15,"span":4,"encoder":"0994","distractor":"0984","target":"absent","response":"absent","rt":"1164","correct":true,"confidence":-1},{"trial_n":16,"span":4,"encoder":"1686","distractor":"3686","target":"absent","response":"present","rt":"1709","correct":false,"confidence":-1},{"trial_n":17,"span":3,"encoder":"213","distractor":"283","target":"absent","response":"absent","rt":"1429","correct":true,"confidence":-1},{"trial_n":18,"span":3,"encoder":"923","distractor":"926","target":"present","response":"present","rt":"862","correct":true,"confidence":-1},{"trial_n":19,"span":4,"encoder":"3640","distractor":"3600","target":"present","response":"present","rt":"1161","correct":true,"confidence":-1},{"trial_n":20,"span":4,"encoder":"5637","distractor":"0637","target":"present","response":"present","rt":"705","correct":true,"confidence":-1},{"trial_n":21,"span":5,"encoder":"42802","distractor":"12802","target":"present","response":"present","rt":"2178","correct":true,"confidence":4},{"trial_n":22,"span":5,"encoder":"48576","distractor":"48526","target":"present","response":"present","rt":"1876","correct":true,"confidence":4},{"trial_n":23,"span":6,"encoder":"880057","distractor":"850057","target":"absent","response":"absent","rt":"1692","correct":true,"confidence":4},{"trial_n":24,"span":6,"encoder":"516362","distractor":"616362","target":"present","response":"present","rt":"1938","correct":true,"confidence":4},{"trial_n":25,"span":7,"encoder":"1381664","distractor":"1381644","target":"present","response":"present","rt":"2776","correct":true,"confidence":4},{"trial_n":26,"span":7,"encoder":"7416093","distractor":"7416090","target":"absent","response":"absent","rt":"2664","correct":true,"confidence":4},{"trial_n":27,"span":8,"encoder":"60832799","distractor":"60832399","target":"present","response":"absent","rt":"6150","correct":false,"confidence":3},{"trial_n":28,"span":7,"encoder":"4532463","distractor":"4932463","target":"present","response":"absent","rt":"4636.0000000001","correct":false,"confidence":4},{"trial_n":29,"span":6,"encoder":"272278","distractor":"272378","target":"present","response":"present","rt":"1967","correct":true,"confidence":4},{"trial_n":30,"span":6,"encoder":"470999","distractor":"470991","target":"present","response":"present","rt":"1462","correct":true,"confidence":4},{"trial_n":31,"span":7,"encoder":"7171558","distractor":"6171558","target":"absent","response":"absent","rt":"1995","correct":true,"confidence":4},{"trial_n":32,"span":7,"encoder":"9700187","distractor":"9700182","target":"absent","response":"absent","rt":"2838","correct":true,"confidence":4},{"trial_n":33,"span":8,"encoder":"20352099","distractor":"20342099","target":"present","response":"present","rt":"3652","correct":true,"confidence":3},{"trial_n":34,"span":8,"encoder":"51738776","distractor":"51238776","target":"present","response":"present","rt":"5555","correct":true,"confidence":3},{"trial_n":35,"span":9,"encoder":"392108764","distractor":"392118764","target":"absent","response":"absent","rt":"2951.0000000001","correct":true,"confidence":4},{"trial_n":36,"span":9,"encoder":"664690118","distractor":"364690118","target":"present","response":"present","rt":"2936","correct":true,"confidence":4},{"trial_n":37,"span":10,"encoder":"2422126587","distractor":"2922126587","target":"absent","response":"present","rt":"3183","correct":false,"confidence":4},{"trial_n":38,"span":9,"encoder":"097939446","distractor":"897939446","target":"present","response":"present","rt":"2536.0000000001","correct":true,"confidence":4},{"trial_n":39,"span":9,"encoder":"849652487","distractor":"849652457","target":"absent","response":"absent","rt":"2170","correct":true,"confidence":3},{"trial_n":40,"span":10,"encoder":"8152938520","distractor":"8151938520","target":"absent","response":"absent","rt":"3907","correct":true,"confidence":4},{"trial_n":41,"span":10,"encoder":"0621158975","distractor":"0621156975","target":"present","response":"present","rt":"4405","correct":true,"confidence":3},{"trial_n":42,"span":11,"encoder":"68585641866","distractor":"68535641866","target":"present","response":"absent","rt":"7825","correct":false,"confidence":4},{"trial_n":43,"span":10,"encoder":"3691163135","distractor":"3691163136","target":"present","response":"present","rt":"3980.0000000001","correct":true,"confidence":4},{"trial_n":44,"span":10,"encoder":"7283377881","distractor":"7285377881","target":"absent","response":"absent","rt":"4335","correct":true,"confidence":4},{"trial_n":45,"span":11,"encoder":"45936115529","distractor":"45916115529","target":"absent","response":"present","rt":"6421.0000000001","correct":false,"confidence":3},{"trial_n":46,"span":10,"encoder":"5617296799","distractor":"5614296799","target":"absent","response":"absent","rt":"2316","correct":true,"confidence":4},{"trial_n":47,"span":10,"encoder":"6906545093","distractor":"4906545093","target":"absent","response":"absent","rt":"8839","correct":true,"confidence":3},{"trial_n":48,"span":11,"encoder":"98964234887","distractor":"98974234887","target":"present","response":"present","rt":"8710","correct":true,"confidence":3},{"trial_n":49,"span":11,"encoder":"95808588116","distractor":"90808588116","target":"absent","response":"present","rt":"9179.9999999999","correct":false,"confidence":3},{"trial_n":50,"span":10,"encoder":"9289615212","distractor":"3289615212","target":"absent","response":"absent","rt":"1686","correct":true,"confidence":3},{"trial_n":51,"span":10,"encoder":"5264741535","distractor":"5264731535","target":"present","response":"absent","rt":"4232","correct":false,"confidence":2},{"trial_n":52,"span":9,"encoder":"761136002","distractor":"761146002","target":"present","response":"present","rt":"3209","correct":true,"confidence":4},{"trial_n":53,"span":9,"encoder":"181978327","distractor":"181978827","target":"absent","response":"present","rt":"4620","correct":false,"confidence":3},{"trial_n":54,"span":8,"encoder":"37482078","distractor":"37412078","target":"present","response":"present","rt":"3856.0000000001","correct":true,"confidence":4},{"trial_n":55,"span":8,"encoder":"18638630","distractor":"18638830","target":"present","response":"present","rt":"7511","correct":true,"confidence":4},{"trial_n":56,"span":9,"encoder":"694940986","distractor":"694240986","target":"present","response":"present","rt":"3143","correct":true,"confidence":3},{"trial_n":57,"span":9,"encoder":"746163339","distractor":"746863339","target":"present","response":"absent","rt":"2981","correct":false,"confidence":3},{"trial_n":58,"span":8,"encoder":"81246418","distractor":"82246418","target":"absent","response":"absent","rt":"2755","correct":true,"confidence":4},{"trial_n":59,"span":8,"encoder":"96300150","distractor":"96300650","target":"absent","response":"absent","rt":"4687","correct":true,"confidence":3},{"trial_n":60,"span":9,"encoder":"147856997","distractor":"147856697","target":"absent","response":"absent","rt":"2067","correct":true,"confidence":5},{"trial_n":61,"span":9,"encoder":"151978046","distractor":"151979046","target":"present","response":"present","rt":"4125","correct":true,"confidence":3},{"trial_n":62,"span":10,"encoder":"0823141819","distractor":"0823641819","target":"absent","response":"absent","rt":"2996","correct":true,"confidence":4},{"trial_n":63,"span":10,"encoder":"5056734615","distractor":"5056734665","target":"absent","response":"absent","rt":"3775","correct":true,"confidence":4},{"trial_n":64,"span":11,"encoder":"64595947948","distractor":"44595947948","target":"absent","response":"present","rt":"8845","correct":false,"confidence":3},{"trial_n":65,"span":10,"encoder":"1525114537","distractor":"1523114537","target":"present","response":"present","rt":"4188","correct":true,"confidence":4},{"trial_n":66,"span":10,"encoder":"7719638233","distractor":"7019638233","target":"present","response":"present","rt":"6282","correct":true,"confidence":2},{"trial_n":67,"span":11,"encoder":"93120459572","distractor":"93120359572","target":"absent","response":"absent","rt":"4552.9999999999","correct":true,"confidence":3},{"trial_n":68,"span":11,"encoder":"97133253470","distractor":"97133253270","target":"present","response":"present","rt":"6185","correct":true,"confidence":2},{"trial_n":69,"span":12,"encoder":"545037096758","distractor":"245037096758","target":"present","response":"absent","rt":"5122","correct":false,"confidence":4},{"trial_n":70,"span":11,"encoder":"55837597747","distractor":"55837597847","target":"present","response":"absent","rt":"7313","correct":false,"confidence":3},{"trial_n":71,"span":8,"encoder":"34280773","distractor":"34280173","target":"present","response":"present","rt":"2360","correct":true,"confidence":-1},{"trial_n":72,"span":8,"encoder":"38424674","distractor":"38404674","target":"present","response":"present","rt":"3474","correct":true,"confidence":-1},{"trial_n":73,"span":9,"encoder":"786494857","distractor":"786494557","target":"absent","response":"absent","rt":"2870","correct":true,"confidence":-1},{"trial_n":74,"span":9,"encoder":"120862072","distractor":"320862072","target":"absent","response":"absent","rt":"3435","correct":true,"confidence":-1},{"trial_n":75,"span":10,"encoder":"5001669416","distractor":"5001666416","target":"present","response":"present","rt":"3142","correct":true,"confidence":-1},{"trial_n":76,"span":10,"encoder":"0465492940","distractor":"0465492941","target":"absent","response":"absent","rt":"4019","correct":true,"confidence":-1},{"trial_n":77,"span":11,"encoder":"20513963189","distractor":"20313963189","target":"present","response":"present","rt":"5272.0000000001","correct":true,"confidence":-1},{"trial_n":78,"span":11,"encoder":"57486245231","distractor":"57486245281","target":"present","response":"present","rt":"2375","correct":true,"confidence":-1},{"trial_n":79,"span":12,"encoder":"194939437518","distractor":"194938437518","target":"present","response":"present","rt":"8559.9999999999","correct":true,"confidence":-1},{"trial_n":80,"span":12,"encoder":"541669546503","distractor":"541869546503","target":"present","response":"present","rt":"1491","correct":true,"confidence":-1},{"trial_n":81,"span":13,"encoder":"7102858545053","distractor":"7102858745053","target":"present","response":"present","rt":"10385","correct":true,"confidence":-1},{"trial_n":82,"span":13,"encoder":"9728394956013","distractor":"9728394956213","target":"absent","response":"present","rt":"4212.9999999999","correct":false,"confidence":-1},{"trial_n":83,"span":12,"encoder":"266127143231","distractor":"266127149231","target":"absent","response":"absent","rt":"9843.9999999999","correct":true,"confidence":-1},{"trial_n":84,"span":12,"encoder":"955950558124","distractor":"955950558134","target":"absent","response":"absent","rt":"7707","correct":true,"confidence":-1},{"trial_n":85,"span":13,"encoder":"5992374729555","distractor":"5992374729575","target":"absent","response":"absent","rt":"3039","correct":true,"confidence":-1},{"trial_n":86,"span":13,"encoder":"4397121813804","distractor":"4397121863804","target":"absent","response":"absent","rt":"7781","correct":true,"confidence":-1},{"trial_n":87,"span":14,"encoder":"13358898935374","distractor":"93358898935374","target":"present","response":"absent","rt":"4798.9999999999","correct":false,"confidence":-1},{"trial_n":88,"span":13,"encoder":"4482672800401","distractor":"4422672800401","target":"present","response":"present","rt":"4795","correct":true,"confidence":-1},{"trial_n":89,"span":13,"encoder":"9523798742754","distractor":"9523798742756","target":"present","response":"absent","rt":"11078","correct":false,"confidence":-1},{"trial_n":90,"span":12,"encoder":"612572012536","distractor":"612972012536","target":"absent","response":"absent","rt":"3997","correct":true,"confidence":-1},{"trial_n":91,"span":12,"encoder":"393042912481","distractor":"393002912481","target":"absent","response":"absent","rt":"5277","correct":true,"confidence":4},{"trial_n":92,"span":13,"encoder":"8703156993404","distractor":"8703156993494","target":"absent","response":"present","rt":"10219","correct":false,"confidence":3},{"trial_n":93,"span":12,"encoder":"679423701330","distractor":"679423771330","target":"absent","response":"absent","rt":"4881","correct":true,"confidence":4},{"trial_n":94,"span":12,"encoder":"370124647722","distractor":"370104647722","target":"present","response":"present","rt":"14777","correct":true,"confidence":3},{"trial_n":95,"span":13,"encoder":"2217834362403","distractor":"2217834562403","target":"present","response":"present","rt":"8232.9999999998","correct":true,"confidence":3},{"trial_n":96,"span":13,"encoder":"3725614077505","distractor":"3225614077505","target":"absent","response":"absent","rt":"5384.9999999998","correct":true,"confidence":4},{"trial_n":97,"span":14,"encoder":"57947985965041","distractor":"57947925965041","target":"absent","response":"absent","rt":"15584","correct":true,"confidence":3},{"trial_n":98,"span":14,"encoder":"71819594077034","distractor":"71219594077034","target":"absent","response":"absent","rt":"5110","correct":true,"confidence":3},{"trial_n":99,"span":15,"encoder":"734377544124892","distractor":"734377544124842","target":"absent","response":"absent","rt":"7611","correct":true,"confidence":4},{"trial_n":100,"span":15,"encoder":"536366448399871","distractor":"537366448399871","target":"absent","response":"absent","rt":"10169","correct":true,"confidence":4},{"trial_n":101,"span":16,"encoder":"7834947146269991","distractor":"7834945146269991","target":"present","response":"present","rt":"8274.9999999998","correct":true,"confidence":4},{"trial_n":102,"span":16,"encoder":"2980276736712539","distractor":"2980276796712539","target":"absent","response":"absent","rt":"7485","correct":true,"confidence":3},{"trial_n":103,"span":17,"encoder":"18132961964695524","distractor":"18132961964695525","target":"absent","response":"absent","rt":"3865","correct":true,"confidence":5},{"trial_n":104,"span":17,"encoder":"66625823439762526","distractor":"66625823439762226","target":"present","response":"present","rt":"9461","correct":true,"confidence":5},{"trial_n":105,"span":18,"encoder":"734097285036901119","distractor":"734597285036901119","target":"present","response":"present","rt":"10932","correct":true,"confidence":3},{"trial_n":106,"span":18,"encoder":"941743121689235664","distractor":"941743121689435664","target":"absent","response":"present","rt":"11838","correct":false,"confidence":3},{"trial_n":107,"span":17,"encoder":"79960643775515400","distractor":"79960643775519400","target":"absent","response":"absent","rt":"7842","correct":true,"confidence":3},{"trial_n":108,"span":17,"encoder":"97366908462388885","distractor":"97366906462388885","target":"absent","response":"absent","rt":"9404.9999999998","correct":true,"confidence":3},{"trial_n":109,"span":18,"encoder":"659868684431602737","distractor":"659863684431602737","target":"absent","response":"present","rt":"6079","correct":false,"confidence":3},{"trial_n":110,"span":17,"encoder":"92315509838274615","distractor":"92315509808274615","target":"absent","response":"absent","rt":"9616","correct":true,"confidence":4},{"trial_n":111,"span":17,"encoder":"77147708419754428","distractor":"77147708419454428","target":"absent","response":"present","rt":"6735","correct":false,"confidence":3},{"trial_n":112,"span":16,"encoder":"8370759750751843","distractor":"8370759750751143","target":"present","response":"present","rt":"3223","correct":true,"confidence":4},{"trial_n":113,"span":16,"encoder":"1365657322110056","distractor":"1365657321110056","target":"absent","response":"absent","rt":"4847","correct":true,"confidence":5},{"trial_n":114,"span":17,"encoder":"80494277933777788","distractor":"80494217933777788","target":"absent","response":"absent","rt":"5633","correct":true,"confidence":3},{"trial_n":115,"span":17,"encoder":"02578163883784276","distractor":"02574163883784276","target":"present","response":"present","rt":"5027","correct":true,"confidence":4},{"trial_n":116,"span":18,"encoder":"460408243868892287","distractor":"460408243868892217","target":"absent","response":"absent","rt":"4466","correct":true,"confidence":4},{"trial_n":117,"span":18,"encoder":"775893194728742144","distractor":"773893194728742144","target":"present","response":"present","rt":"5237","correct":true,"confidence":3},{"trial_n":118,"span":19,"encoder":"9564828275422145847","distractor":"9563828275422145847","target":"present","response":"present","rt":"14060","correct":true,"confidence":4},{"trial_n":119,"span":19,"encoder":"8799622125154407544","distractor":"8799622125159407544","target":"present","response":"present","rt":"6099.0000000002","correct":true,"confidence":4},{"trial_n":120,"span":20,"encoder":"14605875338763547676","distractor":"14608875338763547676","target":"absent","response":"absent","rt":"5809.9999999998","correct":true,"confidence":3},{"trial_n":121,"span":20,"encoder":"38741787778508211717","distractor":"38741787278508211717","target":"present","response":"present","rt":"4949.9999999998","correct":true,"confidence":5},{"trial_n":122,"span":21,"encoder":"605534511671540201641","distractor":"205534511671540201641","target":"present","response":"present","rt":"7966.9999999998","correct":true,"confidence":3},{"trial_n":123,"span":21,"encoder":"306628185369844685089","distractor":"306629185369844685089","target":"absent","response":"absent","rt":"6793","correct":true,"confidence":3},{"trial_n":124,"span":22,"encoder":"1377273736184635554195","distractor":"1377273736181635554195","target":"present","response":"absent","rt":"10009","correct":false,"confidence":4},{"trial_n":125,"span":21,"encoder":"088263756819479485027","distractor":"088253756819479485027","target":"present","response":"absent","rt":"10660","correct":false,"confidence":3},{"trial_n":126,"span":20,"encoder":"26568827368311023689","distractor":"26568827368311023687","target":"present","response":"present","rt":"7870","correct":true,"confidence":4},{"trial_n":127,"span":20,"encoder":"13573724115303997942","distractor":"13573720115303997942","target":"present","response":"absent","rt":"3855","correct":false,"confidence":3},{"trial_n":128,"span":19,"encoder":"8430592928921538321","distractor":"8430596928921538321","target":"present","response":"absent","rt":"9929","correct":false,"confidence":4},{"trial_n":129,"span":18,"encoder":"480367171908395583","distractor":"480367171908399583","target":"absent","response":"absent","rt":"7323","correct":true,"confidence":1},{"trial_n":130,"span":18,"encoder":"587821864455521064","distractor":"587821864455521034","target":"absent","response":"present","rt":"1084","correct":false,"confidence":3},{"trial_n":131,"span":17,"encoder":"00440443116451671","distractor":"00440443016451671","target":"absent","response":"absent","rt":"7444.9999999995","correct":true,"confidence":4},{"trial_n":132,"span":17,"encoder":"93551387393041350","distractor":"93552387393041350","target":"present","response":"present","rt":"6369","correct":true,"confidence":3},{"trial_n":133,"span":18,"encoder":"294074770207387401","distractor":"294074710207387401","target":"present","response":"present","rt":"7003","correct":true,"confidence":4},{"trial_n":134,"span":18,"encoder":"301365466964924711","distractor":"101365466964924711","target":"present","response":"present","rt":"7035","correct":true,"confidence":4},{"trial_n":135,"span":19,"encoder":"6807381605683465562","distractor":"6807387605683465562","target":"present","response":"absent","rt":"8655","correct":false,"confidence":4},{"trial_n":136,"span":18,"encoder":"929828330215159919","distractor":"925828330215159919","target":"present","response":"absent","rt":"6781","correct":false,"confidence":3},{"trial_n":137,"span":17,"encoder":"06660321936250229","distractor":"06660121936250229","target":"present","response":"absent","rt":"5104","correct":false,"confidence":4},{"trial_n":138,"span":16,"encoder":"9115649260406724","distractor":"9115649560406724","target":"present","response":"present","rt":"4240","correct":true,"confidence":4},{"trial_n":139,"span":16,"encoder":"1359854389514528","distractor":"1339854389514528","target":"present","response":"present","rt":"4230.9999999995","correct":true,"confidence":5},{"trial_n":140,"span":17,"encoder":"67813336219992107","distractor":"67813336229992107","target":"absent","response":"absent","rt":"6659","correct":true,"confidence":4}]