[{"trial_n":1,"span":8,"encoder":"10868395","distractor":"10866395","target":"present","response":"present","rt":"3370.8000001907","correct":true,"confidence":-1},{"trial_n":2,"span":8,"encoder":"14116444","distractor":"14115444","target":"present","response":"present","rt":"1149.1999998093","correct":true,"confidence":-1},{"trial_n":3,"span":10,"encoder":"6113401867","distractor":"6113421867","target":"absent","response":"absent","rt":"3125.1999998093","correct":true,"confidence":-1},{"trial_n":4,"span":10,"encoder":"9239173828","distractor":"9539173828","target":"absent","response":"absent","rt":"1227","correct":true,"confidence":-1},{"trial_n":5,"span":12,"encoder":"302193870818","distractor":"302191870818","target":"present","response":"present","rt":"1253.3000001907","correct":true,"confidence":-1},{"trial_n":6,"span":12,"encoder":"294354166010","distractor":"294354176010","target":"present","response":"present","rt":"590","correct":true,"confidence":-1},{"trial_n":7,"span":14,"encoder":"00096850157507","distractor":"00076850157507","target":"absent","response":"absent","rt":"2083.3000001907","correct":true,"confidence":-1},{"trial_n":8,"span":14,"encoder":"04193084372193","distractor":"04193024372193","target":"present","response":"present","rt":"1565","correct":true,"confidence":-1},{"trial_n":9,"span":16,"encoder":"1820795660687845","distractor":"1820795660387845","target":"absent","response":"absent","rt":"2406.8000001907","correct":true,"confidence":-1},{"trial_n":10,"span":16,"encoder":"6691118269731534","distractor":"6691118279731534","target":"present","response":"present","rt":"920.80000019073","correct":true,"confidence":-1},{"trial_n":11,"span":18,"encoder":"562399488293783686","distractor":"562389488293783686","target":"present","response":"absent","rt":"705.5","correct":false,"confidence":-1},{"trial_n":12,"span":17,"encoder":"76798621654916821","distractor":"76791621654916821","target":"present","response":"absent","rt":"657.19999980927","correct":false,"confidence":-1},{"trial_n":13,"span":16,"encoder":"4988965477025141","distractor":"5988965477025141","target":"present","response":"present","rt":"950.80000019073","correct":true,"confidence":-1},{"trial_n":14,"span":16,"encoder":"5110307932594908","distractor":"1110307932594908","target":"absent","response":"present","rt":"1100.3999996185","correct":false,"confidence":-1},{"trial_n":15,"span":15,"encoder":"805338683030942","distractor":"805338686030942","target":"absent","response":"present","rt":"769.5","correct":false,"confidence":-1},{"trial_n":16,"span":14,"encoder":"06828074378746","distractor":"06828074378756","target":"present","response":"present","rt":"1708.6999998093","correct":true,"confidence":-1},{"trial_n":17,"span":14,"encoder":"96935580186349","distractor":"66935580186349","target":"absent","response":"present","rt":"1165.5","correct":false,"confidence":-1},{"trial_n":18,"span":13,"encoder":"8459776817858","distractor":"8459776817878","target":"absent","response":"present","rt":"573.4000005722","correct":false,"confidence":-1},{"trial_n":19,"span":12,"encoder":"158296970342","distractor":"158296960342","target":"absent","response":"present","rt":"1130.1000003815","correct":false,"confidence":-1},{"trial_n":20,"span":11,"encoder":"98094691042","distractor":"98094697042","target":"present","response":"absent","rt":"822.60000038147","correct":false,"confidence":-1},{"trial_n":21,"span":10,"encoder":"2949978223","distractor":"2948978223","target":"absent","response":"present","rt":"1263.4000005722","correct":false,"confidence":3},{"trial_n":22,"span":9,"encoder":"817096614","distractor":"817095614","target":"present","response":"present","rt":"1800.7000007629","correct":true,"confidence":4},{"trial_n":23,"span":9,"encoder":"036462747","distractor":"036762747","target":"absent","response":"present","rt":"2842.8000001907","correct":false,"confidence":4},{"trial_n":24,"span":8,"encoder":"66207046","distractor":"66207049","target":"present","response":"present","rt":"1950.5","correct":true,"confidence":4},{"trial_n":25,"span":8,"encoder":"82152870","distractor":"82352870","target":"present","response":"present","rt":"1958.8999996185","correct":true,"confidence":4},{"trial_n":26,"span":9,"encoder":"646714957","distractor":"646714954","target":"absent","response":"absent","rt":"1263.7000007629","correct":true,"confidence":4},{"trial_n":27,"span":9,"encoder":"238579753","distractor":"238579754","target":"present","response":"present","rt":"2030.1999998093","correct":true,"confidence":4},{"trial_n":28,"span":10,"encoder":"2637852920","distractor":"2657852920","target":"absent","response":"present","rt":"1183","correct":false,"confidence":3},{"trial_n":29,"span":9,"encoder":"542052077","distractor":"942052077","target":"absent","response":"present","rt":"1656.5999994278","correct":false,"confidence":4},{"trial_n":30,"span":8,"encoder":"89744147","distractor":"81744147","target":"present","response":"present","rt":"1938.5","correct":true,"confidence":4},{"trial_n":31,"span":8,"encoder":"40089933","distractor":"20089933","target":"absent","response":"present","rt":"2165.5","correct":false,"confidence":5},{"trial_n":32,"span":7,"encoder":"8509294","distractor":"1509294","target":"absent","response":"present","rt":"1182.1999998093","correct":false,"confidence":4},{"trial_n":33,"span":6,"encoder":"320582","distractor":"320182","target":"present","response":"present","rt":"839.5","correct":true,"confidence":5},{"trial_n":34,"span":6,"encoder":"222370","distractor":"225370","target":"absent","response":"absent","rt":"1571.1999998093","correct":true,"confidence":5},{"trial_n":35,"span":7,"encoder":"6020875","distractor":"3020875","target":"absent","response":"present","rt":"2461.2999992371","correct":false,"confidence":4},{"trial_n":36,"span":6,"encoder":"704150","distractor":"304150","target":"absent","response":"absent","rt":"1424.5999994278","correct":true,"confidence":5},{"trial_n":37,"span":6,"encoder":"798747","distractor":"708747","target":"present","response":"present","rt":"1141.0999994278","correct":true,"confidence":4},{"trial_n":38,"span":7,"encoder":"1754219","distractor":"1754218","target":"absent","response":"absent","rt":"1806.1000003815","correct":true,"confidence":5},{"trial_n":39,"span":7,"encoder":"8806487","distractor":"6806487","target":"absent","response":"absent","rt":"1656.1999998093","correct":true,"confidence":4},{"trial_n":40,"span":8,"encoder":"33617155","distractor":"33617115","target":"absent","response":"present","rt":"2538.9000005722","correct":false,"confidence":3},{"trial_n":41,"span":7,"encoder":"2810081","distractor":"2810481","target":"present","response":"absent","rt":"1864.6999998093","correct":false,"confidence":4},{"trial_n":42,"span":6,"encoder":"905608","distractor":"205608","target":"present","response":"present","rt":"1623.5","correct":true,"confidence":5},{"trial_n":43,"span":6,"encoder":"289273","distractor":"289673","target":"present","response":"present","rt":"1740.8000001907","correct":true,"confidence":5},{"trial_n":44,"span":7,"encoder":"4470616","distractor":"4470636","target":"absent","response":"absent","rt":"2090.5999994278","correct":true,"confidence":5},{"trial_n":45,"span":7,"encoder":"3141106","distractor":"3142106","target":"absent","response":"absent","rt":"1981.6999998093","correct":true,"confidence":5},{"trial_n":46,"span":8,"encoder":"19228609","distractor":"19228699","target":"absent","response":"absent","rt":"2239.8000001907","correct":true,"confidence":5},{"trial_n":47,"span":8,"encoder":"96397840","distractor":"96597840","target":"absent","response":"present","rt":"2156.8000001907","correct":false,"confidence":4},{"trial_n":48,"span":7,"encoder":"5237488","distractor":"5237588","target":"present","response":"present","rt":"1336.6999998093","correct":true,"confidence":3},{"trial_n":49,"span":7,"encoder":"5761968","distractor":"4761968","target":"present","response":"present","rt":"852.19999980927","correct":true,"confidence":4},{"trial_n":50,"span":8,"encoder":"76646366","distractor":"76626366","target":"present","response":"present","rt":"1073.3999996185","correct":true,"confidence":4},{"trial_n":51,"span":8,"encoder":"06592782","distractor":"06192782","target":"absent","response":"absent","rt":"2861.8999996185","correct":true,"confidence":5},{"trial_n":52,"span":9,"encoder":"939640146","distractor":"939540146","target":"present","response":"absent","rt":"3989.5","correct":false,"confidence":3},{"trial_n":53,"span":8,"encoder":"20374176","distractor":"20874176","target":"present","response":"present","rt":"1813","correct":true,"confidence":5},{"trial_n":54,"span":8,"encoder":"54252584","distractor":"54252484","target":"present","response":"present","rt":"1848.5","correct":true,"confidence":5},{"trial_n":55,"span":9,"encoder":"121224634","distractor":"121204634","target":"present","response":"present","rt":"1651.3000001907","correct":true,"confidence":4},{"trial_n":56,"span":9,"encoder":"385844602","distractor":"385244602","target":"present","response":"absent","rt":"3532.6999998093","correct":false,"confidence":5},{"trial_n":57,"span":8,"encoder":"38969552","distractor":"38969558","target":"present","response":"present","rt":"2533.0999994278","correct":true,"confidence":5},{"trial_n":58,"span":8,"encoder":"75166296","distractor":"75166216","target":"present","response":"present","rt":"1260.8000001907","correct":true,"confidence":4},{"trial_n":59,"span":9,"encoder":"578292798","distractor":"574292798","target":"absent","response":"present","rt":"2794.1999998093","correct":false,"confidence":4},{"trial_n":60,"span":8,"encoder":"71251108","distractor":"71251103","target":"absent","response":"absent","rt":"1158.8000001907","correct":true,"confidence":5},{"trial_n":61,"span":8,"encoder":"06461194","distractor":"06421194","target":"present","response":"present","rt":"2042.1999998093","correct":true,"confidence":4},{"trial_n":62,"span":9,"encoder":"996580350","distractor":"996580330","target":"absent","response":"absent","rt":"1598","correct":true,"confidence":5},{"trial_n":63,"span":9,"encoder":"440756184","distractor":"440756284","target":"absent","response":"absent","rt":"2607.6999998093","correct":true,"confidence":3},{"trial_n":64,"span":10,"encoder":"3126078987","distractor":"3126078887","target":"present","response":"present","rt":"1842.6999998093","correct":true,"confidence":3},{"trial_n":65,"span":10,"encoder":"7025354499","distractor":"7025351499","target":"absent","response":"present","rt":"1584","correct":false,"confidence":4},{"trial_n":66,"span":9,"encoder":"835087473","distractor":"835080473","target":"present","response":"absent","rt":"2012.2000007629","correct":false,"confidence":5},{"trial_n":67,"span":8,"encoder":"59418152","distractor":"59418150","target":"absent","response":"absent","rt":"1305.5","correct":true,"confidence":5},{"trial_n":68,"span":8,"encoder":"36143085","distractor":"36143025","target":"present","response":"present","rt":"1009","correct":true,"confidence":4},{"trial_n":69,"span":9,"encoder":"013677612","distractor":"017677612","target":"absent","response":"present","rt":"1891.9000005722","correct":false,"confidence":4},{"trial_n":70,"span":8,"encoder":"89590752","distractor":"89990752","target":"present","response":"present","rt":"2389.6999998093","correct":true,"confidence":3},{"trial_n":71,"span":8,"encoder":"60884074","distractor":"60484074","target":"present","response":"present","rt":"1660.5","correct":true,"confidence":-1},{"trial_n":72,"span":8,"encoder":"25215975","distractor":"25215475","target":"present","response":"present","rt":"6573","correct":true,"confidence":-1},{"trial_n":73,"span":9,"encoder":"482645374","distractor":"582645374","target":"absent","response":"present","rt":"1923","correct":false,"confidence":-1},{"trial_n":74,"span":8,"encoder":"85166334","distractor":"85166330","target":"absent","response":"absent","rt":"2040.4000005722","correct":true,"confidence":-1},{"trial_n":75,"span":8,"encoder":"13759406","distractor":"13759496","target":"present","response":"present","rt":"2550.7000007629","correct":true,"confidence":-1},{"trial_n":76,"span":9,"encoder":"605212647","distractor":"605712647","target":"present","response":"absent","rt":"4889.2999992371","correct":false,"confidence":-1},{"trial_n":77,"span":8,"encoder":"51413318","distractor":"51413315","target":"absent","response":"absent","rt":"2320.5","correct":true,"confidence":-1},{"trial_n":78,"span":8,"encoder":"83817739","distractor":"83817731","target":"present","response":"present","rt":"1314.6000003815","correct":true,"confidence":-1},{"trial_n":79,"span":9,"encoder":"409786490","distractor":"409786493","target":"present","response":"absent","rt":"1481.4000005722","correct":false,"confidence":-1},{"trial_n":80,"span":8,"encoder":"49869711","distractor":"39869711","target":"absent","response":"absent","rt":"2515.6999998093","correct":true,"confidence":-1},{"trial_n":81,"span":8,"encoder":"74696788","distractor":"74696787","target":"present","response":"present","rt":"3055.1999998093","correct":true,"confidence":-1},{"trial_n":82,"span":9,"encoder":"555270116","distractor":"055270116","target":"present","response":"absent","rt":"1413.6000003815","correct":false,"confidence":-1},{"trial_n":83,"span":8,"encoder":"76554669","distractor":"74554669","target":"absent","response":"present","rt":"918.4000005722","correct":false,"confidence":-1},{"trial_n":84,"span":7,"encoder":"9521039","distractor":"9521049","target":"absent","response":"absent","rt":"2086.6000003815","correct":true,"confidence":-1},{"trial_n":85,"span":7,"encoder":"8107415","distractor":"8107615","target":"present","response":"present","rt":"3024.3000001907","correct":true,"confidence":-1},{"trial_n":86,"span":8,"encoder":"43252458","distractor":"43252438","target":"present","response":"present","rt":"2019.4000005722","correct":true,"confidence":-1},{"trial_n":87,"span":8,"encoder":"20948095","distractor":"20948075","target":"absent","response":"absent","rt":"1501.3000001907","correct":true,"confidence":-1},{"trial_n":88,"span":9,"encoder":"564802821","distractor":"464802821","target":"absent","response":"present","rt":"1125.5","correct":false,"confidence":-1},{"trial_n":89,"span":8,"encoder":"42215477","distractor":"42415477","target":"absent","response":"absent","rt":"1179.8000001907","correct":true,"confidence":-1},{"trial_n":90,"span":8,"encoder":"04062192","distractor":"04062792","target":"absent","response":"absent","rt":"1178.8000001907","correct":true,"confidence":-1},{"trial_n":91,"span":9,"encoder":"325446006","distractor":"325946006","target":"present","response":"present","rt":"1360.7999992371","correct":true,"confidence":5},{"trial_n":92,"span":9,"encoder":"320121635","distractor":"320121638","target":"absent","response":"present","rt":"1966.8000001907","correct":false,"confidence":5},{"trial_n":93,"span":8,"encoder":"07547876","distractor":"04547876","target":"present","response":"present","rt":"2912.5","correct":true,"confidence":5},{"trial_n":94,"span":8,"encoder":"39739137","distractor":"39739139","target":"absent","response":"absent","rt":"2030.6999998093","correct":true,"confidence":4},{"trial_n":95,"span":9,"encoder":"368498646","distractor":"367498646","target":"present","response":"absent","rt":"3947","correct":false,"confidence":5},{"trial_n":96,"span":8,"encoder":"80730902","distractor":"80730905","target":"absent","response":"absent","rt":"2564.6000003815","correct":true,"confidence":5},{"trial_n":97,"span":8,"encoder":"25666966","distractor":"25666766","target":"absent","response":"absent","rt":"2619.4000005722","correct":true,"confidence":5},{"trial_n":98,"span":9,"encoder":"317344230","distractor":"317344235","target":"absent","response":"absent","rt":"1847.1999998093","correct":true,"confidence":5},{"trial_n":99,"span":9,"encoder":"738920522","distractor":"738920022","target":"absent","response":"absent","rt":"1712.1999998093","correct":true,"confidence":5},{"trial_n":100,"span":10,"encoder":"4822448054","distractor":"4822448554","target":"absent","response":"absent","rt":"2359.5","correct":true,"confidence":5},{"trial_n":101,"span":10,"encoder":"2301297058","distractor":"6301297058","target":"present","response":"present","rt":"2484.9000005722","correct":true,"confidence":5},{"trial_n":102,"span":11,"encoder":"50728104648","distractor":"50728104698","target":"absent","response":"absent","rt":"8234.3000001907","correct":true,"confidence":3},{"trial_n":103,"span":11,"encoder":"50467698535","distractor":"50467698555","target":"absent","response":"absent","rt":"1352.1999998093","correct":true,"confidence":5},{"trial_n":104,"span":12,"encoder":"651687356642","distractor":"651687336642","target":"present","response":"present","rt":"3377.3999996185","correct":true,"confidence":2},{"trial_n":105,"span":12,"encoder":"779110921635","distractor":"779110981635","target":"absent","response":"absent","rt":"1312.6999998093","correct":true,"confidence":3},{"trial_n":106,"span":13,"encoder":"1664837006189","distractor":"1664847006189","target":"present","response":"present","rt":"2462","correct":true,"confidence":1},{"trial_n":107,"span":13,"encoder":"1155389549434","distractor":"1155319549434","target":"absent","response":"absent","rt":"1956.0999994278","correct":true,"confidence":4},{"trial_n":108,"span":14,"encoder":"28568929186891","distractor":"23568929186891","target":"present","response":"present","rt":"9724.3999996185","correct":true,"confidence":1},{"trial_n":109,"span":14,"encoder":"24923398726240","distractor":"24925398726240","target":"present","response":"present","rt":"5709.1000003815","correct":true,"confidence":3},{"trial_n":110,"span":15,"encoder":"219253318769846","distractor":"209253318769846","target":"present","response":"absent","rt":"1182.8000001907","correct":false,"confidence":4},{"trial_n":111,"span":14,"encoder":"87956360468377","distractor":"87952360468377","target":"present","response":"present","rt":"2410","correct":true,"confidence":3},{"trial_n":112,"span":14,"encoder":"55858216530564","distractor":"55848216530564","target":"absent","response":"absent","rt":"3522.4000005722","correct":true,"confidence":4},{"trial_n":113,"span":15,"encoder":"228152680549474","distractor":"528152680549474","target":"present","response":"absent","rt":"2224","correct":false,"confidence":4},{"trial_n":114,"span":14,"encoder":"73587477194015","distractor":"73547477194015","target":"present","response":"present","rt":"2989.6999998093","correct":true,"confidence":3},{"trial_n":115,"span":14,"encoder":"87470040827256","distractor":"87440040827256","target":"absent","response":"absent","rt":"4321.3000001907","correct":true,"confidence":2},{"trial_n":116,"span":15,"encoder":"309289974025681","distractor":"300289974025681","target":"present","response":"present","rt":"2463.5","correct":true,"confidence":3},{"trial_n":117,"span":15,"encoder":"976064592123628","distractor":"976064592128628","target":"present","response":"present","rt":"3498.6000003815","correct":true,"confidence":5},{"trial_n":118,"span":16,"encoder":"5187107728629887","distractor":"5387107728629887","target":"absent","response":"absent","rt":"2359.1999998093","correct":true,"confidence":5},{"trial_n":119,"span":16,"encoder":"3587775808999016","distractor":"3587775803999016","target":"present","response":"present","rt":"2718.5","correct":true,"confidence":3},{"trial_n":120,"span":17,"encoder":"50703821521959015","distractor":"50703821521859015","target":"absent","response":"present","rt":"4216","correct":false,"confidence":4},{"trial_n":121,"span":16,"encoder":"8925417142939434","distractor":"8925417112939434","target":"absent","response":"absent","rt":"968.60000038147","correct":true,"confidence":5},{"trial_n":122,"span":16,"encoder":"0356731883662165","distractor":"0356731883562165","target":"present","response":"present","rt":"1811.1999998093","correct":true,"confidence":5},{"trial_n":123,"span":17,"encoder":"86105796152506449","distractor":"86105796132506449","target":"present","response":"present","rt":"3102.9000005722","correct":true,"confidence":3},{"trial_n":124,"span":17,"encoder":"48268378612797832","distractor":"44268378612797832","target":"present","response":"absent","rt":"13509.299999237","correct":false,"confidence":3},{"trial_n":125,"span":16,"encoder":"3382488287343548","distractor":"3382488287343568","target":"present","response":"absent","rt":"1760","correct":false,"confidence":4},{"trial_n":126,"span":15,"encoder":"340415148462852","distractor":"340415148468852","target":"present","response":"present","rt":"8127.4000005722","correct":true,"confidence":4},{"trial_n":127,"span":15,"encoder":"850359568946279","distractor":"850309568946279","target":"present","response":"absent","rt":"812.80000019073","correct":false,"confidence":4},{"trial_n":128,"span":14,"encoder":"43641690181951","distractor":"43641630181951","target":"absent","response":"present","rt":"1169.6999998093","correct":false,"confidence":5},{"trial_n":129,"span":13,"encoder":"0285528665572","distractor":"0285568665572","target":"absent","response":"present","rt":"1687.3000001907","correct":false,"confidence":4},{"trial_n":130,"span":12,"encoder":"074477291803","distractor":"074475291803","target":"present","response":"absent","rt":"2298.7000007629","correct":false,"confidence":4},{"trial_n":131,"span":11,"encoder":"12707804847","distractor":"12707806847","target":"present","response":"absent","rt":"3492.6000003815","correct":false,"confidence":5},{"trial_n":132,"span":10,"encoder":"2227987734","distractor":"2227587734","target":"present","response":"absent","rt":"2956.3000001907","correct":false,"confidence":3},{"trial_n":133,"span":9,"encoder":"519863898","distractor":"519863698","target":"present","response":"absent","rt":"2520.1000003815","correct":false,"confidence":4},{"trial_n":134,"span":8,"encoder":"87071616","distractor":"57071616","target":"absent","response":"present","rt":"2034.7000007629","correct":false,"confidence":5},{"trial_n":135,"span":7,"encoder":"2273507","distractor":"2273505","target":"absent","response":"absent","rt":"1395.5","correct":true,"confidence":4},{"trial_n":136,"span":7,"encoder":"2580838","distractor":"2582838","target":"absent","response":"absent","rt":"2740.1000003815","correct":true,"confidence":4},{"trial_n":137,"span":8,"encoder":"91701853","distractor":"91701855","target":"absent","response":"absent","rt":"1093","correct":true,"confidence":4},{"trial_n":138,"span":8,"encoder":"29023327","distractor":"29024327","target":"absent","response":"absent","rt":"1448.6999998093","correct":true,"confidence":4},{"trial_n":139,"span":9,"encoder":"003091406","distractor":"083091406","target":"present","response":"present","rt":"2206.8999996185","correct":true,"confidence":5},{"trial_n":140,"span":9,"encoder":"662111074","distractor":"462111074","target":"absent","response":"absent","rt":"1550.2999992371","correct":true,"confidence":5}]