[{"trial_n":1,"n_dots":4.25,"target":"right","response":"left","rt":7519,"correct":false,"confidence":-1},{"trial_n":2,"n_dots":4.25,"target":"left","response":"left","rt":568,"correct":true,"confidence":-1},{"trial_n":3,"n_dots":4.25,"target":"left","response":"left","rt":272.99999999999,"correct":true,"confidence":-1},{"trial_n":4,"n_dots":3.85,"target":"left","response":"left","rt":566,"correct":true,"confidence":-1},{"trial_n":5,"n_dots":3.85,"target":"right","response":"right","rt":558,"correct":true,"confidence":-1},{"trial_n":6,"n_dots":3.45,"target":"left","response":"left","rt":275.99999999999,"correct":true,"confidence":-1},{"trial_n":7,"n_dots":3.45,"target":"right","response":"right","rt":40.999999999993,"correct":true,"confidence":-1},{"trial_n":8,"n_dots":3.25,"target":"left","response":"left","rt":726,"correct":true,"confidence":-1},{"trial_n":9,"n_dots":3.25,"target":"right","response":"left","rt":337,"correct":false,"confidence":-1},{"trial_n":10,"n_dots":3.45,"target":"right","response":"left","rt":573,"correct":false,"confidence":-1},{"trial_n":11,"n_dots":3.65,"target":"right","response":"right","rt":350,"correct":true,"confidence":-1},{"trial_n":12,"n_dots":3.65,"target":"right","response":"left","rt":287,"correct":false,"confidence":-1},{"trial_n":13,"n_dots":3.75,"target":"left","response":"left","rt":300,"correct":true,"confidence":-1},{"trial_n":14,"n_dots":3.75,"target":"left","response":"right","rt":318.99999999999,"correct":false,"confidence":-1},{"trial_n":15,"n_dots":3.85,"target":"left","response":"left","rt":258,"correct":true,"confidence":-1},{"trial_n":16,"n_dots":3.85,"target":"right","response":"right","rt":257,"correct":true,"confidence":-1},{"trial_n":17,"n_dots":3.75,"target":"right","response":"right","rt":192,"correct":true,"confidence":-1},{"trial_n":18,"n_dots":3.75,"target":"left","response":"left","rt":105,"correct":true,"confidence":-1},{"trial_n":19,"n_dots":3.65,"target":"right","response":"right","rt":224,"correct":true,"confidence":-1},{"trial_n":20,"n_dots":3.65,"target":"right","response":"left","rt":342,"correct":false,"confidence":-1},{"trial_n":21,"n_dots":3.75,"target":"right","response":"right","rt":231,"correct":true,"confidence":3},{"trial_n":22,"n_dots":3.75,"target":"left","response":"left","rt":270,"correct":true,"confidence":4},{"trial_n":23,"n_dots":3.65,"target":"left","response":"left","rt":295,"correct":true,"confidence":4},{"trial_n":24,"n_dots":3.65,"target":"left","response":"left","rt":1003,"correct":true,"confidence":4},{"trial_n":25,"n_dots":3.55,"target":"right","response":"right","rt":1052,"correct":true,"confidence":3},{"trial_n":26,"n_dots":3.55,"target":"left","response":"right","rt":1242,"correct":false,"confidence":4},{"trial_n":27,"n_dots":3.65,"target":"left","response":"left","rt":771,"correct":true,"confidence":3},{"trial_n":28,"n_dots":3.65,"target":"left","response":"left","rt":1287,"correct":true,"confidence":3},{"trial_n":29,"n_dots":3.55,"target":"left","response":"right","rt":972,"correct":false,"confidence":3},{"trial_n":30,"n_dots":3.65,"target":"left","response":"left","rt":546,"correct":true,"confidence":4},{"trial_n":31,"n_dots":3.65,"target":"left","response":"right","rt":895.00000000003,"correct":false,"confidence":4},{"trial_n":32,"n_dots":3.75,"target":"left","response":"left","rt":1106,"correct":true,"confidence":3},{"trial_n":33,"n_dots":3.75,"target":"left","response":"right","rt":2200,"correct":false,"confidence":2},{"trial_n":34,"n_dots":3.85,"target":"right","response":"right","rt":757,"correct":true,"confidence":5},{"trial_n":35,"n_dots":3.85,"target":"right","response":"right","rt":1537,"correct":true,"confidence":4},{"trial_n":36,"n_dots":3.75,"target":"left","response":"left","rt":480,"correct":true,"confidence":4},{"trial_n":37,"n_dots":3.75,"target":"right","response":"right","rt":797,"correct":true,"confidence":4},{"trial_n":38,"n_dots":3.65,"target":"right","response":"right","rt":854,"correct":true,"confidence":4},{"trial_n":39,"n_dots":3.65,"target":"left","response":"left","rt":1029,"correct":true,"confidence":3},{"trial_n":40,"n_dots":3.55,"target":"right","response":"right","rt":925,"correct":true,"confidence":3},{"trial_n":41,"n_dots":3.55,"target":"right","response":"right","rt":2120,"correct":true,"confidence":3},{"trial_n":42,"n_dots":3.45,"target":"right","response":"right","rt":736,"correct":true,"confidence":3},{"trial_n":43,"n_dots":3.45,"target":"right","response":"right","rt":1242,"correct":true,"confidence":4},{"trial_n":44,"n_dots":3.35,"target":"right","response":"right","rt":1088,"correct":true,"confidence":2},{"trial_n":45,"n_dots":3.35,"target":"left","response":"left","rt":473.99999999997,"correct":true,"confidence":4},{"trial_n":46,"n_dots":3.25,"target":"left","response":"left","rt":720,"correct":true,"confidence":4},{"trial_n":47,"n_dots":3.25,"target":"left","response":"right","rt":1036,"correct":false,"confidence":3},{"trial_n":48,"n_dots":3.35,"target":"right","response":"right","rt":722.99999999997,"correct":true,"confidence":4},{"trial_n":49,"n_dots":3.35,"target":"left","response":"left","rt":571,"correct":true,"confidence":3},{"trial_n":50,"n_dots":3.25,"target":"left","response":"left","rt":1023,"correct":true,"confidence":3},{"trial_n":51,"n_dots":3.25,"target":"right","response":"right","rt":469,"correct":true,"confidence":4},{"trial_n":52,"n_dots":3.15,"target":"right","response":"left","rt":613,"correct":false,"confidence":4},{"trial_n":53,"n_dots":3.25,"target":"right","response":"left","rt":770.99999999997,"correct":false,"confidence":2},{"trial_n":54,"n_dots":3.35,"target":"right","response":"right","rt":544,"correct":true,"confidence":3},{"trial_n":55,"n_dots":3.35,"target":"right","response":"right","rt":2816,"correct":true,"confidence":2},{"trial_n":56,"n_dots":3.25,"target":"left","response":"right","rt":1384.9999999999,"correct":false,"confidence":3},{"trial_n":57,"n_dots":3.35,"target":"left","response":"left","rt":1089,"correct":true,"confidence":4},{"trial_n":58,"n_dots":3.35,"target":"right","response":"right","rt":714,"correct":true,"confidence":3},{"trial_n":59,"n_dots":3.25,"target":"left","response":"left","rt":596,"correct":true,"confidence":4},{"trial_n":60,"n_dots":3.25,"target":"left","response":"left","rt":493.99999999994,"correct":true,"confidence":4},{"trial_n":61,"n_dots":3.15,"target":"right","response":"right","rt":842,"correct":true,"confidence":4},{"trial_n":62,"n_dots":3.15,"target":"right","response":"left","rt":1951,"correct":false,"confidence":2},{"trial_n":63,"n_dots":3.25,"target":"right","response":"right","rt":360.99999999994,"correct":true,"confidence":4},{"trial_n":64,"n_dots":3.25,"target":"right","response":"right","rt":708,"correct":true,"confidence":4},{"trial_n":65,"n_dots":3.15,"target":"right","response":"right","rt":667,"correct":true,"confidence":3},{"trial_n":66,"n_dots":3.15,"target":"left","response":"left","rt":928,"correct":true,"confidence":3},{"trial_n":67,"n_dots":3.05,"target":"left","response":"left","rt":456,"correct":true,"confidence":3},{"trial_n":68,"n_dots":3.05,"target":"left","response":"left","rt":895,"correct":true,"confidence":4},{"trial_n":69,"n_dots":2.95,"target":"left","response":"left","rt":1184,"correct":true,"confidence":3},{"trial_n":70,"n_dots":2.95,"target":"left","response":"left","rt":1034.9999999999,"correct":true,"confidence":3},{"trial_n":71,"n_dots":2.85,"target":"right","response":"left","rt":1935,"correct":false,"confidence":2},{"trial_n":72,"n_dots":2.95,"target":"left","response":"right","rt":2018,"correct":false,"confidence":2},{"trial_n":73,"n_dots":3.05,"target":"right","response":"right","rt":793,"correct":true,"confidence":3},{"trial_n":74,"n_dots":3.05,"target":"left","response":"left","rt":1464,"correct":true,"confidence":2},{"trial_n":75,"n_dots":2.95,"target":"right","response":"right","rt":3155,"correct":true,"confidence":3},{"trial_n":76,"n_dots":2.95,"target":"right","response":"left","rt":1017,"correct":false,"confidence":3},{"trial_n":77,"n_dots":3.05,"target":"left","response":"right","rt":2525,"correct":false,"confidence":2},{"trial_n":78,"n_dots":3.15,"target":"left","response":"left","rt":308.00000000006,"correct":true,"confidence":3},{"trial_n":79,"n_dots":3.15,"target":"left","response":"left","rt":1957,"correct":true,"confidence":3},{"trial_n":80,"n_dots":3.05,"target":"left","response":"left","rt":910,"correct":true,"confidence":3},{"trial_n":81,"n_dots":3.05,"target":"right","response":"left","rt":1312.0000000001,"correct":false,"confidence":3},{"trial_n":82,"n_dots":3.15,"target":"right","response":"right","rt":518.99999999994,"correct":true,"confidence":3},{"trial_n":83,"n_dots":3.15,"target":"right","response":"left","rt":1201,"correct":false,"confidence":3},{"trial_n":84,"n_dots":3.25,"target":"left","response":"right","rt":519,"correct":false,"confidence":3},{"trial_n":85,"n_dots":3.35,"target":"right","response":"left","rt":1192.0000000001,"correct":false,"confidence":2},{"trial_n":86,"n_dots":3.45,"target":"right","response":"right","rt":510,"correct":true,"confidence":3},{"trial_n":87,"n_dots":3.45,"target":"left","response":"left","rt":889.99999999994,"correct":true,"confidence":3},{"trial_n":88,"n_dots":3.35,"target":"left","response":"left","rt":564,"correct":true,"confidence":4},{"trial_n":89,"n_dots":3.35,"target":"left","response":"left","rt":787,"correct":true,"confidence":4},{"trial_n":90,"n_dots":3.25,"target":"right","response":"right","rt":860,"correct":true,"confidence":3},{"trial_n":91,"n_dots":3.25,"target":"right","response":"right","rt":756,"correct":true,"confidence":3},{"trial_n":92,"n_dots":3.15,"target":"right","response":"left","rt":745.00000000006,"correct":false,"confidence":3},{"trial_n":93,"n_dots":3.25,"target":"left","response":"left","rt":728,"correct":true,"confidence":4},{"trial_n":94,"n_dots":3.25,"target":"left","response":"right","rt":1415.0000000001,"correct":false,"confidence":3},{"trial_n":95,"n_dots":3.35,"target":"left","response":"left","rt":436,"correct":true,"confidence":3},{"trial_n":96,"n_dots":3.35,"target":"right","response":"left","rt":824,"correct":false,"confidence":3},{"trial_n":97,"n_dots":3.45,"target":"right","response":"right","rt":767,"correct":true,"confidence":4},{"trial_n":98,"n_dots":3.45,"target":"right","response":"right","rt":1374,"correct":true,"confidence":3},{"trial_n":99,"n_dots":3.35,"target":"right","response":"left","rt":1709,"correct":false,"confidence":3},{"trial_n":100,"n_dots":3.45,"target":"left","response":"left","rt":433.00000000006,"correct":true,"confidence":3},{"trial_n":101,"n_dots":3.45,"target":"left","response":"left","rt":476,"correct":true,"confidence":4},{"trial_n":102,"n_dots":3.35,"target":"left","response":"left","rt":595.00000000006,"correct":true,"confidence":3},{"trial_n":103,"n_dots":3.35,"target":"right","response":"right","rt":454,"correct":true,"confidence":3},{"trial_n":104,"n_dots":3.25,"target":"right","response":"right","rt":565,"correct":true,"confidence":4},{"trial_n":105,"n_dots":3.25,"target":"left","response":"left","rt":328.99999999994,"correct":true,"confidence":4},{"trial_n":106,"n_dots":3.15,"target":"right","response":"right","rt":1171,"correct":true,"confidence":3},{"trial_n":107,"n_dots":3.15,"target":"right","response":"right","rt":849,"correct":true,"confidence":2},{"trial_n":108,"n_dots":3.05,"target":"left","response":"left","rt":625,"correct":true,"confidence":3},{"trial_n":109,"n_dots":3.05,"target":"right","response":"right","rt":351,"correct":true,"confidence":4},{"trial_n":110,"n_dots":2.95,"target":"left","response":"left","rt":373,"correct":true,"confidence":4},{"trial_n":111,"n_dots":2.95,"target":"left","response":"right","rt":909,"correct":false,"confidence":3},{"trial_n":112,"n_dots":3.05,"target":"right","response":"right","rt":746,"correct":true,"confidence":3},{"trial_n":113,"n_dots":3.05,"target":"right","response":"left","rt":858,"correct":false,"confidence":3},{"trial_n":114,"n_dots":3.15,"target":"left","response":"left","rt":574.99999999994,"correct":true,"confidence":4},{"trial_n":115,"n_dots":3.15,"target":"right","response":"right","rt":503,"correct":true,"confidence":4},{"trial_n":116,"n_dots":3.05,"target":"right","response":"left","rt":1213,"correct":false,"confidence":3},{"trial_n":117,"n_dots":3.15,"target":"left","response":"left","rt":404,"correct":true,"confidence":3},{"trial_n":118,"n_dots":3.15,"target":"left","response":"left","rt":518,"correct":true,"confidence":3},{"trial_n":119,"n_dots":3.05,"target":"right","response":"right","rt":821,"correct":true,"confidence":3},{"trial_n":120,"n_dots":3.05,"target":"left","response":"left","rt":620.99999999994,"correct":true,"confidence":3}]