[{"trial_n":1,"n_dots":4.25,"target":"left","response":"left","rt":8344,"correct":true,"confidence":-1},{"trial_n":2,"n_dots":4.25,"target":"right","response":"right","rt":2743,"correct":true,"confidence":-1},{"trial_n":3,"n_dots":3.85,"target":"left","response":"right","rt":1045,"correct":false,"confidence":-1},{"trial_n":4,"n_dots":4.25,"target":"left","response":"left","rt":735,"correct":true,"confidence":-1},{"trial_n":5,"n_dots":4.25,"target":"right","response":"left","rt":1600,"correct":false,"confidence":-1},{"trial_n":6,"n_dots":4.65,"target":"left","response":"left","rt":929.99999999999,"correct":true,"confidence":-1},{"trial_n":7,"n_dots":4.65,"target":"left","response":"left","rt":844,"correct":true,"confidence":-1},{"trial_n":8,"n_dots":4.45,"target":"right","response":"right","rt":796,"correct":true,"confidence":-1},{"trial_n":9,"n_dots":4.45,"target":"left","response":"left","rt":617,"correct":true,"confidence":-1},{"trial_n":10,"n_dots":4.25,"target":"left","response":"left","rt":897.00000000001,"correct":true,"confidence":-1},{"trial_n":11,"n_dots":4.25,"target":"right","response":"right","rt":420,"correct":true,"confidence":-1},{"trial_n":12,"n_dots":4.05,"target":"left","response":"left","rt":1114,"correct":true,"confidence":-1},{"trial_n":13,"n_dots":4.05,"target":"right","response":"right","rt":597,"correct":true,"confidence":-1},{"trial_n":14,"n_dots":3.95,"target":"left","response":"left","rt":424,"correct":true,"confidence":-1},{"trial_n":15,"n_dots":3.95,"target":"left","response":"left","rt":484,"correct":true,"confidence":-1},{"trial_n":16,"n_dots":3.85,"target":"right","response":"right","rt":643,"correct":true,"confidence":-1},{"trial_n":17,"n_dots":3.85,"target":"right","response":"right","rt":668,"correct":true,"confidence":-1},{"trial_n":18,"n_dots":3.75,"target":"right","response":"left","rt":964,"correct":false,"confidence":-1},{"trial_n":19,"n_dots":3.85,"target":"right","response":"right","rt":545,"correct":true,"confidence":-1},{"trial_n":20,"n_dots":3.85,"target":"right","response":"right","rt":651,"correct":true,"confidence":-1},{"trial_n":21,"n_dots":3.75,"target":"left","response":"left","rt":1180,"correct":true,"confidence":3},{"trial_n":22,"n_dots":3.75,"target":"right","response":"left","rt":2352,"correct":false,"confidence":3},{"trial_n":23,"n_dots":3.85,"target":"right","response":"right","rt":2515,"correct":true,"confidence":2},{"trial_n":24,"n_dots":3.85,"target":"right","response":"right","rt":2058,"correct":true,"confidence":3},{"trial_n":25,"n_dots":3.75,"target":"right","response":"left","rt":1709,"correct":false,"confidence":2},{"trial_n":26,"n_dots":3.85,"target":"left","response":"left","rt":1111,"correct":true,"confidence":2},{"trial_n":27,"n_dots":3.85,"target":"right","response":"right","rt":1706,"correct":true,"confidence":3},{"trial_n":28,"n_dots":3.75,"target":"right","response":"right","rt":1678,"correct":true,"confidence":3},{"trial_n":29,"n_dots":3.75,"target":"right","response":"right","rt":2045,"correct":true,"confidence":2},{"trial_n":30,"n_dots":3.65,"target":"right","response":"right","rt":1774,"correct":true,"confidence":2},{"trial_n":31,"n_dots":3.65,"target":"left","response":"left","rt":1522,"correct":true,"confidence":2},{"trial_n":32,"n_dots":3.55,"target":"right","response":"right","rt":1331,"correct":true,"confidence":2},{"trial_n":33,"n_dots":3.55,"target":"right","response":"left","rt":2803,"correct":false,"confidence":2},{"trial_n":34,"n_dots":3.65,"target":"right","response":"right","rt":1925,"correct":true,"confidence":2},{"trial_n":35,"n_dots":3.65,"target":"left","response":"left","rt":919.00000000003,"correct":true,"confidence":3},{"trial_n":36,"n_dots":3.55,"target":"left","response":"left","rt":1149,"correct":true,"confidence":3},{"trial_n":37,"n_dots":3.55,"target":"left","response":"right","rt":1148,"correct":false,"confidence":3},{"trial_n":38,"n_dots":3.65,"target":"right","response":"right","rt":1964,"correct":true,"confidence":2},{"trial_n":39,"n_dots":3.65,"target":"left","response":"left","rt":685,"correct":true,"confidence":3},{"trial_n":40,"n_dots":3.55,"target":"right","response":"right","rt":2082,"correct":true,"confidence":2},{"trial_n":41,"n_dots":3.55,"target":"left","response":"left","rt":1114,"correct":true,"confidence":2},{"trial_n":42,"n_dots":3.45,"target":"left","response":"left","rt":716,"correct":true,"confidence":3},{"trial_n":43,"n_dots":3.45,"target":"left","response":"right","rt":2129,"correct":false,"confidence":2},{"trial_n":44,"n_dots":3.55,"target":"left","response":"left","rt":801.00000000003,"correct":true,"confidence":3},{"trial_n":45,"n_dots":3.55,"target":"right","response":"left","rt":1234,"correct":false,"confidence":1},{"trial_n":46,"n_dots":3.65,"target":"left","response":"left","rt":703,"correct":true,"confidence":2},{"trial_n":47,"n_dots":3.65,"target":"right","response":"right","rt":1152,"correct":true,"confidence":2},{"trial_n":48,"n_dots":3.55,"target":"right","response":"right","rt":1510,"correct":true,"confidence":2},{"trial_n":49,"n_dots":3.55,"target":"right","response":"right","rt":1596,"correct":true,"confidence":3},{"trial_n":50,"n_dots":3.45,"target":"right","response":"right","rt":2296,"correct":true,"confidence":1},{"trial_n":51,"n_dots":3.45,"target":"right","response":"right","rt":1695,"correct":true,"confidence":1},{"trial_n":52,"n_dots":3.35,"target":"right","response":"right","rt":1245,"correct":true,"confidence":2},{"trial_n":53,"n_dots":3.35,"target":"right","response":"right","rt":1130,"correct":true,"confidence":1},{"trial_n":54,"n_dots":3.25,"target":"left","response":"right","rt":1202,"correct":false,"confidence":1},{"trial_n":55,"n_dots":3.35,"target":"left","response":"left","rt":624,"correct":true,"confidence":3},{"trial_n":56,"n_dots":3.35,"target":"left","response":"left","rt":727,"correct":true,"confidence":3},{"trial_n":57,"n_dots":3.25,"target":"right","response":"right","rt":1398,"correct":true,"confidence":1},{"trial_n":58,"n_dots":3.25,"target":"right","response":"left","rt":795,"correct":false,"confidence":2},{"trial_n":59,"n_dots":3.35,"target":"left","response":"left","rt":669,"correct":true,"confidence":3},{"trial_n":60,"n_dots":3.35,"target":"left","response":"left","rt":844.00000000006,"correct":true,"confidence":2},{"trial_n":61,"n_dots":3.25,"target":"right","response":"left","rt":3602,"correct":false,"confidence":2},{"trial_n":62,"n_dots":3.35,"target":"right","response":"right","rt":1091.0000000001,"correct":true,"confidence":3},{"trial_n":63,"n_dots":3.35,"target":"left","response":"left","rt":875,"correct":true,"confidence":3},{"trial_n":64,"n_dots":3.25,"target":"left","response":"left","rt":691.00000000006,"correct":true,"confidence":3},{"trial_n":65,"n_dots":3.25,"target":"right","response":"right","rt":4071,"correct":true,"confidence":2},{"trial_n":66,"n_dots":3.15,"target":"left","response":"left","rt":856.99999999994,"correct":true,"confidence":4},{"trial_n":67,"n_dots":3.15,"target":"right","response":"right","rt":975,"correct":true,"confidence":2},{"trial_n":68,"n_dots":3.05,"target":"left","response":"left","rt":579,"correct":true,"confidence":3},{"trial_n":69,"n_dots":3.05,"target":"right","response":"left","rt":761,"correct":false,"confidence":3},{"trial_n":70,"n_dots":3.15,"target":"left","response":"left","rt":730,"correct":true,"confidence":3},{"trial_n":71,"n_dots":3.15,"target":"right","response":"left","rt":899,"correct":false,"confidence":2},{"trial_n":72,"n_dots":3.25,"target":"left","response":"left","rt":512,"correct":true,"confidence":3},{"trial_n":73,"n_dots":3.25,"target":"right","response":"right","rt":1444,"correct":true,"confidence":2},{"trial_n":74,"n_dots":3.15,"target":"right","response":"left","rt":525,"correct":false,"confidence":3},{"trial_n":75,"n_dots":3.25,"target":"left","response":"left","rt":433,"correct":true,"confidence":3},{"trial_n":76,"n_dots":3.25,"target":"right","response":"left","rt":620,"correct":false,"confidence":3},{"trial_n":77,"n_dots":3.35,"target":"left","response":"left","rt":1606,"correct":true,"confidence":2},{"trial_n":78,"n_dots":3.35,"target":"left","response":"left","rt":575.00000000006,"correct":true,"confidence":3},{"trial_n":79,"n_dots":3.25,"target":"left","response":"left","rt":579,"correct":true,"confidence":2},{"trial_n":80,"n_dots":3.25,"target":"left","response":"left","rt":1164.9999999999,"correct":true,"confidence":2},{"trial_n":81,"n_dots":3.15,"target":"left","response":"left","rt":734.99999999994,"correct":true,"confidence":3},{"trial_n":82,"n_dots":3.15,"target":"left","response":"left","rt":510,"correct":true,"confidence":3},{"trial_n":83,"n_dots":3.05,"target":"left","response":"left","rt":414,"correct":true,"confidence":3},{"trial_n":84,"n_dots":3.05,"target":"right","response":"left","rt":453,"correct":false,"confidence":1},{"trial_n":85,"n_dots":3.15,"target":"right","response":"right","rt":562.00000000006,"correct":true,"confidence":1},{"trial_n":86,"n_dots":3.15,"target":"left","response":"left","rt":448,"correct":true,"confidence":3},{"trial_n":87,"n_dots":3.05,"target":"right","response":"right","rt":698,"correct":true,"confidence":3},{"trial_n":88,"n_dots":3.05,"target":"right","response":"right","rt":1228,"correct":true,"confidence":2},{"trial_n":89,"n_dots":2.95,"target":"right","response":"right","rt":400.99999999994,"correct":true,"confidence":3},{"trial_n":90,"n_dots":2.95,"target":"right","response":"left","rt":743.00000000006,"correct":false,"confidence":1},{"trial_n":91,"n_dots":3.05,"target":"left","response":"left","rt":446,"correct":true,"confidence":3},{"trial_n":92,"n_dots":3.05,"target":"left","response":"left","rt":1755.9999999999,"correct":true,"confidence":1},{"trial_n":93,"n_dots":2.95,"target":"right","response":"left","rt":513,"correct":false,"confidence":2},{"trial_n":94,"n_dots":3.05,"target":"left","response":"left","rt":2019.9999999999,"correct":true,"confidence":3},{"trial_n":95,"n_dots":3.05,"target":"right","response":"left","rt":991,"correct":false,"confidence":2},{"trial_n":96,"n_dots":3.15,"target":"left","response":"left","rt":1231,"correct":true,"confidence":1},{"trial_n":97,"n_dots":3.15,"target":"left","response":"left","rt":1635,"correct":true,"confidence":1},{"trial_n":98,"n_dots":3.05,"target":"right","response":"right","rt":1301,"correct":true,"confidence":1},{"trial_n":99,"n_dots":3.05,"target":"left","response":"left","rt":472,"correct":true,"confidence":3},{"trial_n":100,"n_dots":2.95,"target":"left","response":"left","rt":657,"correct":true,"confidence":1},{"trial_n":101,"n_dots":2.95,"target":"right","response":"right","rt":679,"correct":true,"confidence":1},{"trial_n":102,"n_dots":2.85,"target":"right","response":"left","rt":835,"correct":false,"confidence":2},{"trial_n":103,"n_dots":2.95,"target":"left","response":"right","rt":939,"correct":false,"confidence":1},{"trial_n":104,"n_dots":3.05,"target":"left","response":"left","rt":531,"correct":true,"confidence":4},{"trial_n":105,"n_dots":3.05,"target":"right","response":"right","rt":1214,"correct":true,"confidence":1},{"trial_n":106,"n_dots":2.95,"target":"right","response":"right","rt":528.00000000012,"correct":true,"confidence":1},{"trial_n":107,"n_dots":2.95,"target":"right","response":"left","rt":694,"correct":false,"confidence":2},{"trial_n":108,"n_dots":3.05,"target":"left","response":"left","rt":420,"correct":true,"confidence":3},{"trial_n":109,"n_dots":3.05,"target":"right","response":"left","rt":678,"correct":false,"confidence":2},{"trial_n":110,"n_dots":3.15,"target":"right","response":"right","rt":675,"correct":true,"confidence":2},{"trial_n":111,"n_dots":3.15,"target":"left","response":"left","rt":447,"correct":true,"confidence":4},{"trial_n":112,"n_dots":3.05,"target":"left","response":"left","rt":868.00000000012,"correct":true,"confidence":3},{"trial_n":113,"n_dots":3.05,"target":"left","response":"left","rt":664,"correct":true,"confidence":2},{"trial_n":114,"n_dots":2.95,"target":"left","response":"left","rt":789,"correct":true,"confidence":1},{"trial_n":115,"n_dots":2.95,"target":"right","response":"right","rt":683,"correct":true,"confidence":2},{"trial_n":116,"n_dots":2.85,"target":"left","response":"left","rt":453,"correct":true,"confidence":1},{"trial_n":117,"n_dots":2.85,"target":"left","response":"left","rt":839.00000000012,"correct":true,"confidence":2},{"trial_n":118,"n_dots":2.75,"target":"left","response":"left","rt":874,"correct":true,"confidence":1},{"trial_n":119,"n_dots":2.75,"target":"right","response":"left","rt":700,"correct":false,"confidence":1},{"trial_n":120,"n_dots":2.85,"target":"left","response":"left","rt":620,"correct":true,"confidence":1}]