[{"trial_n":1,"span":8,"encoder":"69522363","distractor":"69522763","target":"present","response":"present","rt":"3355.5","correct":true,"confidence":-1},{"trial_n":2,"span":8,"encoder":"25147464","distractor":"25177464","target":"present","response":"absent","rt":"3602.1000000238","correct":false,"confidence":-1},{"trial_n":3,"span":6,"encoder":"208287","distractor":"208286","target":"absent","response":"present","rt":"1168.099999994","correct":false,"confidence":-1},{"trial_n":4,"span":4,"encoder":"7709","distractor":"7708","target":"absent","response":"absent","rt":"1409.099999994","correct":true,"confidence":-1},{"trial_n":5,"span":4,"encoder":"1688","distractor":"1088","target":"present","response":"present","rt":"1162.400000006","correct":true,"confidence":-1},{"trial_n":6,"span":6,"encoder":"019764","distractor":"219764","target":"present","response":"present","rt":"1808.3999999762","correct":true,"confidence":-1},{"trial_n":7,"span":6,"encoder":"209159","distractor":"909159","target":"absent","response":"absent","rt":"1658.2999999821","correct":true,"confidence":-1},{"trial_n":8,"span":8,"encoder":"88911615","distractor":"81911615","target":"absent","response":"present","rt":"1714.5","correct":false,"confidence":-1},{"trial_n":9,"span":6,"encoder":"465267","distractor":"469267","target":"absent","response":"present","rt":"951.80000001192","correct":false,"confidence":-1},{"trial_n":10,"span":4,"encoder":"8158","distractor":"8458","target":"present","response":"present","rt":"1149.7999999821","correct":true,"confidence":-1},{"trial_n":11,"span":4,"encoder":"2786","distractor":"2756","target":"present","response":"present","rt":"935.90000000596","correct":true,"confidence":-1},{"trial_n":12,"span":5,"encoder":"77947","distractor":"07947","target":"absent","response":"absent","rt":"1427.5","correct":true,"confidence":-1},{"trial_n":13,"span":5,"encoder":"13638","distractor":"14638","target":"absent","response":"present","rt":"2158.3000000119","correct":false,"confidence":-1},{"trial_n":14,"span":4,"encoder":"5616","distractor":"5614","target":"absent","response":"absent","rt":"970.40000000596","correct":true,"confidence":-1},{"trial_n":15,"span":4,"encoder":"0724","distractor":"0024","target":"absent","response":"present","rt":"280.90000000596","correct":false,"confidence":-1},{"trial_n":16,"span":3,"encoder":"881","distractor":"831","target":"absent","response":"absent","rt":"335.09999999404","correct":true,"confidence":-1},{"trial_n":17,"span":3,"encoder":"577","distractor":"537","target":"present","response":"present","rt":"950.30000001192","correct":true,"confidence":-1},{"trial_n":18,"span":4,"encoder":"4704","distractor":"4706","target":"present","response":"present","rt":"989.5","correct":true,"confidence":-1},{"trial_n":19,"span":4,"encoder":"2183","distractor":"2180","target":"present","response":"present","rt":"1243.1999999881","correct":true,"confidence":-1},{"trial_n":20,"span":5,"encoder":"54643","distractor":"54648","target":"absent","response":"absent","rt":"890.19999998808","correct":true,"confidence":-1},{"trial_n":21,"span":5,"encoder":"98497","distractor":"98494","target":"absent","response":"absent","rt":"832.79999998212","correct":true,"confidence":5},{"trial_n":22,"span":6,"encoder":"998184","distractor":"998134","target":"absent","response":"absent","rt":"2418.900000006","correct":true,"confidence":5},{"trial_n":23,"span":6,"encoder":"455049","distractor":"405049","target":"absent","response":"absent","rt":"3275.8000000119","correct":true,"confidence":4},{"trial_n":24,"span":7,"encoder":"9139035","distractor":"9139015","target":"absent","response":"present","rt":"4121","correct":false,"confidence":3},{"trial_n":25,"span":6,"encoder":"821807","distractor":"828807","target":"absent","response":"present","rt":"1083.8999999762","correct":false,"confidence":4},{"trial_n":26,"span":5,"encoder":"61472","distractor":"61492","target":"present","response":"present","rt":"1949.5","correct":true,"confidence":5},{"trial_n":27,"span":5,"encoder":"75698","distractor":"75696","target":"absent","response":"absent","rt":"1039.900000006","correct":true,"confidence":5},{"trial_n":28,"span":6,"encoder":"268014","distractor":"268013","target":"present","response":"present","rt":"5378.2999999821","correct":true,"confidence":3},{"trial_n":29,"span":6,"encoder":"273169","distractor":"203169","target":"absent","response":"present","rt":"1996.099999994","correct":false,"confidence":5},{"trial_n":30,"span":5,"encoder":"72939","distractor":"52939","target":"present","response":"present","rt":"2206.2000000179","correct":true,"confidence":5},{"trial_n":31,"span":5,"encoder":"90247","distractor":"90241","target":"present","response":"present","rt":"1073.099999994","correct":true,"confidence":4},{"trial_n":32,"span":6,"encoder":"324116","distractor":"124116","target":"present","response":"present","rt":"833.80000001192","correct":true,"confidence":3},{"trial_n":33,"span":6,"encoder":"881272","distractor":"181272","target":"absent","response":"absent","rt":"1733.5","correct":true,"confidence":5},{"trial_n":34,"span":7,"encoder":"6111926","distractor":"6111626","target":"present","response":"present","rt":"1265.6999999881","correct":true,"confidence":5},{"trial_n":35,"span":7,"encoder":"0003431","distractor":"0003631","target":"absent","response":"absent","rt":"1722.8000000119","correct":true,"confidence":5},{"trial_n":36,"span":8,"encoder":"03707055","distractor":"03702055","target":"present","response":"present","rt":"1967.599999994","correct":true,"confidence":4},{"trial_n":37,"span":8,"encoder":"32010251","distractor":"32011251","target":"present","response":"present","rt":"1001.6999999881","correct":true,"confidence":3},{"trial_n":38,"span":9,"encoder":"086014508","distractor":"086014518","target":"absent","response":"present","rt":"5172.599999994","correct":false,"confidence":2},{"trial_n":39,"span":8,"encoder":"78590840","distractor":"78490840","target":"absent","response":"present","rt":"1824.599999994","correct":false,"confidence":3},{"trial_n":40,"span":7,"encoder":"6223588","distractor":"6228588","target":"present","response":"present","rt":"3642.1999999881","correct":true,"confidence":4},{"trial_n":41,"span":7,"encoder":"0758152","distractor":"0758552","target":"present","response":"present","rt":"1007.400000006","correct":true,"confidence":5},{"trial_n":42,"span":8,"encoder":"20656840","distractor":"20656846","target":"present","response":"present","rt":"4920.3000000119","correct":true,"confidence":4},{"trial_n":43,"span":8,"encoder":"08516699","distractor":"08517699","target":"present","response":"present","rt":"1362.6999999881","correct":true,"confidence":5},{"trial_n":44,"span":9,"encoder":"218089637","distractor":"018089637","target":"present","response":"absent","rt":"1561","correct":false,"confidence":2},{"trial_n":45,"span":8,"encoder":"53145666","distractor":"55145666","target":"present","response":"absent","rt":"1941.599999994","correct":false,"confidence":4},{"trial_n":46,"span":7,"encoder":"6174990","distractor":"6174090","target":"present","response":"present","rt":"1212","correct":true,"confidence":4},{"trial_n":47,"span":7,"encoder":"6488727","distractor":"6488767","target":"present","response":"present","rt":"931.20000001788","correct":true,"confidence":5},{"trial_n":48,"span":8,"encoder":"20471189","distractor":"20471187","target":"present","response":"present","rt":"212.90000000596","correct":true,"confidence":1},{"trial_n":49,"span":8,"encoder":"22788214","distractor":"22788254","target":"absent","response":"absent","rt":"2172.400000006","correct":true,"confidence":4},{"trial_n":50,"span":9,"encoder":"910195913","distractor":"910195910","target":"absent","response":"absent","rt":"1234.400000006","correct":true,"confidence":5},{"trial_n":51,"span":9,"encoder":"263159454","distractor":"263159434","target":"absent","response":"absent","rt":"1876.3000000119","correct":true,"confidence":5},{"trial_n":52,"span":10,"encoder":"0931337902","distractor":"0931337962","target":"present","response":"present","rt":"1925.599999994","correct":true,"confidence":3},{"trial_n":53,"span":10,"encoder":"6734922353","distractor":"6734962353","target":"present","response":"present","rt":"3397.5","correct":true,"confidence":2},{"trial_n":54,"span":11,"encoder":"49400087363","distractor":"49406087363","target":"present","response":"absent","rt":"2412.2000000179","correct":false,"confidence":4},{"trial_n":55,"span":10,"encoder":"0720304747","distractor":"0724304747","target":"absent","response":"absent","rt":"1456.400000006","correct":true,"confidence":1},{"trial_n":56,"span":10,"encoder":"0401463950","distractor":"0401468950","target":"absent","response":"present","rt":"3264.5","correct":false,"confidence":5},{"trial_n":57,"span":9,"encoder":"998476175","distractor":"998576175","target":"present","response":"present","rt":"791.40000000596","correct":true,"confidence":3},{"trial_n":58,"span":9,"encoder":"434242626","distractor":"434242622","target":"present","response":"present","rt":"2015.8000000119","correct":true,"confidence":5},{"trial_n":59,"span":10,"encoder":"3711615749","distractor":"3721615749","target":"absent","response":"present","rt":"1270.8000000119","correct":false,"confidence":3},{"trial_n":60,"span":9,"encoder":"092574170","distractor":"092774170","target":"absent","response":"present","rt":"1012.7000000179","correct":false,"confidence":4},{"trial_n":61,"span":8,"encoder":"45488874","distractor":"45488884","target":"absent","response":"present","rt":"1334.3000000119","correct":false,"confidence":4},{"trial_n":62,"span":7,"encoder":"7297802","distractor":"7297800","target":"present","response":"present","rt":"967.39999997616","correct":true,"confidence":2},{"trial_n":63,"span":7,"encoder":"6849382","distractor":"9849382","target":"absent","response":"present","rt":"1519.1000000238","correct":false,"confidence":3},{"trial_n":64,"span":6,"encoder":"084866","distractor":"024866","target":"absent","response":"present","rt":"1928.8999999762","correct":false,"confidence":4},{"trial_n":65,"span":5,"encoder":"40948","distractor":"20948","target":"absent","response":"present","rt":"2511","correct":false,"confidence":5},{"trial_n":66,"span":4,"encoder":"7129","distractor":"7109","target":"present","response":"present","rt":"997.5","correct":true,"confidence":5},{"trial_n":67,"span":4,"encoder":"2738","distractor":"2538","target":"present","response":"present","rt":"846","correct":true,"confidence":5},{"trial_n":68,"span":5,"encoder":"36128","distractor":"36168","target":"present","response":"present","rt":"2051.900000006","correct":true,"confidence":5},{"trial_n":69,"span":5,"encoder":"78153","distractor":"78553","target":"absent","response":"absent","rt":"1421.5","correct":true,"confidence":5},{"trial_n":70,"span":6,"encoder":"292619","distractor":"202619","target":"present","response":"present","rt":"5103.400000006","correct":true,"confidence":1},{"trial_n":71,"span":8,"encoder":"57692490","distractor":"57699490","target":"present","response":"present","rt":"3743.2999999821","correct":true,"confidence":-1},{"trial_n":72,"span":8,"encoder":"88503173","distractor":"89503173","target":"present","response":"present","rt":"5770.5","correct":true,"confidence":-1},{"trial_n":73,"span":9,"encoder":"782266131","distractor":"732266131","target":"absent","response":"present","rt":"5474.599999994","correct":false,"confidence":-1},{"trial_n":74,"span":8,"encoder":"64227010","distractor":"14227010","target":"absent","response":"absent","rt":"1741.599999994","correct":true,"confidence":-1},{"trial_n":75,"span":8,"encoder":"71229270","distractor":"71229277","target":"present","response":"present","rt":"998","correct":true,"confidence":-1},{"trial_n":76,"span":9,"encoder":"311755943","distractor":"313755943","target":"absent","response":"absent","rt":"3166.3000000119","correct":true,"confidence":-1},{"trial_n":77,"span":9,"encoder":"584646030","distractor":"084646030","target":"present","response":"absent","rt":"1873","correct":false,"confidence":-1},{"trial_n":78,"span":8,"encoder":"17940134","distractor":"17340134","target":"absent","response":"absent","rt":"5321","correct":true,"confidence":-1},{"trial_n":79,"span":8,"encoder":"64349480","distractor":"64345480","target":"present","response":"present","rt":"6826.400000006","correct":true,"confidence":-1},{"trial_n":80,"span":9,"encoder":"009056388","distractor":"009016388","target":"absent","response":"present","rt":"5942.1999999881","correct":false,"confidence":-1},{"trial_n":81,"span":8,"encoder":"85540181","distractor":"89540181","target":"present","response":"present","rt":"2600.1999999881","correct":true,"confidence":-1},{"trial_n":82,"span":8,"encoder":"17033411","distractor":"17033413","target":"present","response":"present","rt":"1259.3000000119","correct":true,"confidence":-1},{"trial_n":83,"span":9,"encoder":"518385545","distractor":"518385543","target":"present","response":"present","rt":"2037.6999999881","correct":true,"confidence":-1},{"trial_n":84,"span":9,"encoder":"685058728","distractor":"685058768","target":"absent","response":"absent","rt":"7489.8000000119","correct":true,"confidence":-1},{"trial_n":85,"span":10,"encoder":"8879942433","distractor":"5879942433","target":"present","response":"present","rt":"2034.5","correct":true,"confidence":-1},{"trial_n":86,"span":10,"encoder":"0242814222","distractor":"0242810222","target":"absent","response":"absent","rt":"4477.1000000238","correct":true,"confidence":-1},{"trial_n":87,"span":11,"encoder":"80858680181","distractor":"80859680181","target":"absent","response":"present","rt":"6637.900000006","correct":false,"confidence":-1},{"trial_n":88,"span":10,"encoder":"7097370617","distractor":"7007370617","target":"absent","response":"absent","rt":"9090.1999999881","correct":true,"confidence":-1},{"trial_n":89,"span":10,"encoder":"7735033930","distractor":"7735033936","target":"present","response":"absent","rt":"2414","correct":false,"confidence":-1},{"trial_n":90,"span":9,"encoder":"573795183","distractor":"573792183","target":"present","response":"present","rt":"4418","correct":true,"confidence":-1},{"trial_n":91,"span":9,"encoder":"418975469","distractor":"416975469","target":"absent","response":"absent","rt":"3727.1000000238","correct":true,"confidence":3},{"trial_n":92,"span":10,"encoder":"7427563995","distractor":"7427583995","target":"present","response":"absent","rt":"7389.1999999881","correct":false,"confidence":1},{"trial_n":93,"span":9,"encoder":"268601976","distractor":"868601976","target":"absent","response":"absent","rt":"3795.5","correct":true,"confidence":5},{"trial_n":94,"span":9,"encoder":"505094261","distractor":"595094261","target":"absent","response":"absent","rt":"8123.599999994","correct":true,"confidence":4},{"trial_n":95,"span":10,"encoder":"0574132215","distractor":"0574102215","target":"absent","response":"absent","rt":"7785.400000006","correct":true,"confidence":2},{"trial_n":96,"span":10,"encoder":"7781588956","distractor":"7781388956","target":"present","response":"present","rt":"12733.300000012","correct":true,"confidence":3},{"trial_n":97,"span":11,"encoder":"87485558909","distractor":"87485558904","target":"absent","response":"absent","rt":"2548","correct":true,"confidence":4},{"trial_n":98,"span":11,"encoder":"07839645446","distractor":"07839645444","target":"absent","response":"absent","rt":"2080.900000006","correct":true,"confidence":5},{"trial_n":99,"span":12,"encoder":"939204002025","distractor":"939204002125","target":"absent","response":"absent","rt":"1801","correct":true,"confidence":5},{"trial_n":100,"span":12,"encoder":"862759194061","distractor":"862759194060","target":"present","response":"present","rt":"1748.900000006","correct":true,"confidence":5},{"trial_n":101,"span":13,"encoder":"6451039272849","distractor":"6451039272899","target":"absent","response":"absent","rt":"3178","correct":true,"confidence":3},{"trial_n":102,"span":13,"encoder":"7784023986610","distractor":"7784023982610","target":"present","response":"present","rt":"2120.1999999881","correct":true,"confidence":5},{"trial_n":103,"span":14,"encoder":"12330291448121","distractor":"12430291448121","target":"present","response":"present","rt":"7745.2000000179","correct":true,"confidence":5},{"trial_n":104,"span":14,"encoder":"61273368536094","distractor":"61273968536094","target":"present","response":"present","rt":"5774.900000006","correct":true,"confidence":4},{"trial_n":105,"span":15,"encoder":"286782891804724","distractor":"283782891804724","target":"present","response":"absent","rt":"2875.099999994","correct":false,"confidence":1},{"trial_n":106,"span":14,"encoder":"57532564148804","distractor":"27532564148804","target":"present","response":"absent","rt":"4972.5","correct":false,"confidence":4},{"trial_n":107,"span":13,"encoder":"4176064067342","distractor":"4176064067322","target":"present","response":"present","rt":"2009.5","correct":true,"confidence":5},{"trial_n":108,"span":13,"encoder":"0832595512583","distractor":"0832595512383","target":"absent","response":"present","rt":"3299.5","correct":false,"confidence":2},{"trial_n":109,"span":12,"encoder":"237145569169","distractor":"237645569169","target":"absent","response":"absent","rt":"6740.400000006","correct":true,"confidence":3},{"trial_n":110,"span":12,"encoder":"363658599602","distractor":"363758599602","target":"absent","response":"present","rt":"9182.3999999762","correct":false,"confidence":4},{"trial_n":111,"span":11,"encoder":"36173720010","distractor":"36173720910","target":"absent","response":"absent","rt":"2438.8999999762","correct":true,"confidence":5},{"trial_n":112,"span":11,"encoder":"73027175181","distractor":"73027175121","target":"absent","response":"absent","rt":"2286.099999994","correct":true,"confidence":4},{"trial_n":113,"span":12,"encoder":"045425408397","distractor":"045225408397","target":"present","response":"present","rt":"6195.099999994","correct":true,"confidence":3},{"trial_n":114,"span":12,"encoder":"663346326162","distractor":"663346320162","target":"present","response":"absent","rt":"2319.7000000179","correct":false,"confidence":2},{"trial_n":115,"span":11,"encoder":"16278232614","distractor":"16298232614","target":"present","response":"absent","rt":"1597.7000000179","correct":false,"confidence":3},{"trial_n":116,"span":10,"encoder":"0014653889","distractor":"0014653869","target":"present","response":"present","rt":"2881.6000000238","correct":true,"confidence":5},{"trial_n":117,"span":10,"encoder":"6700225995","distractor":"6700725995","target":"absent","response":"present","rt":"3984.5","correct":false,"confidence":4},{"trial_n":118,"span":9,"encoder":"727096830","distractor":"727006830","target":"present","response":"present","rt":"5163.5","correct":true,"confidence":5},{"trial_n":119,"span":9,"encoder":"094748423","distractor":"094748463","target":"absent","response":"absent","rt":"3989.3999999762","correct":true,"confidence":5},{"trial_n":120,"span":10,"encoder":"3468766829","distractor":"3468066829","target":"present","response":"absent","rt":"8964.7999999821","correct":false,"confidence":1},{"trial_n":121,"span":9,"encoder":"859253980","distractor":"859253180","target":"present","response":"present","rt":"2086.6999999881","correct":true,"confidence":5},{"trial_n":122,"span":9,"encoder":"302303304","distractor":"302373304","target":"absent","response":"absent","rt":"4675.099999994","correct":true,"confidence":4},{"trial_n":123,"span":10,"encoder":"0069134386","distractor":"0069136386","target":"absent","response":"absent","rt":"4124.6999999881","correct":true,"confidence":5},{"trial_n":124,"span":10,"encoder":"7561318029","distractor":"7561318329","target":"present","response":"present","rt":"2733.1999999881","correct":true,"confidence":5},{"trial_n":125,"span":11,"encoder":"85023663271","distractor":"85023663371","target":"absent","response":"absent","rt":"3554.900000006","correct":true,"confidence":5},{"trial_n":126,"span":11,"encoder":"58167337825","distractor":"38167337825","target":"present","response":"absent","rt":"9118.7000000179","correct":false,"confidence":2},{"trial_n":127,"span":10,"encoder":"9383232687","distractor":"9303232687","target":"present","response":"present","rt":"9642.5","correct":true,"confidence":3},{"trial_n":128,"span":10,"encoder":"2066049368","distractor":"2066049358","target":"present","response":"present","rt":"2707.7000000179","correct":true,"confidence":4},{"trial_n":129,"span":11,"encoder":"09659613729","distractor":"09659613329","target":"absent","response":"absent","rt":"2765.1999999881","correct":true,"confidence":5},{"trial_n":130,"span":11,"encoder":"46753651341","distractor":"46953651341","target":"present","response":"present","rt":"6207.900000006","correct":true,"confidence":3},{"trial_n":131,"span":12,"encoder":"127786138104","distractor":"127686138104","target":"absent","response":"absent","rt":"4859.7000000179","correct":true,"confidence":4},{"trial_n":132,"span":12,"encoder":"449985659352","distractor":"449989659352","target":"absent","response":"present","rt":"8735.3000000119","correct":false,"confidence":4},{"trial_n":133,"span":11,"encoder":"79065383817","distractor":"79065383814","target":"present","response":"present","rt":"1700.900000006","correct":true,"confidence":5},{"trial_n":134,"span":11,"encoder":"61032777974","distractor":"51032777974","target":"present","response":"present","rt":"6851.400000006","correct":true,"confidence":3},{"trial_n":135,"span":12,"encoder":"236712367586","distractor":"236712367566","target":"absent","response":"absent","rt":"2683.2000000179","correct":true,"confidence":5},{"trial_n":136,"span":12,"encoder":"507648756759","distractor":"507648756959","target":"absent","response":"absent","rt":"2254.7000000179","correct":true,"confidence":4},{"trial_n":137,"span":13,"encoder":"6449555388420","distractor":"6449555388490","target":"present","response":"present","rt":"2750.900000006","correct":true,"confidence":3},{"trial_n":138,"span":13,"encoder":"5053032339697","distractor":"6053032339697","target":"absent","response":"absent","rt":"3613.7000000179","correct":true,"confidence":5},{"trial_n":139,"span":14,"encoder":"07941335210768","distractor":"07941330210768","target":"present","response":"present","rt":"8611","correct":true,"confidence":3},{"trial_n":140,"span":14,"encoder":"83718280372487","distractor":"83018280372487","target":"absent","response":"absent","rt":"6075.7000000179","correct":true,"confidence":1}]