[{"trial_n":1,"span":8,"encoder":"68646473","distractor":"68646479","target":"present","response":"present","rt":"4515","correct":true,"confidence":-1},{"trial_n":2,"span":8,"encoder":"11588205","distractor":"11488205","target":"present","response":"present","rt":"6517.1000000238","correct":true,"confidence":-1},{"trial_n":3,"span":10,"encoder":"9253623944","distractor":"9223623944","target":"absent","response":"absent","rt":"2655.8999999762","correct":true,"confidence":-1},{"trial_n":4,"span":10,"encoder":"3561393385","distractor":"3561393375","target":"absent","response":"absent","rt":"4213.2999999523","correct":true,"confidence":-1},{"trial_n":5,"span":12,"encoder":"024412272896","distractor":"024412232896","target":"present","response":"absent","rt":"2904.3000000715","correct":false,"confidence":-1},{"trial_n":6,"span":10,"encoder":"5126743005","distractor":"5126743065","target":"present","response":"present","rt":"2080.7000000477","correct":true,"confidence":-1},{"trial_n":7,"span":10,"encoder":"8904959711","distractor":"8934959711","target":"present","response":"present","rt":"2994.2999999523","correct":true,"confidence":-1},{"trial_n":8,"span":12,"encoder":"557265686268","distractor":"557265386268","target":"absent","response":"present","rt":"5408.3999999762","correct":false,"confidence":-1},{"trial_n":9,"span":10,"encoder":"4553774002","distractor":"4553754002","target":"absent","response":"present","rt":"4106","correct":false,"confidence":-1},{"trial_n":10,"span":8,"encoder":"13127364","distractor":"13127363","target":"absent","response":"absent","rt":"5351.5","correct":true,"confidence":-1},{"trial_n":11,"span":8,"encoder":"14556031","distractor":"34556031","target":"absent","response":"present","rt":"4490.1000000238","correct":false,"confidence":-1},{"trial_n":12,"span":7,"encoder":"7291588","distractor":"7291587","target":"present","response":"present","rt":"3940.1000000238","correct":true,"confidence":-1},{"trial_n":13,"span":7,"encoder":"3245538","distractor":"3240538","target":"present","response":"present","rt":"3043.8999999762","correct":true,"confidence":-1},{"trial_n":14,"span":8,"encoder":"78467327","distractor":"78467627","target":"present","response":"present","rt":"3824.8999999762","correct":true,"confidence":-1},{"trial_n":15,"span":8,"encoder":"20227268","distractor":"20229268","target":"present","response":"present","rt":"3110.3999999762","correct":true,"confidence":-1},{"trial_n":16,"span":9,"encoder":"360079194","distractor":"660079194","target":"absent","response":"absent","rt":"2479","correct":true,"confidence":-1},{"trial_n":17,"span":9,"encoder":"830908922","distractor":"830908926","target":"present","response":"present","rt":"4828.1000000238","correct":true,"confidence":-1},{"trial_n":18,"span":10,"encoder":"3732811323","distractor":"3732111323","target":"absent","response":"absent","rt":"6525.0999999046","correct":true,"confidence":-1},{"trial_n":19,"span":10,"encoder":"1388850484","distractor":"1386850484","target":"present","response":"present","rt":"2503.2999999523","correct":true,"confidence":-1},{"trial_n":20,"span":11,"encoder":"32832202292","distractor":"32832202202","target":"absent","response":"present","rt":"4859.3999999762","correct":false,"confidence":-1},{"trial_n":21,"span":10,"encoder":"9096919689","distractor":"9096919683","target":"present","response":"present","rt":"5909.5999999046","correct":true,"confidence":4},{"trial_n":22,"span":10,"encoder":"1222663908","distractor":"1227663908","target":"present","response":"present","rt":"3583.2000000477","correct":true,"confidence":5},{"trial_n":23,"span":11,"encoder":"66668111016","distractor":"64668111016","target":"present","response":"present","rt":"4943.1000000238","correct":true,"confidence":3},{"trial_n":24,"span":11,"encoder":"98413346115","distractor":"98413346515","target":"absent","response":"absent","rt":"2307.0999999046","correct":true,"confidence":4},{"trial_n":25,"span":12,"encoder":"974325249557","distractor":"974125249557","target":"absent","response":"absent","rt":"4947","correct":true,"confidence":3},{"trial_n":26,"span":12,"encoder":"448216224654","distractor":"448216226654","target":"absent","response":"absent","rt":"4811.5","correct":true,"confidence":5},{"trial_n":27,"span":13,"encoder":"7904644684530","distractor":"7904644684550","target":"present","response":"absent","rt":"9384.3999999762","correct":false,"confidence":2},{"trial_n":28,"span":12,"encoder":"657166151931","distractor":"657163151931","target":"absent","response":"present","rt":"4923.2999999523","correct":false,"confidence":3},{"trial_n":29,"span":11,"encoder":"78171074625","distractor":"38171074625","target":"present","response":"absent","rt":"8523.8999999762","correct":false,"confidence":3},{"trial_n":30,"span":10,"encoder":"3001057692","distractor":"3601057692","target":"present","response":"present","rt":"1959.4000000954","correct":true,"confidence":4},{"trial_n":31,"span":10,"encoder":"5289647266","distractor":"5287647266","target":"absent","response":"absent","rt":"2248","correct":true,"confidence":4},{"trial_n":32,"span":11,"encoder":"93351960901","distractor":"93351960902","target":"absent","response":"present","rt":"5769.3000000715","correct":false,"confidence":3},{"trial_n":33,"span":10,"encoder":"4496065462","distractor":"4496095462","target":"absent","response":"present","rt":"5179.2999999523","correct":false,"confidence":4},{"trial_n":34,"span":9,"encoder":"456932019","distractor":"456931019","target":"present","response":"present","rt":"4684.8000000715","correct":true,"confidence":5},{"trial_n":35,"span":9,"encoder":"752070555","distractor":"752070545","target":"absent","response":"absent","rt":"2221.3999999762","correct":true,"confidence":5},{"trial_n":36,"span":10,"encoder":"2828327962","distractor":"2818327962","target":"absent","response":"absent","rt":"63780.799999952","correct":true,"confidence":2},{"trial_n":37,"span":10,"encoder":"6621626398","distractor":"6621226398","target":"absent","response":"absent","rt":"3369.3999999762","correct":true,"confidence":4},{"trial_n":38,"span":11,"encoder":"42738783301","distractor":"42734783301","target":"present","response":"present","rt":"7857.9000000954","correct":true,"confidence":2},{"trial_n":39,"span":11,"encoder":"37987658005","distractor":"37987858005","target":"absent","response":"absent","rt":"7454.6999999285","correct":true,"confidence":3},{"trial_n":40,"span":12,"encoder":"776689114307","distractor":"776689114377","target":"present","response":"present","rt":"36060.5","correct":true,"confidence":3},{"trial_n":41,"span":12,"encoder":"468121200905","distractor":"468111200905","target":"absent","response":"absent","rt":"3254.8999999762","correct":true,"confidence":3},{"trial_n":42,"span":13,"encoder":"5781351073386","distractor":"5781351573386","target":"present","response":"present","rt":"6865.6000000238","correct":true,"confidence":2},{"trial_n":43,"span":13,"encoder":"4163682725257","distractor":"4163684725257","target":"absent","response":"present","rt":"30543.599999905","correct":false,"confidence":2},{"trial_n":44,"span":12,"encoder":"432431304963","distractor":"432431104963","target":"absent","response":"absent","rt":"3259.5","correct":true,"confidence":4},{"trial_n":45,"span":12,"encoder":"267632697297","distractor":"267662697297","target":"present","response":"present","rt":"6343.3000000715","correct":true,"confidence":4},{"trial_n":46,"span":13,"encoder":"0294309551298","distractor":"0296309551298","target":"absent","response":"present","rt":"7447.5","correct":false,"confidence":2},{"trial_n":47,"span":12,"encoder":"861614783856","distractor":"861614783858","target":"absent","response":"present","rt":"6180.4000000954","correct":false,"confidence":4},{"trial_n":48,"span":11,"encoder":"62044684491","distractor":"62844684491","target":"present","response":"present","rt":"5481.6000000238","correct":true,"confidence":3},{"trial_n":49,"span":11,"encoder":"28018635699","distractor":"28018605699","target":"absent","response":"present","rt":"8144.3999999762","correct":false,"confidence":5},{"trial_n":50,"span":10,"encoder":"8949807368","distractor":"8949607368","target":"present","response":"present","rt":"7622.2999999523","correct":true,"confidence":3},{"trial_n":51,"span":10,"encoder":"6160332886","distractor":"6110332886","target":"present","response":"present","rt":"5682","correct":true,"confidence":3},{"trial_n":52,"span":11,"encoder":"01417356170","distractor":"01417336170","target":"present","response":"absent","rt":"5910.1000000238","correct":false,"confidence":3},{"trial_n":53,"span":10,"encoder":"5880061165","distractor":"5880067165","target":"absent","response":"absent","rt":"4811.0999999046","correct":true,"confidence":3},{"trial_n":54,"span":10,"encoder":"7757591651","distractor":"5757591651","target":"absent","response":"present","rt":"7812.2000000477","correct":false,"confidence":4},{"trial_n":55,"span":9,"encoder":"256902642","distractor":"256906642","target":"present","response":"present","rt":"4559.1000000238","correct":true,"confidence":3},{"trial_n":56,"span":9,"encoder":"101442617","distractor":"101342617","target":"absent","response":"absent","rt":"4996.2000000477","correct":true,"confidence":4},{"trial_n":57,"span":10,"encoder":"4827686844","distractor":"4827676844","target":"present","response":"present","rt":"4317.1000000238","correct":true,"confidence":4},{"trial_n":58,"span":10,"encoder":"5505517494","distractor":"5505519494","target":"absent","response":"present","rt":"8288","correct":false,"confidence":3},{"trial_n":59,"span":9,"encoder":"500024508","distractor":"520024508","target":"present","response":"present","rt":"3575.6999999285","correct":true,"confidence":3},{"trial_n":60,"span":9,"encoder":"068512905","distractor":"068812905","target":"absent","response":"present","rt":"7385.6000000238","correct":false,"confidence":2},{"trial_n":61,"span":8,"encoder":"87090134","distractor":"87190134","target":"present","response":"present","rt":"3767.1000000238","correct":true,"confidence":4},{"trial_n":62,"span":8,"encoder":"56187979","distractor":"56187972","target":"present","response":"present","rt":"3902.3000000715","correct":true,"confidence":3},{"trial_n":63,"span":9,"encoder":"382192723","distractor":"382196723","target":"present","response":"absent","rt":"13708.800000072","correct":false,"confidence":5},{"trial_n":64,"span":8,"encoder":"51302354","distractor":"51702354","target":"present","response":"absent","rt":"14228.100000024","correct":false,"confidence":2},{"trial_n":65,"span":7,"encoder":"5787719","distractor":"5787709","target":"present","response":"present","rt":"3086.1000000238","correct":true,"confidence":5},{"trial_n":66,"span":7,"encoder":"0790365","distractor":"0790375","target":"absent","response":"absent","rt":"3692.2000000477","correct":true,"confidence":4},{"trial_n":67,"span":8,"encoder":"55825270","distractor":"55895270","target":"present","response":"present","rt":"3847.5999999046","correct":true,"confidence":3},{"trial_n":68,"span":8,"encoder":"60018824","distractor":"60018894","target":"present","response":"present","rt":"2469.1000000238","correct":true,"confidence":5},{"trial_n":69,"span":9,"encoder":"029964604","distractor":"029962604","target":"absent","response":"present","rt":"9124.5999999046","correct":false,"confidence":3},{"trial_n":70,"span":8,"encoder":"12473934","distractor":"12473134","target":"absent","response":"absent","rt":"3664.2999999523","correct":true,"confidence":3},{"trial_n":71,"span":8,"encoder":"95780753","distractor":"95780253","target":"present","response":"present","rt":"6188","correct":true,"confidence":-1},{"trial_n":72,"span":8,"encoder":"96141214","distractor":"06141214","target":"present","response":"present","rt":"3781","correct":true,"confidence":-1},{"trial_n":73,"span":9,"encoder":"631196375","distractor":"431196375","target":"absent","response":"present","rt":"11729.900000095","correct":false,"confidence":-1},{"trial_n":74,"span":8,"encoder":"89064273","distractor":"89464273","target":"absent","response":"absent","rt":"10537.899999976","correct":true,"confidence":-1},{"trial_n":75,"span":8,"encoder":"30122723","distractor":"30122023","target":"present","response":"absent","rt":"6578.8999999762","correct":false,"confidence":-1},{"trial_n":76,"span":7,"encoder":"6739450","distractor":"6719450","target":"absent","response":"absent","rt":"4861.1000000238","correct":true,"confidence":-1},{"trial_n":77,"span":7,"encoder":"7244537","distractor":"7246537","target":"present","response":"present","rt":"5935.8999999762","correct":true,"confidence":-1},{"trial_n":78,"span":8,"encoder":"95372463","distractor":"95322463","target":"present","response":"present","rt":"8836","correct":true,"confidence":-1},{"trial_n":79,"span":8,"encoder":"13328732","distractor":"13328332","target":"absent","response":"absent","rt":"3391","correct":true,"confidence":-1},{"trial_n":80,"span":9,"encoder":"823010654","distractor":"883010654","target":"present","response":"present","rt":"6643.2000000477","correct":true,"confidence":-1},{"trial_n":81,"span":9,"encoder":"431549949","distractor":"131549949","target":"absent","response":"absent","rt":"3597.3999999762","correct":true,"confidence":-1},{"trial_n":82,"span":10,"encoder":"5628747379","distractor":"8628747379","target":"present","response":"absent","rt":"7499.3999999762","correct":false,"confidence":-1},{"trial_n":83,"span":9,"encoder":"812840887","distractor":"842840887","target":"present","response":"absent","rt":"6588.8999999762","correct":false,"confidence":-1},{"trial_n":84,"span":8,"encoder":"98135038","distractor":"98135138","target":"absent","response":"present","rt":"5797.1999999285","correct":false,"confidence":-1},{"trial_n":85,"span":7,"encoder":"5826345","distractor":"5826325","target":"present","response":"absent","rt":"8064","correct":false,"confidence":-1},{"trial_n":86,"span":6,"encoder":"051443","distractor":"051403","target":"absent","response":"absent","rt":"2728.7000000477","correct":true,"confidence":-1},{"trial_n":87,"span":6,"encoder":"754572","distractor":"734572","target":"absent","response":"absent","rt":"4197.1000000238","correct":true,"confidence":-1},{"trial_n":88,"span":7,"encoder":"7218510","distractor":"7418510","target":"absent","response":"absent","rt":"3959","correct":true,"confidence":-1},{"trial_n":89,"span":7,"encoder":"7115060","distractor":"7115260","target":"present","response":"present","rt":"3224.2000000477","correct":true,"confidence":-1},{"trial_n":90,"span":8,"encoder":"27922835","distractor":"28922835","target":"present","response":"absent","rt":"2177.6000000238","correct":false,"confidence":-1},{"trial_n":91,"span":7,"encoder":"6273565","distractor":"6273564","target":"present","response":"present","rt":"3261","correct":true,"confidence":5},{"trial_n":92,"span":7,"encoder":"3294689","distractor":"3299689","target":"present","response":"present","rt":"3809.2999999523","correct":true,"confidence":4},{"trial_n":93,"span":8,"encoder":"81956173","distractor":"81956183","target":"absent","response":"absent","rt":"4563.8999999762","correct":true,"confidence":4},{"trial_n":94,"span":8,"encoder":"27081849","distractor":"27081869","target":"absent","response":"absent","rt":"5853.2999999523","correct":true,"confidence":3},{"trial_n":95,"span":9,"encoder":"642099828","distractor":"742099828","target":"absent","response":"absent","rt":"4659.6999999285","correct":true,"confidence":2},{"trial_n":96,"span":9,"encoder":"716331385","distractor":"716331315","target":"present","response":"present","rt":"7247.3999999762","correct":true,"confidence":3},{"trial_n":97,"span":10,"encoder":"6398933460","distractor":"6398933468","target":"present","response":"present","rt":"6493.7999999523","correct":true,"confidence":3},{"trial_n":98,"span":10,"encoder":"3730907417","distractor":"3730907917","target":"absent","response":"present","rt":"7062.1999999285","correct":false,"confidence":3},{"trial_n":99,"span":9,"encoder":"462387070","distractor":"462387010","target":"present","response":"present","rt":"7928.6000000238","correct":true,"confidence":4},{"trial_n":100,"span":9,"encoder":"646476354","distractor":"646476334","target":"present","response":"present","rt":"5342.5999999046","correct":true,"confidence":5},{"trial_n":101,"span":10,"encoder":"0434140569","distractor":"0134140569","target":"absent","response":"absent","rt":"4341.7999999523","correct":true,"confidence":4},{"trial_n":102,"span":10,"encoder":"0426971304","distractor":"0426971504","target":"present","response":"present","rt":"7670.1999999285","correct":true,"confidence":2},{"trial_n":103,"span":11,"encoder":"98333607610","distractor":"98313607610","target":"absent","response":"absent","rt":"4460.8000000715","correct":true,"confidence":5},{"trial_n":104,"span":11,"encoder":"14175904784","distractor":"14175903784","target":"present","response":"absent","rt":"5739.5999999046","correct":false,"confidence":3},{"trial_n":105,"span":10,"encoder":"8972896662","distractor":"8972886662","target":"absent","response":"absent","rt":"6185.2000000477","correct":true,"confidence":5},{"trial_n":106,"span":10,"encoder":"3966597970","distractor":"3966597960","target":"present","response":"absent","rt":"6519.6000000238","correct":false,"confidence":3},{"trial_n":107,"span":9,"encoder":"037563429","distractor":"037563829","target":"present","response":"absent","rt":"8391.1000000238","correct":false,"confidence":2},{"trial_n":108,"span":8,"encoder":"79808650","distractor":"71808650","target":"absent","response":"absent","rt":"11603.899999976","correct":true,"confidence":1},{"trial_n":109,"span":8,"encoder":"67775872","distractor":"67775879","target":"absent","response":"absent","rt":"5079.6000000238","correct":true,"confidence":5},{"trial_n":110,"span":9,"encoder":"988938260","distractor":"989938260","target":"absent","response":"absent","rt":"2346.1999999285","correct":true,"confidence":4},{"trial_n":111,"span":9,"encoder":"120096512","distractor":"120296512","target":"present","response":"present","rt":"6200.3999999762","correct":true,"confidence":5},{"trial_n":112,"span":10,"encoder":"7775983076","distractor":"7675983076","target":"present","response":"present","rt":"6068.5","correct":true,"confidence":5},{"trial_n":113,"span":10,"encoder":"3892930691","distractor":"3832930691","target":"present","response":"present","rt":"9617.8000000715","correct":true,"confidence":3},{"trial_n":114,"span":11,"encoder":"62267657139","distractor":"62207657139","target":"present","response":"present","rt":"4850.2999999523","correct":true,"confidence":2},{"trial_n":115,"span":11,"encoder":"05463236170","distractor":"05963236170","target":"absent","response":"absent","rt":"5661.1000000238","correct":true,"confidence":1},{"trial_n":116,"span":12,"encoder":"189495812750","distractor":"189495810750","target":"absent","response":"absent","rt":"12522.400000095","correct":true,"confidence":2},{"trial_n":117,"span":12,"encoder":"038037285546","distractor":"038437285546","target":"absent","response":"present","rt":"4268.2999999523","correct":false,"confidence":3},{"trial_n":118,"span":11,"encoder":"68716722121","distractor":"68716722111","target":"absent","response":"absent","rt":"4687.6000000238","correct":true,"confidence":4},{"trial_n":119,"span":11,"encoder":"94254995216","distractor":"94254995296","target":"present","response":"present","rt":"3918.1000000238","correct":true,"confidence":4},{"trial_n":120,"span":12,"encoder":"951165784139","distractor":"951164784139","target":"absent","response":"present","rt":"3553.1999999285","correct":false,"confidence":3},{"trial_n":121,"span":11,"encoder":"59712046710","distractor":"53712046710","target":"present","response":"present","rt":"7998","correct":true,"confidence":4},{"trial_n":122,"span":11,"encoder":"31311573957","distractor":"38311573957","target":"absent","response":"absent","rt":"1899.8999999762","correct":true,"confidence":5},{"trial_n":123,"span":12,"encoder":"672357623942","distractor":"672357623952","target":"present","response":"absent","rt":"13201","correct":false,"confidence":2},{"trial_n":124,"span":11,"encoder":"63632158924","distractor":"63632958924","target":"present","response":"present","rt":"4792.5999999046","correct":true,"confidence":3},{"trial_n":125,"span":11,"encoder":"17766190525","distractor":"17766190025","target":"absent","response":"absent","rt":"6319.1000000238","correct":true,"confidence":2},{"trial_n":126,"span":12,"encoder":"223890215127","distractor":"223890215727","target":"absent","response":"absent","rt":"8692.5","correct":true,"confidence":2},{"trial_n":127,"span":12,"encoder":"708064949898","distractor":"738064949898","target":"present","response":"present","rt":"7042.2000000477","correct":true,"confidence":5},{"trial_n":128,"span":13,"encoder":"3774069174008","distractor":"3704069174008","target":"present","response":"present","rt":"2329.6999999285","correct":true,"confidence":4},{"trial_n":129,"span":13,"encoder":"4243011911406","distractor":"4244011911406","target":"absent","response":"absent","rt":"6412.5","correct":true,"confidence":3},{"trial_n":130,"span":14,"encoder":"39929575621788","distractor":"39928575621788","target":"absent","response":"present","rt":"6093.5","correct":false,"confidence":4},{"trial_n":131,"span":13,"encoder":"4601409322913","distractor":"4601409722913","target":"absent","response":"present","rt":"8253.1000000238","correct":false,"confidence":3},{"trial_n":132,"span":12,"encoder":"407780398317","distractor":"407780398347","target":"present","response":"present","rt":"7845.6000000238","correct":true,"confidence":2},{"trial_n":133,"span":12,"encoder":"156866338326","distractor":"156866338386","target":"present","response":"present","rt":"4169.1999999285","correct":true,"confidence":5},{"trial_n":134,"span":13,"encoder":"6852729104959","distractor":"6852729104953","target":"present","response":"absent","rt":"15529.300000072","correct":false,"confidence":3},{"trial_n":135,"span":12,"encoder":"920174804303","distractor":"940174804303","target":"absent","response":"present","rt":"7253.7000000477","correct":false,"confidence":3},{"trial_n":136,"span":11,"encoder":"59184889428","distractor":"59181889428","target":"absent","response":"absent","rt":"7379.1000000238","correct":true,"confidence":4},{"trial_n":137,"span":11,"encoder":"80918680141","distractor":"90918680141","target":"absent","response":"present","rt":"9599.2999999523","correct":false,"confidence":1},{"trial_n":138,"span":10,"encoder":"3845635760","distractor":"3845635660","target":"absent","response":"absent","rt":"2924.7999999523","correct":true,"confidence":3},{"trial_n":139,"span":10,"encoder":"0596618968","distractor":"0596618963","target":"present","response":"absent","rt":"10557.299999952","correct":false,"confidence":2},{"trial_n":140,"span":9,"encoder":"520292538","distractor":"522292538","target":"present","response":"present","rt":"4212.2999999523","correct":true,"confidence":5}]