[{"trial_n":1,"min":25,"max":230,"target":"present","response":"present","rt":14162,"correct":true,"confidence":-1},{"trial_n":2,"min":25,"max":230,"target":"present","response":"present","rt":393,"correct":true,"confidence":-1},{"trial_n":3,"min":41,"max":214,"target":"absent","response":"absent","rt":280,"correct":true,"confidence":-1},{"trial_n":4,"min":41,"max":214,"target":"absent","response":"absent","rt":265.99999999994,"correct":true,"confidence":-1},{"trial_n":5,"min":57,"max":198,"target":"present","response":"present","rt":284,"correct":true,"confidence":-1},{"trial_n":6,"min":57,"max":198,"target":"absent","response":"absent","rt":235.00000000006,"correct":true,"confidence":-1},{"trial_n":7,"min":73,"max":182,"target":"present","response":"present","rt":470,"correct":true,"confidence":-1},{"trial_n":8,"min":73,"max":182,"target":"present","response":"absent","rt":514,"correct":false,"confidence":-1},{"trial_n":9,"min":57,"max":198,"target":"present","response":"present","rt":336,"correct":true,"confidence":-1},{"trial_n":10,"min":57,"max":198,"target":"present","response":"present","rt":343,"correct":true,"confidence":-1},{"trial_n":11,"min":65,"max":190,"target":"present","response":"present","rt":604,"correct":true,"confidence":-1},{"trial_n":12,"min":65,"max":190,"target":"absent","response":"absent","rt":276,"correct":true,"confidence":-1},{"trial_n":13,"min":73,"max":182,"target":"present","response":"present","rt":364,"correct":true,"confidence":-1},{"trial_n":14,"min":73,"max":182,"target":"present","response":"present","rt":392,"correct":true,"confidence":-1},{"trial_n":15,"min":81,"max":174,"target":"present","response":"present","rt":254,"correct":true,"confidence":-1},{"trial_n":16,"min":81,"max":174,"target":"absent","response":"absent","rt":341,"correct":true,"confidence":-1},{"trial_n":17,"min":89,"max":166,"target":"absent","response":"absent","rt":296,"correct":true,"confidence":-1},{"trial_n":18,"min":89,"max":166,"target":"present","response":"absent","rt":318,"correct":false,"confidence":-1},{"trial_n":19,"min":81,"max":174,"target":"absent","response":"absent","rt":607,"correct":true,"confidence":-1},{"trial_n":20,"min":81,"max":174,"target":"present","response":"present","rt":424,"correct":true,"confidence":-1},{"trial_n":21,"min":85,"max":170,"target":"absent","response":"absent","rt":302,"correct":true,"confidence":3},{"trial_n":22,"min":85,"max":170,"target":"present","response":"present","rt":813,"correct":true,"confidence":3},{"trial_n":23,"min":89,"max":166,"target":"absent","response":"absent","rt":269,"correct":true,"confidence":3},{"trial_n":24,"min":89,"max":166,"target":"absent","response":"present","rt":1667,"correct":false,"confidence":4},{"trial_n":25,"min":85,"max":170,"target":"present","response":"absent","rt":1370.0000000001,"correct":false,"confidence":3},{"trial_n":26,"min":81,"max":174,"target":"absent","response":"present","rt":1311,"correct":false,"confidence":4},{"trial_n":27,"min":77,"max":178,"target":"present","response":"present","rt":907,"correct":true,"confidence":5},{"trial_n":28,"min":77,"max":178,"target":"absent","response":"absent","rt":409,"correct":true,"confidence":4},{"trial_n":29,"min":81,"max":174,"target":"present","response":"present","rt":1219,"correct":true,"confidence":4},{"trial_n":30,"min":81,"max":174,"target":"present","response":"present","rt":640,"correct":true,"confidence":4},{"trial_n":31,"min":83,"max":172,"target":"present","response":"present","rt":696.00000000006,"correct":true,"confidence":4},{"trial_n":32,"min":83,"max":172,"target":"absent","response":"present","rt":496,"correct":false,"confidence":4},{"trial_n":33,"min":81,"max":174,"target":"absent","response":"absent","rt":833,"correct":true,"confidence":3},{"trial_n":34,"min":81,"max":174,"target":"present","response":"absent","rt":2827,"correct":false,"confidence":3},{"trial_n":35,"min":79,"max":176,"target":"absent","response":"present","rt":326,"correct":false,"confidence":3},{"trial_n":36,"min":77,"max":178,"target":"absent","response":"present","rt":1080,"correct":false,"confidence":4},{"trial_n":37,"min":75,"max":180,"target":"present","response":"present","rt":799,"correct":true,"confidence":4},{"trial_n":38,"min":75,"max":180,"target":"absent","response":"present","rt":603.99999999994,"correct":false,"confidence":4},{"trial_n":39,"min":73,"max":182,"target":"present","response":"present","rt":759,"correct":true,"confidence":4},{"trial_n":40,"min":73,"max":182,"target":"absent","response":"absent","rt":718.99999999994,"correct":true,"confidence":3},{"trial_n":41,"min":74,"max":181,"target":"present","response":"present","rt":884.00000000006,"correct":true,"confidence":4},{"trial_n":42,"min":74,"max":181,"target":"absent","response":"present","rt":1757.9999999999,"correct":false,"confidence":3},{"trial_n":43,"min":73,"max":182,"target":"absent","response":"absent","rt":293.99999999994,"correct":true,"confidence":3},{"trial_n":44,"min":73,"max":182,"target":"absent","response":"present","rt":1263.9999999999,"correct":false,"confidence":3},{"trial_n":45,"min":72,"max":183,"target":"absent","response":"absent","rt":554,"correct":true,"confidence":3},{"trial_n":46,"min":72,"max":183,"target":"absent","response":"absent","rt":1283,"correct":true,"confidence":3},{"trial_n":47,"min":73,"max":182,"target":"present","response":"present","rt":542.99999999994,"correct":true,"confidence":4},{"trial_n":48,"min":73,"max":182,"target":"present","response":"present","rt":734,"correct":true,"confidence":4},{"trial_n":49,"min":74,"max":181,"target":"absent","response":"present","rt":1105,"correct":false,"confidence":3},{"trial_n":50,"min":73,"max":182,"target":"present","response":"present","rt":443,"correct":true,"confidence":4},{"trial_n":51,"min":73,"max":182,"target":"present","response":"present","rt":422,"correct":true,"confidence":4},{"trial_n":52,"min":74,"max":181,"target":"absent","response":"present","rt":1083,"correct":false,"confidence":3},{"trial_n":53,"min":73,"max":182,"target":"absent","response":"present","rt":816,"correct":false,"confidence":3},{"trial_n":54,"min":72,"max":183,"target":"absent","response":"absent","rt":184.99999999994,"correct":true,"confidence":4},{"trial_n":55,"min":72,"max":183,"target":"absent","response":"absent","rt":421,"correct":true,"confidence":4},{"trial_n":56,"min":73,"max":182,"target":"present","response":"present","rt":803,"correct":true,"confidence":4},{"trial_n":57,"min":73,"max":182,"target":"absent","response":"present","rt":2991.0000000001,"correct":false,"confidence":2},{"trial_n":58,"min":72,"max":183,"target":"present","response":"present","rt":475,"correct":true,"confidence":4},{"trial_n":59,"min":72,"max":183,"target":"absent","response":"absent","rt":319,"correct":true,"confidence":3},{"trial_n":60,"min":73,"max":182,"target":"absent","response":"absent","rt":509,"correct":true,"confidence":3},{"trial_n":61,"min":73,"max":182,"target":"present","response":"present","rt":425,"correct":true,"confidence":4},{"trial_n":62,"min":74,"max":181,"target":"present","response":"present","rt":347.00000000006,"correct":true,"confidence":4},{"trial_n":63,"min":74,"max":181,"target":"present","response":"present","rt":206,"correct":true,"confidence":4},{"trial_n":64,"min":75,"max":180,"target":"present","response":"absent","rt":876,"correct":false,"confidence":3},{"trial_n":65,"min":74,"max":181,"target":"absent","response":"absent","rt":758,"correct":true,"confidence":4},{"trial_n":66,"min":74,"max":181,"target":"absent","response":"absent","rt":343,"correct":true,"confidence":4},{"trial_n":67,"min":75,"max":180,"target":"present","response":"present","rt":638,"correct":true,"confidence":4},{"trial_n":68,"min":75,"max":180,"target":"present","response":"present","rt":150,"correct":true,"confidence":4},{"trial_n":69,"min":76,"max":179,"target":"present","response":"present","rt":114,"correct":true,"confidence":4},{"trial_n":70,"min":76,"max":179,"target":"absent","response":"absent","rt":406.00000000006,"correct":true,"confidence":4},{"trial_n":71,"min":41,"max":214,"target":"present","response":"present","rt":7428,"correct":true,"confidence":-1},{"trial_n":72,"min":41,"max":214,"target":"present","response":"present","rt":1695,"correct":true,"confidence":-1},{"trial_n":73,"min":57,"max":198,"target":"absent","response":"absent","rt":630,"correct":true,"confidence":-1},{"trial_n":74,"min":57,"max":198,"target":"absent","response":"absent","rt":354,"correct":true,"confidence":-1},{"trial_n":75,"min":73,"max":182,"target":"present","response":"present","rt":265.99999999994,"correct":true,"confidence":-1},{"trial_n":76,"min":73,"max":182,"target":"present","response":"present","rt":301,"correct":true,"confidence":-1},{"trial_n":77,"min":89,"max":166,"target":"present","response":"present","rt":691,"correct":true,"confidence":-1},{"trial_n":78,"min":89,"max":166,"target":"present","response":"present","rt":157,"correct":true,"confidence":-1},{"trial_n":79,"min":105,"max":150,"target":"absent","response":"present","rt":1188,"correct":false,"confidence":-1},{"trial_n":80,"min":89,"max":166,"target":"present","response":"present","rt":228,"correct":true,"confidence":-1},{"trial_n":81,"min":89,"max":166,"target":"present","response":"present","rt":659,"correct":true,"confidence":-1},{"trial_n":82,"min":97,"max":158,"target":"present","response":"present","rt":426,"correct":true,"confidence":-1},{"trial_n":83,"min":97,"max":158,"target":"absent","response":"absent","rt":765,"correct":true,"confidence":-1},{"trial_n":84,"min":105,"max":150,"target":"present","response":"present","rt":297,"correct":true,"confidence":-1},{"trial_n":85,"min":105,"max":150,"target":"present","response":"present","rt":635,"correct":true,"confidence":-1},{"trial_n":86,"min":113,"max":142,"target":"absent","response":"present","rt":466.00000000006,"correct":false,"confidence":-1},{"trial_n":87,"min":105,"max":150,"target":"present","response":"absent","rt":2799,"correct":false,"confidence":-1},{"trial_n":88,"min":97,"max":158,"target":"absent","response":"present","rt":428.00000000006,"correct":false,"confidence":-1},{"trial_n":89,"min":89,"max":166,"target":"absent","response":"present","rt":2459.0000000001,"correct":false,"confidence":-1},{"trial_n":90,"min":81,"max":174,"target":"present","response":"present","rt":371,"correct":true,"confidence":-1},{"trial_n":91,"min":81,"max":174,"target":"absent","response":"present","rt":1220.0000000001,"correct":false,"confidence":3},{"trial_n":92,"min":77,"max":178,"target":"present","response":"present","rt":191,"correct":true,"confidence":4},{"trial_n":93,"min":77,"max":178,"target":"absent","response":"absent","rt":665,"correct":true,"confidence":4},{"trial_n":94,"min":81,"max":174,"target":"present","response":"present","rt":106.99999999988,"correct":true,"confidence":4},{"trial_n":95,"min":81,"max":174,"target":"absent","response":"absent","rt":2464,"correct":true,"confidence":3},{"trial_n":96,"min":85,"max":170,"target":"present","response":"present","rt":213,"correct":true,"confidence":4},{"trial_n":97,"min":85,"max":170,"target":"absent","response":"absent","rt":1000,"correct":true,"confidence":3},{"trial_n":98,"min":89,"max":166,"target":"present","response":"present","rt":722.00000000012,"correct":true,"confidence":3},{"trial_n":99,"min":89,"max":166,"target":"absent","response":"present","rt":1053,"correct":false,"confidence":3},{"trial_n":100,"min":85,"max":170,"target":"present","response":"present","rt":93,"correct":true,"confidence":4},{"trial_n":101,"min":85,"max":170,"target":"present","response":"present","rt":525,"correct":true,"confidence":3},{"trial_n":102,"min":87,"max":168,"target":"present","response":"present","rt":429,"correct":true,"confidence":4},{"trial_n":103,"min":87,"max":168,"target":"absent","response":"absent","rt":1054,"correct":true,"confidence":3},{"trial_n":104,"min":89,"max":166,"target":"absent","response":"absent","rt":938,"correct":true,"confidence":3},{"trial_n":105,"min":89,"max":166,"target":"present","response":"present","rt":173,"correct":true,"confidence":4},{"trial_n":106,"min":91,"max":164,"target":"present","response":"present","rt":328,"correct":true,"confidence":4},{"trial_n":107,"min":91,"max":164,"target":"absent","response":"absent","rt":937,"correct":true,"confidence":3},{"trial_n":108,"min":93,"max":162,"target":"present","response":"present","rt":211,"correct":true,"confidence":4},{"trial_n":109,"min":93,"max":162,"target":"present","response":"present","rt":548,"correct":true,"confidence":4},{"trial_n":110,"min":95,"max":160,"target":"present","response":"present","rt":304,"correct":true,"confidence":4},{"trial_n":111,"min":95,"max":160,"target":"absent","response":"present","rt":977.99999999988,"correct":false,"confidence":3},{"trial_n":112,"min":94,"max":161,"target":"absent","response":"absent","rt":899,"correct":true,"confidence":3},{"trial_n":113,"min":94,"max":161,"target":"present","response":"present","rt":292,"correct":true,"confidence":4},{"trial_n":114,"min":95,"max":160,"target":"absent","response":"absent","rt":972,"correct":true,"confidence":3},{"trial_n":115,"min":95,"max":160,"target":"absent","response":"absent","rt":901,"correct":true,"confidence":3},{"trial_n":116,"min":96,"max":159,"target":"absent","response":"absent","rt":469,"correct":true,"confidence":3},{"trial_n":117,"min":96,"max":159,"target":"present","response":"present","rt":111,"correct":true,"confidence":4},{"trial_n":118,"min":97,"max":158,"target":"present","response":"absent","rt":1019,"correct":false,"confidence":4},{"trial_n":119,"min":96,"max":159,"target":"present","response":"present","rt":1005,"correct":true,"confidence":4},{"trial_n":120,"min":96,"max":159,"target":"absent","response":"present","rt":3278,"correct":false,"confidence":2},{"trial_n":121,"min":95,"max":160,"target":"absent","response":"present","rt":556.00000000012,"correct":false,"confidence":3},{"trial_n":122,"min":94,"max":161,"target":"absent","response":"absent","rt":740,"correct":true,"confidence":3},{"trial_n":123,"min":94,"max":161,"target":"absent","response":"absent","rt":1427,"correct":true,"confidence":3},{"trial_n":124,"min":95,"max":160,"target":"present","response":"present","rt":1121,"correct":true,"confidence":3},{"trial_n":125,"min":95,"max":160,"target":"absent","response":"present","rt":483,"correct":false,"confidence":3},{"trial_n":126,"min":94,"max":161,"target":"absent","response":"absent","rt":1595,"correct":true,"confidence":3},{"trial_n":127,"min":94,"max":161,"target":"present","response":"absent","rt":993.99999999988,"correct":false,"confidence":2},{"trial_n":128,"min":93,"max":162,"target":"absent","response":"present","rt":329.00000000012,"correct":false,"confidence":3},{"trial_n":129,"min":92,"max":163,"target":"absent","response":"absent","rt":1998,"correct":true,"confidence":2},{"trial_n":130,"min":92,"max":163,"target":"present","response":"present","rt":224,"correct":true,"confidence":4},{"trial_n":131,"min":93,"max":162,"target":"absent","response":"present","rt":2059,"correct":false,"confidence":3},{"trial_n":132,"min":92,"max":163,"target":"present","response":"present","rt":1048,"correct":true,"confidence":3},{"trial_n":133,"min":92,"max":163,"target":"absent","response":"present","rt":209,"correct":false,"confidence":3},{"trial_n":134,"min":91,"max":164,"target":"absent","response":"absent","rt":2373.0000000001,"correct":true,"confidence":2},{"trial_n":135,"min":91,"max":164,"target":"absent","response":"present","rt":1253,"correct":false,"confidence":2},{"trial_n":136,"min":90,"max":165,"target":"present","response":"present","rt":426,"correct":true,"confidence":3},{"trial_n":137,"min":90,"max":165,"target":"present","response":"present","rt":345,"correct":true,"confidence":4},{"trial_n":138,"min":91,"max":164,"target":"absent","response":"absent","rt":840,"correct":true,"confidence":2},{"trial_n":139,"min":91,"max":164,"target":"present","response":"present","rt":553,"correct":true,"confidence":4},{"trial_n":140,"min":92,"max":163,"target":"absent","response":"absent","rt":1201,"correct":true,"confidence":3}]