[{"trial_n":1,"n_dots":4.25,"target":"left","response":"left","rt":9701.3000000715,"correct":true,"confidence":-1},{"trial_n":2,"n_dots":4.25,"target":"left","response":"left","rt":1140.1000000238,"correct":true,"confidence":-1},{"trial_n":3,"n_dots":3.85,"target":"left","response":"right","rt":419,"correct":false,"confidence":-1},{"trial_n":4,"n_dots":4.25,"target":"right","response":"left","rt":1330.2000000477,"correct":false,"confidence":-1},{"trial_n":5,"n_dots":4.65,"target":"right","response":"right","rt":839,"correct":true,"confidence":-1},{"trial_n":6,"n_dots":4.65,"target":"left","response":"left","rt":361.10000002384,"correct":true,"confidence":-1},{"trial_n":7,"n_dots":4.25,"target":"right","response":"right","rt":680.29999995232,"correct":true,"confidence":-1},{"trial_n":8,"n_dots":4.25,"target":"right","response":"right","rt":314.09999990463,"correct":true,"confidence":-1},{"trial_n":9,"n_dots":4.05,"target":"left","response":"left","rt":258.60000002384,"correct":true,"confidence":-1},{"trial_n":10,"n_dots":4.05,"target":"right","response":"right","rt":258.70000004768,"correct":true,"confidence":-1},{"trial_n":11,"n_dots":3.85,"target":"right","response":"right","rt":560.89999997616,"correct":true,"confidence":-1},{"trial_n":12,"n_dots":3.85,"target":"right","response":"left","rt":473.10000002384,"correct":false,"confidence":-1},{"trial_n":13,"n_dots":3.95,"target":"left","response":"left","rt":513.39999997616,"correct":true,"confidence":-1},{"trial_n":14,"n_dots":3.95,"target":"right","response":"right","rt":477.10000002384,"correct":true,"confidence":-1},{"trial_n":15,"n_dots":3.85,"target":"right","response":"right","rt":292.5,"correct":true,"confidence":-1},{"trial_n":16,"n_dots":3.85,"target":"left","response":"left","rt":364.39999997616,"correct":true,"confidence":-1},{"trial_n":17,"n_dots":3.75,"target":"left","response":"right","rt":350.39999997616,"correct":false,"confidence":-1},{"trial_n":18,"n_dots":3.85,"target":"right","response":"right","rt":781.89999997616,"correct":true,"confidence":-1},{"trial_n":19,"n_dots":3.85,"target":"right","response":"left","rt":751.89999997616,"correct":false,"confidence":-1},{"trial_n":20,"n_dots":3.95,"target":"left","response":"left","rt":209.30000007153,"correct":true,"confidence":-1},{"trial_n":21,"n_dots":3.95,"target":"left","response":"left","rt":259.5,"correct":true,"confidence":4},{"trial_n":22,"n_dots":3.85,"target":"right","response":"left","rt":877.60000002384,"correct":false,"confidence":2},{"trial_n":23,"n_dots":3.95,"target":"left","response":"right","rt":320.20000004768,"correct":false,"confidence":3},{"trial_n":24,"n_dots":4.05,"target":"right","response":"right","rt":1290.0999999046,"correct":true,"confidence":3},{"trial_n":25,"n_dots":4.05,"target":"right","response":"left","rt":2893.5,"correct":false,"confidence":3},{"trial_n":26,"n_dots":4.15,"target":"left","response":"right","rt":409.70000004768,"correct":false,"confidence":4},{"trial_n":27,"n_dots":4.25,"target":"right","response":"right","rt":374.20000004768,"correct":true,"confidence":5},{"trial_n":28,"n_dots":4.25,"target":"left","response":"left","rt":273.20000004768,"correct":true,"confidence":5},{"trial_n":29,"n_dots":4.15,"target":"right","response":"right","rt":675.69999992847,"correct":true,"confidence":3},{"trial_n":30,"n_dots":4.15,"target":"left","response":"left","rt":689.5,"correct":true,"confidence":4},{"trial_n":31,"n_dots":4.05,"target":"right","response":"right","rt":1657.8999999762,"correct":true,"confidence":3},{"trial_n":32,"n_dots":4.05,"target":"left","response":"left","rt":589.89999997616,"correct":true,"confidence":3},{"trial_n":33,"n_dots":3.95,"target":"right","response":"right","rt":1693.8999999762,"correct":true,"confidence":2},{"trial_n":34,"n_dots":3.95,"target":"right","response":"right","rt":2306.7000000477,"correct":true,"confidence":3},{"trial_n":35,"n_dots":3.85,"target":"right","response":"right","rt":565,"correct":true,"confidence":4},{"trial_n":36,"n_dots":3.85,"target":"right","response":"right","rt":1922.3999999762,"correct":true,"confidence":2},{"trial_n":37,"n_dots":3.75,"target":"left","response":"left","rt":360.10000002384,"correct":true,"confidence":5},{"trial_n":38,"n_dots":3.75,"target":"left","response":"left","rt":744.60000002384,"correct":true,"confidence":3},{"trial_n":39,"n_dots":3.65,"target":"left","response":"left","rt":557.79999995232,"correct":true,"confidence":4},{"trial_n":40,"n_dots":3.65,"target":"right","response":"right","rt":326.10000002384,"correct":true,"confidence":3},{"trial_n":41,"n_dots":3.55,"target":"left","response":"left","rt":318.69999992847,"correct":true,"confidence":4},{"trial_n":42,"n_dots":3.55,"target":"left","response":"left","rt":319.20000004768,"correct":true,"confidence":3},{"trial_n":43,"n_dots":3.45,"target":"left","response":"right","rt":357.60000002384,"correct":false,"confidence":2},{"trial_n":44,"n_dots":3.55,"target":"left","response":"left","rt":464.59999990463,"correct":true,"confidence":3},{"trial_n":45,"n_dots":3.55,"target":"right","response":"right","rt":678.09999990463,"correct":true,"confidence":3},{"trial_n":46,"n_dots":3.45,"target":"right","response":"left","rt":1420.8000000715,"correct":false,"confidence":1},{"trial_n":47,"n_dots":3.55,"target":"left","response":"left","rt":292.70000004768,"correct":true,"confidence":3},{"trial_n":48,"n_dots":3.55,"target":"left","response":"right","rt":360.29999995232,"correct":false,"confidence":2},{"trial_n":49,"n_dots":3.65,"target":"left","response":"left","rt":331.60000002384,"correct":true,"confidence":3},{"trial_n":50,"n_dots":3.65,"target":"right","response":"right","rt":536.60000002384,"correct":true,"confidence":3},{"trial_n":51,"n_dots":3.55,"target":"left","response":"left","rt":357.10000002384,"correct":true,"confidence":3},{"trial_n":52,"n_dots":3.55,"target":"right","response":"left","rt":1150.6000000238,"correct":false,"confidence":2},{"trial_n":53,"n_dots":3.65,"target":"right","response":"left","rt":475.60000002384,"correct":false,"confidence":4},{"trial_n":54,"n_dots":3.75,"target":"left","response":"left","rt":712.60000002384,"correct":true,"confidence":4},{"trial_n":55,"n_dots":3.75,"target":"left","response":"left","rt":643.10000002384,"correct":true,"confidence":4},{"trial_n":56,"n_dots":3.65,"target":"right","response":"right","rt":526.10000002384,"correct":true,"confidence":3},{"trial_n":57,"n_dots":3.65,"target":"right","response":"right","rt":308.5,"correct":true,"confidence":3},{"trial_n":58,"n_dots":3.55,"target":"left","response":"left","rt":480.79999995232,"correct":true,"confidence":4},{"trial_n":59,"n_dots":3.55,"target":"left","response":"left","rt":572.89999997616,"correct":true,"confidence":2},{"trial_n":60,"n_dots":3.45,"target":"right","response":"right","rt":102.79999995232,"correct":true,"confidence":3},{"trial_n":61,"n_dots":3.45,"target":"right","response":"left","rt":393.70000004768,"correct":false,"confidence":4},{"trial_n":62,"n_dots":3.55,"target":"right","response":"left","rt":1010.0999999046,"correct":false,"confidence":2},{"trial_n":63,"n_dots":3.65,"target":"left","response":"left","rt":323.10000002384,"correct":true,"confidence":4},{"trial_n":64,"n_dots":3.65,"target":"left","response":"left","rt":544.59999990463,"correct":true,"confidence":3},{"trial_n":65,"n_dots":3.55,"target":"right","response":"right","rt":327,"correct":true,"confidence":3},{"trial_n":66,"n_dots":3.55,"target":"left","response":"right","rt":650.69999992847,"correct":false,"confidence":4},{"trial_n":67,"n_dots":3.65,"target":"right","response":"left","rt":316.79999995232,"correct":false,"confidence":2},{"trial_n":68,"n_dots":3.75,"target":"right","response":"right","rt":1047.1000000238,"correct":true,"confidence":1},{"trial_n":69,"n_dots":3.75,"target":"right","response":"left","rt":1983,"correct":false,"confidence":3},{"trial_n":70,"n_dots":3.85,"target":"right","response":"right","rt":448.60000002384,"correct":true,"confidence":5},{"trial_n":71,"n_dots":3.85,"target":"right","response":"left","rt":371.29999995232,"correct":false,"confidence":2},{"trial_n":72,"n_dots":3.95,"target":"right","response":"right","rt":331.40000009537,"correct":true,"confidence":3},{"trial_n":73,"n_dots":3.95,"target":"left","response":"left","rt":290.59999990463,"correct":true,"confidence":4},{"trial_n":74,"n_dots":3.85,"target":"right","response":"right","rt":436.30000007153,"correct":true,"confidence":3},{"trial_n":75,"n_dots":3.85,"target":"left","response":"left","rt":327.60000002384,"correct":true,"confidence":5},{"trial_n":76,"n_dots":3.75,"target":"left","response":"left","rt":428.39999997616,"correct":true,"confidence":3},{"trial_n":77,"n_dots":3.75,"target":"left","response":"left","rt":467.79999995232,"correct":true,"confidence":3},{"trial_n":78,"n_dots":3.65,"target":"left","response":"left","rt":574.10000002384,"correct":true,"confidence":2},{"trial_n":79,"n_dots":3.65,"target":"left","response":"left","rt":363.10000002384,"correct":true,"confidence":3},{"trial_n":80,"n_dots":3.55,"target":"right","response":"right","rt":248.60000002384,"correct":true,"confidence":4},{"trial_n":81,"n_dots":3.55,"target":"right","response":"right","rt":457,"correct":true,"confidence":4},{"trial_n":82,"n_dots":3.45,"target":"right","response":"left","rt":1281.8000000715,"correct":false,"confidence":2},{"trial_n":83,"n_dots":3.55,"target":"left","response":"right","rt":3017.7999999523,"correct":false,"confidence":2},{"trial_n":84,"n_dots":3.65,"target":"right","response":"right","rt":324.80000007153,"correct":true,"confidence":3},{"trial_n":85,"n_dots":3.65,"target":"left","response":"left","rt":292.90000009537,"correct":true,"confidence":1},{"trial_n":86,"n_dots":3.55,"target":"right","response":"right","rt":337.60000002384,"correct":true,"confidence":3},{"trial_n":87,"n_dots":3.55,"target":"left","response":"right","rt":901.20000004768,"correct":false,"confidence":2},{"trial_n":88,"n_dots":3.65,"target":"right","response":"right","rt":906.5,"correct":true,"confidence":2},{"trial_n":89,"n_dots":3.65,"target":"left","response":"left","rt":1089.1000000238,"correct":true,"confidence":3},{"trial_n":90,"n_dots":3.55,"target":"right","response":"right","rt":275.29999995232,"correct":true,"confidence":4},{"trial_n":91,"n_dots":3.55,"target":"left","response":"right","rt":1102.1999999285,"correct":false,"confidence":1},{"trial_n":92,"n_dots":3.65,"target":"left","response":"left","rt":292.90000009537,"correct":true,"confidence":3},{"trial_n":93,"n_dots":3.65,"target":"right","response":"right","rt":369.40000009537,"correct":true,"confidence":3},{"trial_n":94,"n_dots":3.55,"target":"right","response":"right","rt":387,"correct":true,"confidence":2},{"trial_n":95,"n_dots":3.55,"target":"left","response":"left","rt":362.20000004768,"correct":true,"confidence":4},{"trial_n":96,"n_dots":3.45,"target":"left","response":"left","rt":662.29999995232,"correct":true,"confidence":3},{"trial_n":97,"n_dots":3.45,"target":"right","response":"left","rt":622.70000004768,"correct":false,"confidence":3},{"trial_n":98,"n_dots":3.55,"target":"right","response":"right","rt":660,"correct":true,"confidence":2},{"trial_n":99,"n_dots":3.55,"target":"left","response":"left","rt":345.70000004768,"correct":true,"confidence":3},{"trial_n":100,"n_dots":3.45,"target":"right","response":"right","rt":262.60000002384,"correct":true,"confidence":4},{"trial_n":101,"n_dots":3.45,"target":"left","response":"left","rt":325,"correct":true,"confidence":5},{"trial_n":102,"n_dots":3.35,"target":"left","response":"left","rt":624.60000002384,"correct":true,"confidence":3},{"trial_n":103,"n_dots":3.35,"target":"right","response":"right","rt":365,"correct":true,"confidence":4},{"trial_n":104,"n_dots":3.25,"target":"right","response":"left","rt":887.30000007153,"correct":false,"confidence":3},{"trial_n":105,"n_dots":3.35,"target":"left","response":"left","rt":636.20000004768,"correct":true,"confidence":3},{"trial_n":106,"n_dots":3.35,"target":"left","response":"left","rt":525.80000007153,"correct":true,"confidence":3},{"trial_n":107,"n_dots":3.25,"target":"right","response":"left","rt":481.89999997616,"correct":false,"confidence":4},{"trial_n":108,"n_dots":3.35,"target":"left","response":"left","rt":884.29999995232,"correct":true,"confidence":2},{"trial_n":109,"n_dots":3.35,"target":"right","response":"right","rt":290.19999992847,"correct":true,"confidence":3},{"trial_n":110,"n_dots":3.25,"target":"left","response":"left","rt":468.19999992847,"correct":true,"confidence":3},{"trial_n":111,"n_dots":3.25,"target":"left","response":"right","rt":512.20000004768,"correct":false,"confidence":3},{"trial_n":112,"n_dots":3.35,"target":"right","response":"right","rt":346,"correct":true,"confidence":4},{"trial_n":113,"n_dots":3.35,"target":"right","response":"right","rt":722.60000002384,"correct":true,"confidence":2},{"trial_n":114,"n_dots":3.25,"target":"left","response":"left","rt":275,"correct":true,"confidence":4},{"trial_n":115,"n_dots":3.25,"target":"left","response":"left","rt":499.69999992847,"correct":true,"confidence":3},{"trial_n":116,"n_dots":3.15,"target":"right","response":"right","rt":346.5,"correct":true,"confidence":3},{"trial_n":117,"n_dots":3.15,"target":"left","response":"left","rt":524,"correct":true,"confidence":2},{"trial_n":118,"n_dots":3.05,"target":"left","response":"left","rt":378.19999992847,"correct":true,"confidence":3},{"trial_n":119,"n_dots":3.05,"target":"right","response":"right","rt":1984.8999999762,"correct":true,"confidence":2},{"trial_n":120,"n_dots":2.95,"target":"left","response":"right","rt":571.89999997616,"correct":false,"confidence":3}]