[{"trial_n":1,"n_dots":4.25,"target":"left","response":"left","rt":7564.400000006,"correct":true,"confidence":-1},{"trial_n":2,"n_dots":4.25,"target":"left","response":"left","rt":372.59999999404,"correct":true,"confidence":-1},{"trial_n":3,"n_dots":3.85,"target":"left","response":"left","rt":354.90000000596,"correct":true,"confidence":-1},{"trial_n":4,"n_dots":3.85,"target":"right","response":"left","rt":3418,"correct":false,"confidence":-1},{"trial_n":5,"n_dots":4.25,"target":"left","response":"left","rt":359.89999997616,"correct":true,"confidence":-1},{"trial_n":6,"n_dots":4.25,"target":"left","response":"left","rt":455.5,"correct":true,"confidence":-1},{"trial_n":7,"n_dots":3.85,"target":"right","response":"left","rt":1437.2999999821,"correct":false,"confidence":-1},{"trial_n":8,"n_dots":4.05,"target":"left","response":"left","rt":965.60000002384,"correct":true,"confidence":-1},{"trial_n":9,"n_dots":4.05,"target":"left","response":"left","rt":589.5,"correct":true,"confidence":-1},{"trial_n":10,"n_dots":3.85,"target":"left","response":"right","rt":553.40000000596,"correct":false,"confidence":-1},{"trial_n":11,"n_dots":4.05,"target":"right","response":"right","rt":498.80000001192,"correct":true,"confidence":-1},{"trial_n":12,"n_dots":4.05,"target":"left","response":"left","rt":907.30000001192,"correct":true,"confidence":-1},{"trial_n":13,"n_dots":3.95,"target":"left","response":"left","rt":438.69999998808,"correct":true,"confidence":-1},{"trial_n":14,"n_dots":3.95,"target":"right","response":"right","rt":692,"correct":true,"confidence":-1},{"trial_n":15,"n_dots":3.85,"target":"left","response":"left","rt":406.90000000596,"correct":true,"confidence":-1},{"trial_n":16,"n_dots":3.85,"target":"right","response":"left","rt":3555.5,"correct":false,"confidence":-1},{"trial_n":17,"n_dots":3.95,"target":"left","response":"left","rt":848.5,"correct":true,"confidence":-1},{"trial_n":18,"n_dots":3.95,"target":"right","response":"right","rt":320.5,"correct":true,"confidence":-1},{"trial_n":19,"n_dots":3.85,"target":"right","response":"right","rt":2358.7999999821,"correct":true,"confidence":-1},{"trial_n":20,"n_dots":3.85,"target":"right","response":"right","rt":139.70000001788,"correct":true,"confidence":-1},{"trial_n":21,"n_dots":3.75,"target":"right","response":"right","rt":518.5,"correct":true,"confidence":3},{"trial_n":22,"n_dots":3.75,"target":"right","response":"right","rt":3400.099999994,"correct":true,"confidence":2},{"trial_n":23,"n_dots":3.65,"target":"left","response":"left","rt":511.5,"correct":true,"confidence":5},{"trial_n":24,"n_dots":3.65,"target":"right","response":"right","rt":407.80000001192,"correct":true,"confidence":4},{"trial_n":25,"n_dots":3.55,"target":"left","response":"left","rt":929.80000001192,"correct":true,"confidence":3},{"trial_n":26,"n_dots":3.55,"target":"left","response":"left","rt":3291.5,"correct":true,"confidence":3},{"trial_n":27,"n_dots":3.45,"target":"right","response":"right","rt":3836,"correct":true,"confidence":2},{"trial_n":28,"n_dots":3.45,"target":"right","response":"left","rt":2556.400000006,"correct":false,"confidence":4},{"trial_n":29,"n_dots":3.55,"target":"right","response":"right","rt":709.5,"correct":true,"confidence":5},{"trial_n":30,"n_dots":3.55,"target":"left","response":"left","rt":254.69999998808,"correct":true,"confidence":5},{"trial_n":31,"n_dots":3.45,"target":"left","response":"right","rt":3356.1999999881,"correct":false,"confidence":1},{"trial_n":32,"n_dots":3.55,"target":"left","response":"left","rt":232.40000000596,"correct":true,"confidence":4},{"trial_n":33,"n_dots":3.55,"target":"left","response":"left","rt":940.30000001192,"correct":true,"confidence":3},{"trial_n":34,"n_dots":3.45,"target":"left","response":"left","rt":703.5,"correct":true,"confidence":4},{"trial_n":35,"n_dots":3.45,"target":"left","response":"left","rt":4148.3000000119,"correct":true,"confidence":3},{"trial_n":36,"n_dots":3.35,"target":"left","response":"left","rt":907.09999999404,"correct":true,"confidence":4},{"trial_n":37,"n_dots":3.35,"target":"right","response":"right","rt":4976.099999994,"correct":true,"confidence":2},{"trial_n":38,"n_dots":3.25,"target":"right","response":"left","rt":12402.399999976,"correct":false,"confidence":1},{"trial_n":39,"n_dots":3.35,"target":"right","response":"right","rt":1401.3999999762,"correct":true,"confidence":3},{"trial_n":40,"n_dots":3.35,"target":"right","response":"right","rt":747.09999999404,"correct":true,"confidence":3},{"trial_n":41,"n_dots":3.25,"target":"left","response":"left","rt":1610.900000006,"correct":true,"confidence":2},{"trial_n":42,"n_dots":3.25,"target":"left","response":"left","rt":4961.6999999881,"correct":true,"confidence":1},{"trial_n":43,"n_dots":3.15,"target":"left","response":"right","rt":2126.099999994,"correct":false,"confidence":1},{"trial_n":44,"n_dots":3.25,"target":"right","response":"right","rt":917.09999999404,"correct":true,"confidence":3},{"trial_n":45,"n_dots":3.25,"target":"left","response":"left","rt":599.69999998808,"correct":true,"confidence":3},{"trial_n":46,"n_dots":3.15,"target":"right","response":"left","rt":3440.6999999881,"correct":false,"confidence":2},{"trial_n":47,"n_dots":3.25,"target":"left","response":"left","rt":1485.1999999881,"correct":true,"confidence":3},{"trial_n":48,"n_dots":3.25,"target":"right","response":"left","rt":1094,"correct":false,"confidence":3},{"trial_n":49,"n_dots":3.35,"target":"left","response":"left","rt":371.90000000596,"correct":true,"confidence":3},{"trial_n":50,"n_dots":3.35,"target":"left","response":"left","rt":2050.1999999881,"correct":true,"confidence":1},{"trial_n":51,"n_dots":3.25,"target":"right","response":"right","rt":628,"correct":true,"confidence":1},{"trial_n":52,"n_dots":3.25,"target":"right","response":"right","rt":1470.400000006,"correct":true,"confidence":1},{"trial_n":53,"n_dots":3.15,"target":"right","response":"right","rt":1020.8000000119,"correct":true,"confidence":1},{"trial_n":54,"n_dots":3.15,"target":"left","response":"left","rt":408.69999998808,"correct":true,"confidence":1},{"trial_n":55,"n_dots":3.05,"target":"left","response":"left","rt":1337,"correct":true,"confidence":1},{"trial_n":56,"n_dots":3.05,"target":"right","response":"right","rt":1519.5,"correct":true,"confidence":2},{"trial_n":57,"n_dots":2.95,"target":"right","response":"left","rt":731.09999999404,"correct":false,"confidence":2},{"trial_n":58,"n_dots":3.05,"target":"left","response":"left","rt":1649,"correct":true,"confidence":2},{"trial_n":59,"n_dots":3.05,"target":"right","response":"left","rt":1233.7999999821,"correct":false,"confidence":2},{"trial_n":60,"n_dots":3.15,"target":"left","response":"left","rt":3264.5,"correct":true,"confidence":3},{"trial_n":61,"n_dots":3.15,"target":"right","response":"right","rt":1267.3000000119,"correct":true,"confidence":3},{"trial_n":62,"n_dots":3.05,"target":"right","response":"right","rt":1069.3000000119,"correct":true,"confidence":2},{"trial_n":63,"n_dots":3.05,"target":"left","response":"left","rt":529.59999999404,"correct":true,"confidence":3},{"trial_n":64,"n_dots":2.95,"target":"left","response":"left","rt":4211.6000000238,"correct":true,"confidence":2},{"trial_n":65,"n_dots":2.95,"target":"right","response":"right","rt":1311.3000000119,"correct":true,"confidence":4},{"trial_n":66,"n_dots":2.85,"target":"right","response":"left","rt":2040.7000000179,"correct":false,"confidence":2},{"trial_n":67,"n_dots":2.95,"target":"right","response":"right","rt":3708,"correct":true,"confidence":3},{"trial_n":68,"n_dots":2.95,"target":"left","response":"right","rt":1067.5,"correct":false,"confidence":3},{"trial_n":69,"n_dots":3.05,"target":"left","response":"right","rt":3555.400000006,"correct":false,"confidence":1},{"trial_n":70,"n_dots":3.15,"target":"right","response":"left","rt":1535.6999999881,"correct":false,"confidence":3},{"trial_n":71,"n_dots":3.25,"target":"left","response":"left","rt":2255.1999999881,"correct":true,"confidence":4},{"trial_n":72,"n_dots":3.25,"target":"right","response":"right","rt":1379.900000006,"correct":true,"confidence":2},{"trial_n":73,"n_dots":3.15,"target":"right","response":"right","rt":684.40000000596,"correct":true,"confidence":4},{"trial_n":74,"n_dots":3.15,"target":"right","response":"right","rt":1206.900000006,"correct":true,"confidence":3},{"trial_n":75,"n_dots":3.05,"target":"right","response":"left","rt":2323.8000000119,"correct":false,"confidence":1},{"trial_n":76,"n_dots":3.15,"target":"right","response":"right","rt":1192.1999999881,"correct":true,"confidence":2},{"trial_n":77,"n_dots":3.15,"target":"right","response":"left","rt":891,"correct":false,"confidence":2},{"trial_n":78,"n_dots":3.25,"target":"right","response":"left","rt":6442.2999999821,"correct":false,"confidence":2},{"trial_n":79,"n_dots":3.35,"target":"right","response":"left","rt":1758.5,"correct":false,"confidence":1},{"trial_n":80,"n_dots":3.45,"target":"right","response":"left","rt":2258,"correct":false,"confidence":2},{"trial_n":81,"n_dots":3.55,"target":"left","response":"left","rt":621.90000000596,"correct":true,"confidence":1},{"trial_n":82,"n_dots":3.55,"target":"right","response":"left","rt":1594.099999994,"correct":false,"confidence":1},{"trial_n":83,"n_dots":3.65,"target":"right","response":"right","rt":763.10000002384,"correct":true,"confidence":2},{"trial_n":84,"n_dots":3.65,"target":"left","response":"left","rt":1524.6999999881,"correct":true,"confidence":1},{"trial_n":85,"n_dots":3.55,"target":"right","response":"left","rt":2526.3999999762,"correct":false,"confidence":1},{"trial_n":86,"n_dots":3.65,"target":"right","response":"right","rt":355,"correct":true,"confidence":2},{"trial_n":87,"n_dots":3.65,"target":"right","response":"right","rt":1587.1000000238,"correct":true,"confidence":3},{"trial_n":88,"n_dots":3.55,"target":"left","response":"left","rt":2798.7999999821,"correct":true,"confidence":1},{"trial_n":89,"n_dots":3.55,"target":"left","response":"left","rt":388.20000001788,"correct":true,"confidence":4},{"trial_n":90,"n_dots":3.45,"target":"right","response":"right","rt":277.90000000596,"correct":true,"confidence":3},{"trial_n":91,"n_dots":3.45,"target":"left","response":"left","rt":1613.599999994,"correct":true,"confidence":2},{"trial_n":92,"n_dots":3.35,"target":"right","response":"left","rt":1578.6999999881,"correct":false,"confidence":1},{"trial_n":93,"n_dots":3.45,"target":"left","response":"left","rt":662.40000000596,"correct":true,"confidence":3},{"trial_n":94,"n_dots":3.45,"target":"left","response":"left","rt":532.59999999404,"correct":true,"confidence":2},{"trial_n":95,"n_dots":3.35,"target":"right","response":"left","rt":644.10000002384,"correct":false,"confidence":4},{"trial_n":96,"n_dots":3.45,"target":"left","response":"left","rt":283.90000000596,"correct":true,"confidence":5},{"trial_n":97,"n_dots":3.45,"target":"left","response":"left","rt":340,"correct":true,"confidence":5},{"trial_n":98,"n_dots":3.35,"target":"left","response":"left","rt":501.90000000596,"correct":true,"confidence":5},{"trial_n":99,"n_dots":3.35,"target":"right","response":"right","rt":7774.2000000179,"correct":true,"confidence":2},{"trial_n":100,"n_dots":3.25,"target":"left","response":"left","rt":595.5,"correct":true,"confidence":3},{"trial_n":101,"n_dots":3.25,"target":"left","response":"left","rt":637.30000001192,"correct":true,"confidence":2},{"trial_n":102,"n_dots":3.15,"target":"right","response":"right","rt":806.59999999404,"correct":true,"confidence":3},{"trial_n":103,"n_dots":3.15,"target":"left","response":"left","rt":155.90000000596,"correct":true,"confidence":4},{"trial_n":104,"n_dots":3.05,"target":"left","response":"left","rt":732.30000001192,"correct":true,"confidence":2},{"trial_n":105,"n_dots":3.05,"target":"left","response":"left","rt":1522,"correct":true,"confidence":2},{"trial_n":106,"n_dots":2.95,"target":"right","response":"left","rt":1746.8000000119,"correct":false,"confidence":2},{"trial_n":107,"n_dots":3.05,"target":"right","response":"right","rt":710.59999999404,"correct":true,"confidence":4},{"trial_n":108,"n_dots":3.05,"target":"left","response":"right","rt":1394.6999999881,"correct":false,"confidence":4},{"trial_n":109,"n_dots":3.15,"target":"left","response":"left","rt":1059,"correct":true,"confidence":3},{"trial_n":110,"n_dots":3.15,"target":"left","response":"left","rt":609.09999999404,"correct":true,"confidence":5},{"trial_n":111,"n_dots":3.05,"target":"right","response":"right","rt":1587.599999994,"correct":true,"confidence":3},{"trial_n":112,"n_dots":3.05,"target":"left","response":"left","rt":1052.3000000119,"correct":true,"confidence":3},{"trial_n":113,"n_dots":2.95,"target":"right","response":"left","rt":1354.8000000119,"correct":false,"confidence":4},{"trial_n":114,"n_dots":3.05,"target":"right","response":"left","rt":598.19999998808,"correct":false,"confidence":3},{"trial_n":115,"n_dots":3.15,"target":"left","response":"right","rt":715.5,"correct":false,"confidence":3},{"trial_n":116,"n_dots":3.25,"target":"right","response":"left","rt":1257.599999994,"correct":false,"confidence":3},{"trial_n":117,"n_dots":3.35,"target":"right","response":"right","rt":265.69999998808,"correct":true,"confidence":4},{"trial_n":118,"n_dots":3.35,"target":"left","response":"left","rt":392.20000001788,"correct":true,"confidence":5},{"trial_n":119,"n_dots":3.25,"target":"right","response":"right","rt":1935.8000000119,"correct":true,"confidence":2},{"trial_n":120,"n_dots":3.25,"target":"left","response":"left","rt":258.09999999404,"correct":true,"confidence":4}]