[{"trial_n":1,"min":25,"max":230,"target":"present","response":"absent","rt":7224,"correct":false,"confidence":-1},{"trial_n":2,"min":25,"max":230,"target":"present","response":"present","rt":1462.1999998093,"correct":true,"confidence":-1},{"trial_n":3,"min":25,"max":230,"target":"absent","response":"absent","rt":573.9000005722,"correct":true,"confidence":-1},{"trial_n":4,"min":41,"max":214,"target":"absent","response":"absent","rt":431.79999923706,"correct":true,"confidence":-1},{"trial_n":5,"min":41,"max":214,"target":"present","response":"present","rt":561.69999980927,"correct":true,"confidence":-1},{"trial_n":6,"min":57,"max":198,"target":"absent","response":"absent","rt":317.69999980927,"correct":true,"confidence":-1},{"trial_n":7,"min":57,"max":198,"target":"absent","response":"absent","rt":328.30000019073,"correct":true,"confidence":-1},{"trial_n":8,"min":73,"max":182,"target":"present","response":"absent","rt":437.19999980927,"correct":false,"confidence":-1},{"trial_n":9,"min":57,"max":198,"target":"absent","response":"absent","rt":387.80000019073,"correct":true,"confidence":-1},{"trial_n":10,"min":57,"max":198,"target":"present","response":"present","rt":280,"correct":true,"confidence":-1},{"trial_n":11,"min":65,"max":190,"target":"absent","response":"absent","rt":470.89999961853,"correct":true,"confidence":-1},{"trial_n":12,"min":65,"max":190,"target":"absent","response":"absent","rt":459.39999961853,"correct":true,"confidence":-1},{"trial_n":13,"min":73,"max":182,"target":"absent","response":"absent","rt":337.29999923706,"correct":true,"confidence":-1},{"trial_n":14,"min":73,"max":182,"target":"present","response":"present","rt":445.39999961853,"correct":true,"confidence":-1},{"trial_n":15,"min":81,"max":174,"target":"present","response":"present","rt":404.80000019073,"correct":true,"confidence":-1},{"trial_n":16,"min":81,"max":174,"target":"absent","response":"absent","rt":443.9000005722,"correct":true,"confidence":-1},{"trial_n":17,"min":89,"max":166,"target":"present","response":"absent","rt":567.5,"correct":false,"confidence":-1},{"trial_n":18,"min":81,"max":174,"target":"present","response":"present","rt":494.80000019073,"correct":true,"confidence":-1},{"trial_n":19,"min":81,"max":174,"target":"present","response":"absent","rt":437,"correct":false,"confidence":-1},{"trial_n":20,"min":73,"max":182,"target":"present","response":"present","rt":324.4000005722,"correct":true,"confidence":-1},{"trial_n":21,"min":73,"max":182,"target":"present","response":"present","rt":522.30000019073,"correct":true,"confidence":4},{"trial_n":22,"min":77,"max":178,"target":"absent","response":"absent","rt":464.39999961853,"correct":true,"confidence":3},{"trial_n":23,"min":77,"max":178,"target":"absent","response":"present","rt":559.30000019073,"correct":false,"confidence":4},{"trial_n":24,"min":73,"max":182,"target":"absent","response":"present","rt":794.5999994278,"correct":false,"confidence":3},{"trial_n":25,"min":69,"max":186,"target":"absent","response":"present","rt":653.10000038147,"correct":false,"confidence":4},{"trial_n":26,"min":65,"max":190,"target":"present","response":"present","rt":3321.5,"correct":true,"confidence":5},{"trial_n":27,"min":65,"max":190,"target":"present","response":"present","rt":1377.1999998093,"correct":true,"confidence":5},{"trial_n":28,"min":69,"max":186,"target":"absent","response":"present","rt":2623.7000007629,"correct":false,"confidence":4},{"trial_n":29,"min":65,"max":190,"target":"absent","response":"present","rt":901.9000005722,"correct":false,"confidence":4},{"trial_n":30,"min":61,"max":194,"target":"present","response":"present","rt":981.39999961853,"correct":true,"confidence":5},{"trial_n":31,"min":61,"max":194,"target":"absent","response":"absent","rt":984.39999961853,"correct":true,"confidence":4},{"trial_n":32,"min":63,"max":192,"target":"present","response":"present","rt":1088.5,"correct":true,"confidence":5},{"trial_n":33,"min":63,"max":192,"target":"absent","response":"present","rt":961.70000076294,"correct":false,"confidence":4},{"trial_n":34,"min":61,"max":194,"target":"present","response":"present","rt":802.70000076294,"correct":true,"confidence":5},{"trial_n":35,"min":61,"max":194,"target":"absent","response":"absent","rt":1777.1999998093,"correct":true,"confidence":3},{"trial_n":36,"min":63,"max":192,"target":"present","response":"present","rt":709.89999961853,"correct":true,"confidence":5},{"trial_n":37,"min":63,"max":192,"target":"absent","response":"present","rt":776.30000019073,"correct":false,"confidence":4},{"trial_n":38,"min":61,"max":194,"target":"present","response":"present","rt":977,"correct":true,"confidence":5},{"trial_n":39,"min":61,"max":194,"target":"present","response":"present","rt":1632.5,"correct":true,"confidence":5},{"trial_n":40,"min":63,"max":192,"target":"present","response":"present","rt":1767.8999996185,"correct":true,"confidence":5},{"trial_n":41,"min":63,"max":192,"target":"absent","response":"absent","rt":1062.6999998093,"correct":true,"confidence":4},{"trial_n":42,"min":64,"max":191,"target":"absent","response":"absent","rt":1932.3000001907,"correct":true,"confidence":3},{"trial_n":43,"min":64,"max":191,"target":"present","response":"present","rt":925,"correct":true,"confidence":5},{"trial_n":44,"min":65,"max":190,"target":"absent","response":"absent","rt":1667.3999996185,"correct":true,"confidence":2},{"trial_n":45,"min":65,"max":190,"target":"present","response":"present","rt":1130.4000005722,"correct":true,"confidence":5},{"trial_n":46,"min":66,"max":189,"target":"absent","response":"absent","rt":763.5,"correct":true,"confidence":4},{"trial_n":47,"min":66,"max":189,"target":"absent","response":"absent","rt":1267.6999998093,"correct":true,"confidence":3},{"trial_n":48,"min":67,"max":188,"target":"present","response":"present","rt":1339.3000001907,"correct":true,"confidence":5},{"trial_n":49,"min":67,"max":188,"target":"present","response":"present","rt":1035.8000001907,"correct":true,"confidence":5},{"trial_n":50,"min":68,"max":187,"target":"present","response":"present","rt":837.10000038147,"correct":true,"confidence":5},{"trial_n":51,"min":68,"max":187,"target":"absent","response":"absent","rt":913.89999961853,"correct":true,"confidence":5},{"trial_n":52,"min":69,"max":186,"target":"present","response":"present","rt":1128.8999996185,"correct":true,"confidence":5},{"trial_n":53,"min":69,"max":186,"target":"absent","response":"absent","rt":2223.8999996185,"correct":true,"confidence":4},{"trial_n":54,"min":70,"max":185,"target":"absent","response":"absent","rt":1323.7000007629,"correct":true,"confidence":4},{"trial_n":55,"min":70,"max":185,"target":"present","response":"present","rt":917.89999961853,"correct":true,"confidence":5},{"trial_n":56,"min":71,"max":184,"target":"absent","response":"absent","rt":963.5,"correct":true,"confidence":4},{"trial_n":57,"min":71,"max":184,"target":"present","response":"present","rt":1461,"correct":true,"confidence":4},{"trial_n":58,"min":72,"max":183,"target":"absent","response":"absent","rt":1343.3000001907,"correct":true,"confidence":4},{"trial_n":59,"min":72,"max":183,"target":"absent","response":"absent","rt":1170.8000001907,"correct":true,"confidence":1},{"trial_n":60,"min":73,"max":182,"target":"absent","response":"absent","rt":1003.1999998093,"correct":true,"confidence":4},{"trial_n":61,"min":73,"max":182,"target":"present","response":"present","rt":1056.8999996185,"correct":true,"confidence":5},{"trial_n":62,"min":74,"max":181,"target":"present","response":"present","rt":775.5999994278,"correct":true,"confidence":5},{"trial_n":63,"min":74,"max":181,"target":"present","response":"present","rt":827.70000076294,"correct":true,"confidence":4},{"trial_n":64,"min":75,"max":180,"target":"present","response":"present","rt":793.89999961853,"correct":true,"confidence":5},{"trial_n":65,"min":75,"max":180,"target":"present","response":"absent","rt":2101.4000005722,"correct":false,"confidence":2},{"trial_n":66,"min":74,"max":181,"target":"present","response":"absent","rt":905.89999961853,"correct":false,"confidence":4},{"trial_n":67,"min":73,"max":182,"target":"absent","response":"absent","rt":1065.9000005722,"correct":true,"confidence":5},{"trial_n":68,"min":73,"max":182,"target":"absent","response":"absent","rt":1581,"correct":true,"confidence":5},{"trial_n":69,"min":74,"max":181,"target":"present","response":"present","rt":836,"correct":true,"confidence":4},{"trial_n":70,"min":74,"max":181,"target":"absent","response":"absent","rt":843,"correct":true,"confidence":3},{"trial_n":71,"min":41,"max":214,"target":"present","response":"present","rt":1677.3000001907,"correct":true,"confidence":-1},{"trial_n":72,"min":41,"max":214,"target":"present","response":"present","rt":412.29999923706,"correct":true,"confidence":-1},{"trial_n":73,"min":57,"max":198,"target":"absent","response":"absent","rt":527.20000076294,"correct":true,"confidence":-1},{"trial_n":74,"min":57,"max":198,"target":"absent","response":"absent","rt":401,"correct":true,"confidence":-1},{"trial_n":75,"min":73,"max":182,"target":"present","response":"present","rt":355.10000038147,"correct":true,"confidence":-1},{"trial_n":76,"min":73,"max":182,"target":"present","response":"present","rt":305,"correct":true,"confidence":-1},{"trial_n":77,"min":89,"max":166,"target":"absent","response":"absent","rt":703.80000019073,"correct":true,"confidence":-1},{"trial_n":78,"min":89,"max":166,"target":"present","response":"present","rt":324.80000019073,"correct":true,"confidence":-1},{"trial_n":79,"min":105,"max":150,"target":"present","response":"absent","rt":424.89999961853,"correct":false,"confidence":-1},{"trial_n":80,"min":89,"max":166,"target":"absent","response":"present","rt":698.10000038147,"correct":false,"confidence":-1},{"trial_n":81,"min":81,"max":174,"target":"present","response":"present","rt":185.89999961853,"correct":true,"confidence":-1},{"trial_n":82,"min":81,"max":174,"target":"absent","response":"absent","rt":904.69999980927,"correct":true,"confidence":-1},{"trial_n":83,"min":89,"max":166,"target":"absent","response":"present","rt":417.0999994278,"correct":false,"confidence":-1},{"trial_n":84,"min":81,"max":174,"target":"present","response":"present","rt":279.10000038147,"correct":true,"confidence":-1},{"trial_n":85,"min":81,"max":174,"target":"present","response":"present","rt":366.30000019073,"correct":true,"confidence":-1},{"trial_n":86,"min":89,"max":166,"target":"present","response":"present","rt":271.60000038147,"correct":true,"confidence":-1},{"trial_n":87,"min":89,"max":166,"target":"present","response":"present","rt":321.5,"correct":true,"confidence":-1},{"trial_n":88,"min":97,"max":158,"target":"present","response":"present","rt":355,"correct":true,"confidence":-1},{"trial_n":89,"min":97,"max":158,"target":"absent","response":"present","rt":346.80000019073,"correct":false,"confidence":-1},{"trial_n":90,"min":89,"max":166,"target":"present","response":"present","rt":323.39999961853,"correct":true,"confidence":-1},{"trial_n":91,"min":89,"max":166,"target":"absent","response":"absent","rt":841.29999923706,"correct":true,"confidence":1},{"trial_n":92,"min":93,"max":162,"target":"absent","response":"present","rt":463.29999923706,"correct":false,"confidence":3},{"trial_n":93,"min":89,"max":166,"target":"present","response":"present","rt":450,"correct":true,"confidence":3},{"trial_n":94,"min":89,"max":166,"target":"present","response":"present","rt":329.69999980927,"correct":true,"confidence":4},{"trial_n":95,"min":93,"max":162,"target":"absent","response":"present","rt":762.80000019073,"correct":false,"confidence":4},{"trial_n":96,"min":89,"max":166,"target":"absent","response":"present","rt":882.30000019073,"correct":false,"confidence":2},{"trial_n":97,"min":85,"max":170,"target":"present","response":"present","rt":1055.8999996185,"correct":true,"confidence":3},{"trial_n":98,"min":85,"max":170,"target":"absent","response":"present","rt":873.29999923706,"correct":false,"confidence":3},{"trial_n":99,"min":81,"max":174,"target":"absent","response":"present","rt":852.30000019073,"correct":false,"confidence":3},{"trial_n":100,"min":77,"max":178,"target":"absent","response":"present","rt":711.9000005722,"correct":false,"confidence":3},{"trial_n":101,"min":75,"max":180,"target":"absent","response":"absent","rt":955.39999961853,"correct":true,"confidence":4},{"trial_n":102,"min":75,"max":180,"target":"present","response":"present","rt":427.5999994278,"correct":true,"confidence":5},{"trial_n":103,"min":77,"max":178,"target":"absent","response":"absent","rt":888.5999994278,"correct":true,"confidence":5},{"trial_n":104,"min":77,"max":178,"target":"absent","response":"absent","rt":797.80000019073,"correct":true,"confidence":4},{"trial_n":105,"min":79,"max":176,"target":"absent","response":"absent","rt":703.0999994278,"correct":true,"confidence":2},{"trial_n":106,"min":79,"max":176,"target":"present","response":"present","rt":203.89999961853,"correct":true,"confidence":5},{"trial_n":107,"min":81,"max":174,"target":"present","response":"present","rt":880.30000019073,"correct":true,"confidence":4},{"trial_n":108,"min":81,"max":174,"target":"absent","response":"absent","rt":585.69999980927,"correct":true,"confidence":4},{"trial_n":109,"min":83,"max":172,"target":"absent","response":"absent","rt":380,"correct":true,"confidence":3},{"trial_n":110,"min":83,"max":172,"target":"present","response":"present","rt":494.39999961853,"correct":true,"confidence":3},{"trial_n":111,"min":84,"max":171,"target":"present","response":"present","rt":409.20000076294,"correct":true,"confidence":5},{"trial_n":112,"min":84,"max":171,"target":"present","response":"present","rt":979.19999980927,"correct":true,"confidence":5},{"trial_n":113,"min":85,"max":170,"target":"absent","response":"absent","rt":1151.8000001907,"correct":true,"confidence":1},{"trial_n":114,"min":85,"max":170,"target":"present","response":"present","rt":273.19999980927,"correct":true,"confidence":4},{"trial_n":115,"min":86,"max":169,"target":"present","response":"present","rt":969.5,"correct":true,"confidence":5},{"trial_n":116,"min":86,"max":169,"target":"present","response":"present","rt":848.20000076294,"correct":true,"confidence":1},{"trial_n":117,"min":87,"max":168,"target":"present","response":"present","rt":633.5999994278,"correct":true,"confidence":4},{"trial_n":118,"min":87,"max":168,"target":"present","response":"present","rt":334.5999994278,"correct":true,"confidence":4},{"trial_n":119,"min":88,"max":167,"target":"present","response":"present","rt":1561.6000003815,"correct":true,"confidence":4},{"trial_n":120,"min":88,"max":167,"target":"absent","response":"present","rt":845.60000038147,"correct":false,"confidence":1},{"trial_n":121,"min":87,"max":168,"target":"absent","response":"present","rt":733.19999980927,"correct":false,"confidence":3},{"trial_n":122,"min":86,"max":169,"target":"present","response":"present","rt":1994.3000001907,"correct":true,"confidence":5},{"trial_n":123,"min":86,"max":169,"target":"absent","response":"absent","rt":813.80000019073,"correct":true,"confidence":4},{"trial_n":124,"min":87,"max":168,"target":"absent","response":"absent","rt":1265.4000005722,"correct":true,"confidence":3},{"trial_n":125,"min":87,"max":168,"target":"absent","response":"present","rt":922.60000038147,"correct":false,"confidence":1},{"trial_n":126,"min":86,"max":169,"target":"absent","response":"present","rt":765.80000019073,"correct":false,"confidence":2},{"trial_n":127,"min":85,"max":170,"target":"present","response":"present","rt":1315.5,"correct":true,"confidence":4},{"trial_n":128,"min":85,"max":170,"target":"absent","response":"present","rt":1566.4000005722,"correct":false,"confidence":1},{"trial_n":129,"min":84,"max":171,"target":"absent","response":"present","rt":982.60000038147,"correct":false,"confidence":3},{"trial_n":130,"min":83,"max":172,"target":"absent","response":"present","rt":722.89999961853,"correct":false,"confidence":1},{"trial_n":131,"min":82,"max":173,"target":"present","response":"present","rt":601.39999961853,"correct":true,"confidence":5},{"trial_n":132,"min":82,"max":173,"target":"present","response":"present","rt":597.80000019073,"correct":true,"confidence":5},{"trial_n":133,"min":83,"max":172,"target":"absent","response":"absent","rt":865.5,"correct":true,"confidence":5},{"trial_n":134,"min":83,"max":172,"target":"present","response":"present","rt":1301.3000001907,"correct":true,"confidence":5},{"trial_n":135,"min":84,"max":171,"target":"absent","response":"absent","rt":705,"correct":true,"confidence":3},{"trial_n":136,"min":84,"max":171,"target":"present","response":"present","rt":1107.8000001907,"correct":true,"confidence":5},{"trial_n":137,"min":85,"max":170,"target":"present","response":"present","rt":781.60000038147,"correct":true,"confidence":5},{"trial_n":138,"min":85,"max":170,"target":"absent","response":"absent","rt":799.60000038147,"correct":true,"confidence":5},{"trial_n":139,"min":86,"max":169,"target":"absent","response":"present","rt":683.10000038147,"correct":false,"confidence":1},{"trial_n":140,"min":85,"max":170,"target":"present","response":"present","rt":899.30000019073,"correct":true,"confidence":5}]