[{"trial_n":1,"min":25,"max":230,"target":"present","response":"present","rt":6045.8000000119,"correct":true,"confidence":-1},{"trial_n":2,"min":25,"max":230,"target":"present","response":"present","rt":570.90000000596,"correct":true,"confidence":-1},{"trial_n":3,"min":41,"max":214,"target":"absent","response":"absent","rt":577,"correct":true,"confidence":-1},{"trial_n":4,"min":41,"max":214,"target":"absent","response":"absent","rt":395.30000001192,"correct":true,"confidence":-1},{"trial_n":5,"min":57,"max":198,"target":"present","response":"present","rt":403.5,"correct":true,"confidence":-1},{"trial_n":6,"min":57,"max":198,"target":"present","response":"absent","rt":332.5,"correct":false,"confidence":-1},{"trial_n":7,"min":41,"max":214,"target":"present","response":"present","rt":528.40000000596,"correct":true,"confidence":-1},{"trial_n":8,"min":41,"max":214,"target":"absent","response":"absent","rt":487.80000001192,"correct":true,"confidence":-1},{"trial_n":9,"min":57,"max":198,"target":"present","response":"absent","rt":601.90000000596,"correct":false,"confidence":-1},{"trial_n":10,"min":41,"max":214,"target":"present","response":"present","rt":461.19999998808,"correct":true,"confidence":-1},{"trial_n":11,"min":41,"max":214,"target":"absent","response":"absent","rt":685.90000000596,"correct":true,"confidence":-1},{"trial_n":12,"min":49,"max":206,"target":"present","response":"present","rt":504.19999998808,"correct":true,"confidence":-1},{"trial_n":13,"min":49,"max":206,"target":"present","response":"present","rt":738.59999999404,"correct":true,"confidence":-1},{"trial_n":14,"min":57,"max":198,"target":"absent","response":"absent","rt":529,"correct":true,"confidence":-1},{"trial_n":15,"min":57,"max":198,"target":"present","response":"present","rt":495.80000001192,"correct":true,"confidence":-1},{"trial_n":16,"min":65,"max":190,"target":"absent","response":"absent","rt":497.09999999404,"correct":true,"confidence":-1},{"trial_n":17,"min":65,"max":190,"target":"absent","response":"absent","rt":517.29999998212,"correct":true,"confidence":-1},{"trial_n":18,"min":73,"max":182,"target":"absent","response":"absent","rt":520.40000000596,"correct":true,"confidence":-1},{"trial_n":19,"min":73,"max":182,"target":"present","response":"present","rt":621.70000001788,"correct":true,"confidence":-1},{"trial_n":20,"min":81,"max":174,"target":"absent","response":"absent","rt":531.29999998212,"correct":true,"confidence":-1},{"trial_n":21,"min":81,"max":174,"target":"present","response":"present","rt":719.10000002384,"correct":true,"confidence":4},{"trial_n":22,"min":85,"max":170,"target":"present","response":"present","rt":1654,"correct":true,"confidence":5},{"trial_n":23,"min":85,"max":170,"target":"absent","response":"absent","rt":1185.400000006,"correct":true,"confidence":2},{"trial_n":24,"min":89,"max":166,"target":"absent","response":"absent","rt":2970.7999999821,"correct":true,"confidence":2},{"trial_n":25,"min":89,"max":166,"target":"present","response":"present","rt":639.40000000596,"correct":true,"confidence":5},{"trial_n":26,"min":93,"max":162,"target":"absent","response":"present","rt":1366.599999994,"correct":false,"confidence":3},{"trial_n":27,"min":89,"max":166,"target":"present","response":"present","rt":475.09999999404,"correct":true,"confidence":4},{"trial_n":28,"min":89,"max":166,"target":"present","response":"present","rt":3556.2999999821,"correct":true,"confidence":3},{"trial_n":29,"min":93,"max":162,"target":"present","response":"present","rt":911.40000000596,"correct":true,"confidence":3},{"trial_n":30,"min":93,"max":162,"target":"absent","response":"present","rt":2873.400000006,"correct":false,"confidence":3},{"trial_n":31,"min":91,"max":164,"target":"absent","response":"present","rt":621.40000000596,"correct":false,"confidence":4},{"trial_n":32,"min":89,"max":166,"target":"present","response":"present","rt":844.79999998212,"correct":true,"confidence":4},{"trial_n":33,"min":89,"max":166,"target":"absent","response":"absent","rt":552.59999999404,"correct":true,"confidence":3},{"trial_n":34,"min":91,"max":164,"target":"absent","response":"absent","rt":413.90000000596,"correct":true,"confidence":5},{"trial_n":35,"min":91,"max":164,"target":"absent","response":"present","rt":1772.5,"correct":false,"confidence":3},{"trial_n":36,"min":89,"max":166,"target":"present","response":"absent","rt":686,"correct":false,"confidence":4},{"trial_n":37,"min":87,"max":168,"target":"absent","response":"present","rt":453.69999998808,"correct":false,"confidence":3},{"trial_n":38,"min":85,"max":170,"target":"present","response":"present","rt":2163.6999999881,"correct":true,"confidence":4},{"trial_n":39,"min":85,"max":170,"target":"present","response":"present","rt":712,"correct":true,"confidence":5},{"trial_n":40,"min":87,"max":168,"target":"present","response":"present","rt":411.20000001788,"correct":true,"confidence":5},{"trial_n":41,"min":87,"max":168,"target":"present","response":"present","rt":514.20000001788,"correct":true,"confidence":5},{"trial_n":42,"min":88,"max":167,"target":"present","response":"present","rt":515.80000001192,"correct":true,"confidence":5},{"trial_n":43,"min":88,"max":167,"target":"absent","response":"present","rt":446,"correct":false,"confidence":5},{"trial_n":44,"min":87,"max":168,"target":"absent","response":"present","rt":935.59999999404,"correct":false,"confidence":3},{"trial_n":45,"min":86,"max":169,"target":"present","response":"present","rt":2945.1000000238,"correct":true,"confidence":3},{"trial_n":46,"min":86,"max":169,"target":"present","response":"present","rt":1547.2999999821,"correct":true,"confidence":4},{"trial_n":47,"min":87,"max":168,"target":"absent","response":"absent","rt":1558.3000000119,"correct":true,"confidence":2},{"trial_n":48,"min":87,"max":168,"target":"present","response":"absent","rt":1478.8000000119,"correct":false,"confidence":2},{"trial_n":49,"min":86,"max":169,"target":"present","response":"present","rt":757.40000000596,"correct":true,"confidence":4},{"trial_n":50,"min":86,"max":169,"target":"present","response":"present","rt":11773.600000024,"correct":true,"confidence":2},{"trial_n":51,"min":87,"max":168,"target":"present","response":"present","rt":1187.6999999881,"correct":true,"confidence":5},{"trial_n":52,"min":87,"max":168,"target":"present","response":"present","rt":1259.2999999821,"correct":true,"confidence":3},{"trial_n":53,"min":88,"max":167,"target":"absent","response":"absent","rt":935,"correct":true,"confidence":5},{"trial_n":54,"min":88,"max":167,"target":"present","response":"present","rt":1499.1000000238,"correct":true,"confidence":5},{"trial_n":55,"min":89,"max":166,"target":"absent","response":"absent","rt":1009.3000000119,"correct":true,"confidence":5},{"trial_n":56,"min":89,"max":166,"target":"present","response":"absent","rt":702.20000001788,"correct":false,"confidence":5},{"trial_n":57,"min":88,"max":167,"target":"present","response":"absent","rt":593.70000001788,"correct":false,"confidence":5},{"trial_n":58,"min":87,"max":168,"target":"absent","response":"absent","rt":672.90000000596,"correct":true,"confidence":5},{"trial_n":59,"min":87,"max":168,"target":"absent","response":"present","rt":2801.5,"correct":false,"confidence":3},{"trial_n":60,"min":86,"max":169,"target":"present","response":"present","rt":1331.599999994,"correct":true,"confidence":3},{"trial_n":61,"min":86,"max":169,"target":"absent","response":"present","rt":1586,"correct":false,"confidence":3},{"trial_n":62,"min":85,"max":170,"target":"absent","response":"absent","rt":2423.2999999821,"correct":true,"confidence":2},{"trial_n":63,"min":85,"max":170,"target":"absent","response":"present","rt":1256.900000006,"correct":false,"confidence":3},{"trial_n":64,"min":84,"max":171,"target":"absent","response":"absent","rt":791.30000001192,"correct":true,"confidence":5},{"trial_n":65,"min":84,"max":171,"target":"present","response":"present","rt":2054.099999994,"correct":true,"confidence":5},{"trial_n":66,"min":85,"max":170,"target":"absent","response":"absent","rt":764,"correct":true,"confidence":5},{"trial_n":67,"min":85,"max":170,"target":"absent","response":"absent","rt":628.19999998808,"correct":true,"confidence":5},{"trial_n":68,"min":86,"max":169,"target":"absent","response":"absent","rt":864.29999998212,"correct":true,"confidence":5},{"trial_n":69,"min":86,"max":169,"target":"absent","response":"present","rt":2543.900000006,"correct":false,"confidence":3},{"trial_n":70,"min":85,"max":170,"target":"absent","response":"absent","rt":1047.1999999881,"correct":true,"confidence":5},{"trial_n":71,"min":41,"max":214,"target":"present","response":"present","rt":2969.2999999821,"correct":true,"confidence":-1},{"trial_n":72,"min":41,"max":214,"target":"present","response":"present","rt":539.59999999404,"correct":true,"confidence":-1},{"trial_n":73,"min":57,"max":198,"target":"absent","response":"absent","rt":806.90000000596,"correct":true,"confidence":-1},{"trial_n":74,"min":57,"max":198,"target":"absent","response":"absent","rt":541.29999998212,"correct":true,"confidence":-1},{"trial_n":75,"min":73,"max":182,"target":"present","response":"present","rt":1181.8000000119,"correct":true,"confidence":-1},{"trial_n":76,"min":73,"max":182,"target":"present","response":"present","rt":555,"correct":true,"confidence":-1},{"trial_n":77,"min":89,"max":166,"target":"present","response":"present","rt":1741.099999994,"correct":true,"confidence":-1},{"trial_n":78,"min":89,"max":166,"target":"present","response":"present","rt":1027.400000006,"correct":true,"confidence":-1},{"trial_n":79,"min":105,"max":150,"target":"absent","response":"present","rt":987.39999997616,"correct":false,"confidence":-1},{"trial_n":80,"min":89,"max":166,"target":"present","response":"present","rt":507.40000000596,"correct":true,"confidence":-1},{"trial_n":81,"min":89,"max":166,"target":"present","response":"present","rt":546.69999998808,"correct":true,"confidence":-1},{"trial_n":82,"min":97,"max":158,"target":"present","response":"present","rt":1015.5,"correct":true,"confidence":-1},{"trial_n":83,"min":97,"max":158,"target":"absent","response":"absent","rt":1295,"correct":true,"confidence":-1},{"trial_n":84,"min":105,"max":150,"target":"present","response":"present","rt":725.30000001192,"correct":true,"confidence":-1},{"trial_n":85,"min":105,"max":150,"target":"absent","response":"absent","rt":762.19999998808,"correct":true,"confidence":-1},{"trial_n":86,"min":113,"max":142,"target":"present","response":"absent","rt":1588.099999994,"correct":false,"confidence":-1},{"trial_n":87,"min":105,"max":150,"target":"absent","response":"present","rt":1003.8999999762,"correct":false,"confidence":-1},{"trial_n":88,"min":97,"max":158,"target":"absent","response":"present","rt":2869.3000000119,"correct":false,"confidence":-1},{"trial_n":89,"min":89,"max":166,"target":"absent","response":"present","rt":586,"correct":false,"confidence":-1},{"trial_n":90,"min":81,"max":174,"target":"present","response":"present","rt":1103.099999994,"correct":true,"confidence":-1},{"trial_n":91,"min":81,"max":174,"target":"present","response":"present","rt":832.69999998808,"correct":true,"confidence":4},{"trial_n":92,"min":85,"max":170,"target":"absent","response":"present","rt":944.20000001788,"correct":false,"confidence":5},{"trial_n":93,"min":81,"max":174,"target":"present","response":"present","rt":760.09999999404,"correct":true,"confidence":5},{"trial_n":94,"min":81,"max":174,"target":"present","response":"present","rt":525.70000001788,"correct":true,"confidence":5},{"trial_n":95,"min":85,"max":170,"target":"absent","response":"present","rt":612.20000001788,"correct":false,"confidence":5},{"trial_n":96,"min":81,"max":174,"target":"absent","response":"absent","rt":1093.099999994,"correct":true,"confidence":5},{"trial_n":97,"min":81,"max":174,"target":"absent","response":"present","rt":809,"correct":false,"confidence":5},{"trial_n":98,"min":77,"max":178,"target":"present","response":"present","rt":1113.8999999762,"correct":true,"confidence":5},{"trial_n":99,"min":77,"max":178,"target":"absent","response":"absent","rt":1644.900000006,"correct":true,"confidence":4},{"trial_n":100,"min":81,"max":174,"target":"absent","response":"absent","rt":1405.599999994,"correct":true,"confidence":4},{"trial_n":101,"min":81,"max":174,"target":"present","response":"present","rt":1229.1000000238,"correct":true,"confidence":5},{"trial_n":102,"min":83,"max":172,"target":"present","response":"present","rt":1412.6999999881,"correct":true,"confidence":5},{"trial_n":103,"min":83,"max":172,"target":"absent","response":"present","rt":1120.3000000119,"correct":false,"confidence":5},{"trial_n":104,"min":81,"max":174,"target":"absent","response":"absent","rt":913.89999997616,"correct":true,"confidence":5},{"trial_n":105,"min":81,"max":174,"target":"absent","response":"present","rt":1367.3999999762,"correct":false,"confidence":3},{"trial_n":106,"min":79,"max":176,"target":"absent","response":"present","rt":1505,"correct":false,"confidence":3},{"trial_n":107,"min":77,"max":178,"target":"present","response":"present","rt":1101,"correct":true,"confidence":4},{"trial_n":108,"min":77,"max":178,"target":"present","response":"present","rt":707.29999998212,"correct":true,"confidence":5},{"trial_n":109,"min":79,"max":176,"target":"absent","response":"present","rt":2508.1999999881,"correct":false,"confidence":2},{"trial_n":110,"min":77,"max":178,"target":"absent","response":"absent","rt":3614.400000006,"correct":true,"confidence":3},{"trial_n":111,"min":77,"max":178,"target":"absent","response":"absent","rt":1278.8999999762,"correct":true,"confidence":5},{"trial_n":112,"min":78,"max":177,"target":"present","response":"present","rt":671.80000001192,"correct":true,"confidence":5},{"trial_n":113,"min":78,"max":177,"target":"present","response":"present","rt":1167.900000006,"correct":true,"confidence":5},{"trial_n":114,"min":79,"max":176,"target":"absent","response":"absent","rt":798.40000000596,"correct":true,"confidence":5},{"trial_n":115,"min":79,"max":176,"target":"absent","response":"absent","rt":938.40000000596,"correct":true,"confidence":4},{"trial_n":116,"min":80,"max":175,"target":"present","response":"present","rt":544.09999999404,"correct":true,"confidence":5},{"trial_n":117,"min":80,"max":175,"target":"present","response":"present","rt":600.90000000596,"correct":true,"confidence":5},{"trial_n":118,"min":81,"max":174,"target":"present","response":"present","rt":631.89999997616,"correct":true,"confidence":5},{"trial_n":119,"min":81,"max":174,"target":"absent","response":"absent","rt":1171.1999999881,"correct":true,"confidence":3},{"trial_n":120,"min":82,"max":173,"target":"absent","response":"absent","rt":1062.2999999821,"correct":true,"confidence":3},{"trial_n":121,"min":82,"max":173,"target":"present","response":"present","rt":698.20000001788,"correct":true,"confidence":5},{"trial_n":122,"min":83,"max":172,"target":"absent","response":"absent","rt":1164.400000006,"correct":true,"confidence":3},{"trial_n":123,"min":83,"max":172,"target":"present","response":"present","rt":452.70000001788,"correct":true,"confidence":5},{"trial_n":124,"min":84,"max":171,"target":"absent","response":"present","rt":763.79999998212,"correct":false,"confidence":4},{"trial_n":125,"min":83,"max":172,"target":"present","response":"present","rt":511.20000001788,"correct":true,"confidence":5},{"trial_n":126,"min":83,"max":172,"target":"absent","response":"present","rt":1384,"correct":false,"confidence":4},{"trial_n":127,"min":82,"max":173,"target":"absent","response":"absent","rt":1941.900000006,"correct":true,"confidence":5},{"trial_n":128,"min":82,"max":173,"target":"absent","response":"absent","rt":2659.400000006,"correct":true,"confidence":4},{"trial_n":129,"min":83,"max":172,"target":"absent","response":"absent","rt":2604.900000006,"correct":true,"confidence":2},{"trial_n":130,"min":83,"max":172,"target":"absent","response":"absent","rt":2296.2000000179,"correct":true,"confidence":2},{"trial_n":131,"min":84,"max":171,"target":"present","response":"present","rt":637.60000002384,"correct":true,"confidence":5},{"trial_n":132,"min":84,"max":171,"target":"present","response":"present","rt":743.19999998808,"correct":true,"confidence":5},{"trial_n":133,"min":85,"max":170,"target":"present","response":"absent","rt":3370.7999999821,"correct":false,"confidence":2},{"trial_n":134,"min":84,"max":171,"target":"absent","response":"absent","rt":873.40000000596,"correct":true,"confidence":4},{"trial_n":135,"min":84,"max":171,"target":"present","response":"present","rt":515.69999998808,"correct":true,"confidence":5},{"trial_n":136,"min":85,"max":170,"target":"present","response":"present","rt":695.09999999404,"correct":true,"confidence":5},{"trial_n":137,"min":85,"max":170,"target":"present","response":"present","rt":708.80000001192,"correct":true,"confidence":4},{"trial_n":138,"min":86,"max":169,"target":"absent","response":"present","rt":3747.7000000179,"correct":false,"confidence":3},{"trial_n":139,"min":85,"max":170,"target":"present","response":"absent","rt":3352.599999994,"correct":false,"confidence":3},{"trial_n":140,"min":84,"max":171,"target":"present","response":"absent","rt":915.09999999404,"correct":false,"confidence":1}]