[{"trial_n":1,"span":8,"encoder":"65205414","distractor":"63205414","target":"present","response":"present","rt":"5371","correct":true,"confidence":-1},{"trial_n":2,"span":8,"encoder":"05321788","distractor":"75321788","target":"present","response":"absent","rt":"2182","correct":false,"confidence":-1},{"trial_n":3,"span":6,"encoder":"317584","distractor":"317784","target":"absent","response":"present","rt":"1979","correct":false,"confidence":-1},{"trial_n":4,"span":4,"encoder":"1274","distractor":"1204","target":"absent","response":"present","rt":"12833","correct":false,"confidence":-1},{"trial_n":5,"span":2,"encoder":"58","distractor":"55","target":"present","response":"present","rt":"1240","correct":true,"confidence":-1},{"trial_n":6,"span":2,"encoder":"96","distractor":"95","target":"present","response":"present","rt":"1055","correct":true,"confidence":-1},{"trial_n":7,"span":4,"encoder":"7644","distractor":"1644","target":"absent","response":"absent","rt":"1726","correct":true,"confidence":-1},{"trial_n":8,"span":4,"encoder":"2527","distractor":"2517","target":"absent","response":"absent","rt":"1959","correct":true,"confidence":-1},{"trial_n":9,"span":6,"encoder":"421546","distractor":"421545","target":"present","response":"absent","rt":"5128","correct":false,"confidence":-1},{"trial_n":10,"span":4,"encoder":"8131","distractor":"3131","target":"present","response":"present","rt":"1489","correct":true,"confidence":-1},{"trial_n":11,"span":4,"encoder":"9196","distractor":"9696","target":"absent","response":"present","rt":"1391","correct":false,"confidence":-1},{"trial_n":12,"span":3,"encoder":"997","distractor":"977","target":"absent","response":"absent","rt":"5479","correct":true,"confidence":-1},{"trial_n":13,"span":3,"encoder":"714","distractor":"754","target":"present","response":"present","rt":"1264","correct":true,"confidence":-1},{"trial_n":14,"span":4,"encoder":"7998","distractor":"0998","target":"present","response":"present","rt":"2026","correct":true,"confidence":-1},{"trial_n":15,"span":4,"encoder":"5724","distractor":"5726","target":"absent","response":"absent","rt":"1550","correct":true,"confidence":-1},{"trial_n":16,"span":5,"encoder":"13246","distractor":"53246","target":"present","response":"present","rt":"2693.9999999999","correct":true,"confidence":-1},{"trial_n":17,"span":5,"encoder":"48837","distractor":"28837","target":"absent","response":"absent","rt":"1807","correct":true,"confidence":-1},{"trial_n":18,"span":6,"encoder":"743081","distractor":"743083","target":"present","response":"present","rt":"1682","correct":true,"confidence":-1},{"trial_n":19,"span":6,"encoder":"192904","distractor":"198904","target":"absent","response":"absent","rt":"1980","correct":true,"confidence":-1},{"trial_n":20,"span":7,"encoder":"8504419","distractor":"8504415","target":"present","response":"present","rt":"2946","correct":true,"confidence":-1},{"trial_n":21,"span":7,"encoder":"1185214","distractor":"1187214","target":"present","response":"present","rt":"2769","correct":true,"confidence":4},{"trial_n":22,"span":8,"encoder":"11364091","distractor":"11364001","target":"absent","response":"absent","rt":"4015","correct":true,"confidence":3},{"trial_n":23,"span":8,"encoder":"92860581","distractor":"12860581","target":"present","response":"present","rt":"2588","correct":true,"confidence":2},{"trial_n":24,"span":9,"encoder":"696126029","distractor":"697126029","target":"present","response":"present","rt":"2448","correct":true,"confidence":2},{"trial_n":25,"span":9,"encoder":"072103329","distractor":"072803329","target":"present","response":"present","rt":"2970","correct":true,"confidence":3},{"trial_n":26,"span":10,"encoder":"0676687370","distractor":"0676687070","target":"absent","response":"absent","rt":"4152","correct":true,"confidence":3},{"trial_n":27,"span":10,"encoder":"7786226803","distractor":"7788226803","target":"present","response":"absent","rt":"4813","correct":false,"confidence":3},{"trial_n":28,"span":9,"encoder":"574685661","distractor":"574685461","target":"absent","response":"absent","rt":"1594","correct":true,"confidence":3},{"trial_n":29,"span":9,"encoder":"402280906","distractor":"442280906","target":"present","response":"present","rt":"2310","correct":true,"confidence":3},{"trial_n":30,"span":10,"encoder":"7580716021","distractor":"7588716021","target":"absent","response":"absent","rt":"2576","correct":true,"confidence":3},{"trial_n":31,"span":10,"encoder":"9190437742","distractor":"9190437042","target":"present","response":"present","rt":"2417.0000000001","correct":true,"confidence":3},{"trial_n":32,"span":11,"encoder":"81987786442","distractor":"81987788442","target":"present","response":"present","rt":"3116","correct":true,"confidence":2},{"trial_n":33,"span":11,"encoder":"71735870176","distractor":"76735870176","target":"absent","response":"present","rt":"3370.9999999999","correct":false,"confidence":3},{"trial_n":34,"span":10,"encoder":"2465617776","distractor":"2965617776","target":"absent","response":"present","rt":"2734.9999999999","correct":false,"confidence":3},{"trial_n":35,"span":9,"encoder":"827589552","distractor":"825589552","target":"absent","response":"absent","rt":"2495","correct":true,"confidence":3},{"trial_n":36,"span":9,"encoder":"575950857","distractor":"574950857","target":"absent","response":"absent","rt":"3568","correct":true,"confidence":3},{"trial_n":37,"span":10,"encoder":"3399815222","distractor":"3399885222","target":"absent","response":"present","rt":"2482","correct":false,"confidence":4},{"trial_n":38,"span":9,"encoder":"585238456","distractor":"525238456","target":"present","response":"present","rt":"3937","correct":true,"confidence":2},{"trial_n":39,"span":9,"encoder":"405528781","distractor":"405528181","target":"present","response":"present","rt":"3341","correct":true,"confidence":3},{"trial_n":40,"span":10,"encoder":"5304572731","distractor":"5304072731","target":"present","response":"present","rt":"7399","correct":true,"confidence":2},{"trial_n":41,"span":10,"encoder":"8644067460","distractor":"8644067464","target":"absent","response":"absent","rt":"6955","correct":true,"confidence":3},{"trial_n":42,"span":11,"encoder":"17402544107","distractor":"17402244107","target":"absent","response":"present","rt":"4637","correct":false,"confidence":2},{"trial_n":43,"span":10,"encoder":"0653038271","distractor":"0653028271","target":"absent","response":"absent","rt":"3168","correct":true,"confidence":1},{"trial_n":44,"span":10,"encoder":"7386363372","distractor":"7396363372","target":"present","response":"present","rt":"2797","correct":true,"confidence":2},{"trial_n":45,"span":11,"encoder":"29510596127","distractor":"29310596127","target":"present","response":"present","rt":"6224","correct":true,"confidence":1},{"trial_n":46,"span":11,"encoder":"41205160604","distractor":"41205162604","target":"absent","response":"present","rt":"3336","correct":false,"confidence":2},{"trial_n":47,"span":10,"encoder":"6958404881","distractor":"6958401881","target":"absent","response":"absent","rt":"2655","correct":true,"confidence":1},{"trial_n":48,"span":10,"encoder":"4214321784","distractor":"4218321784","target":"absent","response":"present","rt":"4564.9999999999","correct":false,"confidence":3},{"trial_n":49,"span":9,"encoder":"375221132","distractor":"375221137","target":"present","response":"present","rt":"3924","correct":true,"confidence":3},{"trial_n":50,"span":9,"encoder":"006164233","distractor":"006160233","target":"absent","response":"present","rt":"3216","correct":false,"confidence":3},{"trial_n":51,"span":8,"encoder":"70573934","distractor":"70563934","target":"absent","response":"present","rt":"2456","correct":false,"confidence":2},{"trial_n":52,"span":7,"encoder":"6616898","distractor":"6616868","target":"absent","response":"absent","rt":"2694","correct":true,"confidence":3},{"trial_n":53,"span":7,"encoder":"6571998","distractor":"6501998","target":"present","response":"absent","rt":"3434","correct":false,"confidence":2},{"trial_n":54,"span":6,"encoder":"355450","distractor":"355650","target":"absent","response":"absent","rt":"3825.9999999999","correct":true,"confidence":4},{"trial_n":55,"span":6,"encoder":"523839","distractor":"023839","target":"absent","response":"absent","rt":"5448","correct":true,"confidence":2},{"trial_n":56,"span":7,"encoder":"3420426","distractor":"3420496","target":"present","response":"present","rt":"3128.9999999999","correct":true,"confidence":3},{"trial_n":57,"span":7,"encoder":"9421171","distractor":"9421181","target":"present","response":"present","rt":"3833","correct":true,"confidence":4},{"trial_n":58,"span":8,"encoder":"40029793","distractor":"40029773","target":"present","response":"present","rt":"2745","correct":true,"confidence":4},{"trial_n":59,"span":8,"encoder":"15344732","distractor":"15344532","target":"absent","response":"absent","rt":"2457","correct":true,"confidence":5},{"trial_n":60,"span":9,"encoder":"315959284","distractor":"715959284","target":"present","response":"present","rt":"3679","correct":true,"confidence":5},{"trial_n":61,"span":9,"encoder":"980460272","distractor":"980460772","target":"present","response":"present","rt":"3973","correct":true,"confidence":3},{"trial_n":62,"span":10,"encoder":"6985882664","distractor":"6985882634","target":"present","response":"present","rt":"6036","correct":true,"confidence":2},{"trial_n":63,"span":10,"encoder":"4054864663","distractor":"4054864263","target":"absent","response":"present","rt":"3647","correct":false,"confidence":3},{"trial_n":64,"span":9,"encoder":"548562045","distractor":"508562045","target":"absent","response":"absent","rt":"4468","correct":true,"confidence":2},{"trial_n":65,"span":9,"encoder":"649706295","distractor":"649700295","target":"present","response":"present","rt":"3190","correct":true,"confidence":2},{"trial_n":66,"span":10,"encoder":"7053088825","distractor":"7053088425","target":"present","response":"present","rt":"3071","correct":true,"confidence":2},{"trial_n":67,"span":10,"encoder":"6704587998","distractor":"6704587990","target":"absent","response":"absent","rt":"2569.0000000001","correct":true,"confidence":1},{"trial_n":68,"span":11,"encoder":"54647127905","distractor":"54647127900","target":"absent","response":"absent","rt":"3545.9999999999","correct":true,"confidence":2},{"trial_n":69,"span":11,"encoder":"10366118762","distractor":"90366118762","target":"present","response":"present","rt":"4140.0000000001","correct":true,"confidence":3},{"trial_n":70,"span":12,"encoder":"065768185706","distractor":"465768185706","target":"present","response":"present","rt":"3540","correct":true,"confidence":3},{"trial_n":71,"span":8,"encoder":"73186630","distractor":"78186630","target":"present","response":"absent","rt":"9011","correct":false,"confidence":-1},{"trial_n":72,"span":7,"encoder":"9865825","distractor":"9865827","target":"present","response":"present","rt":"3760","correct":true,"confidence":-1},{"trial_n":73,"span":7,"encoder":"0224151","distractor":"0524151","target":"absent","response":"absent","rt":"2758","correct":true,"confidence":-1},{"trial_n":74,"span":8,"encoder":"97055947","distractor":"97055957","target":"absent","response":"absent","rt":"2305","correct":true,"confidence":-1},{"trial_n":75,"span":8,"encoder":"93766480","distractor":"73766480","target":"present","response":"present","rt":"4261","correct":true,"confidence":-1},{"trial_n":76,"span":9,"encoder":"721399483","distractor":"721329483","target":"absent","response":"absent","rt":"4274","correct":true,"confidence":-1},{"trial_n":77,"span":9,"encoder":"298836086","distractor":"298836081","target":"present","response":"present","rt":"1312","correct":true,"confidence":-1},{"trial_n":78,"span":10,"encoder":"6515976595","distractor":"6515996595","target":"present","response":"absent","rt":"6268","correct":false,"confidence":-1},{"trial_n":79,"span":9,"encoder":"900374134","distractor":"900374234","target":"present","response":"present","rt":"1768","correct":true,"confidence":-1},{"trial_n":80,"span":9,"encoder":"369618452","distractor":"369618453","target":"present","response":"absent","rt":"4513","correct":false,"confidence":-1},{"trial_n":81,"span":8,"encoder":"87904438","distractor":"87904738","target":"present","response":"present","rt":"2457","correct":true,"confidence":-1},{"trial_n":82,"span":8,"encoder":"38430520","distractor":"38830520","target":"absent","response":"present","rt":"3020","correct":false,"confidence":-1},{"trial_n":83,"span":7,"encoder":"4035443","distractor":"4035442","target":"absent","response":"absent","rt":"6758","correct":true,"confidence":-1},{"trial_n":84,"span":7,"encoder":"7288445","distractor":"7288405","target":"present","response":"present","rt":"2913","correct":true,"confidence":-1},{"trial_n":85,"span":8,"encoder":"21457137","distractor":"21477137","target":"absent","response":"absent","rt":"2899","correct":true,"confidence":-1},{"trial_n":86,"span":8,"encoder":"89629343","distractor":"89659343","target":"absent","response":"present","rt":"7319","correct":false,"confidence":-1},{"trial_n":87,"span":7,"encoder":"0545038","distractor":"0245038","target":"absent","response":"absent","rt":"3314","correct":true,"confidence":-1},{"trial_n":88,"span":7,"encoder":"4820546","distractor":"4520546","target":"absent","response":"absent","rt":"2892","correct":true,"confidence":-1},{"trial_n":89,"span":8,"encoder":"13731701","distractor":"13731711","target":"present","response":"present","rt":"2644.9999999998","correct":true,"confidence":-1},{"trial_n":90,"span":8,"encoder":"02272118","distractor":"02292118","target":"present","response":"present","rt":"3594","correct":true,"confidence":-1},{"trial_n":91,"span":9,"encoder":"256352362","distractor":"256152362","target":"present","response":"present","rt":"11641","correct":true,"confidence":2},{"trial_n":92,"span":9,"encoder":"210303985","distractor":"610303985","target":"present","response":"present","rt":"6048","correct":true,"confidence":3},{"trial_n":93,"span":10,"encoder":"2854152855","distractor":"2854102855","target":"absent","response":"absent","rt":"6922","correct":true,"confidence":3},{"trial_n":94,"span":10,"encoder":"0922725315","distractor":"0722725315","target":"present","response":"present","rt":"8181","correct":true,"confidence":2},{"trial_n":95,"span":11,"encoder":"87820640154","distractor":"87520640154","target":"present","response":"absent","rt":"3462","correct":false,"confidence":2},{"trial_n":96,"span":10,"encoder":"2329411726","distractor":"2329441726","target":"absent","response":"absent","rt":"3061","correct":true,"confidence":3},{"trial_n":97,"span":10,"encoder":"7499625818","distractor":"7499625814","target":"absent","response":"absent","rt":"3845","correct":true,"confidence":4},{"trial_n":98,"span":11,"encoder":"06738131192","distractor":"06738131392","target":"absent","response":"present","rt":"2080","correct":false,"confidence":1},{"trial_n":99,"span":10,"encoder":"0293925430","distractor":"0293925439","target":"present","response":"present","rt":"2118.9999999998","correct":true,"confidence":5},{"trial_n":100,"span":10,"encoder":"7456667062","distractor":"7453667062","target":"present","response":"present","rt":"7995","correct":true,"confidence":3},{"trial_n":101,"span":11,"encoder":"06724987975","distractor":"06724987955","target":"absent","response":"absent","rt":"4987.0000000002","correct":true,"confidence":1},{"trial_n":102,"span":11,"encoder":"93679737943","distractor":"23679737943","target":"absent","response":"absent","rt":"7076","correct":true,"confidence":1},{"trial_n":103,"span":12,"encoder":"985193775041","distractor":"985193575041","target":"present","response":"present","rt":"4524","correct":true,"confidence":3},{"trial_n":104,"span":12,"encoder":"160680047083","distractor":"160670047083","target":"absent","response":"absent","rt":"10219","correct":true,"confidence":1},{"trial_n":105,"span":13,"encoder":"3667962810356","distractor":"3667961810356","target":"present","response":"present","rt":"7882","correct":true,"confidence":1},{"trial_n":106,"span":13,"encoder":"9400377281080","distractor":"9600377281080","target":"absent","response":"present","rt":"11717","correct":false,"confidence":1},{"trial_n":107,"span":12,"encoder":"026195651250","distractor":"026195651230","target":"present","response":"absent","rt":"2900.0000000002","correct":false,"confidence":1},{"trial_n":108,"span":11,"encoder":"59284157166","distractor":"59484157166","target":"present","response":"present","rt":"6484","correct":true,"confidence":2},{"trial_n":109,"span":11,"encoder":"39917732888","distractor":"39913732888","target":"present","response":"present","rt":"2875","correct":true,"confidence":3},{"trial_n":110,"span":12,"encoder":"719034211171","distractor":"419034211171","target":"absent","response":"absent","rt":"5732.0000000005","correct":true,"confidence":1},{"trial_n":111,"span":12,"encoder":"853244840306","distractor":"853244860306","target":"absent","response":"absent","rt":"9815","correct":true,"confidence":3},{"trial_n":112,"span":13,"encoder":"0074146546019","distractor":"0071146546019","target":"present","response":"present","rt":"8160","correct":true,"confidence":1},{"trial_n":113,"span":13,"encoder":"4247836699642","distractor":"4241836699642","target":"absent","response":"present","rt":"12497","correct":false,"confidence":1},{"trial_n":114,"span":12,"encoder":"969943383102","distractor":"969943383103","target":"absent","response":"absent","rt":"2172","correct":true,"confidence":5},{"trial_n":115,"span":12,"encoder":"846821287387","distractor":"846421287387","target":"present","response":"absent","rt":"7456","correct":false,"confidence":1},{"trial_n":116,"span":11,"encoder":"20221343590","distractor":"20221353590","target":"present","response":"absent","rt":"5834.9999999995","correct":false,"confidence":2},{"trial_n":117,"span":10,"encoder":"5388009084","distractor":"5388009484","target":"absent","response":"present","rt":"7800.9999999995","correct":false,"confidence":2},{"trial_n":118,"span":9,"encoder":"325876811","distractor":"320876811","target":"absent","response":"absent","rt":"7433","correct":true,"confidence":1},{"trial_n":119,"span":9,"encoder":"261233201","distractor":"261234201","target":"present","response":"present","rt":"3944","correct":true,"confidence":2},{"trial_n":120,"span":10,"encoder":"5062971502","distractor":"5162971502","target":"present","response":"present","rt":"8805","correct":true,"confidence":1},{"trial_n":121,"span":10,"encoder":"4938664213","distractor":"4948664213","target":"absent","response":"absent","rt":"6740","correct":true,"confidence":2},{"trial_n":122,"span":11,"encoder":"37293066790","distractor":"37293066710","target":"present","response":"present","rt":"5410","correct":true,"confidence":4},{"trial_n":123,"span":11,"encoder":"35145764149","distractor":"65145764149","target":"absent","response":"present","rt":"5896","correct":false,"confidence":3},{"trial_n":124,"span":10,"encoder":"7040187365","distractor":"7040187335","target":"absent","response":"absent","rt":"2953.9999999995","correct":true,"confidence":3},{"trial_n":125,"span":10,"encoder":"4853428889","distractor":"4850428889","target":"present","response":"present","rt":"6281","correct":true,"confidence":2},{"trial_n":126,"span":11,"encoder":"81750875908","distractor":"81750875308","target":"present","response":"present","rt":"3261","correct":true,"confidence":4},{"trial_n":127,"span":11,"encoder":"96955629513","distractor":"96955629613","target":"absent","response":"absent","rt":"6677","correct":true,"confidence":2},{"trial_n":128,"span":12,"encoder":"136121250622","distractor":"136121250422","target":"absent","response":"absent","rt":"2700","correct":true,"confidence":4},{"trial_n":129,"span":12,"encoder":"598783917660","distractor":"598723917660","target":"absent","response":"absent","rt":"7014","correct":true,"confidence":3},{"trial_n":130,"span":13,"encoder":"5932055798835","distractor":"5952055798835","target":"present","response":"absent","rt":"6496.9999999995","correct":false,"confidence":2},{"trial_n":131,"span":12,"encoder":"762311577568","distractor":"764311577568","target":"present","response":"present","rt":"10508","correct":true,"confidence":3},{"trial_n":132,"span":12,"encoder":"136093943201","distractor":"136093903201","target":"absent","response":"absent","rt":"6625","correct":true,"confidence":3},{"trial_n":133,"span":13,"encoder":"5085593701148","distractor":"5985593701148","target":"absent","response":"present","rt":"10049","correct":false,"confidence":2},{"trial_n":134,"span":12,"encoder":"534195079221","distractor":"534295079221","target":"absent","response":"absent","rt":"10728","correct":true,"confidence":2},{"trial_n":135,"span":12,"encoder":"553072015432","distractor":"553002015432","target":"present","response":"present","rt":"6807.0000000005","correct":true,"confidence":3},{"trial_n":136,"span":13,"encoder":"4685511279072","distractor":"4685511279076","target":"present","response":"present","rt":"5501.9999999995","correct":true,"confidence":1},{"trial_n":137,"span":13,"encoder":"2476207170371","distractor":"2476207170341","target":"absent","response":"absent","rt":"3773","correct":true,"confidence":5},{"trial_n":138,"span":14,"encoder":"06991287071032","distractor":"06991287091032","target":"present","response":"present","rt":"5420","correct":true,"confidence":4},{"trial_n":139,"span":14,"encoder":"99307094216664","distractor":"99387094216664","target":"absent","response":"absent","rt":"7627","correct":true,"confidence":2},{"trial_n":140,"span":15,"encoder":"251835329707447","distractor":"251845329707447","target":"present","response":"present","rt":"5641","correct":true,"confidence":1}]