[{"trial_n":1,"n_dots":4.25,"target":"right","response":"left","rt":3219.9000005722,"correct":false,"confidence":-1},{"trial_n":2,"n_dots":4.25,"target":"right","response":"right","rt":415.5999994278,"correct":true,"confidence":-1},{"trial_n":3,"n_dots":4.25,"target":"left","response":"left","rt":364.0999994278,"correct":true,"confidence":-1},{"trial_n":4,"n_dots":3.85,"target":"left","response":"left","rt":334.69999980927,"correct":true,"confidence":-1},{"trial_n":5,"n_dots":3.85,"target":"right","response":"right","rt":364.19999980927,"correct":true,"confidence":-1},{"trial_n":6,"n_dots":3.45,"target":"right","response":"left","rt":323.0999994278,"correct":false,"confidence":-1},{"trial_n":7,"n_dots":3.85,"target":"right","response":"right","rt":302.39999961853,"correct":true,"confidence":-1},{"trial_n":8,"n_dots":3.85,"target":"left","response":"right","rt":439,"correct":false,"confidence":-1},{"trial_n":9,"n_dots":4.05,"target":"left","response":"left","rt":305.5999994278,"correct":true,"confidence":-1},{"trial_n":10,"n_dots":4.05,"target":"left","response":"right","rt":298.20000076294,"correct":false,"confidence":-1},{"trial_n":11,"n_dots":4.25,"target":"right","response":"right","rt":287.9000005722,"correct":true,"confidence":-1},{"trial_n":12,"n_dots":4.25,"target":"left","response":"left","rt":276.39999961853,"correct":true,"confidence":-1},{"trial_n":13,"n_dots":4.15,"target":"right","response":"right","rt":270.4000005722,"correct":true,"confidence":-1},{"trial_n":14,"n_dots":4.15,"target":"left","response":"left","rt":1379.8999996185,"correct":true,"confidence":-1},{"trial_n":15,"n_dots":4.05,"target":"left","response":"left","rt":276.80000019073,"correct":true,"confidence":-1},{"trial_n":16,"n_dots":4.05,"target":"right","response":"right","rt":48.10000038147,"correct":true,"confidence":-1},{"trial_n":17,"n_dots":3.95,"target":"right","response":"right","rt":239.30000019073,"correct":true,"confidence":-1},{"trial_n":18,"n_dots":3.95,"target":"left","response":"left","rt":315.4000005722,"correct":true,"confidence":-1},{"trial_n":19,"n_dots":3.85,"target":"right","response":"left","rt":164.29999923706,"correct":false,"confidence":-1},{"trial_n":20,"n_dots":3.95,"target":"right","response":"right","rt":363.69999980927,"correct":true,"confidence":-1},{"trial_n":21,"n_dots":3.95,"target":"left","response":"left","rt":0.09999942779541,"correct":true,"confidence":5},{"trial_n":22,"n_dots":3.85,"target":"left","response":"left","rt":320.0999994278,"correct":true,"confidence":5},{"trial_n":23,"n_dots":3.85,"target":"right","response":"right","rt":235.39999961853,"correct":true,"confidence":3},{"trial_n":24,"n_dots":3.75,"target":"right","response":"left","rt":182.69999980927,"correct":false,"confidence":4},{"trial_n":25,"n_dots":3.85,"target":"left","response":"left","rt":9.4000005722046,"correct":true,"confidence":4},{"trial_n":26,"n_dots":3.85,"target":"right","response":"left","rt":248.39999961853,"correct":false,"confidence":4},{"trial_n":27,"n_dots":3.95,"target":"left","response":"left","rt":385.19999980927,"correct":true,"confidence":5},{"trial_n":28,"n_dots":3.95,"target":"left","response":"left","rt":356.4000005722,"correct":true,"confidence":5},{"trial_n":29,"n_dots":3.85,"target":"left","response":"left","rt":272.80000019073,"correct":true,"confidence":5},{"trial_n":30,"n_dots":3.85,"target":"left","response":"left","rt":393.39999961853,"correct":true,"confidence":5},{"trial_n":31,"n_dots":3.75,"target":"left","response":"left","rt":5.8000001907349,"correct":true,"confidence":5},{"trial_n":32,"n_dots":3.75,"target":"left","response":"left","rt":333.5,"correct":true,"confidence":5},{"trial_n":33,"n_dots":3.65,"target":"right","response":"left","rt":170.70000076294,"correct":false,"confidence":5},{"trial_n":34,"n_dots":3.75,"target":"right","response":"left","rt":191.4000005722,"correct":false,"confidence":5},{"trial_n":35,"n_dots":3.85,"target":"right","response":"left","rt":21.799999237061,"correct":false,"confidence":5},{"trial_n":36,"n_dots":3.95,"target":"left","response":"left","rt":75.5,"correct":true,"confidence":5},{"trial_n":37,"n_dots":3.95,"target":"left","response":"left","rt":572.10000038147,"correct":true,"confidence":5},{"trial_n":38,"n_dots":3.85,"target":"right","response":"right","rt":196.4000005722,"correct":true,"confidence":5},{"trial_n":39,"n_dots":3.85,"target":"right","response":"left","rt":773.80000019073,"correct":false,"confidence":3},{"trial_n":40,"n_dots":3.95,"target":"right","response":"right","rt":733.20000076294,"correct":true,"confidence":3},{"trial_n":41,"n_dots":3.95,"target":"left","response":"right","rt":483.30000019073,"correct":false,"confidence":1},{"trial_n":42,"n_dots":4.05,"target":"left","response":"left","rt":21.300000190735,"correct":true,"confidence":5},{"trial_n":43,"n_dots":4.05,"target":"right","response":"right","rt":591.60000038147,"correct":true,"confidence":3},{"trial_n":44,"n_dots":3.95,"target":"right","response":"right","rt":519.5999994278,"correct":true,"confidence":3},{"trial_n":45,"n_dots":3.95,"target":"right","response":"left","rt":525.19999980927,"correct":false,"confidence":4},{"trial_n":46,"n_dots":4.05,"target":"right","response":"right","rt":189.30000019073,"correct":true,"confidence":4},{"trial_n":47,"n_dots":4.05,"target":"left","response":"left","rt":388.9000005722,"correct":true,"confidence":4},{"trial_n":48,"n_dots":3.95,"target":"right","response":"right","rt":388.0999994278,"correct":true,"confidence":4},{"trial_n":49,"n_dots":3.95,"target":"right","response":"right","rt":385.5,"correct":true,"confidence":4},{"trial_n":50,"n_dots":3.85,"target":"right","response":"right","rt":267.80000019073,"correct":true,"confidence":4},{"trial_n":51,"n_dots":3.85,"target":"right","response":"right","rt":364,"correct":true,"confidence":4},{"trial_n":52,"n_dots":3.75,"target":"right","response":"right","rt":295.4000005722,"correct":true,"confidence":4},{"trial_n":53,"n_dots":3.75,"target":"right","response":"right","rt":409.19999980927,"correct":true,"confidence":4},{"trial_n":54,"n_dots":3.65,"target":"right","response":"right","rt":528.39999961853,"correct":true,"confidence":4},{"trial_n":55,"n_dots":3.65,"target":"right","response":"left","rt":1067.3000001907,"correct":false,"confidence":2},{"trial_n":56,"n_dots":3.75,"target":"right","response":"right","rt":435.19999980927,"correct":true,"confidence":3},{"trial_n":57,"n_dots":3.75,"target":"left","response":"right","rt":539.20000076294,"correct":false,"confidence":2},{"trial_n":58,"n_dots":3.85,"target":"left","response":"right","rt":729,"correct":false,"confidence":3},{"trial_n":59,"n_dots":3.95,"target":"right","response":"right","rt":299,"correct":true,"confidence":4},{"trial_n":60,"n_dots":3.95,"target":"left","response":"left","rt":70.900000572205,"correct":true,"confidence":4},{"trial_n":61,"n_dots":3.85,"target":"left","response":"left","rt":245.69999980927,"correct":true,"confidence":4},{"trial_n":62,"n_dots":3.85,"target":"right","response":"right","rt":228.39999961853,"correct":true,"confidence":4},{"trial_n":63,"n_dots":3.75,"target":"left","response":"left","rt":55.300000190735,"correct":true,"confidence":4},{"trial_n":64,"n_dots":3.75,"target":"right","response":"left","rt":264.39999961853,"correct":false,"confidence":4},{"trial_n":65,"n_dots":3.85,"target":"right","response":"right","rt":116.5999994278,"correct":true,"confidence":4},{"trial_n":66,"n_dots":3.85,"target":"left","response":"left","rt":150.19999980927,"correct":true,"confidence":4},{"trial_n":67,"n_dots":3.75,"target":"right","response":"right","rt":488.5,"correct":true,"confidence":3},{"trial_n":68,"n_dots":3.75,"target":"left","response":"left","rt":131,"correct":true,"confidence":4},{"trial_n":69,"n_dots":3.65,"target":"left","response":"right","rt":476.29999923706,"correct":false,"confidence":4},{"trial_n":70,"n_dots":3.75,"target":"right","response":"left","rt":428.5,"correct":false,"confidence":3},{"trial_n":71,"n_dots":3.85,"target":"left","response":"left","rt":592.70000076294,"correct":true,"confidence":5},{"trial_n":72,"n_dots":3.85,"target":"left","response":"right","rt":483,"correct":false,"confidence":1},{"trial_n":73,"n_dots":3.95,"target":"right","response":"left","rt":1085.6999998093,"correct":false,"confidence":4},{"trial_n":74,"n_dots":4.05,"target":"left","response":"left","rt":93.5,"correct":true,"confidence":5},{"trial_n":75,"n_dots":4.05,"target":"left","response":"left","rt":699.60000038147,"correct":true,"confidence":5},{"trial_n":76,"n_dots":3.95,"target":"left","response":"left","rt":42.300000190735,"correct":true,"confidence":5},{"trial_n":77,"n_dots":3.95,"target":"right","response":"left","rt":450.5,"correct":false,"confidence":4},{"trial_n":78,"n_dots":4.05,"target":"right","response":"left","rt":549.69999980927,"correct":false,"confidence":4},{"trial_n":79,"n_dots":4.15,"target":"left","response":"left","rt":217.39999961853,"correct":true,"confidence":5},{"trial_n":80,"n_dots":4.15,"target":"right","response":"right","rt":334.39999961853,"correct":true,"confidence":4},{"trial_n":81,"n_dots":4.05,"target":"left","response":"left","rt":9.4000005722046,"correct":true,"confidence":5},{"trial_n":82,"n_dots":4.05,"target":"left","response":"left","rt":790.30000019073,"correct":true,"confidence":5},{"trial_n":83,"n_dots":3.95,"target":"left","response":"left","rt":51.300000190735,"correct":true,"confidence":5},{"trial_n":84,"n_dots":3.95,"target":"left","response":"left","rt":148.30000019073,"correct":true,"confidence":5},{"trial_n":85,"n_dots":3.85,"target":"left","response":"left","rt":680.5,"correct":true,"confidence":5},{"trial_n":86,"n_dots":3.85,"target":"left","response":"left","rt":661.69999980927,"correct":true,"confidence":1},{"trial_n":87,"n_dots":3.75,"target":"right","response":"left","rt":484.89999961853,"correct":false,"confidence":4},{"trial_n":88,"n_dots":3.85,"target":"left","response":"left","rt":876.80000019073,"correct":true,"confidence":5},{"trial_n":89,"n_dots":3.85,"target":"right","response":"left","rt":331.80000019073,"correct":false,"confidence":4},{"trial_n":90,"n_dots":3.95,"target":"left","response":"left","rt":67.800000190735,"correct":true,"confidence":5},{"trial_n":91,"n_dots":3.95,"target":"right","response":"left","rt":219.69999980927,"correct":false,"confidence":3},{"trial_n":92,"n_dots":4.05,"target":"left","response":"left","rt":628.0999994278,"correct":true,"confidence":4},{"trial_n":93,"n_dots":4.05,"target":"left","response":"left","rt":830.60000038147,"correct":true,"confidence":5},{"trial_n":94,"n_dots":3.95,"target":"left","response":"left","rt":37.699999809265,"correct":true,"confidence":4},{"trial_n":95,"n_dots":3.95,"target":"left","response":"left","rt":899.89999961853,"correct":true,"confidence":5},{"trial_n":96,"n_dots":3.85,"target":"left","response":"left","rt":12.5,"correct":true,"confidence":5},{"trial_n":97,"n_dots":3.85,"target":"right","response":"left","rt":447.79999923706,"correct":false,"confidence":5},{"trial_n":98,"n_dots":3.95,"target":"left","response":"left","rt":335.19999980927,"correct":true,"confidence":5},{"trial_n":99,"n_dots":3.95,"target":"left","response":"left","rt":411.80000019073,"correct":true,"confidence":5},{"trial_n":100,"n_dots":3.85,"target":"left","response":"left","rt":610.4000005722,"correct":true,"confidence":5},{"trial_n":101,"n_dots":3.85,"target":"right","response":"left","rt":34.39999961853,"correct":false,"confidence":5},{"trial_n":102,"n_dots":3.95,"target":"right","response":"right","rt":451.69999980927,"correct":true,"confidence":4},{"trial_n":103,"n_dots":3.95,"target":"right","response":"right","rt":383.20000076294,"correct":true,"confidence":5},{"trial_n":104,"n_dots":3.85,"target":"left","response":"left","rt":1020.8999996185,"correct":true,"confidence":1},{"trial_n":105,"n_dots":3.85,"target":"right","response":"right","rt":473.60000038147,"correct":true,"confidence":4},{"trial_n":106,"n_dots":3.75,"target":"right","response":"right","rt":184.5,"correct":true,"confidence":4},{"trial_n":107,"n_dots":3.75,"target":"right","response":"right","rt":1.8000001907349,"correct":true,"confidence":4},{"trial_n":108,"n_dots":3.65,"target":"left","response":"left","rt":317.0999994278,"correct":true,"confidence":4},{"trial_n":109,"n_dots":3.65,"target":"left","response":"left","rt":50.39999961853,"correct":true,"confidence":4},{"trial_n":110,"n_dots":3.55,"target":"left","response":"left","rt":399.10000038147,"correct":true,"confidence":4},{"trial_n":111,"n_dots":3.55,"target":"left","response":"left","rt":-0.19999980926514,"correct":true,"confidence":4},{"trial_n":112,"n_dots":3.45,"target":"right","response":"right","rt":168.39999961853,"correct":true,"confidence":4},{"trial_n":113,"n_dots":3.45,"target":"right","response":"right","rt":50.800000190735,"correct":true,"confidence":4},{"trial_n":114,"n_dots":3.35,"target":"right","response":"left","rt":303.80000019073,"correct":false,"confidence":3},{"trial_n":115,"n_dots":3.45,"target":"right","response":"right","rt":310.30000019073,"correct":true,"confidence":5},{"trial_n":116,"n_dots":3.45,"target":"right","response":"right","rt":276.0999994278,"correct":true,"confidence":4},{"trial_n":117,"n_dots":3.35,"target":"left","response":"left","rt":27.799999237061,"correct":true,"confidence":4},{"trial_n":118,"n_dots":3.35,"target":"right","response":"right","rt":310.69999980927,"correct":true,"confidence":4},{"trial_n":119,"n_dots":3.25,"target":"right","response":"right","rt":17.400000572205,"correct":true,"confidence":4},{"trial_n":120,"n_dots":3.25,"target":"left","response":"left","rt":129.19999980927,"correct":true,"confidence":4}]