[{"trial_n":1,"min":25,"max":230,"target":"present","response":"present","rt":5524,"correct":true,"confidence":-1},{"trial_n":2,"min":25,"max":230,"target":"present","response":"present","rt":1741,"correct":true,"confidence":-1},{"trial_n":3,"min":41,"max":214,"target":"absent","response":"absent","rt":1727,"correct":true,"confidence":-1},{"trial_n":4,"min":41,"max":214,"target":"absent","response":"absent","rt":3785,"correct":true,"confidence":-1},{"trial_n":5,"min":57,"max":198,"target":"present","response":"present","rt":1111,"correct":true,"confidence":-1},{"trial_n":6,"min":57,"max":198,"target":"absent","response":"absent","rt":1191,"correct":true,"confidence":-1},{"trial_n":7,"min":73,"max":182,"target":"present","response":"present","rt":972,"correct":true,"confidence":-1},{"trial_n":8,"min":73,"max":182,"target":"present","response":"present","rt":1569,"correct":true,"confidence":-1},{"trial_n":9,"min":89,"max":166,"target":"present","response":"absent","rt":1086,"correct":false,"confidence":-1},{"trial_n":10,"min":73,"max":182,"target":"present","response":"present","rt":1144,"correct":true,"confidence":-1},{"trial_n":11,"min":73,"max":182,"target":"present","response":"present","rt":999.99999999999,"correct":true,"confidence":-1},{"trial_n":12,"min":81,"max":174,"target":"absent","response":"absent","rt":1872,"correct":true,"confidence":-1},{"trial_n":13,"min":81,"max":174,"target":"present","response":"present","rt":1199,"correct":true,"confidence":-1},{"trial_n":14,"min":89,"max":166,"target":"present","response":"present","rt":979,"correct":true,"confidence":-1},{"trial_n":15,"min":89,"max":166,"target":"absent","response":"absent","rt":1199,"correct":true,"confidence":-1},{"trial_n":16,"min":97,"max":158,"target":"present","response":"absent","rt":1537,"correct":false,"confidence":-1},{"trial_n":17,"min":89,"max":166,"target":"present","response":"absent","rt":1051,"correct":false,"confidence":-1},{"trial_n":18,"min":81,"max":174,"target":"present","response":"present","rt":919,"correct":true,"confidence":-1},{"trial_n":19,"min":81,"max":174,"target":"present","response":"present","rt":778,"correct":true,"confidence":-1},{"trial_n":20,"min":89,"max":166,"target":"absent","response":"absent","rt":2143,"correct":true,"confidence":-1},{"trial_n":21,"min":89,"max":166,"target":"present","response":"present","rt":1146,"correct":true,"confidence":4},{"trial_n":22,"min":93,"max":162,"target":"absent","response":"absent","rt":1436,"correct":true,"confidence":2},{"trial_n":23,"min":93,"max":162,"target":"present","response":"present","rt":3865,"correct":true,"confidence":2},{"trial_n":24,"min":97,"max":158,"target":"absent","response":"present","rt":11461,"correct":false,"confidence":2},{"trial_n":25,"min":93,"max":162,"target":"present","response":"present","rt":11263,"correct":true,"confidence":2},{"trial_n":26,"min":93,"max":162,"target":"absent","response":"absent","rt":4609,"correct":true,"confidence":2},{"trial_n":27,"min":97,"max":158,"target":"absent","response":"present","rt":5061,"correct":false,"confidence":2},{"trial_n":28,"min":93,"max":162,"target":"absent","response":"absent","rt":1344,"correct":true,"confidence":2},{"trial_n":29,"min":93,"max":162,"target":"absent","response":"absent","rt":2810,"correct":true,"confidence":3},{"trial_n":30,"min":97,"max":158,"target":"absent","response":"absent","rt":2901,"correct":true,"confidence":3},{"trial_n":31,"min":97,"max":158,"target":"absent","response":"present","rt":9047,"correct":false,"confidence":1},{"trial_n":32,"min":95,"max":160,"target":"absent","response":"absent","rt":3044,"correct":true,"confidence":1},{"trial_n":33,"min":95,"max":160,"target":"absent","response":"present","rt":3285,"correct":false,"confidence":2},{"trial_n":34,"min":93,"max":162,"target":"absent","response":"absent","rt":1545,"correct":true,"confidence":2},{"trial_n":35,"min":93,"max":162,"target":"absent","response":"present","rt":3033,"correct":false,"confidence":2},{"trial_n":36,"min":91,"max":164,"target":"present","response":"absent","rt":14491,"correct":false,"confidence":2},{"trial_n":37,"min":89,"max":166,"target":"absent","response":"present","rt":2826,"correct":false,"confidence":3},{"trial_n":38,"min":87,"max":168,"target":"absent","response":"absent","rt":2436,"correct":true,"confidence":2},{"trial_n":39,"min":87,"max":168,"target":"absent","response":"present","rt":2156,"correct":false,"confidence":2},{"trial_n":40,"min":85,"max":170,"target":"absent","response":"present","rt":5971,"correct":false,"confidence":3},{"trial_n":41,"min":84,"max":171,"target":"absent","response":"absent","rt":4294,"correct":true,"confidence":2},{"trial_n":42,"min":84,"max":171,"target":"absent","response":"present","rt":4270,"correct":false,"confidence":2},{"trial_n":43,"min":83,"max":172,"target":"present","response":"present","rt":1220,"correct":true,"confidence":4},{"trial_n":44,"min":83,"max":172,"target":"present","response":"present","rt":1618,"correct":true,"confidence":4},{"trial_n":45,"min":84,"max":171,"target":"absent","response":"present","rt":4493.0000000001,"correct":false,"confidence":2},{"trial_n":46,"min":83,"max":172,"target":"present","response":"present","rt":1736,"correct":true,"confidence":2},{"trial_n":47,"min":83,"max":172,"target":"present","response":"present","rt":1231,"correct":true,"confidence":3},{"trial_n":48,"min":84,"max":171,"target":"present","response":"present","rt":1079,"correct":true,"confidence":5},{"trial_n":49,"min":84,"max":171,"target":"present","response":"present","rt":1296,"correct":true,"confidence":5},{"trial_n":50,"min":85,"max":170,"target":"present","response":"present","rt":1255,"correct":true,"confidence":4},{"trial_n":51,"min":85,"max":170,"target":"present","response":"present","rt":1188,"correct":true,"confidence":4},{"trial_n":52,"min":86,"max":169,"target":"absent","response":"absent","rt":4060,"correct":true,"confidence":2},{"trial_n":53,"min":86,"max":169,"target":"absent","response":"absent","rt":1099,"correct":true,"confidence":2},{"trial_n":54,"min":87,"max":168,"target":"present","response":"present","rt":2268,"correct":true,"confidence":2},{"trial_n":55,"min":87,"max":168,"target":"present","response":"present","rt":907,"correct":true,"confidence":3},{"trial_n":56,"min":88,"max":167,"target":"present","response":"present","rt":1367.0000000001,"correct":true,"confidence":2},{"trial_n":57,"min":88,"max":167,"target":"absent","response":"absent","rt":3740,"correct":true,"confidence":2},{"trial_n":58,"min":89,"max":166,"target":"absent","response":"absent","rt":1766.9999999999,"correct":true,"confidence":1},{"trial_n":59,"min":89,"max":166,"target":"present","response":"present","rt":1088.0000000001,"correct":true,"confidence":3},{"trial_n":60,"min":90,"max":165,"target":"absent","response":"absent","rt":1020,"correct":true,"confidence":1},{"trial_n":61,"min":90,"max":165,"target":"present","response":"present","rt":3660.0000000001,"correct":true,"confidence":2},{"trial_n":62,"min":91,"max":164,"target":"present","response":"absent","rt":914,"correct":false,"confidence":1},{"trial_n":63,"min":90,"max":165,"target":"present","response":"present","rt":963,"correct":true,"confidence":3},{"trial_n":64,"min":90,"max":165,"target":"absent","response":"absent","rt":902,"correct":true,"confidence":4},{"trial_n":65,"min":91,"max":164,"target":"present","response":"absent","rt":3427,"correct":false,"confidence":2},{"trial_n":66,"min":90,"max":165,"target":"absent","response":"absent","rt":1159,"correct":true,"confidence":4},{"trial_n":67,"min":90,"max":165,"target":"present","response":"absent","rt":1204,"correct":false,"confidence":3},{"trial_n":68,"min":89,"max":166,"target":"present","response":"present","rt":1915,"correct":true,"confidence":3},{"trial_n":69,"min":89,"max":166,"target":"absent","response":"absent","rt":1355,"correct":true,"confidence":3},{"trial_n":70,"min":90,"max":165,"target":"absent","response":"absent","rt":761.00000000006,"correct":true,"confidence":3},{"trial_n":71,"min":41,"max":214,"target":"present","response":"present","rt":6142.9999999999,"correct":true,"confidence":-1},{"trial_n":72,"min":41,"max":214,"target":"present","response":"present","rt":1690,"correct":true,"confidence":-1},{"trial_n":73,"min":57,"max":198,"target":"absent","response":"absent","rt":712,"correct":true,"confidence":-1},{"trial_n":74,"min":57,"max":198,"target":"absent","response":"absent","rt":667,"correct":true,"confidence":-1},{"trial_n":75,"min":73,"max":182,"target":"present","response":"present","rt":1249,"correct":true,"confidence":-1},{"trial_n":76,"min":73,"max":182,"target":"absent","response":"absent","rt":1051,"correct":true,"confidence":-1},{"trial_n":77,"min":89,"max":166,"target":"present","response":"present","rt":951.00000000006,"correct":true,"confidence":-1},{"trial_n":78,"min":89,"max":166,"target":"present","response":"present","rt":732.99999999994,"correct":true,"confidence":-1},{"trial_n":79,"min":105,"max":150,"target":"absent","response":"absent","rt":588,"correct":true,"confidence":-1},{"trial_n":80,"min":105,"max":150,"target":"absent","response":"present","rt":814,"correct":false,"confidence":-1},{"trial_n":81,"min":97,"max":158,"target":"absent","response":"absent","rt":1077,"correct":true,"confidence":-1},{"trial_n":82,"min":97,"max":158,"target":"absent","response":"absent","rt":857,"correct":true,"confidence":-1},{"trial_n":83,"min":105,"max":150,"target":"absent","response":"absent","rt":1343,"correct":true,"confidence":-1},{"trial_n":84,"min":105,"max":150,"target":"absent","response":"absent","rt":557.99999999994,"correct":true,"confidence":-1},{"trial_n":85,"min":113,"max":142,"target":"absent","response":"absent","rt":798,"correct":true,"confidence":-1},{"trial_n":86,"min":113,"max":142,"target":"present","response":"present","rt":1316.0000000001,"correct":true,"confidence":-1},{"trial_n":87,"min":121,"max":134,"target":"absent","response":"absent","rt":1236,"correct":true,"confidence":-1},{"trial_n":88,"min":121,"max":134,"target":"absent","response":"absent","rt":649,"correct":true,"confidence":-1},{"trial_n":89,"min":121,"max":134,"target":"present","response":"absent","rt":754.00000000006,"correct":false,"confidence":-1},{"trial_n":90,"min":121,"max":134,"target":"present","response":"present","rt":741.99999999994,"correct":true,"confidence":-1},{"trial_n":91,"min":121,"max":134,"target":"absent","response":"present","rt":3080,"correct":false,"confidence":2},{"trial_n":92,"min":117,"max":138,"target":"present","response":"present","rt":906.99999999994,"correct":true,"confidence":3},{"trial_n":93,"min":117,"max":138,"target":"present","response":"present","rt":1501.0000000001,"correct":true,"confidence":3},{"trial_n":94,"min":121,"max":134,"target":"present","response":"present","rt":7106.0000000001,"correct":true,"confidence":3},{"trial_n":95,"min":121,"max":134,"target":"absent","response":"present","rt":2423,"correct":false,"confidence":2},{"trial_n":96,"min":117,"max":138,"target":"absent","response":"absent","rt":846,"correct":true,"confidence":2},{"trial_n":97,"min":117,"max":138,"target":"absent","response":"absent","rt":4035,"correct":true,"confidence":2},{"trial_n":98,"min":121,"max":134,"target":"present","response":"present","rt":813,"correct":true,"confidence":3},{"trial_n":99,"min":121,"max":134,"target":"present","response":"present","rt":1142.0000000001,"correct":true,"confidence":2},{"trial_n":100,"min":125,"max":130,"target":"present","response":"absent","rt":1210,"correct":false,"confidence":2},{"trial_n":101,"min":125,"max":130,"target":"present","response":"present","rt":994.00000000006,"correct":true,"confidence":3},{"trial_n":102,"min":125,"max":130,"target":"absent","response":"absent","rt":2524,"correct":true,"confidence":2},{"trial_n":103,"min":125,"max":130,"target":"present","response":"present","rt":1009.9999999999,"correct":true,"confidence":3},{"trial_n":104,"min":125,"max":130,"target":"absent","response":"absent","rt":2046.0000000001,"correct":true,"confidence":3},{"trial_n":105,"min":125,"max":130,"target":"present","response":"absent","rt":1830.0000000001,"correct":false,"confidence":4},{"trial_n":106,"min":125,"max":130,"target":"present","response":"present","rt":1347.9999999999,"correct":true,"confidence":3},{"trial_n":107,"min":125,"max":130,"target":"present","response":"present","rt":1838,"correct":true,"confidence":3},{"trial_n":108,"min":125,"max":130,"target":"absent","response":"present","rt":4959,"correct":false,"confidence":2},{"trial_n":109,"min":125,"max":130,"target":"absent","response":"present","rt":6505,"correct":false,"confidence":1},{"trial_n":110,"min":125,"max":130,"target":"present","response":"absent","rt":5088,"correct":false,"confidence":2},{"trial_n":111,"min":124,"max":131,"target":"absent","response":"present","rt":9476,"correct":false,"confidence":2},{"trial_n":112,"min":123,"max":132,"target":"absent","response":"absent","rt":5160,"correct":true,"confidence":3},{"trial_n":113,"min":123,"max":132,"target":"present","response":"absent","rt":3551,"correct":false,"confidence":2},{"trial_n":114,"min":122,"max":133,"target":"present","response":"present","rt":1362.0000000001,"correct":true,"confidence":4},{"trial_n":115,"min":122,"max":133,"target":"absent","response":"absent","rt":3020,"correct":true,"confidence":2},{"trial_n":116,"min":123,"max":132,"target":"absent","response":"absent","rt":1368,"correct":true,"confidence":2},{"trial_n":117,"min":123,"max":132,"target":"present","response":"present","rt":1230,"correct":true,"confidence":3},{"trial_n":118,"min":124,"max":131,"target":"present","response":"present","rt":2357,"correct":true,"confidence":3},{"trial_n":119,"min":124,"max":131,"target":"present","response":"present","rt":1152,"correct":true,"confidence":2},{"trial_n":120,"min":125,"max":130,"target":"present","response":"absent","rt":3427,"correct":false,"confidence":1},{"trial_n":121,"min":124,"max":131,"target":"absent","response":"present","rt":2193.0000000001,"correct":false,"confidence":3},{"trial_n":122,"min":123,"max":132,"target":"absent","response":"absent","rt":1303,"correct":true,"confidence":2},{"trial_n":123,"min":123,"max":132,"target":"present","response":"absent","rt":1146,"correct":false,"confidence":1},{"trial_n":124,"min":122,"max":133,"target":"present","response":"absent","rt":2898,"correct":false,"confidence":3},{"trial_n":125,"min":121,"max":134,"target":"absent","response":"present","rt":1712.9999999999,"correct":false,"confidence":3},{"trial_n":126,"min":120,"max":135,"target":"absent","response":"present","rt":1425,"correct":false,"confidence":1},{"trial_n":127,"min":119,"max":136,"target":"absent","response":"present","rt":1438.9999999999,"correct":false,"confidence":1},{"trial_n":128,"min":118,"max":137,"target":"present","response":"absent","rt":2088,"correct":false,"confidence":2},{"trial_n":129,"min":117,"max":138,"target":"absent","response":"present","rt":2469.9999999999,"correct":false,"confidence":3},{"trial_n":130,"min":116,"max":139,"target":"absent","response":"absent","rt":7669,"correct":true,"confidence":3},{"trial_n":131,"min":116,"max":139,"target":"absent","response":"absent","rt":3031,"correct":true,"confidence":2},{"trial_n":132,"min":117,"max":138,"target":"absent","response":"present","rt":1610,"correct":false,"confidence":1},{"trial_n":133,"min":116,"max":139,"target":"present","response":"present","rt":1472,"correct":true,"confidence":3},{"trial_n":134,"min":116,"max":139,"target":"absent","response":"absent","rt":1654.0000000001,"correct":true,"confidence":1},{"trial_n":135,"min":117,"max":138,"target":"present","response":"present","rt":1500,"correct":true,"confidence":2},{"trial_n":136,"min":117,"max":138,"target":"present","response":"present","rt":1684,"correct":true,"confidence":2},{"trial_n":137,"min":118,"max":137,"target":"present","response":"present","rt":1418,"correct":true,"confidence":3},{"trial_n":138,"min":118,"max":137,"target":"present","response":"present","rt":4582,"correct":true,"confidence":2},{"trial_n":139,"min":119,"max":136,"target":"present","response":"present","rt":992,"correct":true,"confidence":2},{"trial_n":140,"min":119,"max":136,"target":"present","response":"present","rt":804,"correct":true,"confidence":1}]