[{"trial_n":1,"span":8,"encoder":"61951983","distractor":"61951973","target":"present","response":"present","rt":"4186","correct":true,"confidence":-1},{"trial_n":2,"span":8,"encoder":"18171816","distractor":"18161816","target":"present","response":"present","rt":"3383","correct":true,"confidence":-1},{"trial_n":3,"span":10,"encoder":"4980614844","distractor":"4980614848","target":"absent","response":"present","rt":"5331","correct":false,"confidence":-1},{"trial_n":4,"span":8,"encoder":"03304370","distractor":"03304170","target":"absent","response":"absent","rt":"3062","correct":true,"confidence":-1},{"trial_n":5,"span":8,"encoder":"15112939","distractor":"15112999","target":"present","response":"absent","rt":"3724","correct":false,"confidence":-1},{"trial_n":6,"span":6,"encoder":"178379","distractor":"178779","target":"absent","response":"absent","rt":"2897","correct":true,"confidence":-1},{"trial_n":7,"span":6,"encoder":"880580","distractor":"880584","target":"absent","response":"absent","rt":"2367","correct":true,"confidence":-1},{"trial_n":8,"span":8,"encoder":"59116811","distractor":"49116811","target":"present","response":"absent","rt":"5841","correct":false,"confidence":-1},{"trial_n":9,"span":6,"encoder":"042370","distractor":"042377","target":"absent","response":"absent","rt":"3436","correct":true,"confidence":-1},{"trial_n":10,"span":6,"encoder":"632819","distractor":"632879","target":"absent","response":"absent","rt":"3497","correct":true,"confidence":-1},{"trial_n":11,"span":8,"encoder":"95340070","distractor":"15340070","target":"absent","response":"absent","rt":"1943","correct":true,"confidence":-1},{"trial_n":12,"span":8,"encoder":"50260588","distractor":"50560588","target":"present","response":"absent","rt":"4189","correct":false,"confidence":-1},{"trial_n":13,"span":7,"encoder":"7668073","distractor":"7568073","target":"present","response":"present","rt":"2471","correct":true,"confidence":-1},{"trial_n":14,"span":7,"encoder":"6095263","distractor":"6095563","target":"absent","response":"absent","rt":"3846","correct":true,"confidence":-1},{"trial_n":15,"span":8,"encoder":"89040236","distractor":"09040236","target":"present","response":"absent","rt":"6158","correct":false,"confidence":-1},{"trial_n":16,"span":7,"encoder":"2525679","distractor":"2520679","target":"present","response":"present","rt":"2728","correct":true,"confidence":-1},{"trial_n":17,"span":7,"encoder":"8987205","distractor":"8989205","target":"present","response":"absent","rt":"4568","correct":false,"confidence":-1},{"trial_n":18,"span":6,"encoder":"220668","distractor":"220868","target":"absent","response":"absent","rt":"3118","correct":true,"confidence":-1},{"trial_n":19,"span":6,"encoder":"130064","distractor":"130060","target":"present","response":"present","rt":"2831","correct":true,"confidence":-1},{"trial_n":20,"span":7,"encoder":"0852503","distractor":"0842503","target":"absent","response":"absent","rt":"2742","correct":true,"confidence":-1},{"trial_n":21,"span":7,"encoder":"3932822","distractor":"3932832","target":"present","response":"present","rt":"3704","correct":true,"confidence":4},{"trial_n":22,"span":8,"encoder":"53386332","distractor":"93386332","target":"absent","response":"absent","rt":"2499","correct":true,"confidence":5},{"trial_n":23,"span":8,"encoder":"28596611","distractor":"28596661","target":"absent","response":"absent","rt":"2834","correct":true,"confidence":5},{"trial_n":24,"span":9,"encoder":"501415391","distractor":"601415391","target":"present","response":"present","rt":"4025","correct":true,"confidence":3},{"trial_n":25,"span":9,"encoder":"520588700","distractor":"520588600","target":"present","response":"absent","rt":"3758","correct":false,"confidence":4},{"trial_n":26,"span":8,"encoder":"96316208","distractor":"99316208","target":"absent","response":"absent","rt":"1782","correct":true,"confidence":5},{"trial_n":27,"span":8,"encoder":"32568517","distractor":"32568597","target":"absent","response":"absent","rt":"4679","correct":true,"confidence":5},{"trial_n":28,"span":9,"encoder":"300057748","distractor":"300057248","target":"absent","response":"present","rt":"5070","correct":false,"confidence":2},{"trial_n":29,"span":8,"encoder":"53769747","distractor":"53779747","target":"present","response":"present","rt":"3411","correct":true,"confidence":5},{"trial_n":30,"span":8,"encoder":"92453815","distractor":"92453817","target":"absent","response":"present","rt":"8054","correct":false,"confidence":3},{"trial_n":31,"span":7,"encoder":"6088067","distractor":"6084067","target":"absent","response":"absent","rt":"2237","correct":true,"confidence":5},{"trial_n":32,"span":7,"encoder":"3421379","distractor":"3421579","target":"present","response":"present","rt":"2620","correct":true,"confidence":5},{"trial_n":33,"span":8,"encoder":"91032937","distractor":"91032947","target":"absent","response":"absent","rt":"6316","correct":true,"confidence":3},{"trial_n":34,"span":8,"encoder":"67879803","distractor":"67878803","target":"present","response":"present","rt":"5470","correct":true,"confidence":2},{"trial_n":35,"span":9,"encoder":"919004776","distractor":"919054776","target":"present","response":"present","rt":"3831","correct":true,"confidence":4},{"trial_n":36,"span":9,"encoder":"502398649","distractor":"502398349","target":"absent","response":"present","rt":"4487","correct":false,"confidence":3},{"trial_n":37,"span":8,"encoder":"37888241","distractor":"37588241","target":"present","response":"present","rt":"3650","correct":true,"confidence":4},{"trial_n":38,"span":8,"encoder":"99350913","distractor":"99360913","target":"present","response":"present","rt":"2650","correct":true,"confidence":2},{"trial_n":39,"span":9,"encoder":"495738550","distractor":"495738050","target":"present","response":"absent","rt":"10536","correct":false,"confidence":2},{"trial_n":40,"span":8,"encoder":"39134502","distractor":"39134802","target":"present","response":"present","rt":"2808","correct":true,"confidence":4},{"trial_n":41,"span":8,"encoder":"01847955","distractor":"01847455","target":"present","response":"present","rt":"3114.9999999999","correct":true,"confidence":5},{"trial_n":42,"span":9,"encoder":"297475492","distractor":"297475490","target":"absent","response":"absent","rt":"4574.0000000001","correct":true,"confidence":5},{"trial_n":43,"span":9,"encoder":"800984297","distractor":"300984297","target":"absent","response":"absent","rt":"2361","correct":true,"confidence":5},{"trial_n":44,"span":10,"encoder":"9257098567","distractor":"9257038567","target":"absent","response":"absent","rt":"4327","correct":true,"confidence":3},{"trial_n":45,"span":10,"encoder":"0739106311","distractor":"0239106311","target":"present","response":"absent","rt":"7033.9999999999","correct":false,"confidence":4},{"trial_n":46,"span":9,"encoder":"385949965","distractor":"385949065","target":"absent","response":"present","rt":"6789","correct":false,"confidence":4},{"trial_n":47,"span":8,"encoder":"28214475","distractor":"28218475","target":"present","response":"present","rt":"3434","correct":true,"confidence":5},{"trial_n":48,"span":8,"encoder":"29662700","distractor":"29662900","target":"absent","response":"present","rt":"6590.9999999999","correct":false,"confidence":2},{"trial_n":49,"span":7,"encoder":"6315527","distractor":"0315527","target":"absent","response":"present","rt":"4354","correct":false,"confidence":4},{"trial_n":50,"span":6,"encoder":"625414","distractor":"625418","target":"absent","response":"absent","rt":"3585","correct":true,"confidence":5},{"trial_n":51,"span":6,"encoder":"427180","distractor":"428180","target":"absent","response":"absent","rt":"3473","correct":true,"confidence":5},{"trial_n":52,"span":7,"encoder":"8521356","distractor":"8522356","target":"absent","response":"absent","rt":"2261.9999999999","correct":true,"confidence":5},{"trial_n":53,"span":7,"encoder":"1179483","distractor":"1179486","target":"present","response":"present","rt":"2736","correct":true,"confidence":5},{"trial_n":54,"span":8,"encoder":"77771297","distractor":"77771217","target":"present","response":"present","rt":"2587","correct":true,"confidence":3},{"trial_n":55,"span":8,"encoder":"13301376","distractor":"13331376","target":"present","response":"present","rt":"2698.0000000001","correct":true,"confidence":4},{"trial_n":56,"span":9,"encoder":"307368658","distractor":"307368688","target":"absent","response":"absent","rt":"4438","correct":true,"confidence":2},{"trial_n":57,"span":9,"encoder":"829546488","distractor":"879546488","target":"present","response":"absent","rt":"8057","correct":false,"confidence":2},{"trial_n":58,"span":8,"encoder":"92270020","distractor":"92270025","target":"present","response":"present","rt":"3017","correct":true,"confidence":5},{"trial_n":59,"span":8,"encoder":"89944602","distractor":"39944602","target":"absent","response":"absent","rt":"2996","correct":true,"confidence":5},{"trial_n":60,"span":9,"encoder":"881225152","distractor":"881235152","target":"present","response":"present","rt":"5576","correct":true,"confidence":3},{"trial_n":61,"span":9,"encoder":"200484440","distractor":"200488440","target":"present","response":"absent","rt":"5063","correct":false,"confidence":4},{"trial_n":62,"span":8,"encoder":"42788904","distractor":"42758904","target":"absent","response":"present","rt":"2990","correct":false,"confidence":5},{"trial_n":63,"span":7,"encoder":"5636556","distractor":"5635556","target":"present","response":"absent","rt":"3994","correct":false,"confidence":3},{"trial_n":64,"span":6,"encoder":"201304","distractor":"206304","target":"absent","response":"absent","rt":"2020","correct":true,"confidence":5},{"trial_n":65,"span":6,"encoder":"132438","distractor":"132038","target":"present","response":"present","rt":"2246.9999999998","correct":true,"confidence":5},{"trial_n":66,"span":7,"encoder":"6767210","distractor":"6707210","target":"present","response":"present","rt":"2508","correct":true,"confidence":5},{"trial_n":67,"span":7,"encoder":"2033171","distractor":"2033121","target":"absent","response":"absent","rt":"2564.9999999998","correct":true,"confidence":5},{"trial_n":68,"span":8,"encoder":"90624508","distractor":"90622508","target":"present","response":"absent","rt":"4962","correct":false,"confidence":3},{"trial_n":69,"span":7,"encoder":"5684205","distractor":"5184205","target":"absent","response":"absent","rt":"2983.9999999998","correct":true,"confidence":5},{"trial_n":70,"span":7,"encoder":"1074934","distractor":"1074933","target":"present","response":"present","rt":"4221","correct":true,"confidence":4},{"trial_n":71,"span":8,"encoder":"46609567","distractor":"46609867","target":"present","response":"present","rt":"8467","correct":true,"confidence":-1},{"trial_n":72,"span":8,"encoder":"44234056","distractor":"44134056","target":"present","response":"present","rt":"3126","correct":true,"confidence":-1},{"trial_n":73,"span":9,"encoder":"631576184","distractor":"631576188","target":"absent","response":"absent","rt":"5931","correct":true,"confidence":-1},{"trial_n":74,"span":9,"encoder":"088700707","distractor":"088707707","target":"absent","response":"absent","rt":"4938","correct":true,"confidence":-1},{"trial_n":75,"span":10,"encoder":"7819890389","distractor":"7419890389","target":"present","response":"present","rt":"3475","correct":true,"confidence":-1},{"trial_n":76,"span":10,"encoder":"3626640494","distractor":"3626640492","target":"present","response":"present","rt":"5814","correct":true,"confidence":-1},{"trial_n":77,"span":11,"encoder":"16127249928","distractor":"16127249958","target":"absent","response":"absent","rt":"7003","correct":true,"confidence":-1},{"trial_n":78,"span":11,"encoder":"63292262992","distractor":"69292262992","target":"absent","response":"absent","rt":"8170","correct":true,"confidence":-1},{"trial_n":79,"span":12,"encoder":"881336045636","distractor":"881306045636","target":"absent","response":"absent","rt":"3593","correct":true,"confidence":-1},{"trial_n":80,"span":12,"encoder":"983413345139","distractor":"983417345139","target":"present","response":"present","rt":"8212","correct":true,"confidence":-1},{"trial_n":81,"span":13,"encoder":"5094601396990","distractor":"5094601396995","target":"absent","response":"absent","rt":"775","correct":true,"confidence":-1},{"trial_n":82,"span":13,"encoder":"9624443687331","distractor":"9624443687351","target":"absent","response":"absent","rt":"7110","correct":true,"confidence":-1},{"trial_n":83,"span":14,"encoder":"90123942047633","distractor":"90123942047637","target":"present","response":"absent","rt":"5917","correct":false,"confidence":-1},{"trial_n":84,"span":13,"encoder":"8025138607864","distractor":"8425138607864","target":"absent","response":"absent","rt":"4043","correct":true,"confidence":-1},{"trial_n":85,"span":13,"encoder":"1608128757829","distractor":"1638128757829","target":"absent","response":"present","rt":"8423","correct":false,"confidence":-1},{"trial_n":86,"span":12,"encoder":"259812603490","distractor":"259712603490","target":"present","response":"present","rt":"9629.0000000002","correct":true,"confidence":-1},{"trial_n":87,"span":12,"encoder":"414673062782","distractor":"414673062786","target":"present","response":"present","rt":"8997","correct":true,"confidence":-1},{"trial_n":88,"span":13,"encoder":"0759786492217","distractor":"0759786592217","target":"present","response":"absent","rt":"1786","correct":false,"confidence":-1},{"trial_n":89,"span":12,"encoder":"031065815761","distractor":"039065815761","target":"present","response":"present","rt":"476","correct":true,"confidence":-1},{"trial_n":90,"span":12,"encoder":"056536279322","distractor":"051536279322","target":"absent","response":"absent","rt":"5116.9999999998","correct":true,"confidence":-1},{"trial_n":91,"span":13,"encoder":"8667278967232","distractor":"8667278967932","target":"absent","response":"present","rt":"14727","correct":false,"confidence":4},{"trial_n":92,"span":12,"encoder":"386357610923","distractor":"386557610923","target":"present","response":"present","rt":"5053.9999999998","correct":true,"confidence":5},{"trial_n":93,"span":12,"encoder":"163264444980","distractor":"163264444988","target":"present","response":"present","rt":"5420","correct":true,"confidence":5},{"trial_n":94,"span":13,"encoder":"5570403037477","distractor":"5570463037477","target":"present","response":"present","rt":"14441","correct":true,"confidence":3},{"trial_n":95,"span":13,"encoder":"9632988981724","distractor":"9632988581724","target":"present","response":"present","rt":"11150","correct":true,"confidence":2},{"trial_n":96,"span":14,"encoder":"83375544453882","distractor":"83375544453682","target":"absent","response":"absent","rt":"5886","correct":true,"confidence":4},{"trial_n":97,"span":14,"encoder":"10071730449893","distractor":"19071730449893","target":"absent","response":"absent","rt":"4676","correct":true,"confidence":3},{"trial_n":98,"span":15,"encoder":"245028901934215","distractor":"245028901934275","target":"present","response":"present","rt":"10378","correct":true,"confidence":2},{"trial_n":99,"span":15,"encoder":"707235024045314","distractor":"707285024045314","target":"absent","response":"absent","rt":"8780","correct":true,"confidence":4},{"trial_n":100,"span":16,"encoder":"1565506456987678","distractor":"1565506456987078","target":"present","response":"absent","rt":"7572.0000000005","correct":false,"confidence":3},{"trial_n":101,"span":15,"encoder":"857421378600415","distractor":"857421328600415","target":"present","response":"present","rt":"7072.9999999995","correct":true,"confidence":3},{"trial_n":102,"span":15,"encoder":"333083803730861","distractor":"333083803730868","target":"present","response":"present","rt":"7570","correct":true,"confidence":5},{"trial_n":103,"span":16,"encoder":"6409425940791513","distractor":"9409425940791513","target":"absent","response":"present","rt":"7990","correct":false,"confidence":5},{"trial_n":104,"span":15,"encoder":"307138940567914","distractor":"304138940567914","target":"absent","response":"absent","rt":"2459","correct":true,"confidence":4},{"trial_n":105,"span":15,"encoder":"241317010261852","distractor":"241316010261852","target":"absent","response":"absent","rt":"8334","correct":true,"confidence":3},{"trial_n":106,"span":16,"encoder":"8698591940670589","distractor":"8698591945670589","target":"absent","response":"absent","rt":"14050","correct":true,"confidence":3},{"trial_n":107,"span":16,"encoder":"8690931907501452","distractor":"8690961907501452","target":"absent","response":"present","rt":"8447","correct":false,"confidence":2},{"trial_n":108,"span":15,"encoder":"236561057269207","distractor":"236561057268207","target":"present","response":"present","rt":"11141","correct":true,"confidence":4},{"trial_n":109,"span":15,"encoder":"886886204314613","distractor":"886886204324613","target":"absent","response":"present","rt":"10016","correct":false,"confidence":3},{"trial_n":110,"span":14,"encoder":"35659134431367","distractor":"35652134431367","target":"absent","response":"absent","rt":"1040.9999999995","correct":true,"confidence":1},{"trial_n":111,"span":14,"encoder":"46412232491755","distractor":"46412832491755","target":"absent","response":"absent","rt":"8693.0000000005","correct":true,"confidence":3},{"trial_n":112,"span":15,"encoder":"853554855195318","distractor":"853554855192318","target":"present","response":"present","rt":"8241","correct":true,"confidence":5},{"trial_n":113,"span":15,"encoder":"958999487411334","distractor":"958999447411334","target":"present","response":"present","rt":"7431","correct":true,"confidence":2},{"trial_n":114,"span":16,"encoder":"0701182044279889","distractor":"0701182044279289","target":"present","response":"absent","rt":"13603","correct":false,"confidence":3},{"trial_n":115,"span":15,"encoder":"940663460069321","distractor":"940663460067321","target":"present","response":"present","rt":"6702.0000000005","correct":true,"confidence":2},{"trial_n":116,"span":15,"encoder":"492700132553061","distractor":"492702132553061","target":"present","response":"absent","rt":"5342.9999999995","correct":false,"confidence":4},{"trial_n":117,"span":14,"encoder":"50460823336646","distractor":"50450823336646","target":"present","response":"present","rt":"9360.9999999995","correct":true,"confidence":3},{"trial_n":118,"span":14,"encoder":"59647609858965","distractor":"59647009858965","target":"present","response":"present","rt":"10682","correct":true,"confidence":2},{"trial_n":119,"span":15,"encoder":"970261524907253","distractor":"970261524957253","target":"present","response":"present","rt":"7058","correct":true,"confidence":4},{"trial_n":120,"span":15,"encoder":"061556242191568","distractor":"061556242191268","target":"present","response":"absent","rt":"6402","correct":false,"confidence":1},{"trial_n":121,"span":14,"encoder":"93474142475993","distractor":"93474142775993","target":"absent","response":"absent","rt":"14845","correct":true,"confidence":3},{"trial_n":122,"span":14,"encoder":"71230817344248","distractor":"71230817644248","target":"present","response":"present","rt":"7046","correct":true,"confidence":5},{"trial_n":123,"span":15,"encoder":"686001558167508","distractor":"686001558167518","target":"present","response":"present","rt":"9036","correct":true,"confidence":4},{"trial_n":124,"span":15,"encoder":"494764969501110","distractor":"494764949501110","target":"absent","response":"present","rt":"10173","correct":false,"confidence":3},{"trial_n":125,"span":14,"encoder":"22304219453885","distractor":"22004219453885","target":"absent","response":"absent","rt":"4937","correct":true,"confidence":4},{"trial_n":126,"span":14,"encoder":"73954381544870","distractor":"73954381544670","target":"absent","response":"present","rt":"7763","correct":false,"confidence":3},{"trial_n":127,"span":13,"encoder":"8459907315507","distractor":"8469907315507","target":"present","response":"present","rt":"6374","correct":true,"confidence":5},{"trial_n":128,"span":13,"encoder":"8006382323771","distractor":"8006382313771","target":"present","response":"absent","rt":"12566","correct":false,"confidence":2},{"trial_n":129,"span":12,"encoder":"291072604048","distractor":"291072694048","target":"absent","response":"present","rt":"5091","correct":false,"confidence":5},{"trial_n":130,"span":11,"encoder":"36736115684","distractor":"36736115681","target":"absent","response":"absent","rt":"3354.9999999991","correct":true,"confidence":5},{"trial_n":131,"span":11,"encoder":"85601907720","distractor":"85681907720","target":"absent","response":"present","rt":"8000","correct":false,"confidence":4},{"trial_n":132,"span":10,"encoder":"6635082961","distractor":"6635082971","target":"absent","response":"absent","rt":"3813","correct":true,"confidence":5},{"trial_n":133,"span":10,"encoder":"2467424392","distractor":"2467444392","target":"absent","response":"absent","rt":"4046","correct":true,"confidence":5},{"trial_n":134,"span":11,"encoder":"45766606473","distractor":"75766606473","target":"absent","response":"absent","rt":"9215.0000000009","correct":true,"confidence":3},{"trial_n":135,"span":11,"encoder":"52553389707","distractor":"55553389707","target":"present","response":"present","rt":"8005","correct":true,"confidence":2},{"trial_n":136,"span":12,"encoder":"272536420435","distractor":"274536420435","target":"present","response":"absent","rt":"2742","correct":false,"confidence":4},{"trial_n":137,"span":11,"encoder":"58814099334","distractor":"58714099334","target":"present","response":"present","rt":"2207","correct":true,"confidence":5},{"trial_n":138,"span":11,"encoder":"10978933453","distractor":"10978933153","target":"absent","response":"absent","rt":"5517","correct":true,"confidence":4},{"trial_n":139,"span":12,"encoder":"559171980544","distractor":"559173980544","target":"absent","response":"absent","rt":"5603.0000000009","correct":true,"confidence":3},{"trial_n":140,"span":12,"encoder":"105058818386","distractor":"105158818386","target":"present","response":"absent","rt":"6537","correct":false,"confidence":4}]