[{"trial_n":1,"span":8,"encoder":"29840814","distractor":"29849814","target":"present","response":"present","rt":"9086.8999999762","correct":true,"confidence":-1},{"trial_n":2,"span":8,"encoder":"49818017","distractor":"49878017","target":"present","response":"present","rt":"3222.5","correct":true,"confidence":-1},{"trial_n":3,"span":10,"encoder":"5815583693","distractor":"5815593693","target":"absent","response":"absent","rt":"2901","correct":true,"confidence":-1},{"trial_n":4,"span":10,"encoder":"5344579983","distractor":"5364579983","target":"absent","response":"absent","rt":"2564.5","correct":true,"confidence":-1},{"trial_n":5,"span":12,"encoder":"302773095122","distractor":"302773015122","target":"present","response":"present","rt":"2778.2000000477","correct":true,"confidence":-1},{"trial_n":6,"span":12,"encoder":"826531675352","distractor":"836531675352","target":"absent","response":"present","rt":"1968.5","correct":false,"confidence":-1},{"trial_n":7,"span":10,"encoder":"5288020616","distractor":"5280020616","target":"absent","response":"present","rt":"3539.8999999762","correct":false,"confidence":-1},{"trial_n":8,"span":8,"encoder":"79759888","distractor":"79759588","target":"absent","response":"absent","rt":"4109.2000000477","correct":true,"confidence":-1},{"trial_n":9,"span":8,"encoder":"65843942","distractor":"65823942","target":"absent","response":"absent","rt":"3960.7999999523","correct":true,"confidence":-1},{"trial_n":10,"span":10,"encoder":"2354887967","distractor":"2854887967","target":"present","response":"present","rt":"3214.8999999762","correct":true,"confidence":-1},{"trial_n":11,"span":10,"encoder":"9210877348","distractor":"9210877368","target":"present","response":"present","rt":"3120","correct":true,"confidence":-1},{"trial_n":12,"span":11,"encoder":"55095857408","distractor":"55095757408","target":"present","response":"present","rt":"1880.1000000238","correct":true,"confidence":-1},{"trial_n":13,"span":11,"encoder":"14101787384","distractor":"14101757384","target":"present","response":"present","rt":"2820.0999999046","correct":true,"confidence":-1},{"trial_n":14,"span":12,"encoder":"951391175421","distractor":"921391175421","target":"present","response":"absent","rt":"3920.3000000715","correct":false,"confidence":-1},{"trial_n":15,"span":11,"encoder":"02457398541","distractor":"02457398581","target":"present","response":"absent","rt":"2801.3999999762","correct":false,"confidence":-1},{"trial_n":16,"span":10,"encoder":"8267311967","distractor":"8267311937","target":"absent","response":"present","rt":"4239.5","correct":false,"confidence":-1},{"trial_n":17,"span":9,"encoder":"617151507","distractor":"657151507","target":"present","response":"present","rt":"2409.3999999762","correct":true,"confidence":-1},{"trial_n":18,"span":9,"encoder":"062661245","distractor":"062660245","target":"absent","response":"present","rt":"2702.5","correct":false,"confidence":-1},{"trial_n":19,"span":8,"encoder":"60384116","distractor":"60384136","target":"present","response":"present","rt":"18602.600000024","correct":true,"confidence":-1},{"trial_n":20,"span":8,"encoder":"94409674","distractor":"14409674","target":"present","response":"present","rt":"2241.2000000477","correct":true,"confidence":-1},{"trial_n":21,"span":9,"encoder":"524312573","distractor":"524392573","target":"present","response":"absent","rt":"4091","correct":false,"confidence":4},{"trial_n":22,"span":8,"encoder":"31926866","distractor":"31926864","target":"absent","response":"absent","rt":"2737.8999999762","correct":true,"confidence":5},{"trial_n":23,"span":8,"encoder":"59498399","distractor":"50498399","target":"present","response":"present","rt":"3326.3999999762","correct":true,"confidence":3},{"trial_n":24,"span":9,"encoder":"193752564","distractor":"113752564","target":"absent","response":"present","rt":"4582.8999999762","correct":false,"confidence":3},{"trial_n":25,"span":8,"encoder":"66360853","distractor":"66360253","target":"absent","response":"absent","rt":"3240.2999999523","correct":true,"confidence":3},{"trial_n":26,"span":8,"encoder":"20850949","distractor":"20850349","target":"present","response":"present","rt":"4205.1000000238","correct":true,"confidence":3},{"trial_n":27,"span":9,"encoder":"776969240","distractor":"776969040","target":"absent","response":"absent","rt":"3474.2000000477","correct":true,"confidence":2},{"trial_n":28,"span":9,"encoder":"225801636","distractor":"225801630","target":"absent","response":"absent","rt":"3473","correct":true,"confidence":4},{"trial_n":29,"span":10,"encoder":"7220909745","distractor":"7220905745","target":"absent","response":"absent","rt":"2485.2999999523","correct":true,"confidence":5},{"trial_n":30,"span":10,"encoder":"9001885551","distractor":"9001885557","target":"present","response":"present","rt":"2912.3999999762","correct":true,"confidence":3},{"trial_n":31,"span":11,"encoder":"75292929677","distractor":"75262929677","target":"absent","response":"present","rt":"2887.7000000477","correct":false,"confidence":4},{"trial_n":32,"span":10,"encoder":"1857654758","distractor":"0857654758","target":"absent","response":"absent","rt":"3118.0999999046","correct":true,"confidence":4},{"trial_n":33,"span":10,"encoder":"8398634016","distractor":"5398634016","target":"absent","response":"absent","rt":"3684.5","correct":true,"confidence":4},{"trial_n":34,"span":11,"encoder":"95797754621","distractor":"95757754621","target":"absent","response":"present","rt":"5690.8999999762","correct":false,"confidence":2},{"trial_n":35,"span":10,"encoder":"2700679204","distractor":"2708679204","target":"present","response":"absent","rt":"5064.1999999285","correct":false,"confidence":2},{"trial_n":36,"span":9,"encoder":"174485750","distractor":"174485450","target":"absent","response":"absent","rt":"8601.4000000954","correct":true,"confidence":2},{"trial_n":37,"span":9,"encoder":"245555682","distractor":"245554682","target":"present","response":"present","rt":"2765.1000000238","correct":true,"confidence":3},{"trial_n":38,"span":10,"encoder":"1286884429","distractor":"1286884423","target":"absent","response":"absent","rt":"2248.6000000238","correct":true,"confidence":5},{"trial_n":39,"span":10,"encoder":"0523513628","distractor":"0623513628","target":"present","response":"absent","rt":"2871.7000000477","correct":false,"confidence":4},{"trial_n":40,"span":9,"encoder":"688216679","distractor":"608216679","target":"absent","response":"absent","rt":"2870.3999999762","correct":true,"confidence":5},{"trial_n":41,"span":9,"encoder":"393026870","distractor":"393026170","target":"present","response":"present","rt":"2754.7999999523","correct":true,"confidence":3},{"trial_n":42,"span":10,"encoder":"2146458574","distractor":"2146858574","target":"absent","response":"absent","rt":"2497.6000000238","correct":true,"confidence":2},{"trial_n":43,"span":10,"encoder":"5216863379","distractor":"5216863376","target":"present","response":"present","rt":"2953.1000000238","correct":true,"confidence":3},{"trial_n":44,"span":11,"encoder":"36563957473","distractor":"36563955473","target":"absent","response":"present","rt":"5686.8000000715","correct":false,"confidence":1},{"trial_n":45,"span":10,"encoder":"8396587285","distractor":"8396597285","target":"absent","response":"present","rt":"2765.6000000238","correct":false,"confidence":4},{"trial_n":46,"span":9,"encoder":"152973308","distractor":"752973308","target":"present","response":"absent","rt":"2557.6000000238","correct":false,"confidence":5},{"trial_n":47,"span":8,"encoder":"34380348","distractor":"34280348","target":"present","response":"present","rt":"2857.8999999762","correct":true,"confidence":3},{"trial_n":48,"span":8,"encoder":"85602444","distractor":"75602444","target":"present","response":"present","rt":"2878.8000000715","correct":true,"confidence":3},{"trial_n":49,"span":9,"encoder":"667722190","distractor":"661722190","target":"absent","response":"absent","rt":"2926.2000000477","correct":true,"confidence":4},{"trial_n":50,"span":9,"encoder":"969821781","distractor":"969821881","target":"present","response":"absent","rt":"2287.7000000477","correct":false,"confidence":3},{"trial_n":51,"span":8,"encoder":"76621988","distractor":"76621688","target":"present","response":"present","rt":"2181.1000000238","correct":true,"confidence":4},{"trial_n":52,"span":8,"encoder":"20997105","distractor":"22997105","target":"present","response":"present","rt":"3071.6999999285","correct":true,"confidence":3},{"trial_n":53,"span":9,"encoder":"426959971","distractor":"424959971","target":"present","response":"present","rt":"3029.2999999523","correct":true,"confidence":2},{"trial_n":54,"span":9,"encoder":"008445897","distractor":"008495897","target":"present","response":"present","rt":"3072.2000000477","correct":true,"confidence":4},{"trial_n":55,"span":10,"encoder":"9909473667","distractor":"9009473667","target":"absent","response":"absent","rt":"3828.5","correct":true,"confidence":3},{"trial_n":56,"span":10,"encoder":"0429814509","distractor":"7429814509","target":"absent","response":"absent","rt":"2285","correct":true,"confidence":5},{"trial_n":57,"span":11,"encoder":"49395143352","distractor":"49395140352","target":"present","response":"absent","rt":"4303.6000000238","correct":false,"confidence":3},{"trial_n":58,"span":10,"encoder":"1512123671","distractor":"4512123671","target":"present","response":"present","rt":"4956.4000000954","correct":true,"confidence":3},{"trial_n":59,"span":10,"encoder":"7278720808","distractor":"7578720808","target":"present","response":"present","rt":"10538.399999976","correct":true,"confidence":3},{"trial_n":60,"span":11,"encoder":"86625153927","distractor":"86625153427","target":"present","response":"absent","rt":"2336.5","correct":false,"confidence":3},{"trial_n":61,"span":10,"encoder":"1528482766","distractor":"1528486766","target":"absent","response":"present","rt":"2250.3999999762","correct":false,"confidence":3},{"trial_n":62,"span":9,"encoder":"007711361","distractor":"007711161","target":"present","response":"present","rt":"2826.7999999523","correct":true,"confidence":4},{"trial_n":63,"span":9,"encoder":"234628418","distractor":"234620418","target":"absent","response":"present","rt":"6541.3999999762","correct":false,"confidence":3},{"trial_n":64,"span":8,"encoder":"22182132","distractor":"22182172","target":"absent","response":"absent","rt":"2349.2999999523","correct":true,"confidence":5},{"trial_n":65,"span":8,"encoder":"70161595","distractor":"70164595","target":"absent","response":"present","rt":"2714.9000000954","correct":false,"confidence":5},{"trial_n":66,"span":7,"encoder":"5993930","distractor":"5993130","target":"absent","response":"present","rt":"2329.6000000238","correct":false,"confidence":3},{"trial_n":67,"span":6,"encoder":"950309","distractor":"950308","target":"present","response":"present","rt":"2232.8999999762","correct":true,"confidence":4},{"trial_n":68,"span":6,"encoder":"353526","distractor":"353326","target":"absent","response":"absent","rt":"2577.8999999762","correct":true,"confidence":5},{"trial_n":69,"span":7,"encoder":"9840627","distractor":"9840687","target":"present","response":"absent","rt":"2404.8999999762","correct":false,"confidence":5},{"trial_n":70,"span":6,"encoder":"621952","distractor":"641952","target":"absent","response":"absent","rt":"2538.7000000477","correct":true,"confidence":4},{"trial_n":71,"span":8,"encoder":"57067978","distractor":"57062978","target":"present","response":"absent","rt":"4543.8000000715","correct":false,"confidence":-1},{"trial_n":72,"span":7,"encoder":"0568406","distractor":"0568407","target":"present","response":"present","rt":"2672.0999999046","correct":true,"confidence":-1},{"trial_n":73,"span":7,"encoder":"4208387","distractor":"4208337","target":"absent","response":"absent","rt":"2979.2000000477","correct":true,"confidence":-1},{"trial_n":74,"span":8,"encoder":"86815592","distractor":"86813592","target":"absent","response":"present","rt":"3535.7999999523","correct":false,"confidence":-1},{"trial_n":75,"span":7,"encoder":"3876364","distractor":"3876464","target":"present","response":"present","rt":"3806.7000000477","correct":true,"confidence":-1},{"trial_n":76,"span":7,"encoder":"7855027","distractor":"7855022","target":"present","response":"present","rt":"1590.8999999762","correct":true,"confidence":-1},{"trial_n":77,"span":8,"encoder":"18808461","distractor":"18808561","target":"absent","response":"absent","rt":"5087.8999999762","correct":true,"confidence":-1},{"trial_n":78,"span":8,"encoder":"37203178","distractor":"37202178","target":"absent","response":"present","rt":"4390.7000000477","correct":false,"confidence":-1},{"trial_n":79,"span":7,"encoder":"0701068","distractor":"0701028","target":"absent","response":"absent","rt":"3094.1999999285","correct":true,"confidence":-1},{"trial_n":80,"span":7,"encoder":"4511334","distractor":"4511333","target":"present","response":"present","rt":"2369.2000000477","correct":true,"confidence":-1},{"trial_n":81,"span":8,"encoder":"59518096","distractor":"59513096","target":"present","response":"present","rt":"4896.3000000715","correct":true,"confidence":-1},{"trial_n":82,"span":8,"encoder":"79872696","distractor":"73872696","target":"present","response":"present","rt":"3921.8999999762","correct":true,"confidence":-1},{"trial_n":83,"span":9,"encoder":"024711333","distractor":"024761333","target":"present","response":"present","rt":"2116.8999999762","correct":true,"confidence":-1},{"trial_n":84,"span":9,"encoder":"752021312","distractor":"752021612","target":"absent","response":"absent","rt":"4235.8999999762","correct":true,"confidence":-1},{"trial_n":85,"span":10,"encoder":"3185216862","distractor":"3185216861","target":"present","response":"present","rt":"2446.9000000954","correct":true,"confidence":-1},{"trial_n":86,"span":10,"encoder":"8789972072","distractor":"8789971072","target":"present","response":"present","rt":"2585.7000000477","correct":true,"confidence":-1},{"trial_n":87,"span":11,"encoder":"92903231678","distractor":"99903231678","target":"absent","response":"present","rt":"3631","correct":false,"confidence":-1},{"trial_n":88,"span":10,"encoder":"4358451571","distractor":"4358651571","target":"present","response":"absent","rt":"5201.5","correct":false,"confidence":-1},{"trial_n":89,"span":9,"encoder":"033478212","distractor":"033878212","target":"absent","response":"absent","rt":"3144.5","correct":true,"confidence":-1},{"trial_n":90,"span":9,"encoder":"441038975","distractor":"441138975","target":"absent","response":"absent","rt":"2724.7000000477","correct":true,"confidence":-1},{"trial_n":91,"span":10,"encoder":"8077600680","distractor":"8077601680","target":"absent","response":"absent","rt":"1924.7999999523","correct":true,"confidence":5},{"trial_n":92,"span":10,"encoder":"1362229321","distractor":"1462229321","target":"absent","response":"absent","rt":"4033.7000000477","correct":true,"confidence":4},{"trial_n":93,"span":11,"encoder":"65341283718","distractor":"65341183718","target":"absent","response":"absent","rt":"7088.3999999762","correct":true,"confidence":3},{"trial_n":94,"span":11,"encoder":"96085953985","distractor":"46085953985","target":"present","response":"present","rt":"2508.5","correct":true,"confidence":5},{"trial_n":95,"span":12,"encoder":"546918367651","distractor":"546918667651","target":"absent","response":"absent","rt":"5882.8000000715","correct":true,"confidence":4},{"trial_n":96,"span":12,"encoder":"910714841683","distractor":"910214841683","target":"present","response":"present","rt":"2547.5","correct":true,"confidence":5},{"trial_n":97,"span":13,"encoder":"7757467132747","distractor":"7757467132647","target":"present","response":"absent","rt":"5392.6000000238","correct":false,"confidence":1},{"trial_n":98,"span":12,"encoder":"070518529763","distractor":"070818529763","target":"absent","response":"absent","rt":"4874.8999999762","correct":true,"confidence":1},{"trial_n":99,"span":12,"encoder":"742550652127","distractor":"743550652127","target":"absent","response":"absent","rt":"4798.6999999285","correct":true,"confidence":4},{"trial_n":100,"span":13,"encoder":"4511113061818","distractor":"4511113161818","target":"present","response":"present","rt":"6776.3999999762","correct":true,"confidence":3},{"trial_n":101,"span":13,"encoder":"8274908018719","distractor":"8274908098719","target":"absent","response":"absent","rt":"9013.1000000238","correct":true,"confidence":4},{"trial_n":102,"span":14,"encoder":"59654239412319","distractor":"89654239412319","target":"present","response":"present","rt":"3689.3999999762","correct":true,"confidence":4},{"trial_n":103,"span":14,"encoder":"62355932309861","distractor":"62355932309881","target":"absent","response":"absent","rt":"3708.7999999523","correct":true,"confidence":4},{"trial_n":104,"span":15,"encoder":"346832666879636","distractor":"346872666879636","target":"present","response":"present","rt":"7048.6000000238","correct":true,"confidence":4},{"trial_n":105,"span":15,"encoder":"749584658023379","distractor":"749584658423379","target":"present","response":"present","rt":"9502","correct":true,"confidence":3},{"trial_n":106,"span":16,"encoder":"1794961784380250","distractor":"1734961784380250","target":"present","response":"present","rt":"4520.5","correct":true,"confidence":3},{"trial_n":107,"span":16,"encoder":"8672972627017306","distractor":"8672972727017306","target":"absent","response":"present","rt":"19281.100000024","correct":false,"confidence":1},{"trial_n":108,"span":15,"encoder":"143791702163952","distractor":"143791702163552","target":"present","response":"present","rt":"2404","correct":true,"confidence":5},{"trial_n":109,"span":15,"encoder":"529188365230218","distractor":"579188365230218","target":"present","response":"present","rt":"4791.5","correct":true,"confidence":3},{"trial_n":110,"span":16,"encoder":"6237375093187695","distractor":"6237375093187691","target":"present","response":"present","rt":"13754.799999952","correct":true,"confidence":3},{"trial_n":111,"span":16,"encoder":"6532099847951954","distractor":"6532099847959954","target":"present","response":"absent","rt":"3121.5","correct":false,"confidence":3},{"trial_n":112,"span":15,"encoder":"723465361722640","distractor":"723455361722640","target":"absent","response":"present","rt":"25213.399999976","correct":false,"confidence":1},{"trial_n":113,"span":14,"encoder":"02904857221284","distractor":"02904853221284","target":"present","response":"absent","rt":"6713.1000000238","correct":false,"confidence":2},{"trial_n":114,"span":13,"encoder":"7472411843388","distractor":"7472441843388","target":"absent","response":"present","rt":"4841.8999999762","correct":false,"confidence":3},{"trial_n":115,"span":12,"encoder":"536040979520","distractor":"534040979520","target":"present","response":"present","rt":"3391.8999999762","correct":true,"confidence":5},{"trial_n":116,"span":12,"encoder":"642697006312","distractor":"647697006312","target":"absent","response":"present","rt":"4905.8000000715","correct":false,"confidence":4},{"trial_n":117,"span":11,"encoder":"76026894074","distractor":"76826894074","target":"present","response":"present","rt":"4108.5","correct":true,"confidence":3},{"trial_n":118,"span":11,"encoder":"71687542743","distractor":"71687942743","target":"absent","response":"absent","rt":"5163.5","correct":true,"confidence":2},{"trial_n":119,"span":12,"encoder":"699144121130","distractor":"699149121130","target":"absent","response":"absent","rt":"5371.2000000477","correct":true,"confidence":5},{"trial_n":120,"span":12,"encoder":"921797287217","distractor":"921797287267","target":"absent","response":"absent","rt":"2857.7000000477","correct":true,"confidence":5},{"trial_n":121,"span":13,"encoder":"8471099447031","distractor":"8471099407031","target":"absent","response":"absent","rt":"3077.3999999762","correct":true,"confidence":5},{"trial_n":122,"span":13,"encoder":"6821138825552","distractor":"8821138825552","target":"absent","response":"absent","rt":"4935.5999999046","correct":true,"confidence":4},{"trial_n":123,"span":14,"encoder":"59290308050900","distractor":"59290608050900","target":"present","response":"present","rt":"6866.1000000238","correct":true,"confidence":2},{"trial_n":124,"span":14,"encoder":"25116262739521","distractor":"25116252739521","target":"present","response":"absent","rt":"5792.6000000238","correct":false,"confidence":1},{"trial_n":125,"span":13,"encoder":"7065476961517","distractor":"7065676961517","target":"absent","response":"present","rt":"5342.1999999285","correct":false,"confidence":1},{"trial_n":126,"span":12,"encoder":"374065950964","distractor":"374065952964","target":"absent","response":"absent","rt":"2640","correct":true,"confidence":4},{"trial_n":127,"span":12,"encoder":"543670323943","distractor":"543670123943","target":"absent","response":"absent","rt":"2955.7999999523","correct":true,"confidence":3},{"trial_n":128,"span":13,"encoder":"7910564189060","distractor":"9910564189060","target":"absent","response":"absent","rt":"4003.7000000477","correct":true,"confidence":2},{"trial_n":129,"span":13,"encoder":"0095067625627","distractor":"0015067625627","target":"absent","response":"absent","rt":"5519.1999999285","correct":true,"confidence":3},{"trial_n":130,"span":14,"encoder":"22117648344258","distractor":"22117643344258","target":"absent","response":"absent","rt":"6383.6000000238","correct":true,"confidence":4},{"trial_n":131,"span":14,"encoder":"94911852384940","distractor":"94911852484940","target":"present","response":"absent","rt":"6955.6000000238","correct":false,"confidence":2},{"trial_n":132,"span":13,"encoder":"5598801986952","distractor":"5598101986952","target":"present","response":"present","rt":"2499.1000000238","correct":true,"confidence":5},{"trial_n":133,"span":13,"encoder":"4939814692036","distractor":"4139814692036","target":"present","response":"absent","rt":"5496.2999999523","correct":false,"confidence":3},{"trial_n":134,"span":12,"encoder":"987426685475","distractor":"987426685175","target":"present","response":"present","rt":"2812.2999999523","correct":true,"confidence":3},{"trial_n":135,"span":12,"encoder":"255100760925","distractor":"255100710925","target":"present","response":"absent","rt":"4371.0999999046","correct":false,"confidence":3},{"trial_n":136,"span":11,"encoder":"92814808192","distractor":"92814808992","target":"absent","response":"absent","rt":"3793.1000000238","correct":true,"confidence":4},{"trial_n":137,"span":11,"encoder":"92917847176","distractor":"92917847276","target":"present","response":"absent","rt":"7630.1999999285","correct":false,"confidence":3},{"trial_n":138,"span":10,"encoder":"9884952401","distractor":"9884959401","target":"present","response":"present","rt":"2488.6000000238","correct":true,"confidence":5},{"trial_n":139,"span":10,"encoder":"8068415970","distractor":"8068495970","target":"absent","response":"present","rt":"5520.5","correct":false,"confidence":4},{"trial_n":140,"span":9,"encoder":"776692199","distractor":"776692109","target":"present","response":"present","rt":"4353.6000000238","correct":true,"confidence":4}]