[{"trial_n":1,"min":25,"max":230,"target":"present","response":"absent","rt":7543,"correct":false,"confidence":-1},{"trial_n":2,"min":25,"max":230,"target":"present","response":"absent","rt":4868,"correct":false,"confidence":-1},{"trial_n":3,"min":9,"max":246,"target":"absent","response":"absent","rt":1958,"correct":true,"confidence":-1},{"trial_n":4,"min":9,"max":246,"target":"absent","response":"present","rt":1094,"correct":false,"confidence":-1},{"trial_n":5,"min":0,"max":255,"target":"present","response":"present","rt":4500,"correct":true,"confidence":-1},{"trial_n":6,"min":0,"max":255,"target":"absent","response":"absent","rt":501,"correct":true,"confidence":-1},{"trial_n":7,"min":16,"max":239,"target":"absent","response":"absent","rt":299,"correct":true,"confidence":-1},{"trial_n":8,"min":16,"max":239,"target":"absent","response":"absent","rt":258,"correct":true,"confidence":-1},{"trial_n":9,"min":32,"max":223,"target":"present","response":"present","rt":420,"correct":true,"confidence":-1},{"trial_n":10,"min":32,"max":223,"target":"present","response":"present","rt":269,"correct":true,"confidence":-1},{"trial_n":11,"min":40,"max":215,"target":"absent","response":"absent","rt":718,"correct":true,"confidence":-1},{"trial_n":12,"min":40,"max":215,"target":"present","response":"present","rt":275,"correct":true,"confidence":-1},{"trial_n":13,"min":48,"max":207,"target":"present","response":"present","rt":466,"correct":true,"confidence":-1},{"trial_n":14,"min":48,"max":207,"target":"absent","response":"absent","rt":335,"correct":true,"confidence":-1},{"trial_n":15,"min":56,"max":199,"target":"present","response":"present","rt":524,"correct":true,"confidence":-1},{"trial_n":16,"min":56,"max":199,"target":"absent","response":"absent","rt":433,"correct":true,"confidence":-1},{"trial_n":17,"min":64,"max":191,"target":"present","response":"present","rt":356,"correct":true,"confidence":-1},{"trial_n":18,"min":64,"max":191,"target":"absent","response":"absent","rt":323,"correct":true,"confidence":-1},{"trial_n":19,"min":72,"max":183,"target":"present","response":"present","rt":416,"correct":true,"confidence":-1},{"trial_n":20,"min":72,"max":183,"target":"present","response":"present","rt":448,"correct":true,"confidence":-1},{"trial_n":21,"min":76,"max":179,"target":"absent","response":"present","rt":1398,"correct":false,"confidence":4},{"trial_n":22,"min":72,"max":183,"target":"present","response":"absent","rt":2787,"correct":false,"confidence":5},{"trial_n":23,"min":68,"max":187,"target":"present","response":"present","rt":457,"correct":true,"confidence":4},{"trial_n":24,"min":68,"max":187,"target":"present","response":"present","rt":751,"correct":true,"confidence":5},{"trial_n":25,"min":72,"max":183,"target":"present","response":"present","rt":448,"correct":true,"confidence":4},{"trial_n":26,"min":72,"max":183,"target":"absent","response":"absent","rt":464,"correct":true,"confidence":5},{"trial_n":27,"min":76,"max":179,"target":"absent","response":"absent","rt":1760,"correct":true,"confidence":5},{"trial_n":28,"min":76,"max":179,"target":"absent","response":"absent","rt":662,"correct":true,"confidence":5},{"trial_n":29,"min":80,"max":175,"target":"present","response":"present","rt":1076,"correct":true,"confidence":5},{"trial_n":30,"min":80,"max":175,"target":"absent","response":"absent","rt":537,"correct":true,"confidence":5},{"trial_n":31,"min":82,"max":173,"target":"present","response":"absent","rt":25335,"correct":false,"confidence":1},{"trial_n":32,"min":80,"max":175,"target":"absent","response":"absent","rt":934,"correct":true,"confidence":5},{"trial_n":33,"min":80,"max":175,"target":"present","response":"present","rt":510,"correct":true,"confidence":5},{"trial_n":34,"min":82,"max":173,"target":"absent","response":"absent","rt":570,"correct":true,"confidence":5},{"trial_n":35,"min":82,"max":173,"target":"present","response":"present","rt":995,"correct":true,"confidence":5},{"trial_n":36,"min":84,"max":171,"target":"absent","response":"absent","rt":545,"correct":true,"confidence":1},{"trial_n":37,"min":84,"max":171,"target":"present","response":"absent","rt":821,"correct":false,"confidence":1},{"trial_n":38,"min":82,"max":173,"target":"present","response":"present","rt":476,"correct":true,"confidence":5},{"trial_n":39,"min":82,"max":173,"target":"absent","response":"absent","rt":722,"correct":true,"confidence":5},{"trial_n":40,"min":84,"max":171,"target":"present","response":"present","rt":2183,"correct":true,"confidence":5},{"trial_n":41,"min":84,"max":171,"target":"absent","response":"absent","rt":1092,"correct":true,"confidence":1},{"trial_n":42,"min":85,"max":170,"target":"absent","response":"absent","rt":574,"correct":true,"confidence":1},{"trial_n":43,"min":85,"max":170,"target":"present","response":"present","rt":1134,"correct":true,"confidence":5},{"trial_n":44,"min":86,"max":169,"target":"absent","response":"absent","rt":646,"correct":true,"confidence":5},{"trial_n":45,"min":86,"max":169,"target":"present","response":"present","rt":4452,"correct":true,"confidence":5},{"trial_n":46,"min":87,"max":168,"target":"present","response":"present","rt":336,"correct":true,"confidence":5},{"trial_n":47,"min":87,"max":168,"target":"absent","response":"absent","rt":845,"correct":true,"confidence":1},{"trial_n":48,"min":88,"max":167,"target":"present","response":"absent","rt":697,"correct":false,"confidence":5},{"trial_n":49,"min":87,"max":168,"target":"absent","response":"absent","rt":667,"correct":true,"confidence":5},{"trial_n":50,"min":87,"max":168,"target":"present","response":"absent","rt":1368,"correct":false,"confidence":5},{"trial_n":51,"min":86,"max":169,"target":"present","response":"absent","rt":621,"correct":false,"confidence":5},{"trial_n":52,"min":85,"max":170,"target":"absent","response":"absent","rt":442,"correct":true,"confidence":5},{"trial_n":53,"min":85,"max":170,"target":"present","response":"absent","rt":1401,"correct":false,"confidence":1},{"trial_n":54,"min":84,"max":171,"target":"absent","response":"absent","rt":1437,"correct":true,"confidence":5},{"trial_n":55,"min":84,"max":171,"target":"present","response":"absent","rt":817,"correct":false,"confidence":5},{"trial_n":56,"min":83,"max":172,"target":"absent","response":"absent","rt":568,"correct":true,"confidence":5},{"trial_n":57,"min":83,"max":172,"target":"present","response":"absent","rt":1463,"correct":false,"confidence":5},{"trial_n":58,"min":82,"max":173,"target":"present","response":"present","rt":375,"correct":true,"confidence":5},{"trial_n":59,"min":82,"max":173,"target":"absent","response":"present","rt":1802,"correct":false,"confidence":5},{"trial_n":60,"min":81,"max":174,"target":"absent","response":"absent","rt":1309,"correct":true,"confidence":5},{"trial_n":61,"min":81,"max":174,"target":"present","response":"absent","rt":832,"correct":false,"confidence":1},{"trial_n":62,"min":80,"max":175,"target":"present","response":"absent","rt":1393,"correct":false,"confidence":5},{"trial_n":63,"min":79,"max":176,"target":"absent","response":"absent","rt":1001,"correct":true,"confidence":1},{"trial_n":64,"min":79,"max":176,"target":"absent","response":"absent","rt":660,"correct":true,"confidence":5},{"trial_n":65,"min":80,"max":175,"target":"absent","response":"absent","rt":976,"correct":true,"confidence":5},{"trial_n":66,"min":80,"max":175,"target":"absent","response":"absent","rt":817,"correct":true,"confidence":4},{"trial_n":67,"min":81,"max":174,"target":"present","response":"absent","rt":520,"correct":false,"confidence":1},{"trial_n":68,"min":80,"max":175,"target":"present","response":"present","rt":545,"correct":true,"confidence":5},{"trial_n":69,"min":80,"max":175,"target":"absent","response":"absent","rt":928,"correct":true,"confidence":1},{"trial_n":70,"min":81,"max":174,"target":"absent","response":"present","rt":590,"correct":false,"confidence":5},{"trial_n":71,"min":41,"max":214,"target":"present","response":"present","rt":8924,"correct":true,"confidence":-1},{"trial_n":72,"min":41,"max":214,"target":"present","response":"present","rt":549,"correct":true,"confidence":-1},{"trial_n":73,"min":57,"max":198,"target":"absent","response":"absent","rt":662,"correct":true,"confidence":-1},{"trial_n":74,"min":57,"max":198,"target":"absent","response":"absent","rt":669,"correct":true,"confidence":-1},{"trial_n":75,"min":73,"max":182,"target":"present","response":"present","rt":380,"correct":true,"confidence":-1},{"trial_n":76,"min":73,"max":182,"target":"present","response":"absent","rt":438,"correct":false,"confidence":-1},{"trial_n":77,"min":57,"max":198,"target":"absent","response":"absent","rt":647,"correct":true,"confidence":-1},{"trial_n":78,"min":57,"max":198,"target":"absent","response":"present","rt":1004,"correct":false,"confidence":-1},{"trial_n":79,"min":41,"max":214,"target":"present","response":"present","rt":612,"correct":true,"confidence":-1},{"trial_n":80,"min":41,"max":214,"target":"present","response":"present","rt":637,"correct":true,"confidence":-1},{"trial_n":81,"min":49,"max":206,"target":"absent","response":"absent","rt":467,"correct":true,"confidence":-1},{"trial_n":82,"min":49,"max":206,"target":"absent","response":"absent","rt":554,"correct":true,"confidence":-1},{"trial_n":83,"min":57,"max":198,"target":"present","response":"present","rt":1647,"correct":true,"confidence":-1},{"trial_n":84,"min":57,"max":198,"target":"present","response":"present","rt":362,"correct":true,"confidence":-1},{"trial_n":85,"min":65,"max":190,"target":"present","response":"present","rt":499,"correct":true,"confidence":-1},{"trial_n":86,"min":65,"max":190,"target":"absent","response":"absent","rt":804,"correct":true,"confidence":-1},{"trial_n":87,"min":73,"max":182,"target":"absent","response":"absent","rt":608,"correct":true,"confidence":-1},{"trial_n":88,"min":73,"max":182,"target":"absent","response":"absent","rt":417,"correct":true,"confidence":-1},{"trial_n":89,"min":81,"max":174,"target":"absent","response":"absent","rt":645,"correct":true,"confidence":-1},{"trial_n":90,"min":81,"max":174,"target":"absent","response":"absent","rt":508,"correct":true,"confidence":-1},{"trial_n":91,"min":85,"max":170,"target":"present","response":"present","rt":884,"correct":true,"confidence":4},{"trial_n":92,"min":85,"max":170,"target":"absent","response":"absent","rt":1973,"correct":true,"confidence":1},{"trial_n":93,"min":89,"max":166,"target":"absent","response":"absent","rt":944,"correct":true,"confidence":5},{"trial_n":94,"min":89,"max":166,"target":"present","response":"absent","rt":2613,"correct":false,"confidence":1},{"trial_n":95,"min":85,"max":170,"target":"absent","response":"present","rt":1281,"correct":false,"confidence":1},{"trial_n":96,"min":81,"max":174,"target":"present","response":"present","rt":722,"correct":true,"confidence":5},{"trial_n":97,"min":81,"max":174,"target":"absent","response":"present","rt":11273,"correct":false,"confidence":1},{"trial_n":98,"min":77,"max":178,"target":"absent","response":"absent","rt":666,"correct":true,"confidence":5},{"trial_n":99,"min":77,"max":178,"target":"absent","response":"absent","rt":801,"correct":true,"confidence":4},{"trial_n":100,"min":81,"max":174,"target":"present","response":"present","rt":311,"correct":true,"confidence":5},{"trial_n":101,"min":81,"max":174,"target":"present","response":"present","rt":796,"correct":true,"confidence":4},{"trial_n":102,"min":83,"max":172,"target":"present","response":"present","rt":370,"correct":true,"confidence":4},{"trial_n":103,"min":83,"max":172,"target":"absent","response":"present","rt":764,"correct":false,"confidence":5},{"trial_n":104,"min":81,"max":174,"target":"present","response":"present","rt":358,"correct":true,"confidence":4},{"trial_n":105,"min":81,"max":174,"target":"present","response":"present","rt":333,"correct":true,"confidence":5},{"trial_n":106,"min":83,"max":172,"target":"present","response":"present","rt":561,"correct":true,"confidence":5},{"trial_n":107,"min":83,"max":172,"target":"present","response":"absent","rt":1248,"correct":false,"confidence":1},{"trial_n":108,"min":81,"max":174,"target":"present","response":"present","rt":494,"correct":true,"confidence":5},{"trial_n":109,"min":81,"max":174,"target":"absent","response":"present","rt":790,"correct":false,"confidence":4},{"trial_n":110,"min":79,"max":176,"target":"present","response":"present","rt":432,"correct":true,"confidence":5},{"trial_n":111,"min":79,"max":176,"target":"absent","response":"present","rt":703,"correct":false,"confidence":4},{"trial_n":112,"min":78,"max":177,"target":"present","response":"present","rt":595,"correct":true,"confidence":5},{"trial_n":113,"min":78,"max":177,"target":"absent","response":"present","rt":1482,"correct":false,"confidence":5},{"trial_n":114,"min":77,"max":178,"target":"absent","response":"present","rt":4240,"correct":false,"confidence":1},{"trial_n":115,"min":76,"max":179,"target":"present","response":"present","rt":816,"correct":true,"confidence":5},{"trial_n":116,"min":76,"max":179,"target":"present","response":"present","rt":502,"correct":true,"confidence":5},{"trial_n":117,"min":77,"max":178,"target":"present","response":"present","rt":574,"correct":true,"confidence":5},{"trial_n":118,"min":77,"max":178,"target":"absent","response":"absent","rt":840,"correct":true,"confidence":5},{"trial_n":119,"min":78,"max":177,"target":"absent","response":"absent","rt":1114,"correct":true,"confidence":4},{"trial_n":120,"min":78,"max":177,"target":"present","response":"present","rt":893,"correct":true,"confidence":4},{"trial_n":121,"min":79,"max":176,"target":"absent","response":"absent","rt":921,"correct":true,"confidence":5},{"trial_n":122,"min":79,"max":176,"target":"absent","response":"absent","rt":1443,"correct":true,"confidence":5},{"trial_n":123,"min":80,"max":175,"target":"absent","response":"absent","rt":1505,"correct":true,"confidence":5},{"trial_n":124,"min":80,"max":175,"target":"present","response":"present","rt":494,"correct":true,"confidence":4},{"trial_n":125,"min":81,"max":174,"target":"present","response":"present","rt":555,"correct":true,"confidence":4},{"trial_n":126,"min":81,"max":174,"target":"present","response":"present","rt":883,"correct":true,"confidence":5},{"trial_n":127,"min":82,"max":173,"target":"present","response":"absent","rt":702,"correct":false,"confidence":1},{"trial_n":128,"min":81,"max":174,"target":"absent","response":"present","rt":1357,"correct":false,"confidence":1},{"trial_n":129,"min":80,"max":175,"target":"absent","response":"present","rt":921,"correct":false,"confidence":3},{"trial_n":130,"min":79,"max":176,"target":"absent","response":"present","rt":685,"correct":false,"confidence":4},{"trial_n":131,"min":78,"max":177,"target":"present","response":"present","rt":469,"correct":true,"confidence":5},{"trial_n":132,"min":78,"max":177,"target":"present","response":"present","rt":444,"correct":true,"confidence":5},{"trial_n":133,"min":79,"max":176,"target":"absent","response":"absent","rt":708,"correct":true,"confidence":5},{"trial_n":134,"min":79,"max":176,"target":"absent","response":"absent","rt":1345,"correct":true,"confidence":5},{"trial_n":135,"min":80,"max":175,"target":"present","response":"present","rt":451,"correct":true,"confidence":5},{"trial_n":136,"min":80,"max":175,"target":"present","response":"present","rt":1338,"correct":true,"confidence":5},{"trial_n":137,"min":81,"max":174,"target":"absent","response":"absent","rt":987,"correct":true,"confidence":5},{"trial_n":138,"min":81,"max":174,"target":"absent","response":"absent","rt":878,"correct":true,"confidence":5},{"trial_n":139,"min":82,"max":173,"target":"present","response":"present","rt":645,"correct":true,"confidence":5},{"trial_n":140,"min":82,"max":173,"target":"present","response":"present","rt":627,"correct":true,"confidence":5}]