[{"trial_n":1,"span":8,"encoder":"76557644","distractor":"76557944","target":"present","response":"absent","rt":"6174.3999996185","correct":false,"confidence":-1},{"trial_n":2,"span":6,"encoder":"491985","distractor":"491785","target":"present","response":"absent","rt":"1282.1999998093","correct":false,"confidence":-1},{"trial_n":3,"span":4,"encoder":"9618","distractor":"9688","target":"absent","response":"absent","rt":"466.0999994278","correct":true,"confidence":-1},{"trial_n":4,"span":4,"encoder":"3621","distractor":"3627","target":"absent","response":"absent","rt":"494.19999980927","correct":true,"confidence":-1},{"trial_n":5,"span":6,"encoder":"298215","distractor":"290215","target":"present","response":"present","rt":"2088.3000001907","correct":true,"confidence":-1},{"trial_n":6,"span":6,"encoder":"323573","distractor":"323575","target":"absent","response":"absent","rt":"332.30000019073","correct":true,"confidence":-1},{"trial_n":7,"span":8,"encoder":"55101711","distractor":"55101714","target":"absent","response":"present","rt":"1326.8999996185","correct":false,"confidence":-1},{"trial_n":8,"span":6,"encoder":"968881","distractor":"968581","target":"present","response":"absent","rt":"514.69999980927","correct":false,"confidence":-1},{"trial_n":9,"span":4,"encoder":"7691","distractor":"1691","target":"absent","response":"absent","rt":"463.5","correct":true,"confidence":-1},{"trial_n":10,"span":4,"encoder":"9751","distractor":"9755","target":"absent","response":"present","rt":"806.30000019073","correct":false,"confidence":-1},{"trial_n":11,"span":2,"encoder":"23","distractor":"26","target":"absent","response":"absent","rt":"181.89999961853","correct":true,"confidence":-1},{"trial_n":12,"span":2,"encoder":"08","distractor":"98","target":"present","response":"absent","rt":"389.60000038147","correct":false,"confidence":-1},{"trial_n":13,"span":2,"encoder":"98","distractor":"88","target":"present","response":"present","rt":"431","correct":true,"confidence":-1},{"trial_n":14,"span":2,"encoder":"24","distractor":"29","target":"absent","response":"present","rt":"50.199999809265","correct":false,"confidence":-1},{"trial_n":15,"span":2,"encoder":"35","distractor":"15","target":"absent","response":"present","rt":"14.39999961853","correct":false,"confidence":-1},{"trial_n":16,"span":2,"encoder":"81","distractor":"51","target":"present","response":"present","rt":"113.80000019073","correct":true,"confidence":-1},{"trial_n":17,"span":2,"encoder":"87","distractor":"83","target":"absent","response":"present","rt":"37.700000762939","correct":false,"confidence":-1},{"trial_n":18,"span":2,"encoder":"55","distractor":"53","target":"present","response":"present","rt":"1.3999996185303","correct":true,"confidence":-1},{"trial_n":19,"span":2,"encoder":"51","distractor":"59","target":"absent","response":"present","rt":"1821.1000003815","correct":false,"confidence":-1},{"trial_n":20,"span":2,"encoder":"98","distractor":"92","target":"absent","response":"present","rt":"423.5","correct":false,"confidence":-1},{"trial_n":21,"span":2,"encoder":"71","distractor":"21","target":"present","response":"present","rt":"496.70000076294","correct":true,"confidence":5},{"trial_n":22,"span":2,"encoder":"90","distractor":"93","target":"absent","response":"absent","rt":"2114.1999998093","correct":true,"confidence":5},{"trial_n":23,"span":3,"encoder":"520","distractor":"550","target":"present","response":"absent","rt":"4104.9000005722","correct":false,"confidence":4},{"trial_n":24,"span":2,"encoder":"53","distractor":"58","target":"present","response":"absent","rt":"4648.2999992371","correct":false,"confidence":2},{"trial_n":25,"span":2,"encoder":"78","distractor":"08","target":"present","response":"present","rt":"2503.3999996185","correct":true,"confidence":5},{"trial_n":26,"span":2,"encoder":"73","distractor":"72","target":"present","response":"present","rt":"1053.7999992371","correct":true,"confidence":5},{"trial_n":27,"span":3,"encoder":"922","distractor":"921","target":"absent","response":"absent","rt":"1529.0999994278","correct":true,"confidence":5},{"trial_n":28,"span":3,"encoder":"330","distractor":"331","target":"absent","response":"absent","rt":"1744.4000005722","correct":true,"confidence":5},{"trial_n":29,"span":4,"encoder":"0074","distractor":"0004","target":"absent","response":"absent","rt":"2357.8000001907","correct":true,"confidence":5},{"trial_n":30,"span":4,"encoder":"2766","distractor":"2066","target":"present","response":"present","rt":"1421.1000003815","correct":true,"confidence":3},{"trial_n":31,"span":5,"encoder":"70757","distractor":"70557","target":"present","response":"absent","rt":"3127.6000003815","correct":false,"confidence":2},{"trial_n":32,"span":4,"encoder":"4833","distractor":"4033","target":"absent","response":"absent","rt":"2885.5","correct":true,"confidence":5},{"trial_n":33,"span":4,"encoder":"7822","distractor":"7829","target":"absent","response":"absent","rt":"1215.1000003815","correct":true,"confidence":5},{"trial_n":34,"span":5,"encoder":"14078","distractor":"24078","target":"present","response":"present","rt":"2521.3999996185","correct":true,"confidence":3},{"trial_n":35,"span":5,"encoder":"66114","distractor":"62114","target":"absent","response":"present","rt":"2398.1999998093","correct":false,"confidence":3},{"trial_n":36,"span":4,"encoder":"9294","distractor":"3294","target":"present","response":"absent","rt":"671.39999961853","correct":false,"confidence":1},{"trial_n":37,"span":3,"encoder":"199","distractor":"197","target":"absent","response":"present","rt":"417.5","correct":false,"confidence":1},{"trial_n":38,"span":2,"encoder":"44","distractor":"47","target":"present","response":"absent","rt":"353.39999961853","correct":false,"confidence":1},{"trial_n":39,"span":2,"encoder":"87","distractor":"82","target":"present","response":"present","rt":"408.4000005722","correct":true,"confidence":1},{"trial_n":40,"span":2,"encoder":"12","distractor":"19","target":"present","response":"absent","rt":"338.19999980927","correct":false,"confidence":1},{"trial_n":41,"span":2,"encoder":"01","distractor":"08","target":"absent","response":"present","rt":"684.5","correct":false,"confidence":1},{"trial_n":42,"span":2,"encoder":"75","distractor":"55","target":"present","response":"absent","rt":"391.60000038147","correct":false,"confidence":1},{"trial_n":43,"span":2,"encoder":"35","distractor":"95","target":"present","response":"present","rt":"259.20000076294","correct":true,"confidence":1},{"trial_n":44,"span":2,"encoder":"59","distractor":"79","target":"present","response":"absent","rt":"259.39999961853","correct":false,"confidence":1},{"trial_n":45,"span":2,"encoder":"39","distractor":"32","target":"absent","response":"present","rt":"397.39999961853","correct":false,"confidence":1},{"trial_n":46,"span":2,"encoder":"71","distractor":"91","target":"absent","response":"absent","rt":"272.80000019073","correct":true,"confidence":1},{"trial_n":47,"span":2,"encoder":"56","distractor":"76","target":"absent","response":"present","rt":"786.39999961853","correct":false,"confidence":1},{"trial_n":48,"span":2,"encoder":"76","distractor":"73","target":"present","response":"absent","rt":"156.30000019073","correct":false,"confidence":1},{"trial_n":49,"span":2,"encoder":"16","distractor":"36","target":"present","response":"present","rt":"447.80000019073","correct":true,"confidence":1},{"trial_n":50,"span":2,"encoder":"82","distractor":"12","target":"present","response":"absent","rt":"56.799999237061","correct":false,"confidence":1},{"trial_n":51,"span":2,"encoder":"08","distractor":"88","target":"absent","response":"absent","rt":"368.5","correct":true,"confidence":1},{"trial_n":52,"span":2,"encoder":"27","distractor":"97","target":"present","response":"present","rt":"468.5","correct":true,"confidence":1},{"trial_n":53,"span":3,"encoder":"877","distractor":"977","target":"present","response":"absent","rt":"1145.6999998093","correct":false,"confidence":1},{"trial_n":54,"span":2,"encoder":"03","distractor":"13","target":"present","response":"present","rt":"97","correct":true,"confidence":1},{"trial_n":55,"span":2,"encoder":"76","distractor":"70","target":"present","response":"absent","rt":"31.699999809265","correct":false,"confidence":1},{"trial_n":56,"span":2,"encoder":"47","distractor":"27","target":"absent","response":"present","rt":"285.79999923706","correct":false,"confidence":1},{"trial_n":57,"span":2,"encoder":"89","distractor":"59","target":"present","response":"absent","rt":"220.70000076294","correct":false,"confidence":1},{"trial_n":58,"span":2,"encoder":"74","distractor":"54","target":"absent","response":"absent","rt":"1177.3999996185","correct":true,"confidence":1},{"trial_n":59,"span":2,"encoder":"68","distractor":"78","target":"absent","response":"absent","rt":"500.30000019073","correct":true,"confidence":1},{"trial_n":60,"span":3,"encoder":"347","distractor":"647","target":"absent","response":"absent","rt":"137.60000038147","correct":true,"confidence":1},{"trial_n":61,"span":3,"encoder":"413","distractor":"412","target":"present","response":"absent","rt":"383.5","correct":false,"confidence":1},{"trial_n":62,"span":2,"encoder":"26","distractor":"16","target":"present","response":"absent","rt":"1289.8000001907","correct":false,"confidence":1},{"trial_n":63,"span":2,"encoder":"30","distractor":"38","target":"present","response":"absent","rt":"1392.8999996185","correct":false,"confidence":1},{"trial_n":64,"span":2,"encoder":"21","distractor":"26","target":"present","response":"absent","rt":"890.70000076294","correct":false,"confidence":1},{"trial_n":65,"span":2,"encoder":"03","distractor":"93","target":"present","response":"absent","rt":"460.80000019073","correct":false,"confidence":1},{"trial_n":66,"span":2,"encoder":"78","distractor":"74","target":"absent","response":"absent","rt":"347.69999980927","correct":true,"confidence":1},{"trial_n":67,"span":2,"encoder":"39","distractor":"19","target":"absent","response":"present","rt":"159.39999961853","correct":false,"confidence":1},{"trial_n":68,"span":2,"encoder":"13","distractor":"93","target":"absent","response":"present","rt":"450.19999980927","correct":false,"confidence":1},{"trial_n":69,"span":2,"encoder":"13","distractor":"10","target":"absent","response":"present","rt":"733.30000019073","correct":false,"confidence":1},{"trial_n":70,"span":2,"encoder":"90","distractor":"96","target":"absent","response":"present","rt":"386","correct":false,"confidence":1},{"trial_n":71,"span":8,"encoder":"98357508","distractor":"98357308","target":"present","response":"present","rt":"8944.5","correct":true,"confidence":-1},{"trial_n":72,"span":8,"encoder":"43391156","distractor":"44391156","target":"present","response":"absent","rt":"536.10000038147","correct":false,"confidence":-1},{"trial_n":73,"span":7,"encoder":"5779475","distractor":"5779479","target":"absent","response":"absent","rt":"2725.8999996185","correct":true,"confidence":-1},{"trial_n":74,"span":7,"encoder":"8170017","distractor":"8110017","target":"absent","response":"present","rt":"817.80000019073","correct":false,"confidence":-1},{"trial_n":75,"span":6,"encoder":"260336","distractor":"264336","target":"present","response":"absent","rt":"1579.3999996185","correct":false,"confidence":-1},{"trial_n":76,"span":5,"encoder":"19670","distractor":"19676","target":"absent","response":"absent","rt":"83.89999961853","correct":true,"confidence":-1},{"trial_n":77,"span":5,"encoder":"61985","distractor":"81985","target":"absent","response":"absent","rt":"79.800000190735","correct":true,"confidence":-1},{"trial_n":78,"span":6,"encoder":"979808","distractor":"079808","target":"present","response":"present","rt":"825.39999961853","correct":true,"confidence":-1},{"trial_n":79,"span":6,"encoder":"585413","distractor":"580413","target":"absent","response":"absent","rt":"2253","correct":true,"confidence":-1},{"trial_n":80,"span":7,"encoder":"7741078","distractor":"3741078","target":"absent","response":"absent","rt":"1360.8000001907","correct":true,"confidence":-1},{"trial_n":81,"span":7,"encoder":"2517530","distractor":"2517510","target":"absent","response":"absent","rt":"1633.3000001907","correct":true,"confidence":-1},{"trial_n":82,"span":8,"encoder":"83208422","distractor":"83208622","target":"absent","response":"absent","rt":"814.70000076294","correct":true,"confidence":-1},{"trial_n":83,"span":8,"encoder":"31650030","distractor":"30650030","target":"present","response":"absent","rt":"2091.8000001907","correct":false,"confidence":-1},{"trial_n":84,"span":7,"encoder":"9684768","distractor":"9984768","target":"present","response":"absent","rt":"847.89999961853","correct":false,"confidence":-1},{"trial_n":85,"span":6,"encoder":"327882","distractor":"325882","target":"present","response":"absent","rt":"12339.100000381","correct":false,"confidence":-1},{"trial_n":86,"span":5,"encoder":"75843","distractor":"75842","target":"present","response":"absent","rt":"2110.5","correct":false,"confidence":-1},{"trial_n":87,"span":4,"encoder":"5093","distractor":"5097","target":"absent","response":"absent","rt":"1826.8000001907","correct":true,"confidence":-1},{"trial_n":88,"span":4,"encoder":"5980","distractor":"0980","target":"present","response":"absent","rt":"4681.3999996185","correct":false,"confidence":-1},{"trial_n":89,"span":3,"encoder":"673","distractor":"643","target":"absent","response":"absent","rt":"653.60000038147","correct":true,"confidence":-1},{"trial_n":90,"span":3,"encoder":"792","distractor":"732","target":"present","response":"absent","rt":"543.30000019073","correct":false,"confidence":-1},{"trial_n":91,"span":2,"encoder":"02","distractor":"05","target":"absent","response":"absent","rt":"382.69999980927","correct":true,"confidence":1},{"trial_n":92,"span":2,"encoder":"26","distractor":"22","target":"present","response":"absent","rt":"1827.6999998093","correct":false,"confidence":1},{"trial_n":93,"span":2,"encoder":"43","distractor":"83","target":"present","response":"absent","rt":"6318.8000001907","correct":false,"confidence":4},{"trial_n":94,"span":2,"encoder":"47","distractor":"77","target":"absent","response":"absent","rt":"480.5","correct":true,"confidence":4},{"trial_n":95,"span":2,"encoder":"65","distractor":"63","target":"absent","response":"absent","rt":"399.69999980927","correct":true,"confidence":4},{"trial_n":96,"span":3,"encoder":"032","distractor":"031","target":"absent","response":"absent","rt":"353.89999961853","correct":true,"confidence":4},{"trial_n":97,"span":3,"encoder":"850","distractor":"820","target":"absent","response":"absent","rt":"90.10000038147","correct":true,"confidence":4},{"trial_n":98,"span":4,"encoder":"1142","distractor":"7142","target":"present","response":"absent","rt":"1771","correct":false,"confidence":4},{"trial_n":99,"span":3,"encoder":"053","distractor":"043","target":"present","response":"absent","rt":"1341.5","correct":false,"confidence":4},{"trial_n":100,"span":2,"encoder":"50","distractor":"30","target":"present","response":"absent","rt":"1470.8000001907","correct":false,"confidence":4},{"trial_n":101,"span":2,"encoder":"52","distractor":"32","target":"present","response":"absent","rt":"7106.3000001907","correct":false,"confidence":1},{"trial_n":102,"span":2,"encoder":"61","distractor":"11","target":"absent","response":"absent","rt":"2131.5","correct":true,"confidence":1},{"trial_n":103,"span":2,"encoder":"97","distractor":"67","target":"present","response":"present","rt":"12847.400000572","correct":true,"confidence":1},{"trial_n":104,"span":3,"encoder":"729","distractor":"799","target":"present","response":"present","rt":"8547.6999998093","correct":true,"confidence":4},{"trial_n":105,"span":3,"encoder":"344","distractor":"384","target":"present","response":"absent","rt":"2704.8000001907","correct":false,"confidence":1},{"trial_n":106,"span":2,"encoder":"53","distractor":"73","target":"present","response":"present","rt":"2301.8999996185","correct":true,"confidence":1},{"trial_n":107,"span":2,"encoder":"13","distractor":"63","target":"present","response":"absent","rt":"3373.1999998093","correct":false,"confidence":1},{"trial_n":108,"span":2,"encoder":"14","distractor":"15","target":"present","response":"present","rt":"1821.6999998093","correct":true,"confidence":1},{"trial_n":109,"span":2,"encoder":"83","distractor":"43","target":"present","response":"present","rt":"370.9000005722","correct":true,"confidence":1},{"trial_n":110,"span":3,"encoder":"545","distractor":"544","target":"absent","response":"present","rt":"273.89999961853","correct":false,"confidence":1},{"trial_n":111,"span":2,"encoder":"84","distractor":"81","target":"absent","response":"absent","rt":"1298.8999996185","correct":true,"confidence":1},{"trial_n":112,"span":2,"encoder":"62","distractor":"82","target":"absent","response":"absent","rt":"1825.6999998093","correct":true,"confidence":1},{"trial_n":113,"span":3,"encoder":"073","distractor":"973","target":"present","response":"present","rt":"1324","correct":true,"confidence":1},{"trial_n":114,"span":3,"encoder":"464","distractor":"264","target":"absent","response":"absent","rt":"1703.5","correct":true,"confidence":1},{"trial_n":115,"span":4,"encoder":"6435","distractor":"6405","target":"absent","response":"present","rt":"797.39999961853","correct":false,"confidence":1},{"trial_n":116,"span":3,"encoder":"847","distractor":"841","target":"absent","response":"absent","rt":"1390.3000001907","correct":true,"confidence":1},{"trial_n":117,"span":3,"encoder":"971","distractor":"977","target":"absent","response":"absent","rt":"1277.4000005722","correct":true,"confidence":1},{"trial_n":118,"span":4,"encoder":"6285","distractor":"1285","target":"present","response":"absent","rt":"1159","correct":false,"confidence":1},{"trial_n":119,"span":3,"encoder":"707","distractor":"717","target":"present","response":"present","rt":"1262","correct":true,"confidence":4},{"trial_n":120,"span":3,"encoder":"660","distractor":"667","target":"present","response":"present","rt":"1330.1000003815","correct":true,"confidence":1},{"trial_n":121,"span":4,"encoder":"7414","distractor":"4414","target":"present","response":"present","rt":"1131.6999998093","correct":true,"confidence":1},{"trial_n":122,"span":4,"encoder":"1031","distractor":"1034","target":"absent","response":"present","rt":"338.39999961853","correct":false,"confidence":1},{"trial_n":123,"span":3,"encoder":"804","distractor":"806","target":"present","response":"present","rt":"2487.3000001907","correct":true,"confidence":1},{"trial_n":124,"span":3,"encoder":"682","distractor":"602","target":"present","response":"present","rt":"321.5","correct":true,"confidence":1},{"trial_n":125,"span":4,"encoder":"3077","distractor":"5077","target":"absent","response":"present","rt":"765.70000076294","correct":false,"confidence":1},{"trial_n":126,"span":3,"encoder":"425","distractor":"455","target":"present","response":"present","rt":"408.4000005722","correct":true,"confidence":1},{"trial_n":127,"span":3,"encoder":"074","distractor":"874","target":"present","response":"absent","rt":"366.30000019073","correct":false,"confidence":1},{"trial_n":128,"span":2,"encoder":"13","distractor":"93","target":"present","response":"absent","rt":"299.30000019073","correct":false,"confidence":1},{"trial_n":129,"span":2,"encoder":"56","distractor":"58","target":"absent","response":"present","rt":"244.4000005722","correct":false,"confidence":1},{"trial_n":130,"span":2,"encoder":"97","distractor":"93","target":"absent","response":"absent","rt":"250.19999980927","correct":true,"confidence":1},{"trial_n":131,"span":2,"encoder":"35","distractor":"65","target":"absent","response":"present","rt":"1349.8999996185","correct":false,"confidence":1},{"trial_n":132,"span":2,"encoder":"68","distractor":"58","target":"present","response":"absent","rt":"241.80000019073","correct":false,"confidence":1},{"trial_n":133,"span":2,"encoder":"44","distractor":"41","target":"present","response":"present","rt":"305.19999980927","correct":true,"confidence":1},{"trial_n":134,"span":2,"encoder":"73","distractor":"78","target":"absent","response":"absent","rt":"268.19999980927","correct":true,"confidence":1},{"trial_n":135,"span":3,"encoder":"850","distractor":"550","target":"absent","response":"present","rt":"352.80000019073","correct":false,"confidence":1},{"trial_n":136,"span":2,"encoder":"23","distractor":"43","target":"absent","response":"absent","rt":"374.5999994278","correct":true,"confidence":1},{"trial_n":137,"span":2,"encoder":"39","distractor":"31","target":"present","response":"present","rt":"258","correct":true,"confidence":1},{"trial_n":138,"span":3,"encoder":"960","distractor":"961","target":"absent","response":"absent","rt":"273.80000019073","correct":true,"confidence":1},{"trial_n":139,"span":3,"encoder":"193","distractor":"173","target":"absent","response":"absent","rt":"555","correct":true,"confidence":1},{"trial_n":140,"span":4,"encoder":"0381","distractor":"0281","target":"absent","response":"absent","rt":"126.69999980927","correct":true,"confidence":1}]