[{"trial_n":1,"n_dots":4.25,"target":"left","response":"right","rt":6198,"correct":false,"confidence":-1},{"trial_n":2,"n_dots":4.25,"target":"left","response":"right","rt":993,"correct":false,"confidence":-1},{"trial_n":3,"n_dots":4.65,"target":"right","response":"left","rt":745.00000000001,"correct":false,"confidence":-1},{"trial_n":4,"n_dots":5.05,"target":"left","response":"left","rt":745,"correct":true,"confidence":-1},{"trial_n":5,"n_dots":5.05,"target":"left","response":"left","rt":223,"correct":true,"confidence":-1},{"trial_n":6,"n_dots":4.65,"target":"left","response":"left","rt":440,"correct":true,"confidence":-1},{"trial_n":7,"n_dots":4.65,"target":"left","response":"left","rt":456,"correct":true,"confidence":-1},{"trial_n":8,"n_dots":4.45,"target":"right","response":"left","rt":416,"correct":false,"confidence":-1},{"trial_n":9,"n_dots":4.65,"target":"right","response":"right","rt":794,"correct":true,"confidence":-1},{"trial_n":10,"n_dots":4.65,"target":"left","response":"left","rt":215.99999999999,"correct":true,"confidence":-1},{"trial_n":11,"n_dots":4.45,"target":"right","response":"left","rt":745,"correct":false,"confidence":-1},{"trial_n":12,"n_dots":4.65,"target":"left","response":"left","rt":688,"correct":true,"confidence":-1},{"trial_n":13,"n_dots":4.65,"target":"left","response":"left","rt":300,"correct":true,"confidence":-1},{"trial_n":14,"n_dots":4.55,"target":"left","response":"left","rt":720,"correct":true,"confidence":-1},{"trial_n":15,"n_dots":4.55,"target":"left","response":"left","rt":335.99999999999,"correct":true,"confidence":-1},{"trial_n":16,"n_dots":4.45,"target":"right","response":"right","rt":615,"correct":true,"confidence":-1},{"trial_n":17,"n_dots":4.45,"target":"right","response":"right","rt":768,"correct":true,"confidence":-1},{"trial_n":18,"n_dots":4.35,"target":"left","response":"left","rt":1178,"correct":true,"confidence":-1},{"trial_n":19,"n_dots":4.35,"target":"right","response":"left","rt":649.99999999999,"correct":false,"confidence":-1},{"trial_n":20,"n_dots":4.45,"target":"left","response":"left","rt":199,"correct":true,"confidence":-1},{"trial_n":21,"n_dots":4.45,"target":"right","response":"right","rt":645.99999999997,"correct":true,"confidence":3},{"trial_n":22,"n_dots":4.35,"target":"right","response":"right","rt":639,"correct":true,"confidence":5},{"trial_n":23,"n_dots":4.35,"target":"left","response":"left","rt":316,"correct":true,"confidence":5},{"trial_n":24,"n_dots":4.25,"target":"right","response":"right","rt":704,"correct":true,"confidence":2},{"trial_n":25,"n_dots":4.25,"target":"right","response":"right","rt":534.00000000003,"correct":true,"confidence":4},{"trial_n":26,"n_dots":4.15,"target":"right","response":"right","rt":681,"correct":true,"confidence":3},{"trial_n":27,"n_dots":4.15,"target":"right","response":"right","rt":739,"correct":true,"confidence":4},{"trial_n":28,"n_dots":4.05,"target":"right","response":"right","rt":1046,"correct":true,"confidence":2},{"trial_n":29,"n_dots":4.05,"target":"left","response":"left","rt":549.99999999997,"correct":true,"confidence":5},{"trial_n":30,"n_dots":3.95,"target":"left","response":"left","rt":518,"correct":true,"confidence":5},{"trial_n":31,"n_dots":3.95,"target":"right","response":"right","rt":983.99999999997,"correct":true,"confidence":1},{"trial_n":32,"n_dots":3.85,"target":"left","response":"left","rt":704,"correct":true,"confidence":5},{"trial_n":33,"n_dots":3.85,"target":"right","response":"left","rt":809,"correct":false,"confidence":4},{"trial_n":34,"n_dots":3.95,"target":"left","response":"left","rt":632.99999999997,"correct":true,"confidence":5},{"trial_n":35,"n_dots":3.95,"target":"left","response":"left","rt":794,"correct":true,"confidence":5},{"trial_n":36,"n_dots":3.85,"target":"right","response":"left","rt":890,"correct":false,"confidence":3},{"trial_n":37,"n_dots":3.95,"target":"left","response":"left","rt":642,"correct":true,"confidence":5},{"trial_n":38,"n_dots":3.95,"target":"right","response":"left","rt":1308,"correct":false,"confidence":5},{"trial_n":39,"n_dots":4.05,"target":"left","response":"left","rt":595,"correct":true,"confidence":5},{"trial_n":40,"n_dots":4.05,"target":"left","response":"left","rt":634,"correct":true,"confidence":4},{"trial_n":41,"n_dots":3.95,"target":"left","response":"left","rt":562.00000000003,"correct":true,"confidence":4},{"trial_n":42,"n_dots":3.95,"target":"right","response":"left","rt":1315,"correct":false,"confidence":2},{"trial_n":43,"n_dots":4.05,"target":"right","response":"right","rt":3113,"correct":true,"confidence":1},{"trial_n":44,"n_dots":4.05,"target":"left","response":"left","rt":745.99999999997,"correct":true,"confidence":4},{"trial_n":45,"n_dots":3.95,"target":"left","response":"left","rt":682,"correct":true,"confidence":5},{"trial_n":46,"n_dots":3.95,"target":"left","response":"left","rt":862.00000000006,"correct":true,"confidence":4},{"trial_n":47,"n_dots":3.85,"target":"left","response":"left","rt":797,"correct":true,"confidence":5},{"trial_n":48,"n_dots":3.85,"target":"right","response":"left","rt":1165,"correct":false,"confidence":2},{"trial_n":49,"n_dots":3.95,"target":"right","response":"left","rt":1213.0000000001,"correct":false,"confidence":3},{"trial_n":50,"n_dots":4.05,"target":"left","response":"left","rt":764.99999999994,"correct":true,"confidence":4},{"trial_n":51,"n_dots":4.05,"target":"right","response":"left","rt":997,"correct":false,"confidence":1},{"trial_n":52,"n_dots":4.15,"target":"right","response":"right","rt":1268.0000000001,"correct":true,"confidence":3},{"trial_n":53,"n_dots":4.15,"target":"right","response":"left","rt":1871,"correct":false,"confidence":2},{"trial_n":54,"n_dots":4.25,"target":"left","response":"left","rt":796,"correct":true,"confidence":4},{"trial_n":55,"n_dots":4.25,"target":"right","response":"right","rt":812,"correct":true,"confidence":3},{"trial_n":56,"n_dots":4.15,"target":"left","response":"left","rt":572,"correct":true,"confidence":5},{"trial_n":57,"n_dots":4.15,"target":"right","response":"right","rt":3233,"correct":true,"confidence":1},{"trial_n":58,"n_dots":4.05,"target":"right","response":"right","rt":765,"correct":true,"confidence":4},{"trial_n":59,"n_dots":4.05,"target":"left","response":"left","rt":802,"correct":true,"confidence":5},{"trial_n":60,"n_dots":3.95,"target":"left","response":"left","rt":755,"correct":true,"confidence":3},{"trial_n":61,"n_dots":3.95,"target":"left","response":"left","rt":586,"correct":true,"confidence":5},{"trial_n":62,"n_dots":3.85,"target":"right","response":"right","rt":482,"correct":true,"confidence":2},{"trial_n":63,"n_dots":3.85,"target":"right","response":"right","rt":836,"correct":true,"confidence":4},{"trial_n":64,"n_dots":3.75,"target":"left","response":"left","rt":419,"correct":true,"confidence":5},{"trial_n":65,"n_dots":3.75,"target":"right","response":"left","rt":515,"correct":false,"confidence":2},{"trial_n":66,"n_dots":3.85,"target":"left","response":"left","rt":154,"correct":true,"confidence":4},{"trial_n":67,"n_dots":3.85,"target":"right","response":"right","rt":932,"correct":true,"confidence":1},{"trial_n":68,"n_dots":3.75,"target":"right","response":"left","rt":515,"correct":false,"confidence":4},{"trial_n":69,"n_dots":3.85,"target":"left","response":"left","rt":482,"correct":true,"confidence":5},{"trial_n":70,"n_dots":3.85,"target":"left","response":"left","rt":315.00000000012,"correct":true,"confidence":5},{"trial_n":71,"n_dots":3.75,"target":"right","response":"left","rt":635,"correct":false,"confidence":2},{"trial_n":72,"n_dots":3.85,"target":"left","response":"left","rt":699.00000000012,"correct":true,"confidence":4},{"trial_n":73,"n_dots":3.85,"target":"right","response":"left","rt":743.99999999988,"correct":false,"confidence":5},{"trial_n":74,"n_dots":3.95,"target":"right","response":"left","rt":1245,"correct":false,"confidence":2},{"trial_n":75,"n_dots":4.05,"target":"left","response":"left","rt":266,"correct":true,"confidence":5},{"trial_n":76,"n_dots":4.05,"target":"left","response":"left","rt":475,"correct":true,"confidence":4},{"trial_n":77,"n_dots":3.95,"target":"right","response":"left","rt":531,"correct":false,"confidence":2},{"trial_n":78,"n_dots":4.05,"target":"right","response":"right","rt":476,"correct":true,"confidence":3},{"trial_n":79,"n_dots":4.05,"target":"right","response":"right","rt":514,"correct":true,"confidence":2},{"trial_n":80,"n_dots":3.95,"target":"left","response":"left","rt":323,"correct":true,"confidence":4},{"trial_n":81,"n_dots":3.95,"target":"right","response":"left","rt":667.00000000012,"correct":false,"confidence":1},{"trial_n":82,"n_dots":4.05,"target":"right","response":"right","rt":828,"correct":true,"confidence":3},{"trial_n":83,"n_dots":4.05,"target":"right","response":"right","rt":491,"correct":true,"confidence":2},{"trial_n":84,"n_dots":3.95,"target":"right","response":"right","rt":516.00000000012,"correct":true,"confidence":4},{"trial_n":85,"n_dots":3.95,"target":"left","response":"left","rt":379,"correct":true,"confidence":5},{"trial_n":86,"n_dots":3.85,"target":"left","response":"left","rt":322,"correct":true,"confidence":2},{"trial_n":87,"n_dots":3.85,"target":"left","response":"left","rt":370.00000000012,"correct":true,"confidence":4},{"trial_n":88,"n_dots":3.75,"target":"left","response":"left","rt":500,"correct":true,"confidence":4},{"trial_n":89,"n_dots":3.75,"target":"left","response":"left","rt":308,"correct":true,"confidence":5},{"trial_n":90,"n_dots":3.65,"target":"right","response":"left","rt":452,"correct":false,"confidence":2},{"trial_n":91,"n_dots":3.75,"target":"right","response":"right","rt":525,"correct":true,"confidence":3},{"trial_n":92,"n_dots":3.75,"target":"left","response":"left","rt":259,"correct":true,"confidence":4},{"trial_n":93,"n_dots":3.65,"target":"left","response":"left","rt":475.00000000012,"correct":true,"confidence":5},{"trial_n":94,"n_dots":3.65,"target":"right","response":"left","rt":899,"correct":false,"confidence":2},{"trial_n":95,"n_dots":3.75,"target":"left","response":"left","rt":378.99999999988,"correct":true,"confidence":5},{"trial_n":96,"n_dots":3.75,"target":"left","response":"left","rt":284,"correct":true,"confidence":5},{"trial_n":97,"n_dots":3.65,"target":"right","response":"left","rt":683,"correct":false,"confidence":4},{"trial_n":98,"n_dots":3.75,"target":"right","response":"left","rt":668.00000000012,"correct":false,"confidence":4},{"trial_n":99,"n_dots":3.85,"target":"right","response":"left","rt":820,"correct":false,"confidence":2},{"trial_n":100,"n_dots":3.95,"target":"right","response":"right","rt":451,"correct":true,"confidence":2},{"trial_n":101,"n_dots":3.95,"target":"left","response":"left","rt":588.00000000012,"correct":true,"confidence":4},{"trial_n":102,"n_dots":3.85,"target":"right","response":"left","rt":1420,"correct":false,"confidence":2},{"trial_n":103,"n_dots":3.95,"target":"left","response":"left","rt":673,"correct":true,"confidence":4},{"trial_n":104,"n_dots":3.95,"target":"left","response":"left","rt":571,"correct":true,"confidence":5},{"trial_n":105,"n_dots":3.85,"target":"right","response":"left","rt":668,"correct":false,"confidence":2},{"trial_n":106,"n_dots":3.95,"target":"right","response":"left","rt":950,"correct":false,"confidence":5},{"trial_n":107,"n_dots":4.05,"target":"right","response":"right","rt":685,"correct":true,"confidence":4},{"trial_n":108,"n_dots":4.05,"target":"left","response":"left","rt":595.00000000012,"correct":true,"confidence":5},{"trial_n":109,"n_dots":3.95,"target":"left","response":"left","rt":427,"correct":true,"confidence":4},{"trial_n":110,"n_dots":3.95,"target":"right","response":"right","rt":419.00000000012,"correct":true,"confidence":3},{"trial_n":111,"n_dots":3.85,"target":"left","response":"left","rt":668,"correct":true,"confidence":3},{"trial_n":112,"n_dots":3.85,"target":"right","response":"right","rt":3310,"correct":true,"confidence":2},{"trial_n":113,"n_dots":3.75,"target":"right","response":"right","rt":1093.9999999999,"correct":true,"confidence":2},{"trial_n":114,"n_dots":3.75,"target":"left","response":"left","rt":821.00000000012,"correct":true,"confidence":4},{"trial_n":115,"n_dots":3.65,"target":"right","response":"right","rt":612,"correct":true,"confidence":5},{"trial_n":116,"n_dots":3.65,"target":"left","response":"left","rt":593.99999999988,"correct":true,"confidence":4},{"trial_n":117,"n_dots":3.55,"target":"right","response":"right","rt":595,"correct":true,"confidence":3},{"trial_n":118,"n_dots":3.55,"target":"right","response":"right","rt":1230.0000000001,"correct":true,"confidence":1},{"trial_n":119,"n_dots":3.45,"target":"left","response":"left","rt":910,"correct":true,"confidence":4},{"trial_n":120,"n_dots":3.45,"target":"left","response":"left","rt":643.00000000012,"correct":true,"confidence":4}]