[{"trial_n":1,"span":8,"encoder":"91253349","distractor":"91233349","target":"present","response":"present","rt":"4510","correct":true,"confidence":-1},{"trial_n":2,"span":8,"encoder":"55231421","distractor":"55231471","target":"present","response":"absent","rt":"2880","correct":false,"confidence":-1},{"trial_n":3,"span":6,"encoder":"518854","distractor":"118854","target":"absent","response":"absent","rt":"1488","correct":true,"confidence":-1},{"trial_n":4,"span":6,"encoder":"190424","distractor":"190124","target":"absent","response":"present","rt":"2600","correct":false,"confidence":-1},{"trial_n":5,"span":4,"encoder":"6226","distractor":"6626","target":"present","response":"present","rt":"1191","correct":true,"confidence":-1},{"trial_n":6,"span":4,"encoder":"9799","distractor":"9791","target":"present","response":"present","rt":"711","correct":true,"confidence":-1},{"trial_n":7,"span":6,"encoder":"646024","distractor":"646014","target":"absent","response":"present","rt":"1085","correct":false,"confidence":-1},{"trial_n":8,"span":4,"encoder":"7526","distractor":"7521","target":"present","response":"present","rt":"1184","correct":true,"confidence":-1},{"trial_n":9,"span":4,"encoder":"2910","distractor":"2010","target":"present","response":"present","rt":"669","correct":true,"confidence":-1},{"trial_n":10,"span":6,"encoder":"254628","distractor":"252628","target":"absent","response":"present","rt":"798","correct":false,"confidence":-1},{"trial_n":11,"span":4,"encoder":"0098","distractor":"0898","target":"absent","response":"absent","rt":"1517","correct":true,"confidence":-1},{"trial_n":12,"span":4,"encoder":"3204","distractor":"3304","target":"present","response":"present","rt":"857","correct":true,"confidence":-1},{"trial_n":13,"span":5,"encoder":"05916","distractor":"95916","target":"present","response":"present","rt":"764","correct":true,"confidence":-1},{"trial_n":14,"span":5,"encoder":"10021","distractor":"10031","target":"present","response":"present","rt":"779","correct":true,"confidence":-1},{"trial_n":15,"span":6,"encoder":"625471","distractor":"695471","target":"present","response":"absent","rt":"2313","correct":false,"confidence":-1},{"trial_n":16,"span":5,"encoder":"45526","distractor":"45528","target":"present","response":"present","rt":"817","correct":true,"confidence":-1},{"trial_n":17,"span":5,"encoder":"54251","distractor":"54255","target":"absent","response":"present","rt":"668","correct":false,"confidence":-1},{"trial_n":18,"span":4,"encoder":"5908","distractor":"5948","target":"absent","response":"present","rt":"894","correct":false,"confidence":-1},{"trial_n":19,"span":3,"encoder":"801","distractor":"808","target":"absent","response":"absent","rt":"1031","correct":true,"confidence":-1},{"trial_n":20,"span":3,"encoder":"018","distractor":"088","target":"absent","response":"absent","rt":"1207","correct":true,"confidence":-1},{"trial_n":21,"span":4,"encoder":"2969","distractor":"2369","target":"absent","response":"absent","rt":"2526","correct":true,"confidence":5},{"trial_n":22,"span":4,"encoder":"9378","distractor":"9377","target":"present","response":"present","rt":"3098","correct":true,"confidence":5},{"trial_n":23,"span":5,"encoder":"55557","distractor":"55587","target":"present","response":"present","rt":"931","correct":true,"confidence":5},{"trial_n":24,"span":5,"encoder":"67749","distractor":"67747","target":"absent","response":"absent","rt":"2092","correct":true,"confidence":1},{"trial_n":25,"span":6,"encoder":"165651","distractor":"365651","target":"absent","response":"absent","rt":"6890","correct":true,"confidence":3},{"trial_n":26,"span":6,"encoder":"964148","distractor":"964142","target":"present","response":"present","rt":"2788","correct":true,"confidence":5},{"trial_n":27,"span":7,"encoder":"2516882","distractor":"2513882","target":"present","response":"present","rt":"2632","correct":true,"confidence":4},{"trial_n":28,"span":7,"encoder":"9504123","distractor":"9594123","target":"absent","response":"present","rt":"1549","correct":false,"confidence":5},{"trial_n":29,"span":6,"encoder":"580166","distractor":"580106","target":"absent","response":"absent","rt":"2824","correct":true,"confidence":4},{"trial_n":30,"span":6,"encoder":"947629","distractor":"947627","target":"absent","response":"absent","rt":"5190","correct":true,"confidence":4},{"trial_n":31,"span":7,"encoder":"0373044","distractor":"0373054","target":"absent","response":"absent","rt":"1465","correct":true,"confidence":5},{"trial_n":32,"span":7,"encoder":"2313945","distractor":"0313945","target":"absent","response":"present","rt":"6279","correct":false,"confidence":2},{"trial_n":33,"span":6,"encoder":"645507","distractor":"645207","target":"absent","response":"absent","rt":"3128","correct":true,"confidence":4},{"trial_n":34,"span":6,"encoder":"680364","distractor":"680366","target":"present","response":"present","rt":"4818","correct":true,"confidence":5},{"trial_n":35,"span":7,"encoder":"3002115","distractor":"3012115","target":"absent","response":"absent","rt":"9691","correct":true,"confidence":2},{"trial_n":36,"span":7,"encoder":"0103623","distractor":"0103613","target":"absent","response":"present","rt":"5339","correct":false,"confidence":5},{"trial_n":37,"span":6,"encoder":"998294","distractor":"998694","target":"present","response":"present","rt":"3316","correct":true,"confidence":5},{"trial_n":38,"span":6,"encoder":"600830","distractor":"600800","target":"present","response":"present","rt":"5506","correct":true,"confidence":5},{"trial_n":39,"span":7,"encoder":"5326125","distractor":"5316125","target":"present","response":"present","rt":"5369","correct":true,"confidence":5},{"trial_n":40,"span":7,"encoder":"2160689","distractor":"2160680","target":"absent","response":"absent","rt":"2161","correct":true,"confidence":5},{"trial_n":41,"span":8,"encoder":"25095533","distractor":"20095533","target":"absent","response":"absent","rt":"3536","correct":true,"confidence":4},{"trial_n":42,"span":8,"encoder":"35622247","distractor":"35602247","target":"present","response":"present","rt":"1955","correct":true,"confidence":3},{"trial_n":43,"span":9,"encoder":"742494749","distractor":"742494741","target":"present","response":"present","rt":"4521","correct":true,"confidence":3},{"trial_n":44,"span":9,"encoder":"504373887","distractor":"504073887","target":"absent","response":"present","rt":"5279","correct":false,"confidence":4},{"trial_n":45,"span":8,"encoder":"62638266","distractor":"62638268","target":"present","response":"absent","rt":"4391","correct":false,"confidence":2},{"trial_n":46,"span":7,"encoder":"9631910","distractor":"9691910","target":"present","response":"present","rt":"3622","correct":true,"confidence":5},{"trial_n":47,"span":7,"encoder":"4708562","distractor":"4708561","target":"present","response":"present","rt":"4299","correct":true,"confidence":5},{"trial_n":48,"span":8,"encoder":"17497230","distractor":"17497030","target":"absent","response":"present","rt":"5024","correct":false,"confidence":4},{"trial_n":49,"span":7,"encoder":"6318790","distractor":"6318700","target":"present","response":"present","rt":"4535","correct":true,"confidence":5},{"trial_n":50,"span":7,"encoder":"2189059","distractor":"2189029","target":"absent","response":"absent","rt":"5012","correct":true,"confidence":3},{"trial_n":51,"span":8,"encoder":"48753868","distractor":"48753668","target":"present","response":"present","rt":"3489","correct":true,"confidence":3},{"trial_n":52,"span":8,"encoder":"80074255","distractor":"80274255","target":"absent","response":"absent","rt":"5054","correct":true,"confidence":4},{"trial_n":53,"span":9,"encoder":"444885722","distractor":"444885729","target":"absent","response":"absent","rt":"4418","correct":true,"confidence":3},{"trial_n":54,"span":9,"encoder":"591687623","distractor":"598687623","target":"present","response":"present","rt":"7519","correct":true,"confidence":3},{"trial_n":55,"span":10,"encoder":"2115886199","distractor":"2115886169","target":"present","response":"present","rt":"4269","correct":true,"confidence":3},{"trial_n":56,"span":10,"encoder":"7389772578","distractor":"7389472578","target":"absent","response":"absent","rt":"3008","correct":true,"confidence":3},{"trial_n":57,"span":11,"encoder":"80559410870","distractor":"80559411870","target":"absent","response":"present","rt":"3346","correct":false,"confidence":5},{"trial_n":58,"span":10,"encoder":"4389981485","distractor":"4889981485","target":"present","response":"absent","rt":"6654","correct":false,"confidence":3},{"trial_n":59,"span":9,"encoder":"742870693","distractor":"742870993","target":"absent","response":"absent","rt":"2342","correct":true,"confidence":5},{"trial_n":60,"span":9,"encoder":"416714647","distractor":"416714617","target":"present","response":"present","rt":"2389","correct":true,"confidence":5},{"trial_n":61,"span":10,"encoder":"8628395940","distractor":"8628695940","target":"absent","response":"present","rt":"1439","correct":false,"confidence":4},{"trial_n":62,"span":9,"encoder":"335341197","distractor":"335041197","target":"present","response":"present","rt":"3507","correct":true,"confidence":4},{"trial_n":63,"span":9,"encoder":"406138188","distractor":"416138188","target":"absent","response":"present","rt":"1710","correct":false,"confidence":5},{"trial_n":64,"span":8,"encoder":"60713972","distractor":"60713971","target":"absent","response":"absent","rt":"2186","correct":true,"confidence":4},{"trial_n":65,"span":8,"encoder":"65120973","distractor":"65120979","target":"present","response":"present","rt":"2778","correct":true,"confidence":3},{"trial_n":66,"span":9,"encoder":"208313118","distractor":"208316118","target":"present","response":"present","rt":"1746","correct":true,"confidence":4},{"trial_n":67,"span":9,"encoder":"571356440","distractor":"571326440","target":"absent","response":"present","rt":"1839","correct":false,"confidence":3},{"trial_n":68,"span":8,"encoder":"49495152","distractor":"49495552","target":"present","response":"present","rt":"4665","correct":true,"confidence":5},{"trial_n":69,"span":8,"encoder":"26805995","distractor":"26505995","target":"present","response":"present","rt":"1893","correct":true,"confidence":5},{"trial_n":70,"span":9,"encoder":"608601969","distractor":"608605969","target":"present","response":"present","rt":"2351","correct":true,"confidence":5},{"trial_n":71,"span":8,"encoder":"36291336","distractor":"32291336","target":"present","response":"present","rt":"5878","correct":true,"confidence":-1},{"trial_n":72,"span":8,"encoder":"37590536","distractor":"67590536","target":"present","response":"present","rt":"2332","correct":true,"confidence":-1},{"trial_n":73,"span":9,"encoder":"342963305","distractor":"342963301","target":"absent","response":"present","rt":"4727","correct":false,"confidence":-1},{"trial_n":74,"span":8,"encoder":"85582740","distractor":"95582740","target":"absent","response":"present","rt":"3273","correct":false,"confidence":-1},{"trial_n":75,"span":7,"encoder":"5186850","distractor":"1186850","target":"present","response":"present","rt":"1670","correct":true,"confidence":-1},{"trial_n":76,"span":7,"encoder":"6336734","distractor":"6336739","target":"absent","response":"absent","rt":"6226","correct":true,"confidence":-1},{"trial_n":77,"span":8,"encoder":"96966204","distractor":"96966205","target":"present","response":"present","rt":"1751","correct":true,"confidence":-1},{"trial_n":78,"span":8,"encoder":"51560423","distractor":"51530423","target":"absent","response":"absent","rt":"4455","correct":true,"confidence":-1},{"trial_n":79,"span":9,"encoder":"565901216","distractor":"565904216","target":"absent","response":"absent","rt":"4214","correct":true,"confidence":-1},{"trial_n":80,"span":9,"encoder":"493876651","distractor":"093876651","target":"absent","response":"absent","rt":"3455","correct":true,"confidence":-1},{"trial_n":81,"span":10,"encoder":"8088701798","distractor":"8088701795","target":"present","response":"absent","rt":"4770","correct":false,"confidence":-1},{"trial_n":82,"span":9,"encoder":"576260898","distractor":"574260898","target":"present","response":"present","rt":"2080","correct":true,"confidence":-1},{"trial_n":83,"span":9,"encoder":"085732407","distractor":"015732407","target":"present","response":"present","rt":"5657","correct":true,"confidence":-1},{"trial_n":84,"span":10,"encoder":"1905508808","distractor":"1905578808","target":"present","response":"present","rt":"1220","correct":true,"confidence":-1},{"trial_n":85,"span":10,"encoder":"5094010770","distractor":"5094010780","target":"present","response":"present","rt":"2441","correct":true,"confidence":-1},{"trial_n":86,"span":11,"encoder":"22257361086","distractor":"72257361086","target":"absent","response":"present","rt":"1564","correct":false,"confidence":-1},{"trial_n":87,"span":10,"encoder":"4025663206","distractor":"4025663209","target":"absent","response":"present","rt":"536","correct":false,"confidence":-1},{"trial_n":88,"span":9,"encoder":"484978163","distractor":"784978163","target":"present","response":"present","rt":"949","correct":true,"confidence":-1},{"trial_n":89,"span":9,"encoder":"495240548","distractor":"490240548","target":"absent","response":"absent","rt":"1705","correct":true,"confidence":-1},{"trial_n":90,"span":10,"encoder":"0284381904","distractor":"0284387904","target":"absent","response":"present","rt":"1817","correct":false,"confidence":-1},{"trial_n":91,"span":9,"encoder":"793971724","distractor":"763971724","target":"absent","response":"absent","rt":"3281","correct":true,"confidence":4},{"trial_n":92,"span":9,"encoder":"943813985","distractor":"943813981","target":"present","response":"present","rt":"8229","correct":true,"confidence":5},{"trial_n":93,"span":10,"encoder":"2659051255","distractor":"2679051255","target":"present","response":"present","rt":"14468","correct":true,"confidence":4},{"trial_n":94,"span":10,"encoder":"5421714577","distractor":"5421774577","target":"absent","response":"absent","rt":"8334","correct":true,"confidence":3},{"trial_n":95,"span":11,"encoder":"13606049695","distractor":"13606043695","target":"present","response":"absent","rt":"6986","correct":false,"confidence":1},{"trial_n":96,"span":10,"encoder":"5610003703","distractor":"3610003703","target":"present","response":"absent","rt":"14294","correct":false,"confidence":1},{"trial_n":97,"span":9,"encoder":"186098477","distractor":"786098477","target":"present","response":"present","rt":"6758","correct":true,"confidence":4},{"trial_n":98,"span":9,"encoder":"721350586","distractor":"721390586","target":"present","response":"present","rt":"8935","correct":true,"confidence":2},{"trial_n":99,"span":10,"encoder":"6747542169","distractor":"6747542869","target":"present","response":"present","rt":"15234","correct":true,"confidence":4},{"trial_n":100,"span":10,"encoder":"2401835091","distractor":"6401835091","target":"absent","response":"absent","rt":"9266","correct":true,"confidence":2},{"trial_n":101,"span":11,"encoder":"23829209673","distractor":"23829259673","target":"present","response":"absent","rt":"17691","correct":false,"confidence":1},{"trial_n":102,"span":10,"encoder":"6186704389","distractor":"6186204389","target":"absent","response":"present","rt":"21940","correct":false,"confidence":3},{"trial_n":103,"span":9,"encoder":"282745011","distractor":"288745011","target":"present","response":"absent","rt":"4586","correct":false,"confidence":4},{"trial_n":104,"span":8,"encoder":"07868125","distractor":"07862125","target":"absent","response":"absent","rt":"2996","correct":true,"confidence":3},{"trial_n":105,"span":8,"encoder":"17634529","distractor":"17636529","target":"present","response":"absent","rt":"5669","correct":false,"confidence":2},{"trial_n":106,"span":7,"encoder":"4136255","distractor":"3136255","target":"present","response":"present","rt":"2847","correct":true,"confidence":3},{"trial_n":107,"span":7,"encoder":"0453597","distractor":"9453597","target":"absent","response":"present","rt":"1204","correct":false,"confidence":1},{"trial_n":108,"span":6,"encoder":"426495","distractor":"406495","target":"absent","response":"absent","rt":"915","correct":true,"confidence":3},{"trial_n":109,"span":6,"encoder":"973143","distractor":"978143","target":"absent","response":"present","rt":"5515","correct":false,"confidence":3},{"trial_n":110,"span":5,"encoder":"11032","distractor":"11052","target":"present","response":"present","rt":"2450","correct":true,"confidence":4},{"trial_n":111,"span":5,"encoder":"46803","distractor":"46807","target":"present","response":"present","rt":"3205","correct":true,"confidence":4},{"trial_n":112,"span":6,"encoder":"712400","distractor":"772400","target":"absent","response":"absent","rt":"2225","correct":true,"confidence":4},{"trial_n":113,"span":6,"encoder":"582771","distractor":"582721","target":"present","response":"present","rt":"3069","correct":true,"confidence":4},{"trial_n":114,"span":7,"encoder":"2122412","distractor":"2122402","target":"present","response":"present","rt":"3362","correct":true,"confidence":3},{"trial_n":115,"span":7,"encoder":"8391687","distractor":"8397687","target":"absent","response":"absent","rt":"3537","correct":true,"confidence":3},{"trial_n":116,"span":8,"encoder":"05531812","distractor":"05539812","target":"present","response":"present","rt":"4112","correct":true,"confidence":4},{"trial_n":117,"span":8,"encoder":"29866824","distractor":"23866824","target":"absent","response":"absent","rt":"6170","correct":true,"confidence":2},{"trial_n":118,"span":9,"encoder":"103489523","distractor":"103482523","target":"present","response":"present","rt":"7480","correct":true,"confidence":2},{"trial_n":119,"span":9,"encoder":"373274487","distractor":"371274487","target":"absent","response":"absent","rt":"4126","correct":true,"confidence":3},{"trial_n":120,"span":10,"encoder":"9381844524","distractor":"8381844524","target":"absent","response":"absent","rt":"3296","correct":true,"confidence":3},{"trial_n":121,"span":10,"encoder":"5868113667","distractor":"4868113667","target":"absent","response":"absent","rt":"2502","correct":true,"confidence":4},{"trial_n":122,"span":11,"encoder":"43434801052","distractor":"43414801052","target":"present","response":"present","rt":"5796","correct":true,"confidence":4},{"trial_n":123,"span":11,"encoder":"85287802104","distractor":"85387802104","target":"present","response":"absent","rt":"19313","correct":false,"confidence":4},{"trial_n":124,"span":10,"encoder":"9234570362","distractor":"9234570392","target":"absent","response":"absent","rt":"6746","correct":true,"confidence":2},{"trial_n":125,"span":10,"encoder":"1582725453","distractor":"1582722453","target":"present","response":"absent","rt":"1732","correct":false,"confidence":3},{"trial_n":126,"span":9,"encoder":"554703998","distractor":"554723998","target":"present","response":"present","rt":"3920","correct":true,"confidence":4},{"trial_n":127,"span":9,"encoder":"944429101","distractor":"934429101","target":"absent","response":"absent","rt":"2914","correct":true,"confidence":4},{"trial_n":128,"span":10,"encoder":"7800015824","distractor":"9800015824","target":"absent","response":"present","rt":"7111","correct":false,"confidence":3},{"trial_n":129,"span":9,"encoder":"541607182","distractor":"547607182","target":"absent","response":"absent","rt":"2675","correct":true,"confidence":3},{"trial_n":130,"span":9,"encoder":"482578857","distractor":"482578853","target":"absent","response":"absent","rt":"1554","correct":true,"confidence":3},{"trial_n":131,"span":10,"encoder":"6105608263","distractor":"6105208263","target":"absent","response":"absent","rt":"12871","correct":true,"confidence":1},{"trial_n":132,"span":10,"encoder":"4229237891","distractor":"3229237891","target":"absent","response":"absent","rt":"1494","correct":true,"confidence":3},{"trial_n":133,"span":11,"encoder":"97286398627","distractor":"07286398627","target":"present","response":"present","rt":"2527","correct":true,"confidence":2},{"trial_n":134,"span":11,"encoder":"21541347967","distractor":"21541547967","target":"present","response":"absent","rt":"1369","correct":false,"confidence":1},{"trial_n":135,"span":10,"encoder":"1684838021","distractor":"1684838026","target":"absent","response":"present","rt":"1564","correct":false,"confidence":3},{"trial_n":136,"span":9,"encoder":"778468017","distractor":"779468017","target":"present","response":"present","rt":"2555","correct":true,"confidence":3},{"trial_n":137,"span":9,"encoder":"390614406","distractor":"390616406","target":"present","response":"present","rt":"1954","correct":true,"confidence":4},{"trial_n":138,"span":10,"encoder":"6640189055","distractor":"2640189055","target":"present","response":"present","rt":"1684","correct":true,"confidence":3},{"trial_n":139,"span":10,"encoder":"8184258486","distractor":"8184255486","target":"absent","response":"absent","rt":"4343","correct":true,"confidence":3},{"trial_n":140,"span":11,"encoder":"43253306765","distractor":"43453306765","target":"absent","response":"present","rt":"6087","correct":false,"confidence":3}]