[{"trial_n":1,"n_dots":4.25,"target":"right","response":"right","rt":3834.6000000238,"correct":true,"confidence":-1},{"trial_n":2,"n_dots":4.25,"target":"left","response":"left","rt":3384.7999999523,"correct":true,"confidence":-1},{"trial_n":3,"n_dots":3.85,"target":"right","response":"right","rt":981,"correct":true,"confidence":-1},{"trial_n":4,"n_dots":3.85,"target":"left","response":"left","rt":1182,"correct":true,"confidence":-1},{"trial_n":5,"n_dots":3.45,"target":"right","response":"right","rt":990.20000004768,"correct":true,"confidence":-1},{"trial_n":6,"n_dots":3.45,"target":"right","response":"left","rt":663.20000004768,"correct":false,"confidence":-1},{"trial_n":7,"n_dots":3.85,"target":"right","response":"right","rt":1027.1999999285,"correct":true,"confidence":-1},{"trial_n":8,"n_dots":3.85,"target":"left","response":"left","rt":675.70000004768,"correct":true,"confidence":-1},{"trial_n":9,"n_dots":3.65,"target":"left","response":"left","rt":767.60000002384,"correct":true,"confidence":-1},{"trial_n":10,"n_dots":3.65,"target":"right","response":"right","rt":749.19999992847,"correct":true,"confidence":-1},{"trial_n":11,"n_dots":3.45,"target":"right","response":"right","rt":1040.7000000477,"correct":true,"confidence":-1},{"trial_n":12,"n_dots":3.45,"target":"left","response":"right","rt":761,"correct":false,"confidence":-1},{"trial_n":13,"n_dots":3.55,"target":"left","response":"left","rt":666.89999997616,"correct":true,"confidence":-1},{"trial_n":14,"n_dots":3.55,"target":"left","response":"right","rt":895.5,"correct":false,"confidence":-1},{"trial_n":15,"n_dots":3.65,"target":"right","response":"right","rt":597.90000009537,"correct":true,"confidence":-1},{"trial_n":16,"n_dots":3.65,"target":"left","response":"right","rt":1049.1999999285,"correct":false,"confidence":-1},{"trial_n":17,"n_dots":3.75,"target":"right","response":"right","rt":820.5,"correct":true,"confidence":-1},{"trial_n":18,"n_dots":3.75,"target":"left","response":"left","rt":733.39999997616,"correct":true,"confidence":-1},{"trial_n":19,"n_dots":3.65,"target":"left","response":"left","rt":1051.5,"correct":true,"confidence":-1},{"trial_n":20,"n_dots":3.65,"target":"right","response":"right","rt":756.39999997616,"correct":true,"confidence":-1},{"trial_n":21,"n_dots":3.55,"target":"right","response":"right","rt":901.80000007153,"correct":true,"confidence":4},{"trial_n":22,"n_dots":3.55,"target":"left","response":"left","rt":1051.7000000477,"correct":true,"confidence":3},{"trial_n":23,"n_dots":3.45,"target":"right","response":"right","rt":1100.3999999762,"correct":true,"confidence":3},{"trial_n":24,"n_dots":3.45,"target":"left","response":"left","rt":2894.8999999762,"correct":true,"confidence":2},{"trial_n":25,"n_dots":3.35,"target":"left","response":"left","rt":1012.2999999523,"correct":true,"confidence":4},{"trial_n":26,"n_dots":3.35,"target":"right","response":"right","rt":703.89999997616,"correct":true,"confidence":4},{"trial_n":27,"n_dots":3.25,"target":"right","response":"left","rt":1279.5,"correct":false,"confidence":2},{"trial_n":28,"n_dots":3.35,"target":"right","response":"left","rt":1066.3999999762,"correct":false,"confidence":4},{"trial_n":29,"n_dots":3.45,"target":"left","response":"left","rt":817.09999990463,"correct":true,"confidence":3},{"trial_n":30,"n_dots":3.45,"target":"left","response":"right","rt":1251.5,"correct":false,"confidence":2},{"trial_n":31,"n_dots":3.55,"target":"right","response":"right","rt":762.69999992847,"correct":true,"confidence":4},{"trial_n":32,"n_dots":3.55,"target":"right","response":"right","rt":998.59999990463,"correct":true,"confidence":3},{"trial_n":33,"n_dots":3.45,"target":"left","response":"left","rt":1183.2000000477,"correct":true,"confidence":2},{"trial_n":34,"n_dots":3.45,"target":"left","response":"right","rt":1199.5,"correct":false,"confidence":3},{"trial_n":35,"n_dots":3.55,"target":"right","response":"left","rt":1943,"correct":false,"confidence":1},{"trial_n":36,"n_dots":3.65,"target":"right","response":"right","rt":1285.6000000238,"correct":true,"confidence":1},{"trial_n":37,"n_dots":3.65,"target":"right","response":"left","rt":1255,"correct":false,"confidence":2},{"trial_n":38,"n_dots":3.75,"target":"left","response":"left","rt":1180.1999999285,"correct":true,"confidence":4},{"trial_n":39,"n_dots":3.75,"target":"right","response":"right","rt":922,"correct":true,"confidence":3},{"trial_n":40,"n_dots":3.65,"target":"left","response":"left","rt":989.60000002384,"correct":true,"confidence":4},{"trial_n":41,"n_dots":3.65,"target":"left","response":"left","rt":867.69999992847,"correct":true,"confidence":3},{"trial_n":42,"n_dots":3.55,"target":"left","response":"right","rt":1030.8999999762,"correct":false,"confidence":1},{"trial_n":43,"n_dots":3.65,"target":"left","response":"left","rt":995.69999992847,"correct":true,"confidence":4},{"trial_n":44,"n_dots":3.65,"target":"right","response":"left","rt":1652.1999999285,"correct":false,"confidence":1},{"trial_n":45,"n_dots":3.75,"target":"right","response":"right","rt":1059.6999999285,"correct":true,"confidence":1},{"trial_n":46,"n_dots":3.75,"target":"right","response":"right","rt":974.70000004768,"correct":true,"confidence":3},{"trial_n":47,"n_dots":3.65,"target":"right","response":"right","rt":1071.5,"correct":true,"confidence":3},{"trial_n":48,"n_dots":3.65,"target":"left","response":"left","rt":877.29999995232,"correct":true,"confidence":4},{"trial_n":49,"n_dots":3.55,"target":"right","response":"right","rt":3359.3999999762,"correct":true,"confidence":3},{"trial_n":50,"n_dots":3.55,"target":"left","response":"left","rt":869.20000004768,"correct":true,"confidence":4},{"trial_n":51,"n_dots":3.45,"target":"right","response":"right","rt":956.20000004768,"correct":true,"confidence":4},{"trial_n":52,"n_dots":3.45,"target":"right","response":"right","rt":809.60000002384,"correct":true,"confidence":1},{"trial_n":53,"n_dots":3.35,"target":"left","response":"right","rt":1029.5999999046,"correct":false,"confidence":3},{"trial_n":54,"n_dots":3.45,"target":"left","response":"left","rt":989.20000004768,"correct":true,"confidence":4},{"trial_n":55,"n_dots":3.45,"target":"left","response":"left","rt":874,"correct":true,"confidence":4},{"trial_n":56,"n_dots":3.35,"target":"left","response":"left","rt":762.69999992847,"correct":true,"confidence":4},{"trial_n":57,"n_dots":3.35,"target":"left","response":"left","rt":846.80000007153,"correct":true,"confidence":4},{"trial_n":58,"n_dots":3.25,"target":"right","response":"right","rt":1207,"correct":true,"confidence":3},{"trial_n":59,"n_dots":3.25,"target":"left","response":"left","rt":887.39999997616,"correct":true,"confidence":4},{"trial_n":60,"n_dots":3.15,"target":"right","response":"right","rt":670.5,"correct":true,"confidence":4},{"trial_n":61,"n_dots":3.15,"target":"right","response":"right","rt":737.5,"correct":true,"confidence":4},{"trial_n":62,"n_dots":3.05,"target":"right","response":"right","rt":865.89999997616,"correct":true,"confidence":5},{"trial_n":63,"n_dots":3.05,"target":"left","response":"left","rt":746.70000004768,"correct":true,"confidence":5},{"trial_n":64,"n_dots":2.95,"target":"right","response":"right","rt":1042.3999999762,"correct":true,"confidence":4},{"trial_n":65,"n_dots":2.95,"target":"right","response":"right","rt":863.39999997616,"correct":true,"confidence":3},{"trial_n":66,"n_dots":2.85,"target":"right","response":"right","rt":814.59999990463,"correct":true,"confidence":4},{"trial_n":67,"n_dots":2.85,"target":"right","response":"right","rt":762,"correct":true,"confidence":4},{"trial_n":68,"n_dots":2.75,"target":"left","response":"right","rt":921.89999997616,"correct":false,"confidence":4},{"trial_n":69,"n_dots":2.85,"target":"right","response":"right","rt":1054.8999999762,"correct":true,"confidence":3},{"trial_n":70,"n_dots":2.85,"target":"left","response":"left","rt":834.69999992847,"correct":true,"confidence":3},{"trial_n":71,"n_dots":2.75,"target":"left","response":"left","rt":978.19999992847,"correct":true,"confidence":3},{"trial_n":72,"n_dots":2.75,"target":"right","response":"left","rt":1696.6000000238,"correct":false,"confidence":1},{"trial_n":73,"n_dots":2.85,"target":"left","response":"left","rt":2236.2999999523,"correct":true,"confidence":1},{"trial_n":74,"n_dots":2.85,"target":"left","response":"left","rt":763,"correct":true,"confidence":4},{"trial_n":75,"n_dots":2.75,"target":"left","response":"left","rt":733.29999995232,"correct":true,"confidence":4},{"trial_n":76,"n_dots":2.75,"target":"left","response":"left","rt":856.79999995232,"correct":true,"confidence":4},{"trial_n":77,"n_dots":2.65,"target":"left","response":"left","rt":1331,"correct":true,"confidence":4},{"trial_n":78,"n_dots":2.65,"target":"left","response":"left","rt":1316.3000000715,"correct":true,"confidence":1},{"trial_n":79,"n_dots":2.55,"target":"right","response":"right","rt":1103.2999999523,"correct":true,"confidence":1},{"trial_n":80,"n_dots":2.55,"target":"left","response":"left","rt":709.90000009537,"correct":true,"confidence":3},{"trial_n":81,"n_dots":2.45,"target":"left","response":"right","rt":1237.5,"correct":false,"confidence":3},{"trial_n":82,"n_dots":2.55,"target":"right","response":"right","rt":917.39999997616,"correct":true,"confidence":1},{"trial_n":83,"n_dots":2.55,"target":"left","response":"left","rt":630.79999995232,"correct":true,"confidence":3},{"trial_n":84,"n_dots":2.45,"target":"right","response":"right","rt":1270.1999999285,"correct":true,"confidence":2},{"trial_n":85,"n_dots":2.45,"target":"right","response":"right","rt":642.89999997616,"correct":true,"confidence":5},{"trial_n":86,"n_dots":2.35,"target":"left","response":"right","rt":1039.8000000715,"correct":false,"confidence":3},{"trial_n":87,"n_dots":2.45,"target":"left","response":"left","rt":1436.3000000715,"correct":true,"confidence":2},{"trial_n":88,"n_dots":2.45,"target":"right","response":"right","rt":976.30000007153,"correct":true,"confidence":3},{"trial_n":89,"n_dots":2.35,"target":"right","response":"right","rt":1880.4000000954,"correct":true,"confidence":2},{"trial_n":90,"n_dots":2.35,"target":"left","response":"right","rt":1212.4000000954,"correct":false,"confidence":1},{"trial_n":91,"n_dots":2.45,"target":"left","response":"right","rt":818,"correct":false,"confidence":3},{"trial_n":92,"n_dots":2.55,"target":"right","response":"left","rt":1060.8999999762,"correct":false,"confidence":1},{"trial_n":93,"n_dots":2.65,"target":"left","response":"right","rt":1114.1999999285,"correct":false,"confidence":1},{"trial_n":94,"n_dots":2.75,"target":"right","response":"right","rt":686,"correct":true,"confidence":3},{"trial_n":95,"n_dots":2.75,"target":"right","response":"left","rt":1187.7999999523,"correct":false,"confidence":1},{"trial_n":96,"n_dots":2.85,"target":"left","response":"right","rt":842.89999997616,"correct":false,"confidence":2},{"trial_n":97,"n_dots":2.95,"target":"right","response":"right","rt":899.69999992847,"correct":true,"confidence":4},{"trial_n":98,"n_dots":2.95,"target":"right","response":"right","rt":944.60000002384,"correct":true,"confidence":3},{"trial_n":99,"n_dots":2.85,"target":"right","response":"right","rt":948,"correct":true,"confidence":2},{"trial_n":100,"n_dots":2.85,"target":"left","response":"right","rt":1031,"correct":false,"confidence":3},{"trial_n":101,"n_dots":2.95,"target":"left","response":"right","rt":881.20000004768,"correct":false,"confidence":4},{"trial_n":102,"n_dots":3.05,"target":"right","response":"left","rt":1362.2000000477,"correct":false,"confidence":3},{"trial_n":103,"n_dots":3.15,"target":"right","response":"right","rt":874.5,"correct":true,"confidence":4},{"trial_n":104,"n_dots":3.15,"target":"right","response":"right","rt":717.29999995232,"correct":true,"confidence":4},{"trial_n":105,"n_dots":3.05,"target":"right","response":"right","rt":1412.5,"correct":true,"confidence":3},{"trial_n":106,"n_dots":3.05,"target":"right","response":"left","rt":925.70000004768,"correct":false,"confidence":2},{"trial_n":107,"n_dots":3.15,"target":"left","response":"left","rt":897.60000002384,"correct":true,"confidence":4},{"trial_n":108,"n_dots":3.15,"target":"left","response":"left","rt":1094.2999999523,"correct":true,"confidence":3},{"trial_n":109,"n_dots":3.05,"target":"left","response":"left","rt":793,"correct":true,"confidence":4},{"trial_n":110,"n_dots":3.05,"target":"left","response":"left","rt":854.20000004768,"correct":true,"confidence":4},{"trial_n":111,"n_dots":2.95,"target":"left","response":"left","rt":531.10000002384,"correct":true,"confidence":3},{"trial_n":112,"n_dots":2.95,"target":"left","response":"left","rt":931.5,"correct":true,"confidence":3},{"trial_n":113,"n_dots":2.85,"target":"right","response":"left","rt":660.20000004768,"correct":false,"confidence":2},{"trial_n":114,"n_dots":2.95,"target":"right","response":"right","rt":907.80000007153,"correct":true,"confidence":1},{"trial_n":115,"n_dots":2.95,"target":"left","response":"left","rt":838.70000004768,"correct":true,"confidence":2},{"trial_n":116,"n_dots":2.85,"target":"right","response":"right","rt":945.80000007153,"correct":true,"confidence":3},{"trial_n":117,"n_dots":2.85,"target":"left","response":"left","rt":690.79999995232,"correct":true,"confidence":3},{"trial_n":118,"n_dots":2.75,"target":"right","response":"right","rt":877.70000004768,"correct":true,"confidence":2},{"trial_n":119,"n_dots":2.75,"target":"right","response":"left","rt":645.5,"correct":false,"confidence":3},{"trial_n":120,"n_dots":2.85,"target":"left","response":"right","rt":899.5,"correct":false,"confidence":3}]