[{"trial_n":1,"n_dots":4.25,"target":"right","response":"left","rt":6472,"correct":false,"confidence":-1},{"trial_n":2,"n_dots":4.25,"target":"right","response":"right","rt":503.70000004768,"correct":true,"confidence":-1},{"trial_n":3,"n_dots":4.25,"target":"left","response":"left","rt":133.20000004768,"correct":true,"confidence":-1},{"trial_n":4,"n_dots":3.85,"target":"right","response":"left","rt":949.10000002384,"correct":false,"confidence":-1},{"trial_n":5,"n_dots":4.25,"target":"right","response":"right","rt":227.20000004768,"correct":true,"confidence":-1},{"trial_n":6,"n_dots":4.25,"target":"left","response":"left","rt":728,"correct":true,"confidence":-1},{"trial_n":7,"n_dots":3.85,"target":"right","response":"right","rt":82.5,"correct":true,"confidence":-1},{"trial_n":8,"n_dots":3.85,"target":"left","response":"left","rt":82.099999904633,"correct":true,"confidence":-1},{"trial_n":9,"n_dots":3.65,"target":"right","response":"right","rt":795.89999997616,"correct":true,"confidence":-1},{"trial_n":10,"n_dots":3.65,"target":"left","response":"left","rt":549.89999997616,"correct":true,"confidence":-1},{"trial_n":11,"n_dots":3.45,"target":"right","response":"left","rt":744.80000007153,"correct":false,"confidence":-1},{"trial_n":12,"n_dots":3.65,"target":"right","response":"left","rt":604.89999997616,"correct":false,"confidence":-1},{"trial_n":13,"n_dots":3.75,"target":"right","response":"right","rt":461.80000007153,"correct":true,"confidence":-1},{"trial_n":14,"n_dots":3.75,"target":"right","response":"right","rt":104.09999990463,"correct":true,"confidence":-1},{"trial_n":15,"n_dots":3.65,"target":"right","response":"right","rt":1611.2000000477,"correct":true,"confidence":-1},{"trial_n":16,"n_dots":3.65,"target":"left","response":"left","rt":122.89999997616,"correct":true,"confidence":-1},{"trial_n":17,"n_dots":3.55,"target":"left","response":"left","rt":675.60000002384,"correct":true,"confidence":-1},{"trial_n":18,"n_dots":3.55,"target":"left","response":"left","rt":862.60000002384,"correct":true,"confidence":-1},{"trial_n":19,"n_dots":3.45,"target":"right","response":"left","rt":20.800000071526,"correct":false,"confidence":-1},{"trial_n":20,"n_dots":3.55,"target":"right","response":"right","rt":458.20000004768,"correct":true,"confidence":-1},{"trial_n":21,"n_dots":3.55,"target":"right","response":"right","rt":460.10000002384,"correct":true,"confidence":2},{"trial_n":22,"n_dots":3.45,"target":"right","response":"left","rt":328.90000009537,"correct":false,"confidence":3},{"trial_n":23,"n_dots":3.55,"target":"left","response":"left","rt":346.5,"correct":true,"confidence":3},{"trial_n":24,"n_dots":3.55,"target":"left","response":"left","rt":380,"correct":true,"confidence":1},{"trial_n":25,"n_dots":3.45,"target":"left","response":"left","rt":578.10000002384,"correct":true,"confidence":4},{"trial_n":26,"n_dots":3.45,"target":"right","response":"right","rt":1489.8000000715,"correct":true,"confidence":1},{"trial_n":27,"n_dots":3.35,"target":"right","response":"right","rt":1022.1999999285,"correct":true,"confidence":3},{"trial_n":28,"n_dots":3.35,"target":"right","response":"right","rt":956.10000002384,"correct":true,"confidence":3},{"trial_n":29,"n_dots":3.25,"target":"right","response":"right","rt":397.19999992847,"correct":true,"confidence":4},{"trial_n":30,"n_dots":3.25,"target":"left","response":"right","rt":1463.4000000954,"correct":false,"confidence":4},{"trial_n":31,"n_dots":3.35,"target":"left","response":"left","rt":557.59999990463,"correct":true,"confidence":3},{"trial_n":32,"n_dots":3.35,"target":"left","response":"left","rt":1698.6000000238,"correct":true,"confidence":2},{"trial_n":33,"n_dots":3.25,"target":"right","response":"right","rt":1973.2999999523,"correct":true,"confidence":3},{"trial_n":34,"n_dots":3.25,"target":"right","response":"left","rt":1047.7000000477,"correct":false,"confidence":3},{"trial_n":35,"n_dots":3.35,"target":"right","response":"right","rt":978,"correct":true,"confidence":4},{"trial_n":36,"n_dots":3.35,"target":"left","response":"left","rt":1557.4000000954,"correct":true,"confidence":1},{"trial_n":37,"n_dots":3.25,"target":"right","response":"right","rt":1290.4000000954,"correct":true,"confidence":4},{"trial_n":38,"n_dots":3.25,"target":"right","response":"left","rt":3416.0999999046,"correct":false,"confidence":1},{"trial_n":39,"n_dots":3.35,"target":"left","response":"right","rt":1387.6000000238,"correct":false,"confidence":3},{"trial_n":40,"n_dots":3.45,"target":"left","response":"left","rt":1523.2000000477,"correct":true,"confidence":2},{"trial_n":41,"n_dots":3.45,"target":"right","response":"left","rt":1317.2000000477,"correct":false,"confidence":5},{"trial_n":42,"n_dots":3.55,"target":"right","response":"right","rt":903.09999990463,"correct":true,"confidence":5},{"trial_n":43,"n_dots":3.55,"target":"right","response":"right","rt":1044.4000000954,"correct":true,"confidence":4},{"trial_n":44,"n_dots":3.45,"target":"left","response":"left","rt":1369.0999999046,"correct":true,"confidence":5},{"trial_n":45,"n_dots":3.45,"target":"right","response":"left","rt":1508.6999999285,"correct":false,"confidence":2},{"trial_n":46,"n_dots":3.55,"target":"left","response":"left","rt":1278.1999999285,"correct":true,"confidence":3},{"trial_n":47,"n_dots":3.55,"target":"right","response":"right","rt":1734.8999999762,"correct":true,"confidence":3},{"trial_n":48,"n_dots":3.45,"target":"right","response":"right","rt":1412.2999999523,"correct":true,"confidence":2},{"trial_n":49,"n_dots":3.45,"target":"left","response":"left","rt":1384.8999999762,"correct":true,"confidence":2},{"trial_n":50,"n_dots":3.35,"target":"left","response":"left","rt":1302.8999999762,"correct":true,"confidence":4},{"trial_n":51,"n_dots":3.35,"target":"left","response":"right","rt":3268.5999999046,"correct":false,"confidence":1},{"trial_n":52,"n_dots":3.45,"target":"right","response":"right","rt":2103.6000000238,"correct":true,"confidence":3},{"trial_n":53,"n_dots":3.45,"target":"right","response":"right","rt":1291.8999999762,"correct":true,"confidence":3},{"trial_n":54,"n_dots":3.35,"target":"left","response":"left","rt":1150.6000000238,"correct":true,"confidence":4},{"trial_n":55,"n_dots":3.35,"target":"left","response":"left","rt":2604.8000000715,"correct":true,"confidence":1},{"trial_n":56,"n_dots":3.25,"target":"right","response":"right","rt":840.10000002384,"correct":true,"confidence":3},{"trial_n":57,"n_dots":3.25,"target":"left","response":"right","rt":971.89999997616,"correct":false,"confidence":4},{"trial_n":58,"n_dots":3.35,"target":"right","response":"right","rt":848.09999990463,"correct":true,"confidence":4},{"trial_n":59,"n_dots":3.35,"target":"right","response":"right","rt":729,"correct":true,"confidence":5},{"trial_n":60,"n_dots":3.25,"target":"right","response":"left","rt":2178.2000000477,"correct":false,"confidence":2},{"trial_n":61,"n_dots":3.35,"target":"left","response":"left","rt":1350.8000000715,"correct":true,"confidence":5},{"trial_n":62,"n_dots":3.35,"target":"left","response":"right","rt":2299,"correct":false,"confidence":1},{"trial_n":63,"n_dots":3.45,"target":"left","response":"right","rt":1019.4000000954,"correct":false,"confidence":4},{"trial_n":64,"n_dots":3.55,"target":"right","response":"right","rt":610.79999995232,"correct":true,"confidence":5},{"trial_n":65,"n_dots":3.55,"target":"right","response":"right","rt":1339.5,"correct":true,"confidence":4},{"trial_n":66,"n_dots":3.45,"target":"right","response":"right","rt":816.39999997616,"correct":true,"confidence":5},{"trial_n":67,"n_dots":3.45,"target":"right","response":"right","rt":1058.8999999762,"correct":true,"confidence":4},{"trial_n":68,"n_dots":3.35,"target":"left","response":"left","rt":1350.1000000238,"correct":true,"confidence":3},{"trial_n":69,"n_dots":3.35,"target":"left","response":"left","rt":627.5,"correct":true,"confidence":4},{"trial_n":70,"n_dots":3.25,"target":"left","response":"left","rt":1810.0999999046,"correct":true,"confidence":3},{"trial_n":71,"n_dots":3.25,"target":"left","response":"left","rt":2288.2999999523,"correct":true,"confidence":1},{"trial_n":72,"n_dots":3.15,"target":"right","response":"right","rt":693.39999997616,"correct":true,"confidence":3},{"trial_n":73,"n_dots":3.15,"target":"left","response":"right","rt":1378.8999999762,"correct":false,"confidence":1},{"trial_n":74,"n_dots":3.25,"target":"left","response":"right","rt":9755,"correct":false,"confidence":1},{"trial_n":75,"n_dots":3.35,"target":"left","response":"left","rt":687.19999992847,"correct":true,"confidence":5},{"trial_n":76,"n_dots":3.35,"target":"left","response":"left","rt":872,"correct":true,"confidence":5},{"trial_n":77,"n_dots":3.25,"target":"left","response":"left","rt":1591.1000000238,"correct":true,"confidence":3},{"trial_n":78,"n_dots":3.25,"target":"left","response":"right","rt":2586.7000000477,"correct":false,"confidence":2},{"trial_n":79,"n_dots":3.35,"target":"left","response":"left","rt":1063.1000000238,"correct":true,"confidence":5},{"trial_n":80,"n_dots":3.35,"target":"left","response":"left","rt":1321.5,"correct":true,"confidence":4},{"trial_n":81,"n_dots":3.25,"target":"right","response":"left","rt":1211.5,"correct":false,"confidence":2},{"trial_n":82,"n_dots":3.35,"target":"right","response":"right","rt":1091.3999999762,"correct":true,"confidence":4},{"trial_n":83,"n_dots":3.35,"target":"left","response":"right","rt":2078,"correct":false,"confidence":2},{"trial_n":84,"n_dots":3.45,"target":"left","response":"left","rt":688.19999992847,"correct":true,"confidence":4},{"trial_n":85,"n_dots":3.45,"target":"left","response":"left","rt":936.39999997616,"correct":true,"confidence":5},{"trial_n":86,"n_dots":3.35,"target":"left","response":"left","rt":766.39999997616,"correct":true,"confidence":5},{"trial_n":87,"n_dots":3.35,"target":"right","response":"right","rt":1189.5,"correct":true,"confidence":3},{"trial_n":88,"n_dots":3.25,"target":"left","response":"left","rt":808.19999992847,"correct":true,"confidence":5},{"trial_n":89,"n_dots":3.25,"target":"right","response":"right","rt":689.20000004768,"correct":true,"confidence":5},{"trial_n":90,"n_dots":3.15,"target":"right","response":"right","rt":2631.7000000477,"correct":true,"confidence":1},{"trial_n":91,"n_dots":3.15,"target":"right","response":"right","rt":1136.8999999762,"correct":true,"confidence":3},{"trial_n":92,"n_dots":3.05,"target":"left","response":"left","rt":1377.1000000238,"correct":true,"confidence":2},{"trial_n":93,"n_dots":3.05,"target":"right","response":"right","rt":469.89999997616,"correct":true,"confidence":5},{"trial_n":94,"n_dots":2.95,"target":"right","response":"left","rt":2312.8999999762,"correct":false,"confidence":2},{"trial_n":95,"n_dots":3.05,"target":"left","response":"right","rt":968.10000002384,"correct":false,"confidence":4},{"trial_n":96,"n_dots":3.15,"target":"left","response":"left","rt":1147.1000000238,"correct":true,"confidence":4},{"trial_n":97,"n_dots":3.15,"target":"left","response":"right","rt":1186.7999999523,"correct":false,"confidence":3},{"trial_n":98,"n_dots":3.25,"target":"right","response":"right","rt":819.89999997616,"correct":true,"confidence":5},{"trial_n":99,"n_dots":3.25,"target":"left","response":"left","rt":938.39999997616,"correct":true,"confidence":5},{"trial_n":100,"n_dots":3.15,"target":"left","response":"right","rt":1226,"correct":false,"confidence":4},{"trial_n":101,"n_dots":3.25,"target":"left","response":"left","rt":751.70000004768,"correct":true,"confidence":5},{"trial_n":102,"n_dots":3.25,"target":"right","response":"right","rt":599.59999990463,"correct":true,"confidence":5},{"trial_n":103,"n_dots":3.15,"target":"left","response":"right","rt":1071.8999999762,"correct":false,"confidence":3},{"trial_n":104,"n_dots":3.25,"target":"right","response":"left","rt":535.60000002384,"correct":false,"confidence":4},{"trial_n":105,"n_dots":3.35,"target":"right","response":"right","rt":422.20000004768,"correct":true,"confidence":4},{"trial_n":106,"n_dots":3.35,"target":"right","response":"right","rt":5249,"correct":true,"confidence":1},{"trial_n":107,"n_dots":3.25,"target":"left","response":"left","rt":582.89999997616,"correct":true,"confidence":5},{"trial_n":108,"n_dots":3.25,"target":"right","response":"right","rt":460.10000002384,"correct":true,"confidence":5},{"trial_n":109,"n_dots":3.15,"target":"right","response":"right","rt":1185.3999999762,"correct":true,"confidence":4},{"trial_n":110,"n_dots":3.15,"target":"left","response":"right","rt":1385.3999999762,"correct":false,"confidence":2},{"trial_n":111,"n_dots":3.25,"target":"right","response":"right","rt":322.89999997616,"correct":true,"confidence":3},{"trial_n":112,"n_dots":3.25,"target":"right","response":"right","rt":446.69999992847,"correct":true,"confidence":5},{"trial_n":113,"n_dots":3.15,"target":"left","response":"left","rt":569.39999997616,"correct":true,"confidence":4},{"trial_n":114,"n_dots":3.15,"target":"right","response":"right","rt":929.20000004768,"correct":true,"confidence":4},{"trial_n":115,"n_dots":3.05,"target":"left","response":"right","rt":1141.8999999762,"correct":false,"confidence":2},{"trial_n":116,"n_dots":3.15,"target":"left","response":"left","rt":1452,"correct":true,"confidence":3},{"trial_n":117,"n_dots":3.15,"target":"left","response":"left","rt":1113.3999999762,"correct":true,"confidence":4},{"trial_n":118,"n_dots":3.05,"target":"right","response":"left","rt":1243.8000000715,"correct":false,"confidence":3},{"trial_n":119,"n_dots":3.15,"target":"left","response":"left","rt":831.80000007153,"correct":true,"confidence":5},{"trial_n":120,"n_dots":3.15,"target":"left","response":"left","rt":536,"correct":true,"confidence":5}]