[{"trial_n":1,"span":8,"encoder":"18040321","distractor":"18340321","target":"present","response":"absent","rt":"3855.7000000477","correct":false,"confidence":-1},{"trial_n":2,"span":6,"encoder":"726206","distractor":"726306","target":"present","response":"present","rt":"4742.6000000238","correct":true,"confidence":-1},{"trial_n":3,"span":6,"encoder":"676813","distractor":"176813","target":"absent","response":"present","rt":"2811.2000000477","correct":false,"confidence":-1},{"trial_n":4,"span":4,"encoder":"7556","distractor":"7656","target":"absent","response":"absent","rt":"2323.2999999523","correct":true,"confidence":-1},{"trial_n":5,"span":4,"encoder":"2561","distractor":"2581","target":"present","response":"present","rt":"2916.8999999762","correct":true,"confidence":-1},{"trial_n":6,"span":6,"encoder":"452237","distractor":"458237","target":"present","response":"present","rt":"2180.7999999523","correct":true,"confidence":-1},{"trial_n":7,"span":6,"encoder":"788537","distractor":"788527","target":"absent","response":"absent","rt":"2837","correct":true,"confidence":-1},{"trial_n":8,"span":8,"encoder":"17117340","distractor":"17417340","target":"present","response":"present","rt":"3544.1999999285","correct":true,"confidence":-1},{"trial_n":9,"span":8,"encoder":"96264306","distractor":"96264316","target":"absent","response":"absent","rt":"3112.5","correct":true,"confidence":-1},{"trial_n":10,"span":10,"encoder":"8376215284","distractor":"8379215284","target":"present","response":"absent","rt":"4341.7000000477","correct":false,"confidence":-1},{"trial_n":11,"span":8,"encoder":"76758820","distractor":"76858820","target":"present","response":"present","rt":"3449.8000000715","correct":true,"confidence":-1},{"trial_n":12,"span":8,"encoder":"54248228","distractor":"54208228","target":"absent","response":"absent","rt":"6701.8000000715","correct":true,"confidence":-1},{"trial_n":13,"span":9,"encoder":"637670475","distractor":"637670375","target":"present","response":"absent","rt":"2941.6000000238","correct":false,"confidence":-1},{"trial_n":14,"span":8,"encoder":"66151715","distractor":"66151915","target":"present","response":"present","rt":"6317.1000000238","correct":true,"confidence":-1},{"trial_n":15,"span":8,"encoder":"93778486","distractor":"93878486","target":"present","response":"present","rt":"3043.1999999285","correct":true,"confidence":-1},{"trial_n":16,"span":9,"encoder":"805731268","distractor":"805731208","target":"present","response":"absent","rt":"2386.8000000715","correct":false,"confidence":-1},{"trial_n":17,"span":8,"encoder":"24656184","distractor":"24656183","target":"present","response":"absent","rt":"5151.8999999762","correct":false,"confidence":-1},{"trial_n":18,"span":7,"encoder":"3670444","distractor":"3620444","target":"present","response":"absent","rt":"2877.8999999762","correct":false,"confidence":-1},{"trial_n":19,"span":6,"encoder":"633076","distractor":"633006","target":"present","response":"present","rt":"2150.8999999762","correct":true,"confidence":-1},{"trial_n":20,"span":6,"encoder":"661685","distractor":"661985","target":"absent","response":"absent","rt":"2344","correct":true,"confidence":-1},{"trial_n":21,"span":7,"encoder":"3909119","distractor":"3919119","target":"absent","response":"absent","rt":"7551.9000000954","correct":true,"confidence":4},{"trial_n":22,"span":7,"encoder":"7343632","distractor":"7143632","target":"present","response":"present","rt":"5119.5999999046","correct":true,"confidence":5},{"trial_n":23,"span":8,"encoder":"40338463","distractor":"80338463","target":"present","response":"present","rt":"3674.8000000715","correct":true,"confidence":4},{"trial_n":24,"span":8,"encoder":"63220069","distractor":"63220060","target":"absent","response":"absent","rt":"5776.6000000238","correct":true,"confidence":4},{"trial_n":25,"span":9,"encoder":"770842245","distractor":"770845245","target":"absent","response":"absent","rt":"3638.2000000477","correct":true,"confidence":5},{"trial_n":26,"span":9,"encoder":"651878539","distractor":"651878569","target":"absent","response":"present","rt":"6564","correct":false,"confidence":3},{"trial_n":27,"span":8,"encoder":"27762016","distractor":"27762416","target":"absent","response":"absent","rt":"4074.2000000477","correct":true,"confidence":5},{"trial_n":28,"span":8,"encoder":"70274043","distractor":"70274093","target":"present","response":"present","rt":"3621.1000000238","correct":true,"confidence":4},{"trial_n":29,"span":9,"encoder":"939906289","distractor":"939901289","target":"absent","response":"absent","rt":"4481.5","correct":true,"confidence":5},{"trial_n":30,"span":9,"encoder":"274304837","distractor":"174304837","target":"present","response":"present","rt":"4318.3000000715","correct":true,"confidence":4},{"trial_n":31,"span":10,"encoder":"7735309041","distractor":"7735309741","target":"present","response":"absent","rt":"3882.7000000477","correct":false,"confidence":5},{"trial_n":32,"span":9,"encoder":"901891462","distractor":"901841462","target":"absent","response":"present","rt":"4725.8000000715","correct":false,"confidence":4},{"trial_n":33,"span":8,"encoder":"45852284","distractor":"75852284","target":"present","response":"present","rt":"3895.9000000954","correct":true,"confidence":4},{"trial_n":34,"span":8,"encoder":"44261327","distractor":"44261323","target":"present","response":"present","rt":"3385.0999999046","correct":true,"confidence":5},{"trial_n":35,"span":9,"encoder":"753030413","distractor":"753090413","target":"absent","response":"absent","rt":"4993.2000000477","correct":true,"confidence":5},{"trial_n":36,"span":9,"encoder":"605091708","distractor":"605081708","target":"absent","response":"absent","rt":"10833","correct":true,"confidence":3},{"trial_n":37,"span":10,"encoder":"2283320937","distractor":"2283324937","target":"absent","response":"absent","rt":"3474.6000000238","correct":true,"confidence":5},{"trial_n":38,"span":10,"encoder":"8051983465","distractor":"1051983465","target":"absent","response":"absent","rt":"7738.1000000238","correct":true,"confidence":4},{"trial_n":39,"span":11,"encoder":"78001587765","distractor":"78701587765","target":"absent","response":"absent","rt":"6696.7999999523","correct":true,"confidence":4},{"trial_n":40,"span":11,"encoder":"82531643095","distractor":"82531443095","target":"absent","response":"absent","rt":"10304.300000072","correct":true,"confidence":4},{"trial_n":41,"span":12,"encoder":"583287159539","distractor":"583287189539","target":"absent","response":"absent","rt":"6234.3000000715","correct":true,"confidence":4},{"trial_n":42,"span":12,"encoder":"156905926352","distractor":"156905921352","target":"absent","response":"present","rt":"5986.1999999285","correct":false,"confidence":3},{"trial_n":43,"span":11,"encoder":"11959518238","distractor":"11956518238","target":"absent","response":"absent","rt":"6639.8999999762","correct":true,"confidence":2},{"trial_n":44,"span":11,"encoder":"51189292257","distractor":"51183292257","target":"present","response":"present","rt":"3319.1000000238","correct":true,"confidence":4},{"trial_n":45,"span":12,"encoder":"300827533266","distractor":"300827533236","target":"present","response":"present","rt":"5051.8000000715","correct":true,"confidence":3},{"trial_n":46,"span":12,"encoder":"328639907467","distractor":"328739907467","target":"absent","response":"present","rt":"3820.3999999762","correct":false,"confidence":4},{"trial_n":47,"span":11,"encoder":"10978721526","distractor":"90978721526","target":"present","response":"present","rt":"6399.8999999762","correct":true,"confidence":5},{"trial_n":48,"span":11,"encoder":"62135648551","distractor":"62535648551","target":"present","response":"present","rt":"7778.5","correct":true,"confidence":4},{"trial_n":49,"span":12,"encoder":"113591798095","distractor":"113591758095","target":"present","response":"absent","rt":"5676.2000000477","correct":false,"confidence":4},{"trial_n":50,"span":11,"encoder":"54212871388","distractor":"54712871388","target":"absent","response":"absent","rt":"8995.8999999762","correct":true,"confidence":3},{"trial_n":51,"span":11,"encoder":"60905381783","distractor":"60905381773","target":"absent","response":"present","rt":"4625.6000000238","correct":false,"confidence":5},{"trial_n":52,"span":10,"encoder":"1739326495","distractor":"4739326495","target":"absent","response":"absent","rt":"5885.3000000715","correct":true,"confidence":3},{"trial_n":53,"span":10,"encoder":"4478679097","distractor":"4458679097","target":"absent","response":"absent","rt":"7901.2999999523","correct":true,"confidence":4},{"trial_n":54,"span":11,"encoder":"03446461930","distractor":"03446461935","target":"present","response":"present","rt":"5135.6000000238","correct":true,"confidence":4},{"trial_n":55,"span":11,"encoder":"39312457975","distractor":"39312487975","target":"absent","response":"present","rt":"50202.100000024","correct":false,"confidence":1},{"trial_n":56,"span":10,"encoder":"8490571050","distractor":"8490571051","target":"present","response":"present","rt":"5374.7999999523","correct":true,"confidence":3},{"trial_n":57,"span":10,"encoder":"0331557900","distractor":"0331557940","target":"present","response":"present","rt":"4568.5","correct":true,"confidence":3},{"trial_n":58,"span":11,"encoder":"17118821837","distractor":"17118821839","target":"absent","response":"absent","rt":"7233.1999999285","correct":true,"confidence":4},{"trial_n":59,"span":11,"encoder":"13810611659","distractor":"13830611659","target":"absent","response":"present","rt":"4643.4000000954","correct":false,"confidence":5},{"trial_n":60,"span":10,"encoder":"8829121229","distractor":"8889121229","target":"present","response":"present","rt":"2252.2000000477","correct":true,"confidence":4},{"trial_n":61,"span":10,"encoder":"0746485891","distractor":"0747485891","target":"present","response":"present","rt":"4311.7999999523","correct":true,"confidence":5},{"trial_n":62,"span":11,"encoder":"88215425110","distractor":"88205425110","target":"absent","response":"absent","rt":"5718.2000000477","correct":true,"confidence":4},{"trial_n":63,"span":11,"encoder":"59930494329","distractor":"59930494429","target":"absent","response":"absent","rt":"5631.5","correct":true,"confidence":4},{"trial_n":64,"span":12,"encoder":"541665924124","distractor":"541665924174","target":"present","response":"present","rt":"6091.1000000238","correct":true,"confidence":3},{"trial_n":65,"span":12,"encoder":"518132480653","distractor":"518832480653","target":"absent","response":"present","rt":"6093.6999999285","correct":false,"confidence":2},{"trial_n":66,"span":11,"encoder":"25860468177","distractor":"25860488177","target":"absent","response":"absent","rt":"3179.2000000477","correct":true,"confidence":3},{"trial_n":67,"span":11,"encoder":"74775730748","distractor":"74775130748","target":"present","response":"present","rt":"2927.2000000477","correct":true,"confidence":4},{"trial_n":68,"span":12,"encoder":"255798781123","distractor":"255798981123","target":"present","response":"present","rt":"5908.6000000238","correct":true,"confidence":3},{"trial_n":69,"span":12,"encoder":"360779175468","distractor":"360779175465","target":"present","response":"absent","rt":"6733.0999999046","correct":false,"confidence":3},{"trial_n":70,"span":11,"encoder":"31463244018","distractor":"31463244818","target":"present","response":"present","rt":"5000.3999999762","correct":true,"confidence":4},{"trial_n":71,"span":8,"encoder":"79595976","distractor":"79595946","target":"present","response":"present","rt":"6464.6000000238","correct":true,"confidence":-1},{"trial_n":72,"span":8,"encoder":"37942899","distractor":"37945899","target":"present","response":"present","rt":"5955.2000000477","correct":true,"confidence":-1},{"trial_n":73,"span":9,"encoder":"821891499","distractor":"521891499","target":"absent","response":"absent","rt":"2653.6000000238","correct":true,"confidence":-1},{"trial_n":74,"span":9,"encoder":"880689477","distractor":"880629477","target":"absent","response":"absent","rt":"4156.9000000954","correct":true,"confidence":-1},{"trial_n":75,"span":10,"encoder":"9969659852","distractor":"9969059852","target":"present","response":"present","rt":"9179.3999999762","correct":true,"confidence":-1},{"trial_n":76,"span":10,"encoder":"6049716036","distractor":"6049719036","target":"absent","response":"absent","rt":"3359.3999999762","correct":true,"confidence":-1},{"trial_n":77,"span":11,"encoder":"49692003999","distractor":"49692093999","target":"present","response":"absent","rt":"11038.5","correct":false,"confidence":-1},{"trial_n":78,"span":10,"encoder":"7805932775","distractor":"7835932775","target":"absent","response":"absent","rt":"1173.6999999285","correct":true,"confidence":-1},{"trial_n":79,"span":10,"encoder":"2438654233","distractor":"2438654234","target":"present","response":"present","rt":"3157.1000000238","correct":true,"confidence":-1},{"trial_n":80,"span":11,"encoder":"23027912573","distractor":"23027942573","target":"present","response":"present","rt":"4620.6000000238","correct":true,"confidence":-1},{"trial_n":81,"span":11,"encoder":"47024631985","distractor":"47024631185","target":"absent","response":"present","rt":"7146","correct":false,"confidence":-1},{"trial_n":82,"span":10,"encoder":"1527832532","distractor":"1529832532","target":"absent","response":"absent","rt":"4439","correct":true,"confidence":-1},{"trial_n":83,"span":10,"encoder":"4518040050","distractor":"4518440050","target":"absent","response":"absent","rt":"3469.1000000238","correct":true,"confidence":-1},{"trial_n":84,"span":11,"encoder":"39518718840","distractor":"39518717840","target":"present","response":"absent","rt":"2809.5","correct":false,"confidence":-1},{"trial_n":85,"span":10,"encoder":"8070250175","distractor":"8070250375","target":"absent","response":"absent","rt":"2888.2999999523","correct":true,"confidence":-1},{"trial_n":86,"span":10,"encoder":"9243333876","distractor":"9283333876","target":"absent","response":"absent","rt":"2169.3000000715","correct":true,"confidence":-1},{"trial_n":87,"span":11,"encoder":"37284383901","distractor":"37284383900","target":"absent","response":"absent","rt":"2561.3999999762","correct":true,"confidence":-1},{"trial_n":88,"span":11,"encoder":"75282325709","distractor":"75282825709","target":"absent","response":"present","rt":"5201","correct":false,"confidence":-1},{"trial_n":89,"span":10,"encoder":"7559985207","distractor":"7559285207","target":"present","response":"present","rt":"6225.8999999762","correct":true,"confidence":-1},{"trial_n":90,"span":10,"encoder":"8433577366","distractor":"8433573366","target":"present","response":"absent","rt":"6742.6000000238","correct":false,"confidence":-1},{"trial_n":91,"span":9,"encoder":"453724797","distractor":"473724797","target":"absent","response":"absent","rt":"8383","correct":true,"confidence":5},{"trial_n":92,"span":9,"encoder":"897788049","distractor":"817788049","target":"absent","response":"absent","rt":"2308.7000000477","correct":true,"confidence":5},{"trial_n":93,"span":10,"encoder":"2803825090","distractor":"2806825090","target":"present","response":"present","rt":"9796.3999999762","correct":true,"confidence":1},{"trial_n":94,"span":10,"encoder":"5756620681","distractor":"5756630681","target":"absent","response":"absent","rt":"9255.8999999762","correct":true,"confidence":4},{"trial_n":95,"span":11,"encoder":"24015841908","distractor":"24015846908","target":"present","response":"present","rt":"9343.2999999523","correct":true,"confidence":3},{"trial_n":96,"span":11,"encoder":"65220543218","distractor":"65220543214","target":"absent","response":"absent","rt":"9730.7000000477","correct":true,"confidence":3},{"trial_n":97,"span":12,"encoder":"152536738012","distractor":"112536738012","target":"present","response":"present","rt":"8373.1000000238","correct":true,"confidence":3},{"trial_n":98,"span":12,"encoder":"678425568227","distractor":"778425568227","target":"absent","response":"absent","rt":"3512.4000000954","correct":true,"confidence":5},{"trial_n":99,"span":13,"encoder":"8370443486526","distractor":"8377443486526","target":"absent","response":"absent","rt":"6990.8999999762","correct":true,"confidence":4},{"trial_n":100,"span":13,"encoder":"0124520729342","distractor":"0124520719342","target":"present","response":"present","rt":"13040.100000024","correct":true,"confidence":4},{"trial_n":101,"span":14,"encoder":"01233076026111","distractor":"01233076026113","target":"absent","response":"absent","rt":"5349.5","correct":true,"confidence":5},{"trial_n":102,"span":14,"encoder":"44744020401987","distractor":"44744020401947","target":"absent","response":"absent","rt":"3598.1000000238","correct":true,"confidence":5},{"trial_n":103,"span":15,"encoder":"294146836482287","distractor":"294146636482287","target":"present","response":"absent","rt":"17469.299999952","correct":false,"confidence":2},{"trial_n":104,"span":14,"encoder":"29426920544528","distractor":"29426920540528","target":"present","response":"present","rt":"5648.8999999762","correct":true,"confidence":5},{"trial_n":105,"span":14,"encoder":"16736373090552","distractor":"16736377090552","target":"present","response":"present","rt":"18384","correct":true,"confidence":3},{"trial_n":106,"span":15,"encoder":"207826510849900","distractor":"207825510849900","target":"present","response":"present","rt":"6788.3999999762","correct":true,"confidence":3},{"trial_n":107,"span":15,"encoder":"206853627943186","distractor":"206853627943886","target":"absent","response":"absent","rt":"3307.7999999523","correct":true,"confidence":5},{"trial_n":108,"span":16,"encoder":"0738171066132017","distractor":"0738171066132097","target":"absent","response":"absent","rt":"2743.8999999762","correct":true,"confidence":5},{"trial_n":109,"span":16,"encoder":"5439394488750080","distractor":"5449394488750080","target":"present","response":"absent","rt":"18264.5","correct":false,"confidence":2},{"trial_n":110,"span":15,"encoder":"245989748774617","distractor":"245986748774617","target":"present","response":"absent","rt":"7593.3999999762","correct":false,"confidence":3},{"trial_n":111,"span":14,"encoder":"26030092246206","distractor":"26030092244206","target":"absent","response":"absent","rt":"3147.8000000715","correct":true,"confidence":4},{"trial_n":112,"span":14,"encoder":"91730210706720","distractor":"51730210706720","target":"present","response":"present","rt":"9095","correct":true,"confidence":4},{"trial_n":113,"span":15,"encoder":"620549572479808","distractor":"620549572473808","target":"present","response":"present","rt":"4989.1999999285","correct":true,"confidence":3},{"trial_n":114,"span":15,"encoder":"640149507179069","distractor":"670149507179069","target":"present","response":"present","rt":"8024.3000000715","correct":true,"confidence":4},{"trial_n":115,"span":16,"encoder":"8210903696885905","distractor":"8210908696885905","target":"present","response":"absent","rt":"8127.9000000954","correct":false,"confidence":4},{"trial_n":116,"span":15,"encoder":"829687299972314","distractor":"829187299972314","target":"absent","response":"absent","rt":"16807.100000024","correct":true,"confidence":3},{"trial_n":117,"span":15,"encoder":"218494617966479","distractor":"718494617966479","target":"absent","response":"absent","rt":"12029","correct":true,"confidence":2},{"trial_n":118,"span":16,"encoder":"9279206570347099","distractor":"9279206570347098","target":"present","response":"present","rt":"5484.7999999523","correct":true,"confidence":5},{"trial_n":119,"span":16,"encoder":"5233365131950190","distractor":"5233365191950190","target":"present","response":"absent","rt":"10109.100000024","correct":false,"confidence":3},{"trial_n":120,"span":15,"encoder":"212624141196406","distractor":"212624141191406","target":"absent","response":"absent","rt":"3824.1000000238","correct":true,"confidence":5},{"trial_n":121,"span":15,"encoder":"342066750011340","distractor":"312066750011340","target":"absent","response":"absent","rt":"9360.8999999762","correct":true,"confidence":3},{"trial_n":122,"span":16,"encoder":"8445472299497187","distractor":"8445472299497137","target":"present","response":"present","rt":"2685","correct":true,"confidence":5},{"trial_n":123,"span":16,"encoder":"6940132956317469","distractor":"6940132956517469","target":"present","response":"present","rt":"13725.200000048","correct":true,"confidence":2},{"trial_n":124,"span":17,"encoder":"30866621078182096","distractor":"30866621074182096","target":"absent","response":"absent","rt":"6754.2000000477","correct":true,"confidence":5},{"trial_n":125,"span":17,"encoder":"33514920283261324","distractor":"23514920283261324","target":"present","response":"present","rt":"7528.2999999523","correct":true,"confidence":4},{"trial_n":126,"span":18,"encoder":"659605409008141202","distractor":"659604409008141202","target":"absent","response":"absent","rt":"9499.5","correct":true,"confidence":3},{"trial_n":127,"span":18,"encoder":"480913633009917093","distractor":"480913643009917093","target":"present","response":"absent","rt":"11877.699999928","correct":false,"confidence":2},{"trial_n":128,"span":17,"encoder":"57384341010015288","distractor":"57384341010015228","target":"absent","response":"absent","rt":"10538.599999905","correct":true,"confidence":4},{"trial_n":129,"span":17,"encoder":"67137224936928189","distractor":"67137214936928189","target":"absent","response":"present","rt":"13922.200000048","correct":false,"confidence":2},{"trial_n":130,"span":16,"encoder":"3151266181194835","distractor":"3151266181134835","target":"absent","response":"absent","rt":"13164.799999952","correct":true,"confidence":1},{"trial_n":131,"span":16,"encoder":"5752441996742723","distractor":"5752441596742723","target":"present","response":"present","rt":"20043.600000024","correct":true,"confidence":2},{"trial_n":132,"span":17,"encoder":"45021952420132498","distractor":"45021752420132498","target":"present","response":"present","rt":"10180","correct":true,"confidence":3},{"trial_n":133,"span":17,"encoder":"04056338811620456","distractor":"34056338811620456","target":"absent","response":"absent","rt":"13892.399999976","correct":true,"confidence":3},{"trial_n":134,"span":18,"encoder":"977574955421623817","distractor":"977574655421623817","target":"present","response":"absent","rt":"13846.899999976","correct":false,"confidence":2},{"trial_n":135,"span":17,"encoder":"44268963315065871","distractor":"44268903315065871","target":"absent","response":"absent","rt":"7335.8999999762","correct":true,"confidence":4},{"trial_n":136,"span":17,"encoder":"35208405174064855","distractor":"35608405174064855","target":"present","response":"absent","rt":"8752","correct":false,"confidence":4},{"trial_n":137,"span":16,"encoder":"6931322119766987","distractor":"6931522119766987","target":"absent","response":"present","rt":"13974.200000048","correct":false,"confidence":1},{"trial_n":138,"span":15,"encoder":"329267024993248","distractor":"359267024993248","target":"present","response":"present","rt":"6209.7000000477","correct":true,"confidence":4},{"trial_n":139,"span":15,"encoder":"300280879903114","distractor":"300283879903114","target":"present","response":"absent","rt":"13541.899999976","correct":false,"confidence":4},{"trial_n":140,"span":14,"encoder":"06730316140122","distractor":"06730316140120","target":"present","response":"present","rt":"10361.899999976","correct":true,"confidence":3}]