[{"trial_n":1,"min":25,"max":230,"target":"present","response":"present","rt":17959.100000024,"correct":true,"confidence":-1},{"trial_n":2,"min":25,"max":230,"target":"present","response":"present","rt":5049.7999999523,"correct":true,"confidence":-1},{"trial_n":3,"min":41,"max":214,"target":"absent","response":"present","rt":4372.8999999762,"correct":false,"confidence":-1},{"trial_n":4,"min":25,"max":230,"target":"absent","response":"absent","rt":1043.8000000715,"correct":true,"confidence":-1},{"trial_n":5,"min":25,"max":230,"target":"present","response":"present","rt":1035.6000000238,"correct":true,"confidence":-1},{"trial_n":6,"min":41,"max":214,"target":"present","response":"present","rt":1000.5999999046,"correct":true,"confidence":-1},{"trial_n":7,"min":41,"max":214,"target":"present","response":"present","rt":809,"correct":true,"confidence":-1},{"trial_n":8,"min":57,"max":198,"target":"absent","response":"present","rt":3286.6000000238,"correct":false,"confidence":-1},{"trial_n":9,"min":41,"max":214,"target":"absent","response":"absent","rt":1351.5999999046,"correct":true,"confidence":-1},{"trial_n":10,"min":41,"max":214,"target":"absent","response":"present","rt":1058.4000000954,"correct":false,"confidence":-1},{"trial_n":11,"min":33,"max":222,"target":"absent","response":"absent","rt":860.89999997616,"correct":true,"confidence":-1},{"trial_n":12,"min":33,"max":222,"target":"present","response":"present","rt":994.59999990463,"correct":true,"confidence":-1},{"trial_n":13,"min":41,"max":214,"target":"absent","response":"absent","rt":1356.2000000477,"correct":true,"confidence":-1},{"trial_n":14,"min":41,"max":214,"target":"present","response":"present","rt":763.39999997616,"correct":true,"confidence":-1},{"trial_n":15,"min":49,"max":206,"target":"present","response":"present","rt":883.09999990463,"correct":true,"confidence":-1},{"trial_n":16,"min":49,"max":206,"target":"present","response":"present","rt":802.80000007153,"correct":true,"confidence":-1},{"trial_n":17,"min":57,"max":198,"target":"present","response":"present","rt":984.5,"correct":true,"confidence":-1},{"trial_n":18,"min":57,"max":198,"target":"present","response":"present","rt":781.29999995232,"correct":true,"confidence":-1},{"trial_n":19,"min":65,"max":190,"target":"present","response":"present","rt":707.09999990463,"correct":true,"confidence":-1},{"trial_n":20,"min":65,"max":190,"target":"present","response":"present","rt":836,"correct":true,"confidence":-1},{"trial_n":21,"min":69,"max":186,"target":"present","response":"absent","rt":1553,"correct":false,"confidence":3},{"trial_n":22,"min":65,"max":190,"target":"present","response":"present","rt":927.70000004768,"correct":true,"confidence":5},{"trial_n":23,"min":65,"max":190,"target":"present","response":"present","rt":1034.5999999046,"correct":true,"confidence":5},{"trial_n":24,"min":69,"max":186,"target":"absent","response":"present","rt":1894.5,"correct":false,"confidence":3},{"trial_n":25,"min":65,"max":190,"target":"present","response":"present","rt":838.60000002384,"correct":true,"confidence":5},{"trial_n":26,"min":65,"max":190,"target":"present","response":"present","rt":1015.1000000238,"correct":true,"confidence":5},{"trial_n":27,"min":69,"max":186,"target":"present","response":"present","rt":867.60000002384,"correct":true,"confidence":5},{"trial_n":28,"min":69,"max":186,"target":"present","response":"absent","rt":1072.3000000715,"correct":false,"confidence":5},{"trial_n":29,"min":65,"max":190,"target":"present","response":"absent","rt":2273.2000000477,"correct":false,"confidence":3},{"trial_n":30,"min":61,"max":194,"target":"present","response":"present","rt":915.89999997616,"correct":true,"confidence":3},{"trial_n":31,"min":61,"max":194,"target":"present","response":"present","rt":773.60000002384,"correct":true,"confidence":5},{"trial_n":32,"min":63,"max":192,"target":"absent","response":"absent","rt":1957.1000000238,"correct":true,"confidence":4},{"trial_n":33,"min":63,"max":192,"target":"absent","response":"absent","rt":1115.1999999285,"correct":true,"confidence":4},{"trial_n":34,"min":65,"max":190,"target":"absent","response":"absent","rt":916.30000007153,"correct":true,"confidence":5},{"trial_n":35,"min":65,"max":190,"target":"absent","response":"absent","rt":930.69999992847,"correct":true,"confidence":5},{"trial_n":36,"min":67,"max":188,"target":"present","response":"present","rt":853,"correct":true,"confidence":4},{"trial_n":37,"min":67,"max":188,"target":"present","response":"present","rt":831.20000004768,"correct":true,"confidence":5},{"trial_n":38,"min":69,"max":186,"target":"absent","response":"absent","rt":1549.3000000715,"correct":true,"confidence":5},{"trial_n":39,"min":69,"max":186,"target":"present","response":"present","rt":845.79999995232,"correct":true,"confidence":5},{"trial_n":40,"min":71,"max":184,"target":"absent","response":"absent","rt":1029.1999999285,"correct":true,"confidence":4},{"trial_n":41,"min":71,"max":184,"target":"absent","response":"present","rt":2135.0999999046,"correct":false,"confidence":2},{"trial_n":42,"min":70,"max":185,"target":"absent","response":"absent","rt":1070.8999999762,"correct":true,"confidence":4},{"trial_n":43,"min":70,"max":185,"target":"absent","response":"absent","rt":1128.1999999285,"correct":true,"confidence":5},{"trial_n":44,"min":71,"max":184,"target":"absent","response":"absent","rt":1092,"correct":true,"confidence":5},{"trial_n":45,"min":71,"max":184,"target":"absent","response":"absent","rt":1046.7999999523,"correct":true,"confidence":5},{"trial_n":46,"min":72,"max":183,"target":"absent","response":"absent","rt":999.80000007153,"correct":true,"confidence":4},{"trial_n":47,"min":72,"max":183,"target":"absent","response":"absent","rt":1021.7999999523,"correct":true,"confidence":4},{"trial_n":48,"min":73,"max":182,"target":"absent","response":"absent","rt":1024.0999999046,"correct":true,"confidence":4},{"trial_n":49,"min":73,"max":182,"target":"absent","response":"present","rt":1858.1999999285,"correct":false,"confidence":3},{"trial_n":50,"min":72,"max":183,"target":"present","response":"present","rt":909.89999997616,"correct":true,"confidence":5},{"trial_n":51,"min":72,"max":183,"target":"present","response":"present","rt":886.89999997616,"correct":true,"confidence":5},{"trial_n":52,"min":73,"max":182,"target":"present","response":"present","rt":887.20000004768,"correct":true,"confidence":4},{"trial_n":53,"min":73,"max":182,"target":"present","response":"present","rt":922.10000002384,"correct":true,"confidence":5},{"trial_n":54,"min":74,"max":181,"target":"absent","response":"absent","rt":2881.7999999523,"correct":true,"confidence":1},{"trial_n":55,"min":74,"max":181,"target":"absent","response":"absent","rt":1773.3999999762,"correct":true,"confidence":4},{"trial_n":56,"min":75,"max":180,"target":"absent","response":"absent","rt":1420,"correct":true,"confidence":5},{"trial_n":57,"min":75,"max":180,"target":"absent","response":"absent","rt":2618.3000000715,"correct":true,"confidence":5},{"trial_n":58,"min":76,"max":179,"target":"absent","response":"present","rt":1121.7000000477,"correct":false,"confidence":3},{"trial_n":59,"min":75,"max":180,"target":"absent","response":"absent","rt":1117.3999999762,"correct":true,"confidence":4},{"trial_n":60,"min":75,"max":180,"target":"present","response":"present","rt":736.70000004768,"correct":true,"confidence":5},{"trial_n":61,"min":76,"max":179,"target":"absent","response":"present","rt":2176.8000000715,"correct":false,"confidence":3},{"trial_n":62,"min":75,"max":180,"target":"present","response":"present","rt":983.5,"correct":true,"confidence":5},{"trial_n":63,"min":75,"max":180,"target":"present","response":"present","rt":816.60000002384,"correct":true,"confidence":5},{"trial_n":64,"min":76,"max":179,"target":"present","response":"present","rt":921,"correct":true,"confidence":5},{"trial_n":65,"min":76,"max":179,"target":"absent","response":"present","rt":1009.5,"correct":false,"confidence":3},{"trial_n":66,"min":75,"max":180,"target":"present","response":"present","rt":1120.0999999046,"correct":true,"confidence":4},{"trial_n":67,"min":75,"max":180,"target":"absent","response":"present","rt":4362,"correct":false,"confidence":1},{"trial_n":68,"min":74,"max":181,"target":"absent","response":"present","rt":1197.5,"correct":false,"confidence":4},{"trial_n":69,"min":73,"max":182,"target":"present","response":"present","rt":1243.2999999523,"correct":true,"confidence":4},{"trial_n":70,"min":73,"max":182,"target":"absent","response":"present","rt":1560.2000000477,"correct":false,"confidence":4},{"trial_n":71,"min":41,"max":214,"target":"present","response":"present","rt":5484.6999999285,"correct":true,"confidence":-1},{"trial_n":72,"min":41,"max":214,"target":"present","response":"present","rt":4414.1000000238,"correct":true,"confidence":-1},{"trial_n":73,"min":57,"max":198,"target":"absent","response":"absent","rt":620.30000007153,"correct":true,"confidence":-1},{"trial_n":74,"min":57,"max":198,"target":"absent","response":"absent","rt":848.80000007153,"correct":true,"confidence":-1},{"trial_n":75,"min":73,"max":182,"target":"present","response":"present","rt":449,"correct":true,"confidence":-1},{"trial_n":76,"min":73,"max":182,"target":"present","response":"present","rt":671.80000007153,"correct":true,"confidence":-1},{"trial_n":77,"min":89,"max":166,"target":"absent","response":"present","rt":2872.5,"correct":false,"confidence":-1},{"trial_n":78,"min":73,"max":182,"target":"absent","response":"absent","rt":736.60000002384,"correct":true,"confidence":-1},{"trial_n":79,"min":73,"max":182,"target":"present","response":"present","rt":547.39999997616,"correct":true,"confidence":-1},{"trial_n":80,"min":89,"max":166,"target":"present","response":"absent","rt":1031.8999999762,"correct":false,"confidence":-1},{"trial_n":81,"min":81,"max":174,"target":"present","response":"present","rt":424.39999997616,"correct":true,"confidence":-1},{"trial_n":82,"min":81,"max":174,"target":"present","response":"present","rt":411.19999992847,"correct":true,"confidence":-1},{"trial_n":83,"min":89,"max":166,"target":"absent","response":"present","rt":518.60000002384,"correct":false,"confidence":-1},{"trial_n":84,"min":81,"max":174,"target":"present","response":"present","rt":511.5,"correct":true,"confidence":-1},{"trial_n":85,"min":81,"max":174,"target":"absent","response":"absent","rt":1755.7000000477,"correct":true,"confidence":-1},{"trial_n":86,"min":89,"max":166,"target":"absent","response":"absent","rt":584.10000002384,"correct":true,"confidence":-1},{"trial_n":87,"min":89,"max":166,"target":"absent","response":"absent","rt":450.19999992847,"correct":true,"confidence":-1},{"trial_n":88,"min":97,"max":158,"target":"absent","response":"present","rt":1889.8999999762,"correct":false,"confidence":-1},{"trial_n":89,"min":89,"max":166,"target":"present","response":"present","rt":781.10000002384,"correct":true,"confidence":-1},{"trial_n":90,"min":89,"max":166,"target":"present","response":"present","rt":345.20000004768,"correct":true,"confidence":-1},{"trial_n":91,"min":93,"max":162,"target":"present","response":"absent","rt":1270.9000000954,"correct":false,"confidence":3},{"trial_n":92,"min":89,"max":166,"target":"present","response":"present","rt":483.79999995232,"correct":true,"confidence":5},{"trial_n":93,"min":89,"max":166,"target":"absent","response":"absent","rt":3358.6999999285,"correct":true,"confidence":2},{"trial_n":94,"min":93,"max":162,"target":"absent","response":"absent","rt":5349.7000000477,"correct":true,"confidence":1},{"trial_n":95,"min":93,"max":162,"target":"present","response":"present","rt":505.20000004768,"correct":true,"confidence":5},{"trial_n":96,"min":97,"max":158,"target":"present","response":"present","rt":1416.3999999762,"correct":true,"confidence":4},{"trial_n":97,"min":97,"max":158,"target":"absent","response":"present","rt":1521.8999999762,"correct":false,"confidence":3},{"trial_n":98,"min":93,"max":162,"target":"absent","response":"absent","rt":2917.7000000477,"correct":true,"confidence":2},{"trial_n":99,"min":93,"max":162,"target":"absent","response":"present","rt":436.19999992847,"correct":false,"confidence":4},{"trial_n":100,"min":89,"max":166,"target":"present","response":"present","rt":2362.6000000238,"correct":true,"confidence":4},{"trial_n":101,"min":89,"max":166,"target":"present","response":"present","rt":990.70000004768,"correct":true,"confidence":5},{"trial_n":102,"min":91,"max":164,"target":"absent","response":"present","rt":3084,"correct":false,"confidence":1},{"trial_n":103,"min":89,"max":166,"target":"present","response":"present","rt":688,"correct":true,"confidence":4},{"trial_n":104,"min":89,"max":166,"target":"present","response":"absent","rt":2299.3000000715,"correct":false,"confidence":1},{"trial_n":105,"min":87,"max":168,"target":"present","response":"present","rt":482.79999995232,"correct":true,"confidence":5},{"trial_n":106,"min":87,"max":168,"target":"absent","response":"present","rt":960.5,"correct":false,"confidence":3},{"trial_n":107,"min":85,"max":170,"target":"present","response":"present","rt":604.39999997616,"correct":true,"confidence":4},{"trial_n":108,"min":85,"max":170,"target":"present","response":"present","rt":2303.1000000238,"correct":true,"confidence":3},{"trial_n":109,"min":87,"max":168,"target":"present","response":"absent","rt":1587.1000000238,"correct":false,"confidence":3},{"trial_n":110,"min":85,"max":170,"target":"absent","response":"absent","rt":4364.3000000715,"correct":true,"confidence":1},{"trial_n":111,"min":85,"max":170,"target":"present","response":"present","rt":999.60000002384,"correct":true,"confidence":4},{"trial_n":112,"min":86,"max":169,"target":"present","response":"present","rt":633.39999997616,"correct":true,"confidence":5},{"trial_n":113,"min":86,"max":169,"target":"absent","response":"absent","rt":4044.5,"correct":true,"confidence":2},{"trial_n":114,"min":87,"max":168,"target":"absent","response":"present","rt":839.60000002384,"correct":false,"confidence":3},{"trial_n":115,"min":86,"max":169,"target":"present","response":"present","rt":951.5,"correct":true,"confidence":5},{"trial_n":116,"min":86,"max":169,"target":"present","response":"present","rt":882,"correct":true,"confidence":5},{"trial_n":117,"min":87,"max":168,"target":"absent","response":"present","rt":967.69999992847,"correct":false,"confidence":5},{"trial_n":118,"min":86,"max":169,"target":"present","response":"present","rt":1792.3999999762,"correct":true,"confidence":5},{"trial_n":119,"min":86,"max":169,"target":"present","response":"present","rt":586.79999995232,"correct":true,"confidence":5},{"trial_n":120,"min":87,"max":168,"target":"present","response":"present","rt":467.30000007153,"correct":true,"confidence":5},{"trial_n":121,"min":87,"max":168,"target":"present","response":"present","rt":521.39999997616,"correct":true,"confidence":5},{"trial_n":122,"min":88,"max":167,"target":"absent","response":"absent","rt":2237.1000000238,"correct":true,"confidence":1},{"trial_n":123,"min":88,"max":167,"target":"absent","response":"absent","rt":1941.5,"correct":true,"confidence":4},{"trial_n":124,"min":89,"max":166,"target":"present","response":"present","rt":543.39999997616,"correct":true,"confidence":5},{"trial_n":125,"min":89,"max":166,"target":"absent","response":"absent","rt":2454.6000000238,"correct":true,"confidence":2},{"trial_n":126,"min":90,"max":165,"target":"absent","response":"present","rt":842.40000009537,"correct":false,"confidence":3},{"trial_n":127,"min":89,"max":166,"target":"absent","response":"present","rt":6600.7999999523,"correct":false,"confidence":2},{"trial_n":128,"min":88,"max":167,"target":"absent","response":"absent","rt":3548.7000000477,"correct":true,"confidence":3},{"trial_n":129,"min":88,"max":167,"target":"present","response":"present","rt":752.59999990463,"correct":true,"confidence":4},{"trial_n":130,"min":89,"max":166,"target":"absent","response":"absent","rt":3052.7000000477,"correct":true,"confidence":2},{"trial_n":131,"min":89,"max":166,"target":"absent","response":"present","rt":938.60000002384,"correct":false,"confidence":3},{"trial_n":132,"min":88,"max":167,"target":"absent","response":"present","rt":2774,"correct":false,"confidence":2},{"trial_n":133,"min":87,"max":168,"target":"present","response":"present","rt":933.39999997616,"correct":true,"confidence":5},{"trial_n":134,"min":87,"max":168,"target":"present","response":"present","rt":583.29999995232,"correct":true,"confidence":5},{"trial_n":135,"min":88,"max":167,"target":"absent","response":"present","rt":666.19999992847,"correct":false,"confidence":5},{"trial_n":136,"min":87,"max":168,"target":"absent","response":"absent","rt":1636.1000000238,"correct":true,"confidence":5},{"trial_n":137,"min":87,"max":168,"target":"absent","response":"absent","rt":4533.3000000715,"correct":true,"confidence":3},{"trial_n":138,"min":88,"max":167,"target":"present","response":"present","rt":708.70000004768,"correct":true,"confidence":5},{"trial_n":139,"min":88,"max":167,"target":"absent","response":"absent","rt":1805.5,"correct":true,"confidence":3},{"trial_n":140,"min":89,"max":166,"target":"absent","response":"absent","rt":2528,"correct":true,"confidence":1}]