[{"trial_n":1,"min":25,"max":230,"target":"present","response":"absent","rt":16579,"correct":false,"confidence":-1},{"trial_n":2,"min":25,"max":230,"target":"present","response":"present","rt":2522,"correct":true,"confidence":-1},{"trial_n":3,"min":25,"max":230,"target":"absent","response":"absent","rt":1529,"correct":true,"confidence":-1},{"trial_n":4,"min":41,"max":214,"target":"absent","response":"absent","rt":1215,"correct":true,"confidence":-1},{"trial_n":5,"min":41,"max":214,"target":"present","response":"present","rt":802,"correct":true,"confidence":-1},{"trial_n":6,"min":57,"max":198,"target":"absent","response":"absent","rt":849,"correct":true,"confidence":-1},{"trial_n":7,"min":57,"max":198,"target":"present","response":"present","rt":1523,"correct":true,"confidence":-1},{"trial_n":8,"min":73,"max":182,"target":"absent","response":"absent","rt":936.00000000001,"correct":true,"confidence":-1},{"trial_n":9,"min":73,"max":182,"target":"present","response":"present","rt":882.00000000001,"correct":true,"confidence":-1},{"trial_n":10,"min":89,"max":166,"target":"present","response":"absent","rt":745,"correct":false,"confidence":-1},{"trial_n":11,"min":81,"max":174,"target":"present","response":"absent","rt":825.00000000001,"correct":false,"confidence":-1},{"trial_n":12,"min":73,"max":182,"target":"present","response":"absent","rt":922,"correct":false,"confidence":-1},{"trial_n":13,"min":65,"max":190,"target":"present","response":"absent","rt":1474,"correct":false,"confidence":-1},{"trial_n":14,"min":57,"max":198,"target":"present","response":"present","rt":1227,"correct":true,"confidence":-1},{"trial_n":15,"min":57,"max":198,"target":"absent","response":"absent","rt":927,"correct":true,"confidence":-1},{"trial_n":16,"min":65,"max":190,"target":"present","response":"present","rt":771,"correct":true,"confidence":-1},{"trial_n":17,"min":65,"max":190,"target":"present","response":"present","rt":924,"correct":true,"confidence":-1},{"trial_n":18,"min":73,"max":182,"target":"present","response":"present","rt":737,"correct":true,"confidence":-1},{"trial_n":19,"min":73,"max":182,"target":"present","response":"present","rt":698,"correct":true,"confidence":-1},{"trial_n":20,"min":81,"max":174,"target":"present","response":"present","rt":1340,"correct":true,"confidence":-1},{"trial_n":21,"min":81,"max":174,"target":"absent","response":"absent","rt":980,"correct":true,"confidence":5},{"trial_n":22,"min":85,"max":170,"target":"absent","response":"absent","rt":4452,"correct":true,"confidence":4},{"trial_n":23,"min":85,"max":170,"target":"absent","response":"absent","rt":1462,"correct":true,"confidence":4},{"trial_n":24,"min":89,"max":166,"target":"present","response":"absent","rt":1527,"correct":false,"confidence":4},{"trial_n":25,"min":85,"max":170,"target":"absent","response":"absent","rt":1317,"correct":true,"confidence":3},{"trial_n":26,"min":85,"max":170,"target":"present","response":"absent","rt":1522,"correct":false,"confidence":2},{"trial_n":27,"min":81,"max":174,"target":"absent","response":"absent","rt":1317,"correct":true,"confidence":3},{"trial_n":28,"min":81,"max":174,"target":"absent","response":"absent","rt":893,"correct":true,"confidence":4},{"trial_n":29,"min":85,"max":170,"target":"absent","response":"absent","rt":1662,"correct":true,"confidence":4},{"trial_n":30,"min":85,"max":170,"target":"absent","response":"absent","rt":877,"correct":true,"confidence":2},{"trial_n":31,"min":87,"max":168,"target":"absent","response":"absent","rt":1094,"correct":true,"confidence":5},{"trial_n":32,"min":87,"max":168,"target":"absent","response":"absent","rt":1382,"correct":true,"confidence":5},{"trial_n":33,"min":89,"max":166,"target":"present","response":"absent","rt":1655,"correct":false,"confidence":3},{"trial_n":34,"min":87,"max":168,"target":"present","response":"absent","rt":1480,"correct":false,"confidence":4},{"trial_n":35,"min":85,"max":170,"target":"present","response":"absent","rt":2507,"correct":false,"confidence":1},{"trial_n":36,"min":83,"max":172,"target":"absent","response":"absent","rt":1791,"correct":true,"confidence":2},{"trial_n":37,"min":83,"max":172,"target":"present","response":"absent","rt":1440,"correct":false,"confidence":3},{"trial_n":38,"min":81,"max":174,"target":"absent","response":"absent","rt":1078,"correct":true,"confidence":2},{"trial_n":39,"min":81,"max":174,"target":"present","response":"absent","rt":893.99999999997,"correct":false,"confidence":4},{"trial_n":40,"min":79,"max":176,"target":"present","response":"absent","rt":2660,"correct":false,"confidence":1},{"trial_n":41,"min":78,"max":177,"target":"absent","response":"absent","rt":1213,"correct":true,"confidence":5},{"trial_n":42,"min":78,"max":177,"target":"absent","response":"absent","rt":1045,"correct":true,"confidence":4},{"trial_n":43,"min":79,"max":176,"target":"absent","response":"absent","rt":1575,"correct":true,"confidence":3},{"trial_n":44,"min":79,"max":176,"target":"present","response":"present","rt":1309,"correct":true,"confidence":2},{"trial_n":45,"min":80,"max":175,"target":"present","response":"absent","rt":926.99999999997,"correct":false,"confidence":4},{"trial_n":46,"min":79,"max":176,"target":"present","response":"present","rt":921.99999999997,"correct":true,"confidence":3},{"trial_n":47,"min":79,"max":176,"target":"absent","response":"absent","rt":1022,"correct":true,"confidence":5},{"trial_n":48,"min":80,"max":175,"target":"present","response":"absent","rt":1905.0000000001,"correct":false,"confidence":3},{"trial_n":49,"min":79,"max":176,"target":"absent","response":"absent","rt":926.00000000006,"correct":true,"confidence":4},{"trial_n":50,"min":79,"max":176,"target":"absent","response":"absent","rt":1367.0000000001,"correct":true,"confidence":5},{"trial_n":51,"min":80,"max":175,"target":"present","response":"present","rt":2789,"correct":true,"confidence":2},{"trial_n":52,"min":80,"max":175,"target":"present","response":"absent","rt":8820,"correct":false,"confidence":3},{"trial_n":53,"min":79,"max":176,"target":"present","response":"present","rt":1064,"correct":true,"confidence":5},{"trial_n":54,"min":79,"max":176,"target":"present","response":"present","rt":825.00000000006,"correct":true,"confidence":4},{"trial_n":55,"min":80,"max":175,"target":"absent","response":"absent","rt":1871,"correct":true,"confidence":4},{"trial_n":56,"min":80,"max":175,"target":"present","response":"present","rt":695.99999999994,"correct":true,"confidence":3},{"trial_n":57,"min":81,"max":174,"target":"absent","response":"absent","rt":878,"correct":true,"confidence":5},{"trial_n":58,"min":81,"max":174,"target":"absent","response":"absent","rt":814.00000000006,"correct":true,"confidence":5},{"trial_n":59,"min":82,"max":173,"target":"absent","response":"absent","rt":781,"correct":true,"confidence":3},{"trial_n":60,"min":82,"max":173,"target":"absent","response":"absent","rt":821,"correct":true,"confidence":4},{"trial_n":61,"min":83,"max":172,"target":"present","response":"present","rt":1562,"correct":true,"confidence":2},{"trial_n":62,"min":83,"max":172,"target":"absent","response":"absent","rt":1044.0000000001,"correct":true,"confidence":4},{"trial_n":63,"min":84,"max":171,"target":"present","response":"present","rt":752,"correct":true,"confidence":4},{"trial_n":64,"min":84,"max":171,"target":"absent","response":"absent","rt":669,"correct":true,"confidence":5},{"trial_n":65,"min":85,"max":170,"target":"present","response":"present","rt":790,"correct":true,"confidence":4},{"trial_n":66,"min":85,"max":170,"target":"present","response":"present","rt":861.99999999994,"correct":true,"confidence":4},{"trial_n":67,"min":86,"max":169,"target":"absent","response":"absent","rt":846,"correct":true,"confidence":5},{"trial_n":68,"min":86,"max":169,"target":"absent","response":"absent","rt":878.00000000006,"correct":true,"confidence":5},{"trial_n":69,"min":87,"max":168,"target":"absent","response":"absent","rt":902,"correct":true,"confidence":5},{"trial_n":70,"min":87,"max":168,"target":"absent","response":"absent","rt":861.00000000006,"correct":true,"confidence":3},{"trial_n":71,"min":41,"max":214,"target":"present","response":"present","rt":18626,"correct":true,"confidence":-1},{"trial_n":72,"min":41,"max":214,"target":"present","response":"present","rt":1632,"correct":true,"confidence":-1},{"trial_n":73,"min":57,"max":198,"target":"absent","response":"absent","rt":1243,"correct":true,"confidence":-1},{"trial_n":74,"min":57,"max":198,"target":"absent","response":"absent","rt":979.00000000006,"correct":true,"confidence":-1},{"trial_n":75,"min":73,"max":182,"target":"present","response":"present","rt":964,"correct":true,"confidence":-1},{"trial_n":76,"min":73,"max":182,"target":"present","response":"present","rt":1141,"correct":true,"confidence":-1},{"trial_n":77,"min":89,"max":166,"target":"absent","response":"absent","rt":1484,"correct":true,"confidence":-1},{"trial_n":78,"min":89,"max":166,"target":"present","response":"present","rt":1503.0000000001,"correct":true,"confidence":-1},{"trial_n":79,"min":105,"max":150,"target":"absent","response":"absent","rt":3117,"correct":true,"confidence":-1},{"trial_n":80,"min":105,"max":150,"target":"absent","response":"present","rt":1493,"correct":false,"confidence":-1},{"trial_n":81,"min":97,"max":158,"target":"absent","response":"absent","rt":1209.9999999999,"correct":true,"confidence":-1},{"trial_n":82,"min":97,"max":158,"target":"absent","response":"absent","rt":1420.9999999999,"correct":true,"confidence":-1},{"trial_n":83,"min":105,"max":150,"target":"present","response":"absent","rt":1381.9999999999,"correct":false,"confidence":-1},{"trial_n":84,"min":97,"max":158,"target":"absent","response":"present","rt":1516,"correct":false,"confidence":-1},{"trial_n":85,"min":89,"max":166,"target":"present","response":"absent","rt":3332.0000000001,"correct":false,"confidence":-1},{"trial_n":86,"min":81,"max":174,"target":"absent","response":"absent","rt":1573.0000000001,"correct":true,"confidence":-1},{"trial_n":87,"min":81,"max":174,"target":"present","response":"present","rt":1043,"correct":true,"confidence":-1},{"trial_n":88,"min":89,"max":166,"target":"present","response":"absent","rt":1005,"correct":false,"confidence":-1},{"trial_n":89,"min":81,"max":174,"target":"present","response":"present","rt":668,"correct":true,"confidence":-1},{"trial_n":90,"min":81,"max":174,"target":"present","response":"present","rt":1230,"correct":true,"confidence":-1},{"trial_n":91,"min":85,"max":170,"target":"present","response":"present","rt":1120,"correct":true,"confidence":3},{"trial_n":92,"min":85,"max":170,"target":"present","response":"present","rt":873,"correct":true,"confidence":5},{"trial_n":93,"min":89,"max":166,"target":"present","response":"present","rt":946,"correct":true,"confidence":4},{"trial_n":94,"min":89,"max":166,"target":"absent","response":"absent","rt":1353,"correct":true,"confidence":2},{"trial_n":95,"min":93,"max":162,"target":"absent","response":"absent","rt":1227,"correct":true,"confidence":3},{"trial_n":96,"min":93,"max":162,"target":"present","response":"present","rt":2123.9999999999,"correct":true,"confidence":1},{"trial_n":97,"min":97,"max":158,"target":"absent","response":"absent","rt":1698,"correct":true,"confidence":1},{"trial_n":98,"min":97,"max":158,"target":"present","response":"present","rt":1579,"correct":true,"confidence":3},{"trial_n":99,"min":101,"max":154,"target":"present","response":"absent","rt":1459,"correct":false,"confidence":2},{"trial_n":100,"min":97,"max":158,"target":"absent","response":"present","rt":1192.9999999999,"correct":false,"confidence":3},{"trial_n":101,"min":95,"max":160,"target":"present","response":"present","rt":1186.0000000001,"correct":true,"confidence":4},{"trial_n":102,"min":95,"max":160,"target":"absent","response":"absent","rt":1363,"correct":true,"confidence":1},{"trial_n":103,"min":97,"max":158,"target":"present","response":"present","rt":1358,"correct":true,"confidence":2},{"trial_n":104,"min":97,"max":158,"target":"present","response":"present","rt":1162.0000000001,"correct":true,"confidence":4},{"trial_n":105,"min":99,"max":156,"target":"present","response":"absent","rt":3055,"correct":false,"confidence":2},{"trial_n":106,"min":97,"max":158,"target":"present","response":"present","rt":1410,"correct":true,"confidence":3},{"trial_n":107,"min":97,"max":158,"target":"absent","response":"absent","rt":1130,"correct":true,"confidence":1},{"trial_n":108,"min":99,"max":156,"target":"present","response":"present","rt":1497.9999999999,"correct":true,"confidence":1},{"trial_n":109,"min":99,"max":156,"target":"present","response":"present","rt":897,"correct":true,"confidence":3},{"trial_n":110,"min":101,"max":154,"target":"absent","response":"present","rt":1003,"correct":false,"confidence":2},{"trial_n":111,"min":100,"max":155,"target":"absent","response":"absent","rt":2205.0000000001,"correct":true,"confidence":2},{"trial_n":112,"min":100,"max":155,"target":"present","response":"present","rt":1043,"correct":true,"confidence":3},{"trial_n":113,"min":101,"max":154,"target":"present","response":"present","rt":795,"correct":true,"confidence":4},{"trial_n":114,"min":101,"max":154,"target":"absent","response":"present","rt":2264,"correct":false,"confidence":1},{"trial_n":115,"min":100,"max":155,"target":"absent","response":"present","rt":1283,"correct":false,"confidence":3},{"trial_n":116,"min":99,"max":156,"target":"absent","response":"absent","rt":1620,"correct":true,"confidence":2},{"trial_n":117,"min":99,"max":156,"target":"present","response":"absent","rt":1179.9999999999,"correct":false,"confidence":1},{"trial_n":118,"min":98,"max":157,"target":"present","response":"present","rt":5442,"correct":true,"confidence":1},{"trial_n":119,"min":98,"max":157,"target":"absent","response":"present","rt":2423,"correct":false,"confidence":4},{"trial_n":120,"min":97,"max":158,"target":"present","response":"present","rt":1124,"correct":true,"confidence":3},{"trial_n":121,"min":97,"max":158,"target":"absent","response":"present","rt":914,"correct":false,"confidence":5},{"trial_n":122,"min":96,"max":159,"target":"absent","response":"present","rt":890,"correct":false,"confidence":4},{"trial_n":123,"min":95,"max":160,"target":"present","response":"present","rt":1332,"correct":true,"confidence":3},{"trial_n":124,"min":95,"max":160,"target":"absent","response":"absent","rt":2269,"correct":true,"confidence":2},{"trial_n":125,"min":96,"max":159,"target":"absent","response":"present","rt":1493,"correct":false,"confidence":3},{"trial_n":126,"min":95,"max":160,"target":"present","response":"present","rt":956,"correct":true,"confidence":5},{"trial_n":127,"min":95,"max":160,"target":"absent","response":"present","rt":978,"correct":false,"confidence":1},{"trial_n":128,"min":94,"max":161,"target":"absent","response":"present","rt":1091,"correct":false,"confidence":1},{"trial_n":129,"min":93,"max":162,"target":"present","response":"absent","rt":3273,"correct":false,"confidence":2},{"trial_n":130,"min":92,"max":163,"target":"absent","response":"present","rt":2534,"correct":false,"confidence":2},{"trial_n":131,"min":91,"max":164,"target":"present","response":"present","rt":1225,"correct":true,"confidence":4},{"trial_n":132,"min":91,"max":164,"target":"absent","response":"present","rt":1079,"correct":false,"confidence":1},{"trial_n":133,"min":90,"max":165,"target":"present","response":"present","rt":711,"correct":true,"confidence":5},{"trial_n":134,"min":90,"max":165,"target":"absent","response":"present","rt":1779,"correct":false,"confidence":2},{"trial_n":135,"min":89,"max":166,"target":"present","response":"present","rt":795,"correct":true,"confidence":5},{"trial_n":136,"min":89,"max":166,"target":"absent","response":"absent","rt":1323,"correct":true,"confidence":1},{"trial_n":137,"min":90,"max":165,"target":"absent","response":"present","rt":1378,"correct":false,"confidence":3},{"trial_n":138,"min":89,"max":166,"target":"present","response":"present","rt":3708,"correct":true,"confidence":2},{"trial_n":139,"min":89,"max":166,"target":"absent","response":"absent","rt":2722,"correct":true,"confidence":2},{"trial_n":140,"min":90,"max":165,"target":"absent","response":"present","rt":920,"correct":false,"confidence":4}]