[{"trial_n":1,"min":25,"max":230,"target":"present","response":"present","rt":12403.300000072,"correct":true,"confidence":-1},{"trial_n":2,"min":25,"max":230,"target":"present","response":"present","rt":3460.6999999285,"correct":true,"confidence":-1},{"trial_n":3,"min":41,"max":214,"target":"absent","response":"absent","rt":2664.0999999046,"correct":true,"confidence":-1},{"trial_n":4,"min":41,"max":214,"target":"absent","response":"absent","rt":821.5,"correct":true,"confidence":-1},{"trial_n":5,"min":57,"max":198,"target":"present","response":"present","rt":1582.4000000954,"correct":true,"confidence":-1},{"trial_n":6,"min":57,"max":198,"target":"present","response":"present","rt":2494.9000000954,"correct":true,"confidence":-1},{"trial_n":7,"min":73,"max":182,"target":"absent","response":"absent","rt":1508.3000000715,"correct":true,"confidence":-1},{"trial_n":8,"min":73,"max":182,"target":"present","response":"present","rt":1977.2000000477,"correct":true,"confidence":-1},{"trial_n":9,"min":89,"max":166,"target":"present","response":"absent","rt":2569.5,"correct":false,"confidence":-1},{"trial_n":10,"min":73,"max":182,"target":"absent","response":"present","rt":1561.6000000238,"correct":false,"confidence":-1},{"trial_n":11,"min":65,"max":190,"target":"absent","response":"absent","rt":1811.3999999762,"correct":true,"confidence":-1},{"trial_n":12,"min":65,"max":190,"target":"absent","response":"absent","rt":820,"correct":true,"confidence":-1},{"trial_n":13,"min":73,"max":182,"target":"present","response":"absent","rt":700,"correct":false,"confidence":-1},{"trial_n":14,"min":65,"max":190,"target":"present","response":"present","rt":1285.8999999762,"correct":true,"confidence":-1},{"trial_n":15,"min":65,"max":190,"target":"present","response":"present","rt":772.79999995232,"correct":true,"confidence":-1},{"trial_n":16,"min":73,"max":182,"target":"absent","response":"absent","rt":2808.2000000477,"correct":true,"confidence":-1},{"trial_n":17,"min":73,"max":182,"target":"absent","response":"absent","rt":793.80000007153,"correct":true,"confidence":-1},{"trial_n":18,"min":81,"max":174,"target":"absent","response":"absent","rt":851.39999997616,"correct":true,"confidence":-1},{"trial_n":19,"min":81,"max":174,"target":"present","response":"absent","rt":2514.7000000477,"correct":false,"confidence":-1},{"trial_n":20,"min":73,"max":182,"target":"absent","response":"present","rt":1862,"correct":false,"confidence":-1},{"trial_n":21,"min":69,"max":186,"target":"present","response":"present","rt":1043.9000000954,"correct":true,"confidence":4},{"trial_n":22,"min":69,"max":186,"target":"absent","response":"absent","rt":1257.1999999285,"correct":true,"confidence":5},{"trial_n":23,"min":73,"max":182,"target":"absent","response":"absent","rt":1813.8999999762,"correct":true,"confidence":3},{"trial_n":24,"min":73,"max":182,"target":"absent","response":"present","rt":1500.6999999285,"correct":false,"confidence":3},{"trial_n":25,"min":69,"max":186,"target":"present","response":"present","rt":1046,"correct":true,"confidence":5},{"trial_n":26,"min":69,"max":186,"target":"present","response":"present","rt":1666.6999999285,"correct":true,"confidence":5},{"trial_n":27,"min":73,"max":182,"target":"absent","response":"present","rt":2299.6000000238,"correct":false,"confidence":3},{"trial_n":28,"min":69,"max":186,"target":"absent","response":"absent","rt":1126.8000000715,"correct":true,"confidence":4},{"trial_n":29,"min":69,"max":186,"target":"present","response":"present","rt":1040.6000000238,"correct":true,"confidence":5},{"trial_n":30,"min":73,"max":182,"target":"absent","response":"absent","rt":1283.8000000715,"correct":true,"confidence":3},{"trial_n":31,"min":73,"max":182,"target":"absent","response":"absent","rt":1712.3999999762,"correct":true,"confidence":3},{"trial_n":32,"min":75,"max":180,"target":"absent","response":"absent","rt":1620.7999999523,"correct":true,"confidence":4},{"trial_n":33,"min":75,"max":180,"target":"absent","response":"absent","rt":4355.1000000238,"correct":true,"confidence":1},{"trial_n":34,"min":77,"max":178,"target":"present","response":"present","rt":1150.7000000477,"correct":true,"confidence":5},{"trial_n":35,"min":77,"max":178,"target":"present","response":"present","rt":1130.2999999523,"correct":true,"confidence":5},{"trial_n":36,"min":79,"max":176,"target":"absent","response":"absent","rt":1195.7999999523,"correct":true,"confidence":4},{"trial_n":37,"min":79,"max":176,"target":"present","response":"absent","rt":1146.6999999285,"correct":false,"confidence":4},{"trial_n":38,"min":77,"max":178,"target":"present","response":"present","rt":1449.3999999762,"correct":true,"confidence":5},{"trial_n":39,"min":77,"max":178,"target":"absent","response":"absent","rt":1182.7000000477,"correct":true,"confidence":4},{"trial_n":40,"min":79,"max":176,"target":"present","response":"present","rt":1048.2999999523,"correct":true,"confidence":5},{"trial_n":41,"min":79,"max":176,"target":"present","response":"present","rt":1237.2999999523,"correct":true,"confidence":5},{"trial_n":42,"min":80,"max":175,"target":"absent","response":"absent","rt":1154,"correct":true,"confidence":4},{"trial_n":43,"min":80,"max":175,"target":"present","response":"present","rt":1196.3000000715,"correct":true,"confidence":4},{"trial_n":44,"min":81,"max":174,"target":"absent","response":"absent","rt":1364.5999999046,"correct":true,"confidence":5},{"trial_n":45,"min":81,"max":174,"target":"present","response":"present","rt":1146.8999999762,"correct":true,"confidence":5},{"trial_n":46,"min":82,"max":173,"target":"present","response":"present","rt":1033.3999999762,"correct":true,"confidence":5},{"trial_n":47,"min":82,"max":173,"target":"present","response":"absent","rt":1076,"correct":false,"confidence":4},{"trial_n":48,"min":81,"max":174,"target":"absent","response":"absent","rt":1107.5,"correct":true,"confidence":4},{"trial_n":49,"min":81,"max":174,"target":"absent","response":"absent","rt":1181.7000000477,"correct":true,"confidence":4},{"trial_n":50,"min":82,"max":173,"target":"absent","response":"absent","rt":1062.0999999046,"correct":true,"confidence":3},{"trial_n":51,"min":82,"max":173,"target":"present","response":"present","rt":1948.0999999046,"correct":true,"confidence":2},{"trial_n":52,"min":83,"max":172,"target":"absent","response":"absent","rt":1263.8999999762,"correct":true,"confidence":4},{"trial_n":53,"min":83,"max":172,"target":"absent","response":"absent","rt":1055.6000000238,"correct":true,"confidence":4},{"trial_n":54,"min":84,"max":171,"target":"present","response":"present","rt":1691.1999999285,"correct":true,"confidence":5},{"trial_n":55,"min":84,"max":171,"target":"present","response":"absent","rt":2256.2999999523,"correct":false,"confidence":3},{"trial_n":56,"min":83,"max":172,"target":"present","response":"absent","rt":1062.7999999523,"correct":false,"confidence":4},{"trial_n":57,"min":82,"max":173,"target":"present","response":"present","rt":1352.3000000715,"correct":true,"confidence":5},{"trial_n":58,"min":82,"max":173,"target":"present","response":"present","rt":968.69999992847,"correct":true,"confidence":4},{"trial_n":59,"min":83,"max":172,"target":"present","response":"absent","rt":1140.2000000477,"correct":false,"confidence":4},{"trial_n":60,"min":82,"max":173,"target":"absent","response":"absent","rt":1078.0999999046,"correct":true,"confidence":4},{"trial_n":61,"min":82,"max":173,"target":"present","response":"present","rt":1052.8999999762,"correct":true,"confidence":5},{"trial_n":62,"min":83,"max":172,"target":"present","response":"present","rt":1016.7999999523,"correct":true,"confidence":4},{"trial_n":63,"min":83,"max":172,"target":"present","response":"present","rt":1515.3000000715,"correct":true,"confidence":4},{"trial_n":64,"min":84,"max":171,"target":"absent","response":"absent","rt":1143.1000000238,"correct":true,"confidence":4},{"trial_n":65,"min":84,"max":171,"target":"absent","response":"absent","rt":1330.7999999523,"correct":true,"confidence":4},{"trial_n":66,"min":85,"max":170,"target":"present","response":"present","rt":1386.4000000954,"correct":true,"confidence":5},{"trial_n":67,"min":85,"max":170,"target":"absent","response":"absent","rt":1064,"correct":true,"confidence":4},{"trial_n":68,"min":86,"max":169,"target":"absent","response":"absent","rt":1019.5,"correct":true,"confidence":4},{"trial_n":69,"min":86,"max":169,"target":"absent","response":"absent","rt":1447,"correct":true,"confidence":3},{"trial_n":70,"min":87,"max":168,"target":"present","response":"present","rt":1003.6999999285,"correct":true,"confidence":5},{"trial_n":71,"min":41,"max":214,"target":"present","response":"present","rt":1100.8000000715,"correct":true,"confidence":-1},{"trial_n":72,"min":41,"max":214,"target":"present","response":"present","rt":936.79999995232,"correct":true,"confidence":-1},{"trial_n":73,"min":57,"max":198,"target":"absent","response":"absent","rt":1179.1000000238,"correct":true,"confidence":-1},{"trial_n":74,"min":57,"max":198,"target":"absent","response":"absent","rt":3104.1000000238,"correct":true,"confidence":-1},{"trial_n":75,"min":73,"max":182,"target":"present","response":"present","rt":409.70000004768,"correct":true,"confidence":-1},{"trial_n":76,"min":73,"max":182,"target":"absent","response":"absent","rt":485.39999997616,"correct":true,"confidence":-1},{"trial_n":77,"min":89,"max":166,"target":"present","response":"present","rt":1319.5,"correct":true,"confidence":-1},{"trial_n":78,"min":89,"max":166,"target":"present","response":"present","rt":462.89999997616,"correct":true,"confidence":-1},{"trial_n":79,"min":105,"max":150,"target":"absent","response":"absent","rt":656.89999997616,"correct":true,"confidence":-1},{"trial_n":80,"min":105,"max":150,"target":"present","response":"present","rt":754,"correct":true,"confidence":-1},{"trial_n":81,"min":113,"max":142,"target":"present","response":"present","rt":800.29999995232,"correct":true,"confidence":-1},{"trial_n":82,"min":113,"max":142,"target":"absent","response":"absent","rt":472.89999997616,"correct":true,"confidence":-1},{"trial_n":83,"min":121,"max":134,"target":"absent","response":"present","rt":460.19999992847,"correct":false,"confidence":-1},{"trial_n":84,"min":121,"max":134,"target":"absent","response":"absent","rt":763.89999997616,"correct":true,"confidence":-1},{"trial_n":85,"min":121,"max":134,"target":"absent","response":"absent","rt":897,"correct":true,"confidence":-1},{"trial_n":86,"min":121,"max":134,"target":"present","response":"present","rt":385.29999995232,"correct":true,"confidence":-1},{"trial_n":87,"min":121,"max":134,"target":"present","response":"present","rt":1049.5,"correct":true,"confidence":-1},{"trial_n":88,"min":121,"max":134,"target":"absent","response":"present","rt":804,"correct":false,"confidence":-1},{"trial_n":89,"min":121,"max":134,"target":"absent","response":"absent","rt":605.30000007153,"correct":true,"confidence":-1},{"trial_n":90,"min":121,"max":134,"target":"absent","response":"present","rt":664.59999990463,"correct":false,"confidence":-1},{"trial_n":91,"min":117,"max":138,"target":"present","response":"present","rt":810.79999995232,"correct":true,"confidence":1},{"trial_n":92,"min":117,"max":138,"target":"present","response":"present","rt":1031.6000000238,"correct":true,"confidence":3},{"trial_n":93,"min":121,"max":134,"target":"absent","response":"present","rt":587.70000004768,"correct":false,"confidence":4},{"trial_n":94,"min":117,"max":138,"target":"absent","response":"present","rt":1145.1000000238,"correct":false,"confidence":4},{"trial_n":95,"min":113,"max":142,"target":"absent","response":"present","rt":872,"correct":false,"confidence":3},{"trial_n":96,"min":109,"max":146,"target":"absent","response":"absent","rt":1963.5,"correct":true,"confidence":1},{"trial_n":97,"min":109,"max":146,"target":"absent","response":"present","rt":987.10000002384,"correct":false,"confidence":1},{"trial_n":98,"min":105,"max":150,"target":"absent","response":"present","rt":767.09999990463,"correct":false,"confidence":1},{"trial_n":99,"min":101,"max":154,"target":"present","response":"absent","rt":768.79999995232,"correct":false,"confidence":1},{"trial_n":100,"min":97,"max":158,"target":"absent","response":"present","rt":616.89999997616,"correct":false,"confidence":3},{"trial_n":101,"min":95,"max":160,"target":"present","response":"present","rt":470.10000002384,"correct":true,"confidence":3},{"trial_n":102,"min":95,"max":160,"target":"present","response":"present","rt":860.89999997616,"correct":true,"confidence":1},{"trial_n":103,"min":97,"max":158,"target":"present","response":"present","rt":968.09999990463,"correct":true,"confidence":1},{"trial_n":104,"min":97,"max":158,"target":"present","response":"absent","rt":540.30000007153,"correct":false,"confidence":3},{"trial_n":105,"min":95,"max":160,"target":"present","response":"present","rt":448.40000009537,"correct":true,"confidence":3},{"trial_n":106,"min":95,"max":160,"target":"present","response":"present","rt":803,"correct":true,"confidence":1},{"trial_n":107,"min":97,"max":158,"target":"present","response":"present","rt":1048,"correct":true,"confidence":3},{"trial_n":108,"min":97,"max":158,"target":"absent","response":"present","rt":580.69999992847,"correct":false,"confidence":3},{"trial_n":109,"min":95,"max":160,"target":"absent","response":"present","rt":2574,"correct":false,"confidence":1},{"trial_n":110,"min":93,"max":162,"target":"present","response":"present","rt":274,"correct":true,"confidence":3},{"trial_n":111,"min":93,"max":162,"target":"absent","response":"present","rt":515,"correct":false,"confidence":3},{"trial_n":112,"min":92,"max":163,"target":"present","response":"present","rt":472.5,"correct":true,"confidence":3},{"trial_n":113,"min":92,"max":163,"target":"absent","response":"present","rt":929.5,"correct":false,"confidence":2},{"trial_n":114,"min":91,"max":164,"target":"present","response":"present","rt":895.89999997616,"correct":true,"confidence":1},{"trial_n":115,"min":91,"max":164,"target":"absent","response":"absent","rt":1032.7000000477,"correct":true,"confidence":1},{"trial_n":116,"min":92,"max":163,"target":"present","response":"present","rt":788.29999995232,"correct":true,"confidence":1},{"trial_n":117,"min":92,"max":163,"target":"absent","response":"present","rt":1639.8999999762,"correct":false,"confidence":1},{"trial_n":118,"min":91,"max":164,"target":"present","response":"present","rt":860.29999995232,"correct":true,"confidence":3},{"trial_n":119,"min":91,"max":164,"target":"present","response":"absent","rt":1722,"correct":false,"confidence":3},{"trial_n":120,"min":90,"max":165,"target":"absent","response":"present","rt":570.5,"correct":false,"confidence":3},{"trial_n":121,"min":89,"max":166,"target":"present","response":"present","rt":629.79999995232,"correct":true,"confidence":3},{"trial_n":122,"min":89,"max":166,"target":"present","response":"present","rt":1114.6000000238,"correct":true,"confidence":2},{"trial_n":123,"min":90,"max":165,"target":"present","response":"present","rt":250.60000002384,"correct":true,"confidence":4},{"trial_n":124,"min":90,"max":165,"target":"present","response":"present","rt":565.5,"correct":true,"confidence":3},{"trial_n":125,"min":91,"max":164,"target":"present","response":"present","rt":855.60000002384,"correct":true,"confidence":3},{"trial_n":126,"min":91,"max":164,"target":"absent","response":"present","rt":2116.7999999523,"correct":false,"confidence":1},{"trial_n":127,"min":90,"max":165,"target":"absent","response":"present","rt":1165.3999999762,"correct":false,"confidence":1},{"trial_n":128,"min":89,"max":166,"target":"present","response":"present","rt":700.89999997616,"correct":true,"confidence":1},{"trial_n":129,"min":89,"max":166,"target":"absent","response":"present","rt":7409.7999999523,"correct":false,"confidence":2},{"trial_n":130,"min":88,"max":167,"target":"present","response":"present","rt":614,"correct":true,"confidence":4},{"trial_n":131,"min":88,"max":167,"target":"absent","response":"present","rt":696.60000002384,"correct":false,"confidence":4},{"trial_n":132,"min":87,"max":168,"target":"present","response":"present","rt":438.20000004768,"correct":true,"confidence":4},{"trial_n":133,"min":87,"max":168,"target":"present","response":"present","rt":382.5,"correct":true,"confidence":4},{"trial_n":134,"min":88,"max":167,"target":"present","response":"present","rt":533.39999997616,"correct":true,"confidence":2},{"trial_n":135,"min":88,"max":167,"target":"present","response":"present","rt":413.60000002384,"correct":true,"confidence":3},{"trial_n":136,"min":89,"max":166,"target":"absent","response":"present","rt":773.19999992847,"correct":false,"confidence":1},{"trial_n":137,"min":88,"max":167,"target":"absent","response":"present","rt":416.79999995232,"correct":false,"confidence":1},{"trial_n":138,"min":87,"max":168,"target":"absent","response":"present","rt":339.09999990463,"correct":false,"confidence":2},{"trial_n":139,"min":86,"max":169,"target":"absent","response":"present","rt":1600.1999999285,"correct":false,"confidence":1},{"trial_n":140,"min":85,"max":170,"target":"absent","response":"absent","rt":857.5,"correct":true,"confidence":2}]