[{"trial_n":1,"min":25,"max":230,"target":"present","response":"present","rt":6107.7999992371,"correct":true,"confidence":-1},{"trial_n":2,"min":25,"max":230,"target":"present","response":"present","rt":2220.5,"correct":true,"confidence":-1},{"trial_n":3,"min":41,"max":214,"target":"absent","response":"present","rt":820.30000019073,"correct":false,"confidence":-1},{"trial_n":4,"min":25,"max":230,"target":"absent","response":"present","rt":1333.6999998093,"correct":false,"confidence":-1},{"trial_n":5,"min":9,"max":246,"target":"present","response":"present","rt":651.5,"correct":true,"confidence":-1},{"trial_n":6,"min":9,"max":246,"target":"present","response":"present","rt":603.69999980927,"correct":true,"confidence":-1},{"trial_n":7,"min":25,"max":230,"target":"present","response":"present","rt":472.20000076294,"correct":true,"confidence":-1},{"trial_n":8,"min":25,"max":230,"target":"absent","response":"present","rt":248.69999980927,"correct":false,"confidence":-1},{"trial_n":9,"min":9,"max":246,"target":"absent","response":"present","rt":224.4000005722,"correct":false,"confidence":-1},{"trial_n":10,"min":0,"max":255,"target":"absent","response":"present","rt":151.69999980927,"correct":false,"confidence":-1},{"trial_n":11,"min":0,"max":255,"target":"present","response":"present","rt":173.69999980927,"correct":true,"confidence":-1},{"trial_n":12,"min":0,"max":255,"target":"absent","response":"present","rt":225.70000076294,"correct":false,"confidence":-1},{"trial_n":13,"min":0,"max":255,"target":"absent","response":"present","rt":254,"correct":false,"confidence":-1},{"trial_n":14,"min":0,"max":255,"target":"absent","response":"present","rt":926.80000019073,"correct":false,"confidence":-1},{"trial_n":15,"min":0,"max":255,"target":"absent","response":"present","rt":1714.1999998093,"correct":false,"confidence":-1},{"trial_n":16,"min":0,"max":255,"target":"absent","response":"present","rt":246.19999980927,"correct":false,"confidence":-1},{"trial_n":17,"min":0,"max":255,"target":"present","response":"present","rt":193.10000038147,"correct":true,"confidence":-1},{"trial_n":18,"min":0,"max":255,"target":"absent","response":"present","rt":1070.1000003815,"correct":false,"confidence":-1},{"trial_n":19,"min":0,"max":255,"target":"present","response":"present","rt":2159.6000003815,"correct":true,"confidence":-1},{"trial_n":20,"min":0,"max":255,"target":"present","response":"present","rt":628.80000019073,"correct":true,"confidence":-1},{"trial_n":21,"min":4,"max":251,"target":"absent","response":"absent","rt":2104.9000005722,"correct":true,"confidence":2},{"trial_n":22,"min":4,"max":251,"target":"present","response":"present","rt":2045.3000001907,"correct":true,"confidence":3},{"trial_n":23,"min":8,"max":247,"target":"absent","response":"absent","rt":1585.1999998093,"correct":true,"confidence":1},{"trial_n":24,"min":8,"max":247,"target":"present","response":"absent","rt":1838,"correct":false,"confidence":3},{"trial_n":25,"min":4,"max":251,"target":"absent","response":"absent","rt":1798.6000003815,"correct":true,"confidence":4},{"trial_n":26,"min":4,"max":251,"target":"absent","response":"absent","rt":1653.3000001907,"correct":true,"confidence":4},{"trial_n":27,"min":8,"max":247,"target":"absent","response":"absent","rt":1228.1000003815,"correct":true,"confidence":4},{"trial_n":28,"min":8,"max":247,"target":"present","response":"present","rt":1828.2999992371,"correct":true,"confidence":4},{"trial_n":29,"min":12,"max":243,"target":"present","response":"present","rt":1922.5999994278,"correct":true,"confidence":4},{"trial_n":30,"min":12,"max":243,"target":"absent","response":"absent","rt":2207.0999994278,"correct":true,"confidence":4},{"trial_n":31,"min":14,"max":241,"target":"absent","response":"absent","rt":1286.8000001907,"correct":true,"confidence":4},{"trial_n":32,"min":14,"max":241,"target":"present","response":"present","rt":3308.5999994278,"correct":true,"confidence":4},{"trial_n":33,"min":16,"max":239,"target":"absent","response":"absent","rt":1907.9000005722,"correct":true,"confidence":4},{"trial_n":34,"min":16,"max":239,"target":"absent","response":"absent","rt":1372.5999994278,"correct":true,"confidence":1},{"trial_n":35,"min":18,"max":237,"target":"present","response":"present","rt":1810.8999996185,"correct":true,"confidence":4},{"trial_n":36,"min":18,"max":237,"target":"present","response":"present","rt":1938.3000001907,"correct":true,"confidence":1},{"trial_n":37,"min":20,"max":235,"target":"absent","response":"absent","rt":2192.6000003815,"correct":true,"confidence":4},{"trial_n":38,"min":20,"max":235,"target":"present","response":"present","rt":2376.6000003815,"correct":true,"confidence":4},{"trial_n":39,"min":22,"max":233,"target":"present","response":"present","rt":1526.0999994278,"correct":true,"confidence":3},{"trial_n":40,"min":22,"max":233,"target":"present","response":"present","rt":1652.1000003815,"correct":true,"confidence":4},{"trial_n":41,"min":23,"max":232,"target":"present","response":"present","rt":2548.3000001907,"correct":true,"confidence":3},{"trial_n":42,"min":23,"max":232,"target":"absent","response":"absent","rt":1405.6999998093,"correct":true,"confidence":4},{"trial_n":43,"min":24,"max":231,"target":"present","response":"present","rt":2449.9000005722,"correct":true,"confidence":4},{"trial_n":44,"min":24,"max":231,"target":"present","response":"present","rt":3810.1999998093,"correct":true,"confidence":4},{"trial_n":45,"min":25,"max":230,"target":"absent","response":"absent","rt":1701.1000003815,"correct":true,"confidence":4},{"trial_n":46,"min":25,"max":230,"target":"present","response":"present","rt":2493.1000003815,"correct":true,"confidence":4},{"trial_n":47,"min":26,"max":229,"target":"present","response":"present","rt":1936.7999992371,"correct":true,"confidence":4},{"trial_n":48,"min":26,"max":229,"target":"present","response":"present","rt":1832.3000001907,"correct":true,"confidence":4},{"trial_n":49,"min":27,"max":228,"target":"absent","response":"absent","rt":1759.2999992371,"correct":true,"confidence":4},{"trial_n":50,"min":27,"max":228,"target":"absent","response":"absent","rt":3193.9000005722,"correct":true,"confidence":4},{"trial_n":51,"min":28,"max":227,"target":"absent","response":"absent","rt":2631.5999994278,"correct":true,"confidence":4},{"trial_n":52,"min":28,"max":227,"target":"present","response":"absent","rt":1852.8999996185,"correct":false,"confidence":4},{"trial_n":53,"min":27,"max":228,"target":"present","response":"present","rt":1372.8000001907,"correct":true,"confidence":3},{"trial_n":54,"min":27,"max":228,"target":"present","response":"present","rt":1224.6999998093,"correct":true,"confidence":3},{"trial_n":55,"min":28,"max":227,"target":"present","response":"present","rt":1087.3000001907,"correct":true,"confidence":4},{"trial_n":56,"min":28,"max":227,"target":"absent","response":"absent","rt":1000.8999996185,"correct":true,"confidence":4},{"trial_n":57,"min":29,"max":226,"target":"present","response":"present","rt":930.19999980927,"correct":true,"confidence":3},{"trial_n":58,"min":29,"max":226,"target":"absent","response":"absent","rt":935,"correct":true,"confidence":4},{"trial_n":59,"min":30,"max":225,"target":"absent","response":"absent","rt":1099.3999996185,"correct":true,"confidence":4},{"trial_n":60,"min":30,"max":225,"target":"absent","response":"absent","rt":548.60000038147,"correct":true,"confidence":4},{"trial_n":61,"min":31,"max":224,"target":"present","response":"present","rt":1706.9000005722,"correct":true,"confidence":2},{"trial_n":62,"min":31,"max":224,"target":"absent","response":"absent","rt":1000.1000003815,"correct":true,"confidence":4},{"trial_n":63,"min":32,"max":223,"target":"present","response":"absent","rt":763.5999994278,"correct":false,"confidence":3},{"trial_n":64,"min":31,"max":224,"target":"absent","response":"absent","rt":959.5999994278,"correct":true,"confidence":4},{"trial_n":65,"min":31,"max":224,"target":"present","response":"present","rt":1272.0999994278,"correct":true,"confidence":3},{"trial_n":66,"min":32,"max":223,"target":"present","response":"present","rt":1092.5,"correct":true,"confidence":4},{"trial_n":67,"min":32,"max":223,"target":"absent","response":"absent","rt":820.9000005722,"correct":true,"confidence":4},{"trial_n":68,"min":33,"max":222,"target":"absent","response":"absent","rt":470.0999994278,"correct":true,"confidence":4},{"trial_n":69,"min":33,"max":222,"target":"present","response":"present","rt":713.89999961853,"correct":true,"confidence":3},{"trial_n":70,"min":34,"max":221,"target":"present","response":"present","rt":821.60000038147,"correct":true,"confidence":3},{"trial_n":71,"min":41,"max":214,"target":"present","response":"absent","rt":7268.6999998093,"correct":false,"confidence":-1},{"trial_n":72,"min":41,"max":214,"target":"present","response":"present","rt":2983.3000001907,"correct":true,"confidence":-1},{"trial_n":73,"min":41,"max":214,"target":"absent","response":"absent","rt":975,"correct":true,"confidence":-1},{"trial_n":74,"min":57,"max":198,"target":"absent","response":"absent","rt":1607,"correct":true,"confidence":-1},{"trial_n":75,"min":57,"max":198,"target":"present","response":"absent","rt":659.30000019073,"correct":false,"confidence":-1},{"trial_n":76,"min":41,"max":214,"target":"present","response":"present","rt":1082.3000001907,"correct":true,"confidence":-1},{"trial_n":77,"min":41,"max":214,"target":"present","response":"present","rt":832.39999961853,"correct":true,"confidence":-1},{"trial_n":78,"min":57,"max":198,"target":"absent","response":"absent","rt":710.5,"correct":true,"confidence":-1},{"trial_n":79,"min":57,"max":198,"target":"present","response":"present","rt":874.39999961853,"correct":true,"confidence":-1},{"trial_n":80,"min":73,"max":182,"target":"absent","response":"absent","rt":928.39999961853,"correct":true,"confidence":-1},{"trial_n":81,"min":73,"max":182,"target":"present","response":"present","rt":927.0999994278,"correct":true,"confidence":-1},{"trial_n":82,"min":81,"max":174,"target":"absent","response":"absent","rt":725.5,"correct":true,"confidence":-1},{"trial_n":83,"min":81,"max":174,"target":"present","response":"present","rt":845.89999961853,"correct":true,"confidence":-1},{"trial_n":84,"min":89,"max":166,"target":"absent","response":"absent","rt":637,"correct":true,"confidence":-1},{"trial_n":85,"min":89,"max":166,"target":"present","response":"present","rt":469.9000005722,"correct":true,"confidence":-1},{"trial_n":86,"min":97,"max":158,"target":"present","response":"absent","rt":273.19999980927,"correct":false,"confidence":-1},{"trial_n":87,"min":89,"max":166,"target":"present","response":"present","rt":1727.5999994278,"correct":true,"confidence":-1},{"trial_n":88,"min":89,"max":166,"target":"absent","response":"absent","rt":448.80000019073,"correct":true,"confidence":-1},{"trial_n":89,"min":97,"max":158,"target":"absent","response":"present","rt":378.5,"correct":false,"confidence":-1},{"trial_n":90,"min":89,"max":166,"target":"absent","response":"absent","rt":424.30000019073,"correct":true,"confidence":-1},{"trial_n":91,"min":89,"max":166,"target":"absent","response":"absent","rt":891.70000076294,"correct":true,"confidence":3},{"trial_n":92,"min":93,"max":162,"target":"absent","response":"absent","rt":1258.0999994278,"correct":true,"confidence":3},{"trial_n":93,"min":93,"max":162,"target":"absent","response":"present","rt":1195.7000007629,"correct":false,"confidence":4},{"trial_n":94,"min":89,"max":166,"target":"present","response":"present","rt":787.89999961853,"correct":true,"confidence":1},{"trial_n":95,"min":89,"max":166,"target":"absent","response":"absent","rt":310.89999961853,"correct":true,"confidence":3},{"trial_n":96,"min":93,"max":162,"target":"present","response":"absent","rt":2769.9000005722,"correct":false,"confidence":4},{"trial_n":97,"min":89,"max":166,"target":"absent","response":"present","rt":1098.6000003815,"correct":false,"confidence":3},{"trial_n":98,"min":85,"max":170,"target":"absent","response":"absent","rt":1640.1000003815,"correct":true,"confidence":3},{"trial_n":99,"min":85,"max":170,"target":"absent","response":"present","rt":313,"correct":false,"confidence":3},{"trial_n":100,"min":81,"max":174,"target":"present","response":"absent","rt":170.10000038147,"correct":false,"confidence":3},{"trial_n":101,"min":79,"max":176,"target":"present","response":"present","rt":1148.9000005722,"correct":true,"confidence":2},{"trial_n":102,"min":79,"max":176,"target":"present","response":"present","rt":616.10000038147,"correct":true,"confidence":2},{"trial_n":103,"min":81,"max":174,"target":"absent","response":"present","rt":813.10000038147,"correct":false,"confidence":1},{"trial_n":104,"min":79,"max":176,"target":"present","response":"present","rt":423.10000038147,"correct":true,"confidence":1},{"trial_n":105,"min":79,"max":176,"target":"present","response":"absent","rt":770.30000019073,"correct":false,"confidence":1},{"trial_n":106,"min":77,"max":178,"target":"absent","response":"absent","rt":324.30000019073,"correct":true,"confidence":1},{"trial_n":107,"min":77,"max":178,"target":"present","response":"absent","rt":459.0999994278,"correct":false,"confidence":1},{"trial_n":108,"min":75,"max":180,"target":"absent","response":"absent","rt":523.9000005722,"correct":true,"confidence":1},{"trial_n":109,"min":75,"max":180,"target":"absent","response":"absent","rt":723.69999980927,"correct":true,"confidence":1},{"trial_n":110,"min":77,"max":178,"target":"absent","response":"absent","rt":320.4000005722,"correct":true,"confidence":1},{"trial_n":111,"min":77,"max":178,"target":"present","response":"present","rt":77.89999961853,"correct":true,"confidence":2},{"trial_n":112,"min":78,"max":177,"target":"present","response":"absent","rt":47.60000038147,"correct":false,"confidence":1},{"trial_n":113,"min":77,"max":178,"target":"absent","response":"present","rt":423.89999961853,"correct":false,"confidence":2},{"trial_n":114,"min":76,"max":179,"target":"absent","response":"absent","rt":224.9000005722,"correct":true,"confidence":1},{"trial_n":115,"min":76,"max":179,"target":"present","response":"present","rt":1718.5,"correct":true,"confidence":2},{"trial_n":116,"min":77,"max":178,"target":"present","response":"present","rt":2048.8000001907,"correct":true,"confidence":2},{"trial_n":117,"min":77,"max":178,"target":"present","response":"absent","rt":43.900000572205,"correct":false,"confidence":1},{"trial_n":118,"min":76,"max":179,"target":"absent","response":"absent","rt":109.39999961853,"correct":true,"confidence":1},{"trial_n":119,"min":76,"max":179,"target":"absent","response":"absent","rt":33.800000190735,"correct":true,"confidence":1},{"trial_n":120,"min":77,"max":178,"target":"absent","response":"present","rt":268.60000038147,"correct":false,"confidence":1},{"trial_n":121,"min":76,"max":179,"target":"present","response":"absent","rt":393,"correct":false,"confidence":1},{"trial_n":122,"min":75,"max":180,"target":"present","response":"present","rt":152.10000038147,"correct":true,"confidence":1},{"trial_n":123,"min":75,"max":180,"target":"present","response":"absent","rt":232.30000019073,"correct":false,"confidence":2},{"trial_n":124,"min":74,"max":181,"target":"present","response":"present","rt":189.60000038147,"correct":true,"confidence":1},{"trial_n":125,"min":74,"max":181,"target":"absent","response":"absent","rt":152.10000038147,"correct":true,"confidence":1},{"trial_n":126,"min":75,"max":180,"target":"present","response":"present","rt":73.599999427795,"correct":true,"confidence":1},{"trial_n":127,"min":75,"max":180,"target":"present","response":"present","rt":1044.3999996185,"correct":true,"confidence":2},{"trial_n":128,"min":76,"max":179,"target":"present","response":"present","rt":176.5,"correct":true,"confidence":1},{"trial_n":129,"min":76,"max":179,"target":"absent","response":"absent","rt":184.79999923706,"correct":true,"confidence":1},{"trial_n":130,"min":77,"max":178,"target":"present","response":"present","rt":147.80000019073,"correct":true,"confidence":1},{"trial_n":131,"min":77,"max":178,"target":"absent","response":"present","rt":459.9000005722,"correct":false,"confidence":2},{"trial_n":132,"min":76,"max":179,"target":"present","response":"present","rt":273.30000019073,"correct":true,"confidence":1},{"trial_n":133,"min":76,"max":179,"target":"absent","response":"present","rt":158.19999980927,"correct":false,"confidence":1},{"trial_n":134,"min":75,"max":180,"target":"present","response":"absent","rt":253.0999994278,"correct":false,"confidence":2},{"trial_n":135,"min":74,"max":181,"target":"absent","response":"present","rt":101.10000038147,"correct":false,"confidence":2},{"trial_n":136,"min":73,"max":182,"target":"present","response":"present","rt":149,"correct":true,"confidence":1},{"trial_n":137,"min":73,"max":182,"target":"present","response":"absent","rt":3081.3000001907,"correct":false,"confidence":1},{"trial_n":138,"min":72,"max":183,"target":"absent","response":"absent","rt":767,"correct":true,"confidence":1},{"trial_n":139,"min":72,"max":183,"target":"absent","response":"present","rt":615.80000019073,"correct":false,"confidence":2},{"trial_n":140,"min":71,"max":184,"target":"absent","response":"present","rt":291.19999980927,"correct":false,"confidence":1}]