[{"trial_n":1,"n_dots":4.25,"target":"right","response":"left","rt":1496.2000007629,"correct":false,"confidence":-1},{"trial_n":2,"n_dots":4.25,"target":"left","response":"right","rt":619.30000019073,"correct":false,"confidence":-1},{"trial_n":3,"n_dots":4.65,"target":"left","response":"right","rt":284.5999994278,"correct":false,"confidence":-1},{"trial_n":4,"n_dots":5.05,"target":"left","response":"right","rt":250.69999980927,"correct":false,"confidence":-1},{"trial_n":5,"n_dots":5.45,"target":"left","response":"left","rt":2851.1999998093,"correct":true,"confidence":-1},{"trial_n":6,"n_dots":5.45,"target":"right","response":"right","rt":196.5,"correct":true,"confidence":-1},{"trial_n":7,"n_dots":5.05,"target":"right","response":"right","rt":29.200000762939,"correct":true,"confidence":-1},{"trial_n":8,"n_dots":5.05,"target":"left","response":"right","rt":44.200000762939,"correct":false,"confidence":-1},{"trial_n":9,"n_dots":5.25,"target":"left","response":"right","rt":2040.8000001907,"correct":false,"confidence":-1},{"trial_n":10,"n_dots":5.45,"target":"left","response":"left","rt":1181.1999998093,"correct":true,"confidence":-1},{"trial_n":11,"n_dots":5.45,"target":"right","response":"left","rt":18.5,"correct":false,"confidence":-1},{"trial_n":12,"n_dots":5.65,"target":"left","response":"left","rt":418,"correct":true,"confidence":-1},{"trial_n":13,"n_dots":5.65,"target":"left","response":"left","rt":469.30000019073,"correct":true,"confidence":-1},{"trial_n":14,"n_dots":5.55,"target":"left","response":"left","rt":2298.3999996185,"correct":true,"confidence":-1},{"trial_n":15,"n_dots":5.55,"target":"left","response":"left","rt":1938.8999996185,"correct":true,"confidence":-1},{"trial_n":16,"n_dots":5.45,"target":"right","response":"left","rt":2080.6999998093,"correct":false,"confidence":-1},{"trial_n":17,"n_dots":5.55,"target":"right","response":"right","rt":570.19999980927,"correct":true,"confidence":-1},{"trial_n":18,"n_dots":5.55,"target":"left","response":"left","rt":451.5999994278,"correct":true,"confidence":-1},{"trial_n":19,"n_dots":5.45,"target":"left","response":"left","rt":91.5,"correct":true,"confidence":-1},{"trial_n":20,"n_dots":5.45,"target":"left","response":"left","rt":1491.6000003815,"correct":true,"confidence":-1},{"trial_n":21,"n_dots":5.35,"target":"left","response":"left","rt":1363.8000001907,"correct":true,"confidence":1},{"trial_n":22,"n_dots":5.35,"target":"left","response":"left","rt":582.4000005722,"correct":true,"confidence":1},{"trial_n":23,"n_dots":5.25,"target":"right","response":"left","rt":1705.6999998093,"correct":false,"confidence":1},{"trial_n":24,"n_dots":5.35,"target":"right","response":"right","rt":1602.3000001907,"correct":true,"confidence":2},{"trial_n":25,"n_dots":5.35,"target":"left","response":"left","rt":447.5,"correct":true,"confidence":3},{"trial_n":26,"n_dots":5.25,"target":"right","response":"right","rt":1476.6999998093,"correct":true,"confidence":4},{"trial_n":27,"n_dots":5.25,"target":"left","response":"left","rt":550.39999961853,"correct":true,"confidence":1},{"trial_n":28,"n_dots":5.15,"target":"right","response":"left","rt":2112.3000001907,"correct":false,"confidence":2},{"trial_n":29,"n_dots":5.25,"target":"right","response":"right","rt":17.5,"correct":true,"confidence":1},{"trial_n":30,"n_dots":5.25,"target":"left","response":"right","rt":470.5,"correct":false,"confidence":1},{"trial_n":31,"n_dots":5.35,"target":"left","response":"left","rt":3370.3999996185,"correct":true,"confidence":2},{"trial_n":32,"n_dots":5.35,"target":"left","response":"right","rt":1507.3999996185,"correct":false,"confidence":1},{"trial_n":33,"n_dots":5.45,"target":"left","response":"left","rt":1549.1999998093,"correct":true,"confidence":1},{"trial_n":34,"n_dots":5.45,"target":"left","response":"right","rt":21.89999961853,"correct":false,"confidence":2},{"trial_n":35,"n_dots":5.55,"target":"left","response":"right","rt":1231.6000003815,"correct":false,"confidence":3},{"trial_n":36,"n_dots":5.65,"target":"right","response":"left","rt":134.60000038147,"correct":false,"confidence":1},{"trial_n":37,"n_dots":5.743,"target":"right","response":"right","rt":384,"correct":true,"confidence":3},{"trial_n":38,"n_dots":5.743,"target":"right","response":"right","rt":2667.6000003815,"correct":true,"confidence":3},{"trial_n":39,"n_dots":5.643,"target":"right","response":"left","rt":816.39999961853,"correct":false,"confidence":3},{"trial_n":40,"n_dots":5.743,"target":"right","response":"right","rt":359.39999961853,"correct":true,"confidence":3},{"trial_n":41,"n_dots":5.743,"target":"right","response":"right","rt":958.10000038147,"correct":true,"confidence":3},{"trial_n":42,"n_dots":5.643,"target":"right","response":"right","rt":325.39999961853,"correct":true,"confidence":3},{"trial_n":43,"n_dots":5.643,"target":"right","response":"right","rt":794.69999980927,"correct":true,"confidence":3},{"trial_n":44,"n_dots":5.543,"target":"right","response":"right","rt":1361.9000005722,"correct":true,"confidence":3},{"trial_n":45,"n_dots":5.543,"target":"left","response":"right","rt":1327,"correct":false,"confidence":1},{"trial_n":46,"n_dots":5.643,"target":"left","response":"left","rt":793.19999980927,"correct":true,"confidence":3},{"trial_n":47,"n_dots":5.643,"target":"left","response":"left","rt":3066.0999994278,"correct":true,"confidence":3},{"trial_n":48,"n_dots":5.543,"target":"left","response":"left","rt":264.69999980927,"correct":true,"confidence":3},{"trial_n":49,"n_dots":5.543,"target":"left","response":"left","rt":97.699999809265,"correct":true,"confidence":3},{"trial_n":50,"n_dots":5.443,"target":"left","response":"left","rt":896,"correct":true,"confidence":1},{"trial_n":51,"n_dots":5.443,"target":"right","response":"right","rt":45.10000038147,"correct":true,"confidence":1},{"trial_n":52,"n_dots":5.343,"target":"right","response":"right","rt":161,"correct":true,"confidence":1},{"trial_n":53,"n_dots":5.343,"target":"left","response":"right","rt":897,"correct":false,"confidence":1},{"trial_n":54,"n_dots":5.443,"target":"left","response":"left","rt":1112.6000003815,"correct":true,"confidence":1},{"trial_n":55,"n_dots":5.443,"target":"left","response":"left","rt":846,"correct":true,"confidence":1},{"trial_n":56,"n_dots":5.343,"target":"right","response":"right","rt":65.699999809265,"correct":true,"confidence":1},{"trial_n":57,"n_dots":5.343,"target":"right","response":"right","rt":178.69999980927,"correct":true,"confidence":1},{"trial_n":58,"n_dots":5.243,"target":"right","response":"right","rt":36.39999961853,"correct":true,"confidence":3},{"trial_n":59,"n_dots":5.243,"target":"right","response":"right","rt":179.5999994278,"correct":true,"confidence":3},{"trial_n":60,"n_dots":5.143,"target":"right","response":"right","rt":484,"correct":true,"confidence":3},{"trial_n":61,"n_dots":5.143,"target":"left","response":"left","rt":784.0999994278,"correct":true,"confidence":3},{"trial_n":62,"n_dots":5.043,"target":"right","response":"right","rt":541.10000038147,"correct":true,"confidence":3},{"trial_n":63,"n_dots":5.043,"target":"left","response":"right","rt":760.5,"correct":false,"confidence":3},{"trial_n":64,"n_dots":5.143,"target":"right","response":"right","rt":280.69999980927,"correct":true,"confidence":3},{"trial_n":65,"n_dots":5.143,"target":"left","response":"left","rt":819.80000019073,"correct":true,"confidence":3},{"trial_n":66,"n_dots":5.043,"target":"right","response":"right","rt":3.5999994277954,"correct":true,"confidence":3},{"trial_n":67,"n_dots":5.043,"target":"right","response":"left","rt":133.29999923706,"correct":false,"confidence":1},{"trial_n":68,"n_dots":5.143,"target":"left","response":"left","rt":818.30000019073,"correct":true,"confidence":3},{"trial_n":69,"n_dots":5.143,"target":"right","response":"left","rt":200.0999994278,"correct":false,"confidence":3},{"trial_n":70,"n_dots":5.243,"target":"left","response":"left","rt":81.699999809265,"correct":true,"confidence":3},{"trial_n":71,"n_dots":5.243,"target":"right","response":"right","rt":118.9000005722,"correct":true,"confidence":3},{"trial_n":72,"n_dots":5.143,"target":"right","response":"left","rt":171,"correct":false,"confidence":3},{"trial_n":73,"n_dots":5.243,"target":"right","response":"right","rt":37.60000038147,"correct":true,"confidence":1},{"trial_n":74,"n_dots":5.243,"target":"left","response":"right","rt":313.10000038147,"correct":false,"confidence":3},{"trial_n":75,"n_dots":5.343,"target":"right","response":"left","rt":255.5,"correct":false,"confidence":1},{"trial_n":76,"n_dots":5.443,"target":"left","response":"left","rt":121.5,"correct":true,"confidence":1},{"trial_n":77,"n_dots":5.443,"target":"right","response":"left","rt":64.39999961853,"correct":false,"confidence":3},{"trial_n":78,"n_dots":5.543,"target":"right","response":"right","rt":42.199999809265,"correct":true,"confidence":3},{"trial_n":79,"n_dots":5.543,"target":"right","response":"left","rt":180.30000019073,"correct":false,"confidence":1},{"trial_n":80,"n_dots":5.643,"target":"left","response":"right","rt":295.9000005722,"correct":false,"confidence":1},{"trial_n":81,"n_dots":5.743,"target":"left","response":"left","rt":254.80000019073,"correct":true,"confidence":1},{"trial_n":82,"n_dots":5.743,"target":"left","response":"left","rt":641.60000038147,"correct":true,"confidence":1},{"trial_n":83,"n_dots":5.643,"target":"left","response":"left","rt":254.30000019073,"correct":true,"confidence":3},{"trial_n":84,"n_dots":5.643,"target":"right","response":"right","rt":669.5,"correct":true,"confidence":3},{"trial_n":85,"n_dots":5.543,"target":"right","response":"right","rt":403.69999980927,"correct":true,"confidence":3},{"trial_n":86,"n_dots":5.543,"target":"right","response":"right","rt":436.69999980927,"correct":true,"confidence":3},{"trial_n":87,"n_dots":5.443,"target":"right","response":"right","rt":265.80000019073,"correct":true,"confidence":1},{"trial_n":88,"n_dots":5.443,"target":"left","response":"left","rt":239.30000019073,"correct":true,"confidence":3},{"trial_n":89,"n_dots":5.343,"target":"left","response":"left","rt":148.30000019073,"correct":true,"confidence":3},{"trial_n":90,"n_dots":5.343,"target":"right","response":"right","rt":733.60000038147,"correct":true,"confidence":3},{"trial_n":91,"n_dots":5.243,"target":"right","response":"right","rt":727,"correct":true,"confidence":3},{"trial_n":92,"n_dots":5.243,"target":"right","response":"right","rt":132,"correct":true,"confidence":1},{"trial_n":93,"n_dots":5.143,"target":"right","response":"right","rt":0.10000038146973,"correct":true,"confidence":3},{"trial_n":94,"n_dots":5.143,"target":"left","response":"left","rt":137.4000005722,"correct":true,"confidence":2},{"trial_n":95,"n_dots":5.043,"target":"right","response":"left","rt":180.19999980927,"correct":false,"confidence":1},{"trial_n":96,"n_dots":5.143,"target":"left","response":"left","rt":89,"correct":true,"confidence":1},{"trial_n":97,"n_dots":5.143,"target":"right","response":"left","rt":3.8999996185303,"correct":false,"confidence":1},{"trial_n":98,"n_dots":5.243,"target":"right","response":"left","rt":168.0999994278,"correct":false,"confidence":1},{"trial_n":99,"n_dots":5.343,"target":"right","response":"left","rt":635,"correct":false,"confidence":1},{"trial_n":100,"n_dots":5.443,"target":"left","response":"left","rt":471.60000038147,"correct":true,"confidence":1},{"trial_n":101,"n_dots":5.443,"target":"left","response":"right","rt":253.29999923706,"correct":false,"confidence":1},{"trial_n":102,"n_dots":5.543,"target":"left","response":"right","rt":125.89999961853,"correct":false,"confidence":1},{"trial_n":103,"n_dots":5.643,"target":"left","response":"right","rt":242.60000038147,"correct":false,"confidence":1},{"trial_n":104,"n_dots":5.743,"target":"right","response":"right","rt":5.9000005722046,"correct":true,"confidence":1},{"trial_n":105,"n_dots":5.743,"target":"right","response":"right","rt":53.300000190735,"correct":true,"confidence":1},{"trial_n":106,"n_dots":5.643,"target":"left","response":"right","rt":215.79999923706,"correct":false,"confidence":1},{"trial_n":107,"n_dots":5.743,"target":"left","response":"right","rt":232.39999961853,"correct":false,"confidence":1},{"trial_n":108,"n_dots":5.743,"target":"right","response":"right","rt":220.5,"correct":true,"confidence":1},{"trial_n":109,"n_dots":5.743,"target":"left","response":"right","rt":30.900000572205,"correct":false,"confidence":1},{"trial_n":110,"n_dots":5.743,"target":"right","response":"right","rt":78.10000038147,"correct":true,"confidence":1},{"trial_n":111,"n_dots":5.743,"target":"right","response":"right","rt":35.89999961853,"correct":true,"confidence":1},{"trial_n":112,"n_dots":5.643,"target":"right","response":"right","rt":21.700000762939,"correct":true,"confidence":1},{"trial_n":113,"n_dots":5.643,"target":"left","response":"right","rt":140,"correct":false,"confidence":1},{"trial_n":114,"n_dots":5.743,"target":"right","response":"right","rt":176.70000076294,"correct":true,"confidence":1},{"trial_n":115,"n_dots":5.743,"target":"left","response":"right","rt":237,"correct":false,"confidence":1},{"trial_n":116,"n_dots":5.743,"target":"right","response":"right","rt":105.39999961853,"correct":true,"confidence":1},{"trial_n":117,"n_dots":5.743,"target":"left","response":"right","rt":232.69999980927,"correct":false,"confidence":1},{"trial_n":118,"n_dots":5.743,"target":"left","response":"right","rt":228.5,"correct":false,"confidence":1},{"trial_n":119,"n_dots":5.743,"target":"left","response":"right","rt":215,"correct":false,"confidence":1},{"trial_n":120,"n_dots":5.743,"target":"right","response":"right","rt":291.4000005722,"correct":true,"confidence":1}]