[{"trial_n":1,"n_dots":4.25,"target":"right","response":"left","rt":5253,"correct":false,"confidence":-1},{"trial_n":2,"n_dots":4.25,"target":"left","response":"left","rt":804,"correct":true,"confidence":-1},{"trial_n":3,"n_dots":4.25,"target":"right","response":"right","rt":1245,"correct":true,"confidence":-1},{"trial_n":4,"n_dots":3.85,"target":"left","response":"left","rt":509,"correct":true,"confidence":-1},{"trial_n":5,"n_dots":3.85,"target":"left","response":"right","rt":2123,"correct":false,"confidence":-1},{"trial_n":6,"n_dots":4.25,"target":"right","response":"right","rt":370,"correct":true,"confidence":-1},{"trial_n":7,"n_dots":4.25,"target":"left","response":"right","rt":524,"correct":false,"confidence":-1},{"trial_n":8,"n_dots":4.45,"target":"left","response":"left","rt":127,"correct":true,"confidence":-1},{"trial_n":9,"n_dots":4.45,"target":"right","response":"right","rt":182,"correct":true,"confidence":-1},{"trial_n":10,"n_dots":4.25,"target":"left","response":"left","rt":490,"correct":true,"confidence":-1},{"trial_n":11,"n_dots":4.25,"target":"left","response":"left","rt":377,"correct":true,"confidence":-1},{"trial_n":12,"n_dots":4.05,"target":"right","response":"right","rt":200,"correct":true,"confidence":-1},{"trial_n":13,"n_dots":4.05,"target":"left","response":"left","rt":438,"correct":true,"confidence":-1},{"trial_n":14,"n_dots":3.95,"target":"left","response":"left","rt":490,"correct":true,"confidence":-1},{"trial_n":15,"n_dots":3.95,"target":"left","response":"left","rt":617,"correct":true,"confidence":-1},{"trial_n":16,"n_dots":3.85,"target":"right","response":"right","rt":494,"correct":true,"confidence":-1},{"trial_n":17,"n_dots":3.85,"target":"left","response":"left","rt":464,"correct":true,"confidence":-1},{"trial_n":18,"n_dots":3.75,"target":"right","response":"right","rt":187,"correct":true,"confidence":-1},{"trial_n":19,"n_dots":3.75,"target":"right","response":"right","rt":163,"correct":true,"confidence":-1},{"trial_n":20,"n_dots":3.65,"target":"right","response":"right","rt":461,"correct":true,"confidence":-1},{"trial_n":21,"n_dots":3.65,"target":"right","response":"right","rt":230,"correct":true,"confidence":5},{"trial_n":22,"n_dots":3.55,"target":"left","response":"right","rt":416,"correct":false,"confidence":5},{"trial_n":23,"n_dots":3.65,"target":"left","response":"left","rt":648,"correct":true,"confidence":4},{"trial_n":24,"n_dots":3.65,"target":"right","response":"right","rt":325,"correct":true,"confidence":5},{"trial_n":25,"n_dots":3.55,"target":"right","response":"right","rt":414,"correct":true,"confidence":5},{"trial_n":26,"n_dots":3.55,"target":"right","response":"right","rt":321,"correct":true,"confidence":4},{"trial_n":27,"n_dots":3.45,"target":"left","response":"left","rt":629,"correct":true,"confidence":2},{"trial_n":28,"n_dots":3.45,"target":"right","response":"right","rt":144,"correct":true,"confidence":5},{"trial_n":29,"n_dots":3.35,"target":"right","response":"right","rt":190,"correct":true,"confidence":5},{"trial_n":30,"n_dots":3.35,"target":"left","response":"right","rt":41,"correct":false,"confidence":5},{"trial_n":31,"n_dots":3.45,"target":"right","response":"right","rt":131,"correct":true,"confidence":5},{"trial_n":32,"n_dots":3.45,"target":"left","response":"left","rt":427,"correct":true,"confidence":5},{"trial_n":33,"n_dots":3.35,"target":"left","response":"left","rt":513,"correct":true,"confidence":3},{"trial_n":34,"n_dots":3.35,"target":"left","response":"left","rt":381,"correct":true,"confidence":5},{"trial_n":35,"n_dots":3.25,"target":"right","response":"right","rt":740,"correct":true,"confidence":1},{"trial_n":36,"n_dots":3.25,"target":"right","response":"right","rt":145,"correct":true,"confidence":5},{"trial_n":37,"n_dots":3.15,"target":"right","response":"right","rt":473,"correct":true,"confidence":5},{"trial_n":38,"n_dots":3.15,"target":"right","response":"left","rt":576,"correct":false,"confidence":4},{"trial_n":39,"n_dots":3.25,"target":"left","response":"left","rt":447,"correct":true,"confidence":4},{"trial_n":40,"n_dots":3.25,"target":"right","response":"right","rt":603,"correct":true,"confidence":5},{"trial_n":41,"n_dots":3.15,"target":"left","response":"left","rt":1160,"correct":true,"confidence":5},{"trial_n":42,"n_dots":3.15,"target":"left","response":"left","rt":581,"correct":true,"confidence":4},{"trial_n":43,"n_dots":3.05,"target":"left","response":"right","rt":687,"correct":false,"confidence":3},{"trial_n":44,"n_dots":3.15,"target":"right","response":"right","rt":112,"correct":true,"confidence":5},{"trial_n":45,"n_dots":3.15,"target":"right","response":"right","rt":327,"correct":true,"confidence":1},{"trial_n":46,"n_dots":3.05,"target":"left","response":"left","rt":545,"correct":true,"confidence":5},{"trial_n":47,"n_dots":3.05,"target":"right","response":"right","rt":4461,"correct":true,"confidence":5},{"trial_n":48,"n_dots":2.95,"target":"right","response":"right","rt":458,"correct":true,"confidence":5},{"trial_n":49,"n_dots":2.95,"target":"left","response":"right","rt":812,"correct":false,"confidence":5},{"trial_n":50,"n_dots":3.05,"target":"right","response":"right","rt":257,"correct":true,"confidence":5},{"trial_n":51,"n_dots":3.05,"target":"left","response":"left","rt":614,"correct":true,"confidence":3},{"trial_n":52,"n_dots":2.95,"target":"left","response":"right","rt":327,"correct":false,"confidence":5},{"trial_n":53,"n_dots":3.05,"target":"left","response":"left","rt":714,"correct":true,"confidence":3},{"trial_n":54,"n_dots":3.05,"target":"left","response":"right","rt":261,"correct":false,"confidence":5},{"trial_n":55,"n_dots":3.15,"target":"right","response":"right","rt":452,"correct":true,"confidence":5},{"trial_n":56,"n_dots":3.15,"target":"left","response":"right","rt":237,"correct":false,"confidence":5},{"trial_n":57,"n_dots":3.25,"target":"right","response":"right","rt":422,"correct":true,"confidence":5},{"trial_n":58,"n_dots":3.25,"target":"left","response":"right","rt":508,"correct":false,"confidence":5},{"trial_n":59,"n_dots":3.35,"target":"right","response":"right","rt":682,"correct":true,"confidence":5},{"trial_n":60,"n_dots":3.35,"target":"right","response":"right","rt":375,"correct":true,"confidence":4},{"trial_n":61,"n_dots":3.25,"target":"left","response":"right","rt":194,"correct":false,"confidence":4},{"trial_n":62,"n_dots":3.35,"target":"right","response":"right","rt":56,"correct":true,"confidence":5},{"trial_n":63,"n_dots":3.35,"target":"left","response":"left","rt":589,"correct":true,"confidence":3},{"trial_n":64,"n_dots":3.25,"target":"left","response":"left","rt":634,"correct":true,"confidence":4},{"trial_n":65,"n_dots":3.25,"target":"left","response":"left","rt":562,"correct":true,"confidence":3},{"trial_n":66,"n_dots":3.15,"target":"right","response":"right","rt":44,"correct":true,"confidence":5},{"trial_n":67,"n_dots":3.15,"target":"right","response":"right","rt":753,"correct":true,"confidence":5},{"trial_n":68,"n_dots":3.05,"target":"right","response":"right","rt":694,"correct":true,"confidence":4},{"trial_n":69,"n_dots":3.05,"target":"right","response":"right","rt":881,"correct":true,"confidence":5},{"trial_n":70,"n_dots":2.95,"target":"right","response":"right","rt":185,"correct":true,"confidence":5},{"trial_n":71,"n_dots":2.95,"target":"left","response":"left","rt":1808,"correct":true,"confidence":1},{"trial_n":72,"n_dots":2.85,"target":"left","response":"right","rt":1010,"correct":false,"confidence":5},{"trial_n":73,"n_dots":2.95,"target":"right","response":"right","rt":639,"correct":true,"confidence":4},{"trial_n":74,"n_dots":2.95,"target":"right","response":"right","rt":183,"correct":true,"confidence":5},{"trial_n":75,"n_dots":2.85,"target":"left","response":"left","rt":3174,"correct":true,"confidence":2},{"trial_n":76,"n_dots":2.85,"target":"right","response":"right","rt":200,"correct":true,"confidence":4},{"trial_n":77,"n_dots":2.75,"target":"left","response":"right","rt":325,"correct":false,"confidence":5},{"trial_n":78,"n_dots":2.85,"target":"left","response":"left","rt":1092,"correct":true,"confidence":5},{"trial_n":79,"n_dots":2.85,"target":"left","response":"right","rt":1704,"correct":false,"confidence":4},{"trial_n":80,"n_dots":2.95,"target":"right","response":"right","rt":674,"correct":true,"confidence":3},{"trial_n":81,"n_dots":2.95,"target":"right","response":"right","rt":470,"correct":true,"confidence":4},{"trial_n":82,"n_dots":2.85,"target":"right","response":"right","rt":3444,"correct":true,"confidence":5},{"trial_n":83,"n_dots":2.85,"target":"left","response":"left","rt":631,"correct":true,"confidence":3},{"trial_n":84,"n_dots":2.75,"target":"left","response":"left","rt":1607,"correct":true,"confidence":3},{"trial_n":85,"n_dots":2.75,"target":"left","response":"left","rt":409,"correct":true,"confidence":1},{"trial_n":86,"n_dots":2.65,"target":"right","response":"right","rt":733,"correct":true,"confidence":4},{"trial_n":87,"n_dots":2.65,"target":"right","response":"left","rt":382,"correct":false,"confidence":3},{"trial_n":88,"n_dots":2.75,"target":"left","response":"left","rt":722,"correct":true,"confidence":2},{"trial_n":89,"n_dots":2.75,"target":"right","response":"right","rt":-4,"correct":true,"confidence":3},{"trial_n":90,"n_dots":2.65,"target":"left","response":"left","rt":282,"correct":true,"confidence":5},{"trial_n":91,"n_dots":2.65,"target":"right","response":"right","rt":1294,"correct":true,"confidence":5},{"trial_n":92,"n_dots":2.55,"target":"left","response":"right","rt":1509,"correct":false,"confidence":4},{"trial_n":93,"n_dots":2.65,"target":"right","response":"right","rt":1976,"correct":true,"confidence":3},{"trial_n":94,"n_dots":2.65,"target":"right","response":"right","rt":1098,"correct":true,"confidence":3},{"trial_n":95,"n_dots":2.55,"target":"left","response":"right","rt":712,"correct":false,"confidence":3},{"trial_n":96,"n_dots":2.65,"target":"left","response":"left","rt":359,"correct":true,"confidence":5},{"trial_n":97,"n_dots":2.65,"target":"left","response":"right","rt":610,"correct":false,"confidence":3},{"trial_n":98,"n_dots":2.75,"target":"right","response":"right","rt":1048,"correct":true,"confidence":4},{"trial_n":99,"n_dots":2.75,"target":"right","response":"left","rt":859,"correct":false,"confidence":1},{"trial_n":100,"n_dots":2.85,"target":"left","response":"right","rt":831,"correct":false,"confidence":4},{"trial_n":101,"n_dots":2.95,"target":"right","response":"right","rt":519,"correct":true,"confidence":3},{"trial_n":102,"n_dots":2.95,"target":"left","response":"left","rt":374,"correct":true,"confidence":3},{"trial_n":103,"n_dots":2.85,"target":"right","response":"right","rt":78,"correct":true,"confidence":4},{"trial_n":104,"n_dots":2.85,"target":"left","response":"right","rt":342,"correct":false,"confidence":3},{"trial_n":105,"n_dots":2.95,"target":"right","response":"right","rt":694,"correct":true,"confidence":4},{"trial_n":106,"n_dots":2.95,"target":"right","response":"right","rt":1314,"correct":true,"confidence":4},{"trial_n":107,"n_dots":2.85,"target":"right","response":"left","rt":832,"correct":false,"confidence":3},{"trial_n":108,"n_dots":2.95,"target":"right","response":"right","rt":417,"correct":true,"confidence":4},{"trial_n":109,"n_dots":2.95,"target":"left","response":"left","rt":841,"correct":true,"confidence":3},{"trial_n":110,"n_dots":2.85,"target":"left","response":"right","rt":655,"correct":false,"confidence":3},{"trial_n":111,"n_dots":2.95,"target":"left","response":"right","rt":268,"correct":false,"confidence":4},{"trial_n":112,"n_dots":3.05,"target":"left","response":"left","rt":544,"correct":true,"confidence":4},{"trial_n":113,"n_dots":3.05,"target":"right","response":"right","rt":217,"correct":true,"confidence":4},{"trial_n":114,"n_dots":2.95,"target":"left","response":"right","rt":334,"correct":false,"confidence":1},{"trial_n":115,"n_dots":3.05,"target":"left","response":"left","rt":1588,"correct":true,"confidence":4},{"trial_n":116,"n_dots":3.05,"target":"right","response":"right","rt":585,"correct":true,"confidence":1},{"trial_n":117,"n_dots":2.95,"target":"right","response":"left","rt":393,"correct":false,"confidence":4},{"trial_n":118,"n_dots":3.05,"target":"left","response":"left","rt":615,"correct":true,"confidence":4},{"trial_n":119,"n_dots":3.05,"target":"left","response":"right","rt":925,"correct":false,"confidence":4},{"trial_n":120,"n_dots":3.15,"target":"right","response":"left","rt":1324,"correct":false,"confidence":3}]