[{"trial_n":1,"span":8,"encoder":"47639102","distractor":"47639104","target":"present","response":"present","rt":"3052.5999999978","correct":true,"confidence":-1},{"trial_n":2,"span":8,"encoder":"89741817","distractor":"89741818","target":"present","response":"absent","rt":"7567.799999997","correct":false,"confidence":-1},{"trial_n":3,"span":6,"encoder":"928689","distractor":"928699","target":"absent","response":"present","rt":"3721.3000000007","correct":false,"confidence":-1},{"trial_n":4,"span":4,"encoder":"0912","distractor":"0922","target":"absent","response":"absent","rt":"3372","correct":true,"confidence":-1},{"trial_n":5,"span":4,"encoder":"8175","distractor":"8178","target":"present","response":"present","rt":"1382.1000000015","correct":true,"confidence":-1},{"trial_n":6,"span":6,"encoder":"657462","distractor":"057462","target":"absent","response":"absent","rt":"2407","correct":true,"confidence":-1},{"trial_n":7,"span":6,"encoder":"407929","distractor":"507929","target":"present","response":"present","rt":"2281.1999999993","correct":true,"confidence":-1},{"trial_n":8,"span":8,"encoder":"77777642","distractor":"77777649","target":"absent","response":"absent","rt":"2563.0999999978","correct":true,"confidence":-1},{"trial_n":9,"span":8,"encoder":"97095243","distractor":"97092243","target":"absent","response":"absent","rt":"5765.1999999993","correct":true,"confidence":-1},{"trial_n":10,"span":10,"encoder":"3403083938","distractor":"3408083938","target":"present","response":"absent","rt":"4317.3000000007","correct":false,"confidence":-1},{"trial_n":11,"span":8,"encoder":"22374545","distractor":"22375545","target":"present","response":"present","rt":"2375.9000000022","correct":true,"confidence":-1},{"trial_n":12,"span":8,"encoder":"33386767","distractor":"33386567","target":"present","response":"present","rt":"2193.3999999985","correct":true,"confidence":-1},{"trial_n":13,"span":9,"encoder":"816170541","distractor":"856170541","target":"absent","response":"absent","rt":"6058.3999999985","correct":true,"confidence":-1},{"trial_n":14,"span":9,"encoder":"104506357","distractor":"184506357","target":"present","response":"present","rt":"5682.8000000007","correct":true,"confidence":-1},{"trial_n":15,"span":10,"encoder":"0838360493","distractor":"0834360493","target":"present","response":"present","rt":"4352.8999999985","correct":true,"confidence":-1},{"trial_n":16,"span":10,"encoder":"1235644878","distractor":"1235644278","target":"absent","response":"present","rt":"3877.1999999993","correct":false,"confidence":-1},{"trial_n":17,"span":9,"encoder":"253649962","distractor":"253649262","target":"present","response":"present","rt":"3831.4000000022","correct":true,"confidence":-1},{"trial_n":18,"span":9,"encoder":"199678796","distractor":"199672796","target":"absent","response":"present","rt":"2381.799999997","correct":false,"confidence":-1},{"trial_n":19,"span":8,"encoder":"61293995","distractor":"60293995","target":"present","response":"present","rt":"1795.1999999993","correct":true,"confidence":-1},{"trial_n":20,"span":8,"encoder":"83326231","distractor":"85326231","target":"present","response":"present","rt":"2158.6999999993","correct":true,"confidence":-1},{"trial_n":21,"span":9,"encoder":"315274391","distractor":"325274391","target":"present","response":"present","rt":"3939.5999999978","correct":true,"confidence":3},{"trial_n":22,"span":9,"encoder":"775159179","distractor":"772159179","target":"absent","response":"present","rt":"3517.8000000007","correct":false,"confidence":2},{"trial_n":23,"span":8,"encoder":"43536872","distractor":"43836872","target":"absent","response":"absent","rt":"2860.6000000015","correct":true,"confidence":1},{"trial_n":24,"span":8,"encoder":"62622914","distractor":"62022914","target":"absent","response":"present","rt":"2994","correct":false,"confidence":2},{"trial_n":25,"span":7,"encoder":"3573166","distractor":"3577166","target":"present","response":"present","rt":"2525.8999999985","correct":true,"confidence":4},{"trial_n":26,"span":7,"encoder":"7934996","distractor":"2934996","target":"absent","response":"absent","rt":"2623.5","correct":true,"confidence":4},{"trial_n":27,"span":8,"encoder":"79696432","distractor":"79696437","target":"present","response":"present","rt":"3752.5999999978","correct":true,"confidence":3},{"trial_n":28,"span":8,"encoder":"71063791","distractor":"75063791","target":"absent","response":"absent","rt":"3506.700000003","correct":true,"confidence":3},{"trial_n":29,"span":9,"encoder":"797971838","distractor":"707971838","target":"present","response":"present","rt":"4173.6999999993","correct":true,"confidence":4},{"trial_n":30,"span":9,"encoder":"486557354","distractor":"486357354","target":"present","response":"present","rt":"1711.799999997","correct":true,"confidence":4},{"trial_n":31,"span":10,"encoder":"8069733635","distractor":"8069533635","target":"present","response":"present","rt":"3153.1000000015","correct":true,"confidence":3},{"trial_n":32,"span":10,"encoder":"9562573340","distractor":"9562573347","target":"absent","response":"absent","rt":"7307.1999999993","correct":true,"confidence":3},{"trial_n":33,"span":11,"encoder":"61288403374","distractor":"61268403374","target":"present","response":"present","rt":"4368.1999999993","correct":true,"confidence":3},{"trial_n":34,"span":11,"encoder":"26002712940","distractor":"06002712940","target":"absent","response":"absent","rt":"3622.6000000015","correct":true,"confidence":3},{"trial_n":35,"span":12,"encoder":"025057672049","distractor":"025057672099","target":"present","response":"present","rt":"8300.1999999993","correct":true,"confidence":3},{"trial_n":36,"span":12,"encoder":"787674534435","distractor":"787674834435","target":"absent","response":"present","rt":"3893.5","correct":false,"confidence":4},{"trial_n":37,"span":11,"encoder":"59498947597","distractor":"59499947597","target":"present","response":"present","rt":"5316.6000000015","correct":true,"confidence":3},{"trial_n":38,"span":11,"encoder":"16255251174","distractor":"16255251134","target":"absent","response":"absent","rt":"2343.700000003","correct":true,"confidence":5},{"trial_n":39,"span":12,"encoder":"656933442607","distractor":"646933442607","target":"absent","response":"absent","rt":"4196.6000000015","correct":true,"confidence":4},{"trial_n":40,"span":12,"encoder":"312867328505","distractor":"313867328505","target":"present","response":"present","rt":"1895.9000000022","correct":true,"confidence":3},{"trial_n":41,"span":13,"encoder":"3745194292922","distractor":"3745494292922","target":"absent","response":"present","rt":"4095.6999999993","correct":false,"confidence":3},{"trial_n":42,"span":12,"encoder":"340555801709","distractor":"340555811709","target":"present","response":"present","rt":"3068.8000000007","correct":true,"confidence":3},{"trial_n":43,"span":12,"encoder":"973881902266","distractor":"973881972266","target":"present","response":"absent","rt":"8470.8000000007","correct":false,"confidence":1},{"trial_n":44,"span":11,"encoder":"55717534296","distractor":"05717534296","target":"present","response":"present","rt":"4679.6000000015","correct":true,"confidence":2},{"trial_n":45,"span":11,"encoder":"60940697307","distractor":"60940697207","target":"absent","response":"present","rt":"3309.299999997","correct":false,"confidence":3},{"trial_n":46,"span":10,"encoder":"2599130963","distractor":"2599130913","target":"absent","response":"present","rt":"3476.6999999993","correct":false,"confidence":2},{"trial_n":47,"span":9,"encoder":"589268127","distractor":"589268123","target":"present","response":"present","rt":"4764.3999999985","correct":true,"confidence":3},{"trial_n":48,"span":9,"encoder":"229442887","distractor":"229242887","target":"present","response":"present","rt":"2277.6999999993","correct":true,"confidence":3},{"trial_n":49,"span":10,"encoder":"9226845094","distractor":"1226845094","target":"absent","response":"absent","rt":"2791.5","correct":true,"confidence":2},{"trial_n":50,"span":10,"encoder":"6550248294","distractor":"6500248294","target":"present","response":"present","rt":"3038.8000000007","correct":true,"confidence":3},{"trial_n":51,"span":11,"encoder":"37821854097","distractor":"37811854097","target":"absent","response":"absent","rt":"4534.4000000022","correct":true,"confidence":3},{"trial_n":52,"span":11,"encoder":"45087455047","distractor":"44087455047","target":"absent","response":"absent","rt":"2693.3000000007","correct":true,"confidence":1},{"trial_n":53,"span":12,"encoder":"578767182656","distractor":"578767182256","target":"present","response":"present","rt":"4648.3000000007","correct":true,"confidence":3},{"trial_n":54,"span":12,"encoder":"495617294651","distractor":"498617294651","target":"present","response":"present","rt":"4380.4000000022","correct":true,"confidence":3},{"trial_n":55,"span":13,"encoder":"1845489906044","distractor":"1815489906044","target":"absent","response":"present","rt":"3138.1000000015","correct":false,"confidence":3},{"trial_n":56,"span":12,"encoder":"946142950544","distractor":"946142850544","target":"present","response":"present","rt":"2692.3999999985","correct":true,"confidence":3},{"trial_n":57,"span":12,"encoder":"581808706927","distractor":"581808756927","target":"present","response":"present","rt":"2065.8000000007","correct":true,"confidence":3},{"trial_n":58,"span":13,"encoder":"3179251741777","distractor":"3179251841777","target":"absent","response":"present","rt":"1879.1000000015","correct":false,"confidence":3},{"trial_n":59,"span":12,"encoder":"734813391687","distractor":"734812391687","target":"present","response":"absent","rt":"2010.799999997","correct":false,"confidence":1},{"trial_n":60,"span":11,"encoder":"12290170354","distractor":"12290170454","target":"present","response":"present","rt":"3095.0999999978","correct":true,"confidence":3},{"trial_n":61,"span":11,"encoder":"23806167558","distractor":"23806167568","target":"absent","response":"absent","rt":"3530.4000000022","correct":true,"confidence":3},{"trial_n":62,"span":12,"encoder":"715277783022","distractor":"715277183022","target":"absent","response":"absent","rt":"5553.6999999993","correct":true,"confidence":2},{"trial_n":63,"span":12,"encoder":"365027912033","distractor":"365027982033","target":"absent","response":"present","rt":"6064.1999999993","correct":false,"confidence":3},{"trial_n":64,"span":11,"encoder":"95117813742","distractor":"95117818742","target":"present","response":"present","rt":"5260.6999999993","correct":true,"confidence":3},{"trial_n":65,"span":11,"encoder":"10678682060","distractor":"10675682060","target":"absent","response":"present","rt":"2104.3000000007","correct":false,"confidence":3},{"trial_n":66,"span":10,"encoder":"5559728220","distractor":"5559728226","target":"absent","response":"absent","rt":"2283.1999999993","correct":true,"confidence":5},{"trial_n":67,"span":10,"encoder":"3686476011","distractor":"2686476011","target":"absent","response":"absent","rt":"3469.6999999993","correct":true,"confidence":3},{"trial_n":68,"span":11,"encoder":"66400970741","distractor":"66400930741","target":"absent","response":"present","rt":"4831.1999999993","correct":false,"confidence":3},{"trial_n":69,"span":10,"encoder":"8061776143","distractor":"8011776143","target":"present","response":"present","rt":"3386.6000000015","correct":true,"confidence":4},{"trial_n":70,"span":10,"encoder":"0145251154","distractor":"0195251154","target":"absent","response":"absent","rt":"6597.8000000007","correct":true,"confidence":3},{"trial_n":71,"span":8,"encoder":"67764648","distractor":"61764648","target":"present","response":"absent","rt":"5683.8000000007","correct":false,"confidence":-1},{"trial_n":72,"span":7,"encoder":"2298085","distractor":"2288085","target":"present","response":"present","rt":"3773.5999999978","correct":true,"confidence":-1},{"trial_n":73,"span":7,"encoder":"3708125","distractor":"3308125","target":"absent","response":"absent","rt":"1973.8000000007","correct":true,"confidence":-1},{"trial_n":74,"span":8,"encoder":"66888016","distractor":"66888011","target":"absent","response":"absent","rt":"2985.8999999985","correct":true,"confidence":-1},{"trial_n":75,"span":8,"encoder":"49529127","distractor":"49529129","target":"present","response":"present","rt":"1754.9000000022","correct":true,"confidence":-1},{"trial_n":76,"span":9,"encoder":"350467919","distractor":"350867919","target":"present","response":"absent","rt":"6453.5","correct":false,"confidence":-1},{"trial_n":77,"span":8,"encoder":"41862309","distractor":"41860309","target":"present","response":"present","rt":"2378.8000000007","correct":true,"confidence":-1},{"trial_n":78,"span":8,"encoder":"39944711","distractor":"39984711","target":"absent","response":"absent","rt":"3308.3000000007","correct":true,"confidence":-1},{"trial_n":79,"span":9,"encoder":"177640453","distractor":"077640453","target":"present","response":"present","rt":"9668.3999999985","correct":true,"confidence":-1},{"trial_n":80,"span":9,"encoder":"761817000","distractor":"761817006","target":"present","response":"present","rt":"2509.700000003","correct":true,"confidence":-1},{"trial_n":81,"span":10,"encoder":"6306348691","distractor":"6306348391","target":"present","response":"present","rt":"2227.6000000015","correct":true,"confidence":-1},{"trial_n":82,"span":10,"encoder":"8575231022","distractor":"8575231522","target":"absent","response":"absent","rt":"4844.3999999985","correct":true,"confidence":-1},{"trial_n":83,"span":11,"encoder":"85655529480","distractor":"85455529480","target":"absent","response":"present","rt":"1389.1000000015","correct":false,"confidence":-1},{"trial_n":84,"span":10,"encoder":"3809905166","distractor":"3809915166","target":"present","response":"absent","rt":"6141.8999999985","correct":false,"confidence":-1},{"trial_n":85,"span":9,"encoder":"572625809","distractor":"572625209","target":"absent","response":"present","rt":"165447.6","correct":false,"confidence":-1},{"trial_n":86,"span":8,"encoder":"77127821","distractor":"77167821","target":"absent","response":"present","rt":"4022.0999999978","correct":false,"confidence":-1},{"trial_n":87,"span":7,"encoder":"0148554","distractor":"5148554","target":"absent","response":"absent","rt":"2252.3999999985","correct":true,"confidence":-1},{"trial_n":88,"span":7,"encoder":"6792726","distractor":"6792728","target":"present","response":"present","rt":"1285.6999999993","correct":true,"confidence":-1},{"trial_n":89,"span":8,"encoder":"33654772","distractor":"33654777","target":"absent","response":"absent","rt":"1282.5999999978","correct":true,"confidence":-1},{"trial_n":90,"span":8,"encoder":"85512881","distractor":"85012881","target":"absent","response":"absent","rt":"2797.1999999993","correct":true,"confidence":-1},{"trial_n":91,"span":9,"encoder":"053538564","distractor":"053508564","target":"present","response":"absent","rt":"971.59999999776","correct":false,"confidence":2},{"trial_n":92,"span":8,"encoder":"30150086","distractor":"30180086","target":"absent","response":"present","rt":"3925.8000000007","correct":false,"confidence":2},{"trial_n":93,"span":7,"encoder":"3039419","distractor":"3039719","target":"absent","response":"absent","rt":"2692.1000000015","correct":true,"confidence":2},{"trial_n":94,"span":7,"encoder":"5835466","distractor":"5835476","target":"present","response":"present","rt":"3094.200000003","correct":true,"confidence":2},{"trial_n":95,"span":8,"encoder":"38192452","distractor":"38192454","target":"absent","response":"absent","rt":"1132.6000000015","correct":true,"confidence":3},{"trial_n":96,"span":8,"encoder":"61256667","distractor":"64256667","target":"absent","response":"present","rt":"4408.8000000007","correct":false,"confidence":2},{"trial_n":97,"span":7,"encoder":"3410947","distractor":"3416947","target":"absent","response":"present","rt":"1038.200000003","correct":false,"confidence":1},{"trial_n":98,"span":6,"encoder":"917159","distractor":"917151","target":"absent","response":"absent","rt":"1522.8000000007","correct":true,"confidence":5},{"trial_n":99,"span":6,"encoder":"517590","distractor":"517990","target":"absent","response":"absent","rt":"4789.299999997","correct":true,"confidence":3},{"trial_n":100,"span":7,"encoder":"5295094","distractor":"5295594","target":"absent","response":"absent","rt":"5670","correct":true,"confidence":3},{"trial_n":101,"span":7,"encoder":"5474050","distractor":"5424050","target":"absent","response":"present","rt":"3177.8999999985","correct":false,"confidence":1},{"trial_n":102,"span":6,"encoder":"388548","distractor":"388148","target":"absent","response":"absent","rt":"3152.299999997","correct":true,"confidence":3},{"trial_n":103,"span":6,"encoder":"447679","distractor":"447779","target":"present","response":"present","rt":"2536.5","correct":true,"confidence":3},{"trial_n":104,"span":7,"encoder":"0198245","distractor":"5198245","target":"absent","response":"absent","rt":"4355.5","correct":true,"confidence":3},{"trial_n":105,"span":7,"encoder":"8406474","distractor":"8400474","target":"absent","response":"present","rt":"2806.0999999978","correct":false,"confidence":3},{"trial_n":106,"span":6,"encoder":"102487","distractor":"402487","target":"present","response":"present","rt":"2364.9000000022","correct":true,"confidence":3},{"trial_n":107,"span":6,"encoder":"909245","distractor":"909275","target":"absent","response":"present","rt":"2782.3999999985","correct":false,"confidence":3},{"trial_n":108,"span":5,"encoder":"27160","distractor":"27260","target":"present","response":"present","rt":"1974.3000000007","correct":true,"confidence":3},{"trial_n":109,"span":5,"encoder":"54950","distractor":"54953","target":"present","response":"present","rt":"1640.8999999985","correct":true,"confidence":3},{"trial_n":110,"span":6,"encoder":"982917","distractor":"982957","target":"absent","response":"present","rt":"3203.9000000022","correct":false,"confidence":3},{"trial_n":111,"span":5,"encoder":"50958","distractor":"50658","target":"present","response":"present","rt":"1122.0999999978","correct":true,"confidence":5},{"trial_n":112,"span":5,"encoder":"39755","distractor":"39756","target":"present","response":"present","rt":"1645.299999997","correct":true,"confidence":4},{"trial_n":113,"span":6,"encoder":"982533","distractor":"972533","target":"present","response":"present","rt":"1934.5","correct":true,"confidence":3},{"trial_n":114,"span":6,"encoder":"576716","distractor":"576816","target":"present","response":"present","rt":"2296.8999999985","correct":true,"confidence":4},{"trial_n":115,"span":7,"encoder":"9476027","distractor":"9476047","target":"present","response":"present","rt":"8624.700000003","correct":true,"confidence":2},{"trial_n":116,"span":7,"encoder":"8962789","distractor":"8562789","target":"present","response":"present","rt":"5500.6999999993","correct":true,"confidence":3},{"trial_n":117,"span":8,"encoder":"94768783","distractor":"94764783","target":"absent","response":"present","rt":"7512.6999999993","correct":false,"confidence":1},{"trial_n":118,"span":7,"encoder":"0959437","distractor":"0951437","target":"present","response":"present","rt":"3654.0999999978","correct":true,"confidence":3},{"trial_n":119,"span":7,"encoder":"0246227","distractor":"0246277","target":"present","response":"present","rt":"2392.8999999985","correct":true,"confidence":4},{"trial_n":120,"span":8,"encoder":"28872509","distractor":"28832509","target":"present","response":"present","rt":"2228.1000000015","correct":true,"confidence":3},{"trial_n":121,"span":8,"encoder":"71755861","distractor":"71755881","target":"absent","response":"present","rt":"1882.4000000022","correct":false,"confidence":1},{"trial_n":122,"span":7,"encoder":"7371421","distractor":"2371421","target":"present","response":"present","rt":"1860","correct":true,"confidence":3},{"trial_n":123,"span":7,"encoder":"3746922","distractor":"3748922","target":"present","response":"present","rt":"2152.3999999985","correct":true,"confidence":3},{"trial_n":124,"span":8,"encoder":"18571655","distractor":"18575655","target":"present","response":"present","rt":"1997.8000000007","correct":true,"confidence":3},{"trial_n":125,"span":8,"encoder":"81193576","distractor":"81493576","target":"present","response":"present","rt":"1455.5","correct":true,"confidence":3},{"trial_n":126,"span":9,"encoder":"548668041","distractor":"748668041","target":"absent","response":"present","rt":"2110.3000000007","correct":false,"confidence":3},{"trial_n":127,"span":8,"encoder":"16319562","distractor":"16369562","target":"absent","response":"present","rt":"1516.1999999993","correct":false,"confidence":3},{"trial_n":128,"span":7,"encoder":"4033607","distractor":"4833607","target":"present","response":"present","rt":"4177.5999999978","correct":true,"confidence":2},{"trial_n":129,"span":7,"encoder":"5323136","distractor":"8323136","target":"present","response":"present","rt":"2677.0999999978","correct":true,"confidence":4},{"trial_n":130,"span":8,"encoder":"63858254","distractor":"63838254","target":"present","response":"present","rt":"4517.3999999985","correct":true,"confidence":2},{"trial_n":131,"span":8,"encoder":"45776043","distractor":"45876043","target":"present","response":"absent","rt":"3399.5","correct":false,"confidence":3},{"trial_n":132,"span":7,"encoder":"8984939","distractor":"8980939","target":"absent","response":"absent","rt":"3233.6000000015","correct":true,"confidence":3},{"trial_n":133,"span":7,"encoder":"6321483","distractor":"6322483","target":"absent","response":"absent","rt":"2527.6000000015","correct":true,"confidence":3},{"trial_n":134,"span":8,"encoder":"64237662","distractor":"64234662","target":"present","response":"absent","rt":"3323.3000000007","correct":false,"confidence":3},{"trial_n":135,"span":7,"encoder":"4615309","distractor":"8615309","target":"absent","response":"absent","rt":"3222.1000000015","correct":true,"confidence":3},{"trial_n":136,"span":7,"encoder":"4201610","distractor":"1201610","target":"absent","response":"absent","rt":"2415","correct":true,"confidence":3},{"trial_n":137,"span":8,"encoder":"94133376","distractor":"90133376","target":"absent","response":"present","rt":"3718.5","correct":false,"confidence":3},{"trial_n":138,"span":7,"encoder":"6398280","distractor":"6395280","target":"absent","response":"absent","rt":"2704.1999999993","correct":true,"confidence":3},{"trial_n":139,"span":7,"encoder":"3965705","distractor":"3965745","target":"present","response":"present","rt":"3751.1999999993","correct":true,"confidence":3},{"trial_n":140,"span":8,"encoder":"48127145","distractor":"48827145","target":"present","response":"present","rt":"1960.0999999978","correct":true,"confidence":3}]