[{"trial_n":1,"n_dots":4.25,"target":"left","response":"right","rt":2487.1000003815,"correct":false,"confidence":-1},{"trial_n":2,"n_dots":4.25,"target":"left","response":"left","rt":248.79999923706,"correct":true,"confidence":-1},{"trial_n":3,"n_dots":4.25,"target":"right","response":"right","rt":730.89999961853,"correct":true,"confidence":-1},{"trial_n":4,"n_dots":3.85,"target":"right","response":"right","rt":627.79999923706,"correct":true,"confidence":-1},{"trial_n":5,"n_dots":3.85,"target":"right","response":"right","rt":605.20000076294,"correct":true,"confidence":-1},{"trial_n":6,"n_dots":3.45,"target":"left","response":"left","rt":493.5,"correct":true,"confidence":-1},{"trial_n":7,"n_dots":3.45,"target":"right","response":"right","rt":969.70000076294,"correct":true,"confidence":-1},{"trial_n":8,"n_dots":3.25,"target":"left","response":"left","rt":214.39999961853,"correct":true,"confidence":-1},{"trial_n":9,"n_dots":3.25,"target":"left","response":"left","rt":450.79999923706,"correct":true,"confidence":-1},{"trial_n":10,"n_dots":3.05,"target":"right","response":"left","rt":83.800001144409,"correct":false,"confidence":-1},{"trial_n":11,"n_dots":3.25,"target":"right","response":"right","rt":696.30000114441,"correct":true,"confidence":-1},{"trial_n":12,"n_dots":3.25,"target":"left","response":"left","rt":791.10000038147,"correct":true,"confidence":-1},{"trial_n":13,"n_dots":3.15,"target":"left","response":"left","rt":485.80000114441,"correct":true,"confidence":-1},{"trial_n":14,"n_dots":3.15,"target":"right","response":"left","rt":821.60000038147,"correct":false,"confidence":-1},{"trial_n":15,"n_dots":3.25,"target":"left","response":"right","rt":488,"correct":false,"confidence":-1},{"trial_n":16,"n_dots":3.35,"target":"right","response":"left","rt":599.20000076294,"correct":false,"confidence":-1},{"trial_n":17,"n_dots":3.45,"target":"right","response":"right","rt":456.09999847412,"correct":true,"confidence":-1},{"trial_n":18,"n_dots":3.45,"target":"right","response":"right","rt":609.5,"correct":true,"confidence":-1},{"trial_n":19,"n_dots":3.35,"target":"left","response":"right","rt":492.10000038147,"correct":false,"confidence":-1},{"trial_n":20,"n_dots":3.45,"target":"left","response":"left","rt":928.10000038147,"correct":true,"confidence":-1},{"trial_n":21,"n_dots":3.45,"target":"left","response":"right","rt":4684.2000007629,"correct":false,"confidence":3},{"trial_n":22,"n_dots":3.55,"target":"right","response":"right","rt":2154.1999988556,"correct":true,"confidence":4},{"trial_n":23,"n_dots":3.55,"target":"right","response":"right","rt":1251.2999992371,"correct":true,"confidence":4},{"trial_n":24,"n_dots":3.45,"target":"right","response":"right","rt":2252.7000007629,"correct":true,"confidence":4},{"trial_n":25,"n_dots":3.45,"target":"left","response":"left","rt":1241.1999988556,"correct":true,"confidence":5},{"trial_n":26,"n_dots":3.35,"target":"left","response":"left","rt":1292.5,"correct":true,"confidence":2},{"trial_n":27,"n_dots":3.35,"target":"right","response":"right","rt":915.60000038147,"correct":true,"confidence":3},{"trial_n":28,"n_dots":3.25,"target":"left","response":"right","rt":965.80000114441,"correct":false,"confidence":2},{"trial_n":29,"n_dots":3.35,"target":"right","response":"right","rt":1128.5,"correct":true,"confidence":3},{"trial_n":30,"n_dots":3.35,"target":"left","response":"left","rt":233.70000076294,"correct":true,"confidence":4},{"trial_n":31,"n_dots":3.25,"target":"right","response":"right","rt":2472,"correct":true,"confidence":4},{"trial_n":32,"n_dots":3.25,"target":"right","response":"left","rt":1003.6999988556,"correct":false,"confidence":3},{"trial_n":33,"n_dots":3.35,"target":"left","response":"left","rt":1591.7999992371,"correct":true,"confidence":2},{"trial_n":34,"n_dots":3.35,"target":"left","response":"left","rt":2047.8999996185,"correct":true,"confidence":3},{"trial_n":35,"n_dots":3.25,"target":"right","response":"right","rt":1325.6999988556,"correct":true,"confidence":5},{"trial_n":36,"n_dots":3.25,"target":"right","response":"left","rt":2442.6000003815,"correct":false,"confidence":2},{"trial_n":37,"n_dots":3.35,"target":"left","response":"right","rt":1470.8999996185,"correct":false,"confidence":3},{"trial_n":38,"n_dots":3.45,"target":"right","response":"right","rt":1662.6000003815,"correct":true,"confidence":4},{"trial_n":39,"n_dots":3.45,"target":"right","response":"left","rt":2788.6000003815,"correct":false,"confidence":2},{"trial_n":40,"n_dots":3.55,"target":"left","response":"left","rt":2098.6000003815,"correct":true,"confidence":2},{"trial_n":41,"n_dots":3.55,"target":"right","response":"right","rt":1475.5,"correct":true,"confidence":4},{"trial_n":42,"n_dots":3.45,"target":"right","response":"right","rt":3403.8999996185,"correct":true,"confidence":1},{"trial_n":43,"n_dots":3.45,"target":"left","response":"left","rt":2249.6999988556,"correct":true,"confidence":2},{"trial_n":44,"n_dots":3.35,"target":"left","response":"left","rt":2020.2999992371,"correct":true,"confidence":2},{"trial_n":45,"n_dots":3.35,"target":"left","response":"left","rt":1180,"correct":true,"confidence":2},{"trial_n":46,"n_dots":3.25,"target":"left","response":"right","rt":1697.2000007629,"correct":false,"confidence":2},{"trial_n":47,"n_dots":3.35,"target":"right","response":"right","rt":1114.3999996185,"correct":true,"confidence":2},{"trial_n":48,"n_dots":3.35,"target":"left","response":"left","rt":864.09999847412,"correct":true,"confidence":4},{"trial_n":49,"n_dots":3.25,"target":"left","response":"left","rt":2275.8000011444,"correct":true,"confidence":2},{"trial_n":50,"n_dots":3.25,"target":"right","response":"right","rt":1365.7999992371,"correct":true,"confidence":3},{"trial_n":51,"n_dots":3.15,"target":"left","response":"left","rt":1107.8000011444,"correct":true,"confidence":2},{"trial_n":52,"n_dots":3.15,"target":"left","response":"left","rt":725.89999961853,"correct":true,"confidence":3},{"trial_n":53,"n_dots":3.05,"target":"left","response":"left","rt":668,"correct":true,"confidence":4},{"trial_n":54,"n_dots":3.05,"target":"right","response":"left","rt":1060.2999992371,"correct":false,"confidence":4},{"trial_n":55,"n_dots":3.15,"target":"left","response":"right","rt":1335,"correct":false,"confidence":3},{"trial_n":56,"n_dots":3.25,"target":"left","response":"left","rt":946,"correct":true,"confidence":3},{"trial_n":57,"n_dots":3.25,"target":"right","response":"right","rt":884.70000076294,"correct":true,"confidence":3},{"trial_n":58,"n_dots":3.15,"target":"left","response":"left","rt":1133.6000003815,"correct":true,"confidence":3},{"trial_n":59,"n_dots":3.15,"target":"right","response":"right","rt":804.39999961853,"correct":true,"confidence":4},{"trial_n":60,"n_dots":3.05,"target":"left","response":"right","rt":1034,"correct":false,"confidence":3},{"trial_n":61,"n_dots":3.15,"target":"right","response":"right","rt":2090.3999996185,"correct":true,"confidence":3},{"trial_n":62,"n_dots":3.15,"target":"left","response":"left","rt":880,"correct":true,"confidence":4},{"trial_n":63,"n_dots":3.05,"target":"left","response":"left","rt":769.10000038147,"correct":true,"confidence":5},{"trial_n":64,"n_dots":3.05,"target":"right","response":"right","rt":844.39999961853,"correct":true,"confidence":3},{"trial_n":65,"n_dots":2.95,"target":"right","response":"left","rt":971.70000076294,"correct":false,"confidence":1},{"trial_n":66,"n_dots":3.05,"target":"left","response":"left","rt":674.89999961853,"correct":true,"confidence":4},{"trial_n":67,"n_dots":3.05,"target":"left","response":"left","rt":894.79999923706,"correct":true,"confidence":3},{"trial_n":68,"n_dots":2.95,"target":"left","response":"left","rt":659.20000076294,"correct":true,"confidence":4},{"trial_n":69,"n_dots":2.95,"target":"right","response":"left","rt":213.09999847412,"correct":false,"confidence":2},{"trial_n":70,"n_dots":3.05,"target":"left","response":"left","rt":861.89999961853,"correct":true,"confidence":2},{"trial_n":71,"n_dots":3.05,"target":"right","response":"right","rt":793.89999961853,"correct":true,"confidence":3},{"trial_n":72,"n_dots":2.95,"target":"right","response":"right","rt":784.70000076294,"correct":true,"confidence":3},{"trial_n":73,"n_dots":2.95,"target":"left","response":"left","rt":1010.6000003815,"correct":true,"confidence":2},{"trial_n":74,"n_dots":2.85,"target":"left","response":"left","rt":683.10000038147,"correct":true,"confidence":3},{"trial_n":75,"n_dots":2.85,"target":"right","response":"right","rt":1222.3000011444,"correct":true,"confidence":2},{"trial_n":76,"n_dots":2.75,"target":"left","response":"left","rt":1654.1000003815,"correct":true,"confidence":4},{"trial_n":77,"n_dots":2.75,"target":"left","response":"left","rt":610.79999923706,"correct":true,"confidence":4},{"trial_n":78,"n_dots":2.65,"target":"left","response":"left","rt":963.10000038147,"correct":true,"confidence":1},{"trial_n":79,"n_dots":2.65,"target":"left","response":"left","rt":1194.8999996185,"correct":true,"confidence":2},{"trial_n":80,"n_dots":2.55,"target":"right","response":"right","rt":1806.2000007629,"correct":true,"confidence":3},{"trial_n":81,"n_dots":2.55,"target":"left","response":"left","rt":1080.0999984741,"correct":true,"confidence":3},{"trial_n":82,"n_dots":2.45,"target":"right","response":"left","rt":207.40000152588,"correct":false,"confidence":2},{"trial_n":83,"n_dots":2.55,"target":"right","response":"left","rt":696.89999961853,"correct":false,"confidence":2},{"trial_n":84,"n_dots":2.65,"target":"left","response":"right","rt":854.60000038147,"correct":false,"confidence":2},{"trial_n":85,"n_dots":2.75,"target":"right","response":"right","rt":693.79999923706,"correct":true,"confidence":1},{"trial_n":86,"n_dots":2.75,"target":"left","response":"left","rt":487.29999923706,"correct":true,"confidence":1},{"trial_n":87,"n_dots":2.65,"target":"right","response":"left","rt":225.80000114441,"correct":false,"confidence":2},{"trial_n":88,"n_dots":2.75,"target":"right","response":"right","rt":1103.2999992371,"correct":true,"confidence":3},{"trial_n":89,"n_dots":2.75,"target":"right","response":"right","rt":2076.0999984741,"correct":true,"confidence":3},{"trial_n":90,"n_dots":2.65,"target":"right","response":"left","rt":962.10000038147,"correct":false,"confidence":2},{"trial_n":91,"n_dots":2.75,"target":"right","response":"right","rt":62.60000038147,"correct":true,"confidence":2},{"trial_n":92,"n_dots":2.75,"target":"right","response":"left","rt":891.70000076294,"correct":false,"confidence":1},{"trial_n":93,"n_dots":2.85,"target":"right","response":"right","rt":895.29999923706,"correct":true,"confidence":2},{"trial_n":94,"n_dots":2.85,"target":"right","response":"right","rt":2403.8999996185,"correct":true,"confidence":1},{"trial_n":95,"n_dots":2.75,"target":"right","response":"left","rt":568.39999961853,"correct":false,"confidence":3},{"trial_n":96,"n_dots":2.85,"target":"right","response":"right","rt":104.29999923706,"correct":true,"confidence":1},{"trial_n":97,"n_dots":2.85,"target":"right","response":"right","rt":483,"correct":true,"confidence":3},{"trial_n":98,"n_dots":2.75,"target":"right","response":"right","rt":216.20000076294,"correct":true,"confidence":2},{"trial_n":99,"n_dots":2.75,"target":"left","response":"right","rt":1240.7000007629,"correct":false,"confidence":1},{"trial_n":100,"n_dots":2.85,"target":"left","response":"left","rt":1093,"correct":true,"confidence":1},{"trial_n":101,"n_dots":2.85,"target":"right","response":"right","rt":885.5,"correct":true,"confidence":1},{"trial_n":102,"n_dots":2.75,"target":"right","response":"right","rt":208.90000152588,"correct":true,"confidence":2},{"trial_n":103,"n_dots":2.75,"target":"right","response":"left","rt":652.30000114441,"correct":false,"confidence":1},{"trial_n":104,"n_dots":2.85,"target":"right","response":"right","rt":650.69999885559,"correct":true,"confidence":3},{"trial_n":105,"n_dots":2.85,"target":"left","response":"left","rt":1568.2999992371,"correct":true,"confidence":1},{"trial_n":106,"n_dots":2.75,"target":"right","response":"right","rt":462.5,"correct":true,"confidence":2},{"trial_n":107,"n_dots":2.75,"target":"left","response":"left","rt":618.39999961853,"correct":true,"confidence":2},{"trial_n":108,"n_dots":2.65,"target":"left","response":"right","rt":611.30000114441,"correct":false,"confidence":1},{"trial_n":109,"n_dots":2.75,"target":"left","response":"left","rt":54.60000038147,"correct":true,"confidence":2},{"trial_n":110,"n_dots":2.75,"target":"right","response":"left","rt":1225.2999992371,"correct":false,"confidence":2},{"trial_n":111,"n_dots":2.85,"target":"left","response":"right","rt":1178.3999996185,"correct":false,"confidence":2},{"trial_n":112,"n_dots":2.95,"target":"left","response":"left","rt":445.10000038147,"correct":true,"confidence":1},{"trial_n":113,"n_dots":2.95,"target":"left","response":"right","rt":598.79999923706,"correct":false,"confidence":1},{"trial_n":114,"n_dots":3.05,"target":"right","response":"right","rt":484.20000076294,"correct":true,"confidence":2},{"trial_n":115,"n_dots":3.05,"target":"left","response":"right","rt":570.60000038147,"correct":false,"confidence":1},{"trial_n":116,"n_dots":3.15,"target":"left","response":"left","rt":811.79999923706,"correct":true,"confidence":1},{"trial_n":117,"n_dots":3.15,"target":"right","response":"right","rt":831.70000076294,"correct":true,"confidence":3},{"trial_n":118,"n_dots":3.05,"target":"left","response":"left","rt":1648.4000015259,"correct":true,"confidence":2},{"trial_n":119,"n_dots":3.05,"target":"right","response":"right","rt":414,"correct":true,"confidence":2},{"trial_n":120,"n_dots":2.95,"target":"left","response":"left","rt":394.5,"correct":true,"confidence":2}]