[{"trial_n":1,"min":25,"max":230,"target":"present","response":"present","rt":4236.900000006,"correct":true,"confidence":-1},{"trial_n":2,"min":25,"max":230,"target":"present","response":"present","rt":658,"correct":true,"confidence":-1},{"trial_n":3,"min":41,"max":214,"target":"absent","response":"absent","rt":700.30000001192,"correct":true,"confidence":-1},{"trial_n":4,"min":41,"max":214,"target":"absent","response":"absent","rt":404.90000000596,"correct":true,"confidence":-1},{"trial_n":5,"min":57,"max":198,"target":"present","response":"present","rt":1038.5,"correct":true,"confidence":-1},{"trial_n":6,"min":57,"max":198,"target":"present","response":"present","rt":688.5,"correct":true,"confidence":-1},{"trial_n":7,"min":73,"max":182,"target":"absent","response":"absent","rt":1461.599999994,"correct":true,"confidence":-1},{"trial_n":8,"min":73,"max":182,"target":"present","response":"present","rt":621.69999998808,"correct":true,"confidence":-1},{"trial_n":9,"min":89,"max":166,"target":"present","response":"absent","rt":437.5,"correct":false,"confidence":-1},{"trial_n":10,"min":73,"max":182,"target":"absent","response":"absent","rt":508.89999997616,"correct":true,"confidence":-1},{"trial_n":11,"min":73,"max":182,"target":"absent","response":"absent","rt":433.30000001192,"correct":true,"confidence":-1},{"trial_n":12,"min":81,"max":174,"target":"present","response":"absent","rt":348.29999998212,"correct":false,"confidence":-1},{"trial_n":13,"min":73,"max":182,"target":"absent","response":"absent","rt":952.09999999404,"correct":true,"confidence":-1},{"trial_n":14,"min":73,"max":182,"target":"absent","response":"present","rt":1040.400000006,"correct":false,"confidence":-1},{"trial_n":15,"min":65,"max":190,"target":"present","response":"present","rt":957.59999999404,"correct":true,"confidence":-1},{"trial_n":16,"min":65,"max":190,"target":"present","response":"present","rt":464.80000001192,"correct":true,"confidence":-1},{"trial_n":17,"min":73,"max":182,"target":"absent","response":"absent","rt":733.79999998212,"correct":true,"confidence":-1},{"trial_n":18,"min":73,"max":182,"target":"absent","response":"present","rt":736.90000000596,"correct":false,"confidence":-1},{"trial_n":19,"min":65,"max":190,"target":"absent","response":"absent","rt":777.10000002384,"correct":true,"confidence":-1},{"trial_n":20,"min":65,"max":190,"target":"absent","response":"absent","rt":635.5,"correct":true,"confidence":-1},{"trial_n":21,"min":69,"max":186,"target":"absent","response":"absent","rt":920.10000002384,"correct":true,"confidence":5},{"trial_n":22,"min":69,"max":186,"target":"absent","response":"absent","rt":937.09999999404,"correct":true,"confidence":5},{"trial_n":23,"min":73,"max":182,"target":"present","response":"present","rt":981.80000001192,"correct":true,"confidence":4},{"trial_n":24,"min":73,"max":182,"target":"absent","response":"absent","rt":638.80000001192,"correct":true,"confidence":5},{"trial_n":25,"min":77,"max":178,"target":"present","response":"absent","rt":1525.2999999821,"correct":false,"confidence":5},{"trial_n":26,"min":73,"max":182,"target":"present","response":"present","rt":660.09999999404,"correct":true,"confidence":3},{"trial_n":27,"min":73,"max":182,"target":"present","response":"present","rt":763.90000000596,"correct":true,"confidence":3},{"trial_n":28,"min":77,"max":178,"target":"present","response":"present","rt":867.79999998212,"correct":true,"confidence":3},{"trial_n":29,"min":77,"max":178,"target":"absent","response":"present","rt":1334.6999999881,"correct":false,"confidence":4},{"trial_n":30,"min":73,"max":182,"target":"present","response":"present","rt":668.29999998212,"correct":true,"confidence":4},{"trial_n":31,"min":73,"max":182,"target":"present","response":"present","rt":2186.7999999821,"correct":true,"confidence":4},{"trial_n":32,"min":75,"max":180,"target":"absent","response":"absent","rt":881.09999999404,"correct":true,"confidence":2},{"trial_n":33,"min":75,"max":180,"target":"absent","response":"absent","rt":665.19999998808,"correct":true,"confidence":3},{"trial_n":34,"min":77,"max":178,"target":"absent","response":"absent","rt":1719.5,"correct":true,"confidence":2},{"trial_n":35,"min":77,"max":178,"target":"present","response":"absent","rt":916.90000000596,"correct":false,"confidence":4},{"trial_n":36,"min":75,"max":180,"target":"present","response":"present","rt":1002.2000000179,"correct":true,"confidence":3},{"trial_n":37,"min":75,"max":180,"target":"absent","response":"absent","rt":1025,"correct":true,"confidence":4},{"trial_n":38,"min":77,"max":178,"target":"present","response":"present","rt":806,"correct":true,"confidence":5},{"trial_n":39,"min":77,"max":178,"target":"present","response":"present","rt":669.90000000596,"correct":true,"confidence":5},{"trial_n":40,"min":79,"max":176,"target":"absent","response":"present","rt":1928.099999994,"correct":false,"confidence":2},{"trial_n":41,"min":78,"max":177,"target":"absent","response":"present","rt":1818.1999999881,"correct":false,"confidence":3},{"trial_n":42,"min":77,"max":178,"target":"absent","response":"absent","rt":650,"correct":true,"confidence":5},{"trial_n":43,"min":77,"max":178,"target":"present","response":"present","rt":1020.099999994,"correct":true,"confidence":5},{"trial_n":44,"min":78,"max":177,"target":"present","response":"absent","rt":780.30000001192,"correct":false,"confidence":3},{"trial_n":45,"min":77,"max":178,"target":"absent","response":"absent","rt":896.19999998808,"correct":true,"confidence":4},{"trial_n":46,"min":77,"max":178,"target":"absent","response":"absent","rt":1122.099999994,"correct":true,"confidence":4},{"trial_n":47,"min":78,"max":177,"target":"present","response":"present","rt":708.69999998808,"correct":true,"confidence":4},{"trial_n":48,"min":78,"max":177,"target":"present","response":"present","rt":667.40000000596,"correct":true,"confidence":5},{"trial_n":49,"min":79,"max":176,"target":"present","response":"present","rt":901.40000000596,"correct":true,"confidence":4},{"trial_n":50,"min":79,"max":176,"target":"present","response":"present","rt":700.80000001192,"correct":true,"confidence":4},{"trial_n":51,"min":80,"max":175,"target":"present","response":"present","rt":863.5,"correct":true,"confidence":4},{"trial_n":52,"min":80,"max":175,"target":"absent","response":"absent","rt":751.70000001788,"correct":true,"confidence":5},{"trial_n":53,"min":81,"max":174,"target":"present","response":"present","rt":633.30000001192,"correct":true,"confidence":3},{"trial_n":54,"min":81,"max":174,"target":"absent","response":"absent","rt":553.20000001788,"correct":true,"confidence":4},{"trial_n":55,"min":82,"max":173,"target":"absent","response":"absent","rt":856.69999998808,"correct":true,"confidence":2},{"trial_n":56,"min":82,"max":173,"target":"absent","response":"absent","rt":481,"correct":true,"confidence":3},{"trial_n":57,"min":83,"max":172,"target":"absent","response":"absent","rt":585.20000001788,"correct":true,"confidence":4},{"trial_n":58,"min":83,"max":172,"target":"present","response":"present","rt":881.80000001192,"correct":true,"confidence":3},{"trial_n":59,"min":84,"max":171,"target":"present","response":"present","rt":1394.7999999821,"correct":true,"confidence":3},{"trial_n":60,"min":84,"max":171,"target":"present","response":"present","rt":600,"correct":true,"confidence":4},{"trial_n":61,"min":85,"max":170,"target":"present","response":"present","rt":2314.599999994,"correct":true,"confidence":4},{"trial_n":62,"min":85,"max":170,"target":"present","response":"present","rt":554.90000000596,"correct":true,"confidence":3},{"trial_n":63,"min":86,"max":169,"target":"present","response":"absent","rt":1161.1999999881,"correct":false,"confidence":2},{"trial_n":64,"min":85,"max":170,"target":"absent","response":"absent","rt":936.79999998212,"correct":true,"confidence":3},{"trial_n":65,"min":85,"max":170,"target":"absent","response":"absent","rt":640.59999999404,"correct":true,"confidence":4},{"trial_n":66,"min":86,"max":169,"target":"absent","response":"absent","rt":627.29999998212,"correct":true,"confidence":4},{"trial_n":67,"min":86,"max":169,"target":"absent","response":"absent","rt":504.5,"correct":true,"confidence":5},{"trial_n":68,"min":87,"max":168,"target":"absent","response":"absent","rt":484,"correct":true,"confidence":5},{"trial_n":69,"min":87,"max":168,"target":"present","response":"absent","rt":737.5,"correct":false,"confidence":5},{"trial_n":70,"min":86,"max":169,"target":"present","response":"absent","rt":534.79999998212,"correct":false,"confidence":5},{"trial_n":71,"min":41,"max":214,"target":"present","response":"present","rt":4830.099999994,"correct":true,"confidence":-1},{"trial_n":72,"min":41,"max":214,"target":"present","response":"present","rt":894.90000000596,"correct":true,"confidence":-1},{"trial_n":73,"min":57,"max":198,"target":"absent","response":"absent","rt":1082.3000000119,"correct":true,"confidence":-1},{"trial_n":74,"min":57,"max":198,"target":"absent","response":"absent","rt":952.90000000596,"correct":true,"confidence":-1},{"trial_n":75,"min":73,"max":182,"target":"present","response":"present","rt":578.40000000596,"correct":true,"confidence":-1},{"trial_n":76,"min":73,"max":182,"target":"present","response":"present","rt":1120.099999994,"correct":true,"confidence":-1},{"trial_n":77,"min":89,"max":166,"target":"present","response":"absent","rt":3465.5,"correct":false,"confidence":-1},{"trial_n":78,"min":73,"max":182,"target":"present","response":"present","rt":553.90000000596,"correct":true,"confidence":-1},{"trial_n":79,"min":73,"max":182,"target":"absent","response":"absent","rt":965.80000001192,"correct":true,"confidence":-1},{"trial_n":80,"min":89,"max":166,"target":"absent","response":"present","rt":677.5,"correct":false,"confidence":-1},{"trial_n":81,"min":81,"max":174,"target":"present","response":"present","rt":871.20000001788,"correct":true,"confidence":-1},{"trial_n":82,"min":81,"max":174,"target":"absent","response":"present","rt":646.90000000596,"correct":false,"confidence":-1},{"trial_n":83,"min":73,"max":182,"target":"absent","response":"absent","rt":598.79999998212,"correct":true,"confidence":-1},{"trial_n":84,"min":73,"max":182,"target":"present","response":"present","rt":839.69999998808,"correct":true,"confidence":-1},{"trial_n":85,"min":81,"max":174,"target":"absent","response":"absent","rt":1285,"correct":true,"confidence":-1},{"trial_n":86,"min":81,"max":174,"target":"absent","response":"absent","rt":766.30000001192,"correct":true,"confidence":-1},{"trial_n":87,"min":89,"max":166,"target":"absent","response":"present","rt":1151.2000000179,"correct":false,"confidence":-1},{"trial_n":88,"min":81,"max":174,"target":"absent","response":"absent","rt":773.40000000596,"correct":true,"confidence":-1},{"trial_n":89,"min":81,"max":174,"target":"present","response":"present","rt":584,"correct":true,"confidence":-1},{"trial_n":90,"min":89,"max":166,"target":"present","response":"present","rt":570.20000001788,"correct":true,"confidence":-1},{"trial_n":91,"min":89,"max":166,"target":"absent","response":"present","rt":960.5,"correct":false,"confidence":2},{"trial_n":92,"min":85,"max":170,"target":"absent","response":"present","rt":757.40000000596,"correct":false,"confidence":3},{"trial_n":93,"min":81,"max":174,"target":"present","response":"present","rt":712.10000002384,"correct":true,"confidence":3},{"trial_n":94,"min":81,"max":174,"target":"absent","response":"present","rt":2047.6999999881,"correct":false,"confidence":1},{"trial_n":95,"min":77,"max":178,"target":"present","response":"present","rt":771.29999998212,"correct":true,"confidence":5},{"trial_n":96,"min":77,"max":178,"target":"absent","response":"absent","rt":851,"correct":true,"confidence":4},{"trial_n":97,"min":81,"max":174,"target":"present","response":"present","rt":906.90000000596,"correct":true,"confidence":5},{"trial_n":98,"min":81,"max":174,"target":"present","response":"present","rt":586.09999999404,"correct":true,"confidence":4},{"trial_n":99,"min":85,"max":170,"target":"absent","response":"present","rt":1471.5,"correct":false,"confidence":2},{"trial_n":100,"min":81,"max":174,"target":"absent","response":"present","rt":954.40000000596,"correct":false,"confidence":3},{"trial_n":101,"min":79,"max":176,"target":"present","response":"present","rt":633,"correct":true,"confidence":4},{"trial_n":102,"min":79,"max":176,"target":"absent","response":"present","rt":907.29999998212,"correct":false,"confidence":4},{"trial_n":103,"min":77,"max":178,"target":"present","response":"present","rt":1497.5,"correct":true,"confidence":5},{"trial_n":104,"min":77,"max":178,"target":"absent","response":"absent","rt":612.59999999404,"correct":true,"confidence":4},{"trial_n":105,"min":79,"max":176,"target":"present","response":"present","rt":556.5,"correct":true,"confidence":5},{"trial_n":106,"min":79,"max":176,"target":"absent","response":"absent","rt":586.40000000596,"correct":true,"confidence":3},{"trial_n":107,"min":81,"max":174,"target":"present","response":"present","rt":728.69999998808,"correct":true,"confidence":5},{"trial_n":108,"min":81,"max":174,"target":"absent","response":"absent","rt":854.09999999404,"correct":true,"confidence":2},{"trial_n":109,"min":83,"max":172,"target":"present","response":"present","rt":719.69999998808,"correct":true,"confidence":3},{"trial_n":110,"min":83,"max":172,"target":"present","response":"present","rt":611.40000000596,"correct":true,"confidence":4},{"trial_n":111,"min":84,"max":171,"target":"present","response":"present","rt":506.90000000596,"correct":true,"confidence":4},{"trial_n":112,"min":84,"max":171,"target":"present","response":"present","rt":954.09999999404,"correct":true,"confidence":5},{"trial_n":113,"min":85,"max":170,"target":"present","response":"present","rt":712.20000001788,"correct":true,"confidence":4},{"trial_n":114,"min":85,"max":170,"target":"absent","response":"absent","rt":1263.900000006,"correct":true,"confidence":2},{"trial_n":115,"min":86,"max":169,"target":"absent","response":"absent","rt":2122.5,"correct":true,"confidence":3},{"trial_n":116,"min":86,"max":169,"target":"present","response":"present","rt":532.80000001192,"correct":true,"confidence":3},{"trial_n":117,"min":87,"max":168,"target":"absent","response":"present","rt":1023.3000000119,"correct":false,"confidence":3},{"trial_n":118,"min":86,"max":169,"target":"present","response":"present","rt":765.60000002384,"correct":true,"confidence":3},{"trial_n":119,"min":86,"max":169,"target":"present","response":"present","rt":499.20000001788,"correct":true,"confidence":4},{"trial_n":120,"min":87,"max":168,"target":"present","response":"present","rt":636.90000000596,"correct":true,"confidence":4},{"trial_n":121,"min":87,"max":168,"target":"present","response":"present","rt":856.09999999404,"correct":true,"confidence":5},{"trial_n":122,"min":88,"max":167,"target":"present","response":"present","rt":656.69999998808,"correct":true,"confidence":5},{"trial_n":123,"min":88,"max":167,"target":"absent","response":"absent","rt":728.59999999404,"correct":true,"confidence":3},{"trial_n":124,"min":89,"max":166,"target":"absent","response":"absent","rt":2066.8000000119,"correct":true,"confidence":1},{"trial_n":125,"min":89,"max":166,"target":"absent","response":"present","rt":1559.099999994,"correct":false,"confidence":2},{"trial_n":126,"min":88,"max":167,"target":"present","response":"present","rt":805.19999998808,"correct":true,"confidence":2},{"trial_n":127,"min":88,"max":167,"target":"absent","response":"absent","rt":1689.3000000119,"correct":true,"confidence":2},{"trial_n":128,"min":89,"max":166,"target":"present","response":"present","rt":713.19999998808,"correct":true,"confidence":3},{"trial_n":129,"min":89,"max":166,"target":"absent","response":"present","rt":723.40000000596,"correct":false,"confidence":3},{"trial_n":130,"min":88,"max":167,"target":"present","response":"present","rt":609.39999997616,"correct":true,"confidence":4},{"trial_n":131,"min":88,"max":167,"target":"present","response":"present","rt":1487.8000000119,"correct":true,"confidence":2},{"trial_n":132,"min":89,"max":166,"target":"absent","response":"present","rt":1297.7999999821,"correct":false,"confidence":3},{"trial_n":133,"min":88,"max":167,"target":"absent","response":"absent","rt":1315.3000000119,"correct":true,"confidence":1},{"trial_n":134,"min":88,"max":167,"target":"absent","response":"absent","rt":894.5,"correct":true,"confidence":1},{"trial_n":135,"min":89,"max":166,"target":"absent","response":"present","rt":894.79999998212,"correct":false,"confidence":2},{"trial_n":136,"min":88,"max":167,"target":"absent","response":"present","rt":803.19999998808,"correct":false,"confidence":2},{"trial_n":137,"min":87,"max":168,"target":"absent","response":"present","rt":661.79999998212,"correct":false,"confidence":3},{"trial_n":138,"min":86,"max":169,"target":"present","response":"present","rt":900.89999997616,"correct":true,"confidence":3},{"trial_n":139,"min":86,"max":169,"target":"present","response":"present","rt":698.5,"correct":true,"confidence":2},{"trial_n":140,"min":87,"max":168,"target":"present","response":"present","rt":829.90000000596,"correct":true,"confidence":2}]