[{"trial_n":1,"n_dots":4.25,"target":"right","response":"right","rt":4839.2000000477,"correct":true,"confidence":-1},{"trial_n":2,"n_dots":4.25,"target":"left","response":"right","rt":2041,"correct":false,"confidence":-1},{"trial_n":3,"n_dots":4.65,"target":"left","response":"left","rt":862.10000014305,"correct":true,"confidence":-1},{"trial_n":4,"n_dots":4.65,"target":"right","response":"right","rt":538.59999990463,"correct":true,"confidence":-1},{"trial_n":5,"n_dots":4.25,"target":"right","response":"right","rt":35.599999904633,"correct":true,"confidence":-1},{"trial_n":6,"n_dots":4.25,"target":"left","response":"left","rt":3691.4000000954,"correct":true,"confidence":-1},{"trial_n":7,"n_dots":3.85,"target":"right","response":"right","rt":507.79999995232,"correct":true,"confidence":-1},{"trial_n":8,"n_dots":3.85,"target":"right","response":"right","rt":808.20000004768,"correct":true,"confidence":-1},{"trial_n":9,"n_dots":3.65,"target":"left","response":"left","rt":525.20000004768,"correct":true,"confidence":-1},{"trial_n":10,"n_dots":3.65,"target":"left","response":"right","rt":940.69999980927,"correct":false,"confidence":-1},{"trial_n":11,"n_dots":3.85,"target":"right","response":"right","rt":40,"correct":true,"confidence":-1},{"trial_n":12,"n_dots":3.85,"target":"left","response":"left","rt":509.20000004768,"correct":true,"confidence":-1},{"trial_n":13,"n_dots":3.75,"target":"left","response":"right","rt":638.70000004768,"correct":false,"confidence":-1},{"trial_n":14,"n_dots":3.85,"target":"right","response":"right","rt":513.29999995232,"correct":true,"confidence":-1},{"trial_n":15,"n_dots":3.85,"target":"left","response":"left","rt":660.40000009537,"correct":true,"confidence":-1},{"trial_n":16,"n_dots":3.75,"target":"right","response":"right","rt":459.09999990463,"correct":true,"confidence":-1},{"trial_n":17,"n_dots":3.75,"target":"right","response":"right","rt":574.90000009537,"correct":true,"confidence":-1},{"trial_n":18,"n_dots":3.65,"target":"left","response":"right","rt":1050.5,"correct":false,"confidence":-1},{"trial_n":19,"n_dots":3.75,"target":"right","response":"right","rt":407.69999980927,"correct":true,"confidence":-1},{"trial_n":20,"n_dots":3.75,"target":"right","response":"right","rt":542.29999995232,"correct":true,"confidence":-1},{"trial_n":21,"n_dots":3.65,"target":"right","response":"right","rt":468.5,"correct":true,"confidence":5},{"trial_n":22,"n_dots":3.65,"target":"right","response":"right","rt":759,"correct":true,"confidence":4},{"trial_n":23,"n_dots":3.55,"target":"left","response":"left","rt":623.20000004768,"correct":true,"confidence":3},{"trial_n":24,"n_dots":3.55,"target":"right","response":"right","rt":1442,"correct":true,"confidence":4},{"trial_n":25,"n_dots":3.45,"target":"left","response":"right","rt":981.70000004768,"correct":false,"confidence":4},{"trial_n":26,"n_dots":3.55,"target":"right","response":"right","rt":670.70000004768,"correct":true,"confidence":5},{"trial_n":27,"n_dots":3.55,"target":"right","response":"right","rt":606.30000019073,"correct":true,"confidence":5},{"trial_n":28,"n_dots":3.45,"target":"left","response":"left","rt":1538.5,"correct":true,"confidence":2},{"trial_n":29,"n_dots":3.45,"target":"left","response":"left","rt":546.5,"correct":true,"confidence":3},{"trial_n":30,"n_dots":3.35,"target":"left","response":"left","rt":556.79999995232,"correct":true,"confidence":5},{"trial_n":31,"n_dots":3.35,"target":"right","response":"right","rt":634.60000014305,"correct":true,"confidence":4},{"trial_n":32,"n_dots":3.25,"target":"left","response":"left","rt":482.29999995232,"correct":true,"confidence":3},{"trial_n":33,"n_dots":3.25,"target":"left","response":"left","rt":459.70000004768,"correct":true,"confidence":4},{"trial_n":34,"n_dots":3.15,"target":"left","response":"left","rt":557.20000004768,"correct":true,"confidence":5},{"trial_n":35,"n_dots":3.15,"target":"left","response":"left","rt":525.5,"correct":true,"confidence":4},{"trial_n":36,"n_dots":3.05,"target":"right","response":"right","rt":1020.5,"correct":true,"confidence":3},{"trial_n":37,"n_dots":3.05,"target":"left","response":"left","rt":527,"correct":true,"confidence":3},{"trial_n":38,"n_dots":2.95,"target":"left","response":"left","rt":377.90000009537,"correct":true,"confidence":4},{"trial_n":39,"n_dots":2.95,"target":"left","response":"left","rt":852.09999990463,"correct":true,"confidence":4},{"trial_n":40,"n_dots":2.85,"target":"left","response":"left","rt":1508.2000000477,"correct":true,"confidence":2},{"trial_n":41,"n_dots":2.85,"target":"left","response":"right","rt":644.59999990463,"correct":false,"confidence":3},{"trial_n":42,"n_dots":2.95,"target":"left","response":"left","rt":408.69999980927,"correct":true,"confidence":4},{"trial_n":43,"n_dots":2.95,"target":"right","response":"right","rt":1403.3999998569,"correct":true,"confidence":2},{"trial_n":44,"n_dots":2.85,"target":"right","response":"right","rt":523.09999990463,"correct":true,"confidence":4},{"trial_n":45,"n_dots":2.85,"target":"left","response":"left","rt":393.5,"correct":true,"confidence":4},{"trial_n":46,"n_dots":2.75,"target":"right","response":"right","rt":491.5,"correct":true,"confidence":5},{"trial_n":47,"n_dots":2.75,"target":"right","response":"right","rt":529.59999990463,"correct":true,"confidence":4},{"trial_n":48,"n_dots":2.65,"target":"right","response":"left","rt":785.79999995232,"correct":false,"confidence":2},{"trial_n":49,"n_dots":2.75,"target":"right","response":"right","rt":511.39999985695,"correct":true,"confidence":4},{"trial_n":50,"n_dots":2.75,"target":"right","response":"right","rt":476.80000019073,"correct":true,"confidence":5},{"trial_n":51,"n_dots":2.65,"target":"left","response":"right","rt":2273.7000000477,"correct":false,"confidence":2},{"trial_n":52,"n_dots":2.75,"target":"right","response":"right","rt":475.39999985695,"correct":true,"confidence":5},{"trial_n":53,"n_dots":2.75,"target":"left","response":"left","rt":281.39999985695,"correct":true,"confidence":5},{"trial_n":54,"n_dots":2.65,"target":"right","response":"right","rt":413.40000009537,"correct":true,"confidence":5},{"trial_n":55,"n_dots":2.65,"target":"left","response":"right","rt":669.20000004768,"correct":false,"confidence":4},{"trial_n":56,"n_dots":2.75,"target":"right","response":"right","rt":539.59999990463,"correct":true,"confidence":4},{"trial_n":57,"n_dots":2.75,"target":"left","response":"left","rt":1326.2999999523,"correct":true,"confidence":3},{"trial_n":58,"n_dots":2.65,"target":"left","response":"right","rt":1337.9000000954,"correct":false,"confidence":2},{"trial_n":59,"n_dots":2.75,"target":"left","response":"right","rt":762.40000009537,"correct":false,"confidence":3},{"trial_n":60,"n_dots":2.85,"target":"left","response":"right","rt":2434.6000001431,"correct":false,"confidence":1},{"trial_n":61,"n_dots":2.95,"target":"right","response":"left","rt":2334.2000000477,"correct":false,"confidence":3},{"trial_n":62,"n_dots":3.05,"target":"left","response":"left","rt":615.09999990463,"correct":true,"confidence":4},{"trial_n":63,"n_dots":3.05,"target":"right","response":"right","rt":385.40000009537,"correct":true,"confidence":5},{"trial_n":64,"n_dots":2.95,"target":"right","response":"left","rt":1352.7999999523,"correct":false,"confidence":4},{"trial_n":65,"n_dots":3.05,"target":"left","response":"right","rt":3504.1000001431,"correct":false,"confidence":2},{"trial_n":66,"n_dots":3.15,"target":"right","response":"right","rt":547.10000014305,"correct":true,"confidence":5},{"trial_n":67,"n_dots":3.15,"target":"right","response":"right","rt":468.40000009537,"correct":true,"confidence":5},{"trial_n":68,"n_dots":3.05,"target":"left","response":"right","rt":1599.6999998093,"correct":false,"confidence":2},{"trial_n":69,"n_dots":3.15,"target":"left","response":"left","rt":512.60000014305,"correct":true,"confidence":5},{"trial_n":70,"n_dots":3.15,"target":"right","response":"right","rt":575.29999995232,"correct":true,"confidence":4},{"trial_n":71,"n_dots":3.05,"target":"right","response":"right","rt":966.5,"correct":true,"confidence":4},{"trial_n":72,"n_dots":3.05,"target":"right","response":"left","rt":563.70000004768,"correct":false,"confidence":3},{"trial_n":73,"n_dots":3.15,"target":"left","response":"left","rt":7270,"correct":true,"confidence":2},{"trial_n":74,"n_dots":3.15,"target":"left","response":"left","rt":455.10000014305,"correct":true,"confidence":4},{"trial_n":75,"n_dots":3.05,"target":"left","response":"left","rt":495.29999995232,"correct":true,"confidence":5},{"trial_n":76,"n_dots":3.05,"target":"right","response":"right","rt":1669,"correct":true,"confidence":2},{"trial_n":77,"n_dots":2.95,"target":"right","response":"right","rt":934.20000004768,"correct":true,"confidence":3},{"trial_n":78,"n_dots":2.95,"target":"right","response":"right","rt":789.39999985695,"correct":true,"confidence":3},{"trial_n":79,"n_dots":2.85,"target":"right","response":"right","rt":1376.2000000477,"correct":true,"confidence":3},{"trial_n":80,"n_dots":2.85,"target":"right","response":"left","rt":501.59999990463,"correct":false,"confidence":3},{"trial_n":81,"n_dots":2.95,"target":"right","response":"right","rt":2650.8999998569,"correct":true,"confidence":3},{"trial_n":82,"n_dots":2.95,"target":"left","response":"left","rt":514.5,"correct":true,"confidence":3},{"trial_n":83,"n_dots":2.85,"target":"left","response":"left","rt":297.79999995232,"correct":true,"confidence":4},{"trial_n":84,"n_dots":2.85,"target":"right","response":"left","rt":1422.5,"correct":false,"confidence":3},{"trial_n":85,"n_dots":2.95,"target":"left","response":"left","rt":460.19999980927,"correct":true,"confidence":5},{"trial_n":86,"n_dots":2.95,"target":"left","response":"right","rt":1502,"correct":false,"confidence":2},{"trial_n":87,"n_dots":3.05,"target":"left","response":"right","rt":556.39999985695,"correct":false,"confidence":3},{"trial_n":88,"n_dots":3.15,"target":"left","response":"left","rt":980.70000004768,"correct":true,"confidence":4},{"trial_n":89,"n_dots":3.15,"target":"left","response":"right","rt":1198.4000000954,"correct":false,"confidence":3},{"trial_n":90,"n_dots":3.25,"target":"right","response":"right","rt":889.20000004768,"correct":true,"confidence":3},{"trial_n":91,"n_dots":3.25,"target":"right","response":"right","rt":865.29999995232,"correct":true,"confidence":4},{"trial_n":92,"n_dots":3.15,"target":"right","response":"right","rt":440.59999990463,"correct":true,"confidence":4},{"trial_n":93,"n_dots":3.15,"target":"left","response":"left","rt":389.5,"correct":true,"confidence":4},{"trial_n":94,"n_dots":3.05,"target":"right","response":"left","rt":658,"correct":false,"confidence":4},{"trial_n":95,"n_dots":3.15,"target":"left","response":"left","rt":279.39999985695,"correct":true,"confidence":5},{"trial_n":96,"n_dots":3.15,"target":"right","response":"left","rt":794.09999990463,"correct":false,"confidence":3},{"trial_n":97,"n_dots":3.25,"target":"right","response":"right","rt":261.59999990463,"correct":true,"confidence":3},{"trial_n":98,"n_dots":3.25,"target":"left","response":"right","rt":1193.5999999046,"correct":false,"confidence":2},{"trial_n":99,"n_dots":3.35,"target":"right","response":"right","rt":453.09999990463,"correct":true,"confidence":3},{"trial_n":100,"n_dots":3.35,"target":"left","response":"right","rt":1089.7000000477,"correct":false,"confidence":2},{"trial_n":101,"n_dots":3.45,"target":"left","response":"left","rt":633,"correct":true,"confidence":3},{"trial_n":102,"n_dots":3.45,"target":"left","response":"left","rt":580.59999990463,"correct":true,"confidence":5},{"trial_n":103,"n_dots":3.35,"target":"right","response":"right","rt":766,"correct":true,"confidence":3},{"trial_n":104,"n_dots":3.35,"target":"right","response":"right","rt":500.5,"correct":true,"confidence":3},{"trial_n":105,"n_dots":3.25,"target":"right","response":"right","rt":232.90000009537,"correct":true,"confidence":5},{"trial_n":106,"n_dots":3.25,"target":"left","response":"left","rt":682.29999995232,"correct":true,"confidence":3},{"trial_n":107,"n_dots":3.15,"target":"left","response":"left","rt":1376.9000000954,"correct":true,"confidence":2},{"trial_n":108,"n_dots":3.15,"target":"left","response":"left","rt":480.19999980927,"correct":true,"confidence":5},{"trial_n":109,"n_dots":3.05,"target":"left","response":"right","rt":2535.2000000477,"correct":false,"confidence":2},{"trial_n":110,"n_dots":3.15,"target":"right","response":"right","rt":358.59999990463,"correct":true,"confidence":4},{"trial_n":111,"n_dots":3.15,"target":"left","response":"right","rt":788.20000004768,"correct":false,"confidence":3},{"trial_n":112,"n_dots":3.25,"target":"left","response":"right","rt":627.5,"correct":false,"confidence":2},{"trial_n":113,"n_dots":3.35,"target":"right","response":"right","rt":626.10000014305,"correct":true,"confidence":4},{"trial_n":114,"n_dots":3.35,"target":"right","response":"right","rt":914.59999990463,"correct":true,"confidence":4},{"trial_n":115,"n_dots":3.25,"target":"left","response":"right","rt":544.09999990463,"correct":false,"confidence":3},{"trial_n":116,"n_dots":3.35,"target":"left","response":"right","rt":925.79999995232,"correct":false,"confidence":2},{"trial_n":117,"n_dots":3.45,"target":"right","response":"right","rt":506.20000004768,"correct":true,"confidence":4},{"trial_n":118,"n_dots":3.45,"target":"right","response":"right","rt":566.60000014305,"correct":true,"confidence":4},{"trial_n":119,"n_dots":3.35,"target":"right","response":"right","rt":779.09999990463,"correct":true,"confidence":3},{"trial_n":120,"n_dots":3.35,"target":"right","response":"left","rt":1351.2999999523,"correct":false,"confidence":3}]