[{"trial_n":1,"span":8,"encoder":"63778056","distractor":"63778050","target":"present","response":"present","rt":"4911.3999996185","correct":true,"confidence":-1},{"trial_n":2,"span":8,"encoder":"20690245","distractor":"80690245","target":"present","response":"present","rt":"4051.0999984741","correct":true,"confidence":-1},{"trial_n":3,"span":10,"encoder":"7159225497","distractor":"7959225497","target":"absent","response":"absent","rt":"2885.6000003815","correct":true,"confidence":-1},{"trial_n":4,"span":10,"encoder":"4532913600","distractor":"4532913300","target":"absent","response":"absent","rt":"3788.6000003815","correct":true,"confidence":-1},{"trial_n":5,"span":12,"encoder":"028915805631","distractor":"026915805631","target":"present","response":"absent","rt":"2343.6999988556","correct":false,"confidence":-1},{"trial_n":6,"span":10,"encoder":"2370915895","distractor":"2370945895","target":"absent","response":"absent","rt":"2819.1000003815","correct":true,"confidence":-1},{"trial_n":7,"span":10,"encoder":"3917259473","distractor":"3907259473","target":"absent","response":"absent","rt":"3112.7000007629","correct":true,"confidence":-1},{"trial_n":8,"span":12,"encoder":"750743526433","distractor":"750843526433","target":"absent","response":"absent","rt":"2816.5","correct":true,"confidence":-1},{"trial_n":9,"span":12,"encoder":"631265193768","distractor":"630265193768","target":"absent","response":"absent","rt":"4630.3000011444","correct":true,"confidence":-1},{"trial_n":10,"span":14,"encoder":"33865078910029","distractor":"33865078990029","target":"present","response":"absent","rt":"4087.4000015259","correct":false,"confidence":-1},{"trial_n":11,"span":12,"encoder":"584244878268","distractor":"884244878268","target":"absent","response":"absent","rt":"2536.6000003815","correct":true,"confidence":-1},{"trial_n":12,"span":12,"encoder":"381588492159","distractor":"381588490159","target":"present","response":"present","rt":"4603.2999992371","correct":true,"confidence":-1},{"trial_n":13,"span":13,"encoder":"9657794554578","distractor":"9657794554570","target":"present","response":"present","rt":"4565.9000015259","correct":true,"confidence":-1},{"trial_n":14,"span":13,"encoder":"7798719917282","distractor":"7698719917282","target":"present","response":"absent","rt":"5165.2999992371","correct":false,"confidence":-1},{"trial_n":15,"span":12,"encoder":"791631385621","distractor":"794631385621","target":"absent","response":"present","rt":"4294.6000003815","correct":false,"confidence":-1},{"trial_n":16,"span":11,"encoder":"83754277962","distractor":"80754277962","target":"present","response":"present","rt":"1980","correct":true,"confidence":-1},{"trial_n":17,"span":11,"encoder":"82836675181","distractor":"87836675181","target":"present","response":"absent","rt":"2839.6000003815","correct":false,"confidence":-1},{"trial_n":18,"span":10,"encoder":"7018438079","distractor":"7018438779","target":"absent","response":"absent","rt":"3369.0999984741","correct":true,"confidence":-1},{"trial_n":19,"span":10,"encoder":"6612274271","distractor":"6612274471","target":"absent","response":"absent","rt":"4469.6000003815","correct":true,"confidence":-1},{"trial_n":20,"span":11,"encoder":"42301526706","distractor":"42301926706","target":"present","response":"absent","rt":"3154.2999992371","correct":false,"confidence":-1},{"trial_n":21,"span":10,"encoder":"3730650691","distractor":"3730640691","target":"absent","response":"absent","rt":"3079.0999984741","correct":true,"confidence":3},{"trial_n":22,"span":10,"encoder":"5094569139","distractor":"5094529139","target":"absent","response":"absent","rt":"3302.7999992371","correct":true,"confidence":3},{"trial_n":23,"span":11,"encoder":"61932132591","distractor":"61932132597","target":"absent","response":"present","rt":"4078.2000007629","correct":false,"confidence":1},{"trial_n":24,"span":10,"encoder":"6846616321","distractor":"6846616325","target":"present","response":"present","rt":"3287.7999992371","correct":true,"confidence":5},{"trial_n":25,"span":10,"encoder":"5862816987","distractor":"5892816987","target":"present","response":"absent","rt":"3209.3999996185","correct":false,"confidence":3},{"trial_n":26,"span":9,"encoder":"036425062","distractor":"016425062","target":"present","response":"present","rt":"3378.2000007629","correct":true,"confidence":4},{"trial_n":27,"span":9,"encoder":"116555783","distractor":"106555783","target":"present","response":"absent","rt":"4867.2999992371","correct":false,"confidence":3},{"trial_n":28,"span":8,"encoder":"84815874","distractor":"84815879","target":"present","response":"present","rt":"2713.1999988556","correct":true,"confidence":5},{"trial_n":29,"span":8,"encoder":"35545203","distractor":"35544203","target":"absent","response":"absent","rt":"4562.2999992371","correct":true,"confidence":4},{"trial_n":30,"span":9,"encoder":"167708157","distractor":"967708157","target":"absent","response":"absent","rt":"2747.6999988556","correct":true,"confidence":5},{"trial_n":31,"span":9,"encoder":"585950545","distractor":"585750545","target":"absent","response":"absent","rt":"2053.5","correct":true,"confidence":5},{"trial_n":32,"span":10,"encoder":"8778782919","distractor":"8778982919","target":"absent","response":"absent","rt":"2886.6000003815","correct":true,"confidence":5},{"trial_n":33,"span":10,"encoder":"0049370271","distractor":"0049070271","target":"present","response":"present","rt":"3295","correct":true,"confidence":5},{"trial_n":34,"span":11,"encoder":"11963587932","distractor":"11963517932","target":"present","response":"present","rt":"6613.2000007629","correct":true,"confidence":4},{"trial_n":35,"span":11,"encoder":"23295299067","distractor":"23295296067","target":"absent","response":"present","rt":"6436.8999996185","correct":false,"confidence":4},{"trial_n":36,"span":10,"encoder":"4654289026","distractor":"4654289024","target":"present","response":"present","rt":"2654.6000003815","correct":true,"confidence":5},{"trial_n":37,"span":10,"encoder":"0797549228","distractor":"0797541228","target":"present","response":"present","rt":"3013.2999992371","correct":true,"confidence":5},{"trial_n":38,"span":11,"encoder":"47458757413","distractor":"47458057413","target":"present","response":"absent","rt":"2618.6000003815","correct":false,"confidence":2},{"trial_n":39,"span":10,"encoder":"8025559477","distractor":"8024559477","target":"absent","response":"absent","rt":"6271","correct":true,"confidence":5},{"trial_n":40,"span":10,"encoder":"5299161486","distractor":"5299169486","target":"present","response":"absent","rt":"5596.1000003815","correct":false,"confidence":4},{"trial_n":41,"span":9,"encoder":"456977038","distractor":"456977034","target":"present","response":"present","rt":"4915.7999992371","correct":true,"confidence":4},{"trial_n":42,"span":9,"encoder":"888611144","distractor":"888671144","target":"absent","response":"absent","rt":"4205.6999988556","correct":true,"confidence":5},{"trial_n":43,"span":10,"encoder":"3525792837","distractor":"3525792836","target":"absent","response":"absent","rt":"3146","correct":true,"confidence":3},{"trial_n":44,"span":10,"encoder":"6845164270","distractor":"6845154270","target":"absent","response":"present","rt":"3360.8999996185","correct":false,"confidence":4},{"trial_n":45,"span":9,"encoder":"669394216","distractor":"169394216","target":"present","response":"present","rt":"2500","correct":true,"confidence":5},{"trial_n":46,"span":9,"encoder":"822581673","distractor":"822541673","target":"absent","response":"absent","rt":"4967.6999988556","correct":true,"confidence":5},{"trial_n":47,"span":10,"encoder":"7633552365","distractor":"7633559365","target":"present","response":"present","rt":"3008.5999984741","correct":true,"confidence":4},{"trial_n":48,"span":10,"encoder":"7232686729","distractor":"7232686721","target":"absent","response":"absent","rt":"5940.7999992371","correct":true,"confidence":5},{"trial_n":49,"span":11,"encoder":"35139090925","distractor":"36139090925","target":"absent","response":"absent","rt":"3439.8999996185","correct":true,"confidence":4},{"trial_n":50,"span":11,"encoder":"79473948570","distractor":"79473938570","target":"present","response":"present","rt":"4996.7000007629","correct":true,"confidence":3},{"trial_n":51,"span":12,"encoder":"399730385632","distractor":"399730385662","target":"present","response":"absent","rt":"5287.5","correct":false,"confidence":3},{"trial_n":52,"span":11,"encoder":"89499591798","distractor":"89499597798","target":"absent","response":"absent","rt":"2756.6000003815","correct":true,"confidence":4},{"trial_n":53,"span":11,"encoder":"28460129579","distractor":"28460149579","target":"present","response":"absent","rt":"3411.6000003815","correct":false,"confidence":4},{"trial_n":54,"span":10,"encoder":"2497769254","distractor":"2497749254","target":"present","response":"absent","rt":"2946.8999996185","correct":false,"confidence":4},{"trial_n":55,"span":9,"encoder":"939528022","distractor":"939528092","target":"present","response":"present","rt":"2086.7999992371","correct":true,"confidence":5},{"trial_n":56,"span":9,"encoder":"099638034","distractor":"009638034","target":"absent","response":"absent","rt":"2741.9000015259","correct":true,"confidence":5},{"trial_n":57,"span":10,"encoder":"3807975265","distractor":"3801975265","target":"present","response":"present","rt":"2553.5","correct":true,"confidence":5},{"trial_n":58,"span":10,"encoder":"5866961149","distractor":"6866961149","target":"absent","response":"absent","rt":"3971.1000003815","correct":true,"confidence":4},{"trial_n":59,"span":11,"encoder":"24929588220","distractor":"24929588230","target":"present","response":"present","rt":"5092.5","correct":true,"confidence":3},{"trial_n":60,"span":11,"encoder":"10861944791","distractor":"10862944791","target":"present","response":"present","rt":"2654.1000003815","correct":true,"confidence":4},{"trial_n":61,"span":12,"encoder":"104681737432","distractor":"104661737432","target":"absent","response":"absent","rt":"3968.1999988556","correct":true,"confidence":2},{"trial_n":62,"span":12,"encoder":"091120465261","distractor":"091120445261","target":"present","response":"absent","rt":"4846.7999992371","correct":false,"confidence":3},{"trial_n":63,"span":11,"encoder":"96872566583","distractor":"96872506583","target":"absent","response":"absent","rt":"3452.5","correct":true,"confidence":5},{"trial_n":64,"span":11,"encoder":"37236246457","distractor":"37236246657","target":"present","response":"present","rt":"5639.6000003815","correct":true,"confidence":2},{"trial_n":65,"span":12,"encoder":"958039622657","distractor":"958030622657","target":"absent","response":"absent","rt":"2655.3999996185","correct":true,"confidence":5},{"trial_n":66,"span":12,"encoder":"404732571077","distractor":"401732571077","target":"absent","response":"present","rt":"5174.6999988556","correct":false,"confidence":1},{"trial_n":67,"span":11,"encoder":"51624968947","distractor":"41624968947","target":"present","response":"present","rt":"3636.1999988556","correct":true,"confidence":3},{"trial_n":68,"span":11,"encoder":"08656515124","distractor":"08656515121","target":"absent","response":"absent","rt":"5354.1000003815","correct":true,"confidence":4},{"trial_n":69,"span":12,"encoder":"629328116131","distractor":"627328116131","target":"absent","response":"absent","rt":"5450.8000011444","correct":true,"confidence":4},{"trial_n":70,"span":12,"encoder":"883891564785","distractor":"882891564785","target":"present","response":"absent","rt":"2807.8999996185","correct":false,"confidence":5},{"trial_n":71,"span":8,"encoder":"52096463","distractor":"56096463","target":"present","response":"present","rt":"4574.8000011444","correct":true,"confidence":-1},{"trial_n":72,"span":8,"encoder":"35101220","distractor":"35101520","target":"present","response":"present","rt":"2427.1999988556","correct":true,"confidence":-1},{"trial_n":73,"span":9,"encoder":"329016282","distractor":"321016282","target":"absent","response":"absent","rt":"1835.2999992371","correct":true,"confidence":-1},{"trial_n":74,"span":9,"encoder":"175644396","distractor":"175624396","target":"absent","response":"absent","rt":"2527.7000007629","correct":true,"confidence":-1},{"trial_n":75,"span":10,"encoder":"6027126410","distractor":"6087126410","target":"present","response":"present","rt":"2375.1000003815","correct":true,"confidence":-1},{"trial_n":76,"span":10,"encoder":"2480531195","distractor":"2480531495","target":"present","response":"present","rt":"2954.6000003815","correct":true,"confidence":-1},{"trial_n":77,"span":11,"encoder":"72115556345","distractor":"72115556385","target":"present","response":"present","rt":"3946.7999992371","correct":true,"confidence":-1},{"trial_n":78,"span":11,"encoder":"44931900369","distractor":"44931900269","target":"present","response":"present","rt":"6379.2000007629","correct":true,"confidence":-1},{"trial_n":79,"span":12,"encoder":"861553303660","distractor":"861553703660","target":"absent","response":"absent","rt":"3079.5","correct":true,"confidence":-1},{"trial_n":80,"span":12,"encoder":"136024215474","distractor":"136024216474","target":"present","response":"absent","rt":"6224","correct":false,"confidence":-1},{"trial_n":81,"span":11,"encoder":"71032569154","distractor":"71032569754","target":"present","response":"present","rt":"6052.1000003815","correct":true,"confidence":-1},{"trial_n":82,"span":11,"encoder":"93054686095","distractor":"93024686095","target":"absent","response":"absent","rt":"2746.1999988556","correct":true,"confidence":-1},{"trial_n":83,"span":12,"encoder":"295964754046","distractor":"295464754046","target":"present","response":"present","rt":"7272.5","correct":true,"confidence":-1},{"trial_n":84,"span":12,"encoder":"522404277988","distractor":"522404272988","target":"present","response":"absent","rt":"5146.7000007629","correct":false,"confidence":-1},{"trial_n":85,"span":11,"encoder":"44832613314","distractor":"44832513314","target":"absent","response":"present","rt":"6120.2999992371","correct":false,"confidence":-1},{"trial_n":86,"span":10,"encoder":"0043637648","distractor":"0043137648","target":"present","response":"present","rt":"3946.5","correct":true,"confidence":-1},{"trial_n":87,"span":10,"encoder":"6686149688","distractor":"6676149688","target":"present","response":"absent","rt":"4805.1000003815","correct":false,"confidence":-1},{"trial_n":88,"span":9,"encoder":"437552610","distractor":"437552620","target":"absent","response":"absent","rt":"3053.3999996185","correct":true,"confidence":-1},{"trial_n":89,"span":9,"encoder":"500961752","distractor":"500361752","target":"absent","response":"absent","rt":"2243.9000015259","correct":true,"confidence":-1},{"trial_n":90,"span":10,"encoder":"3940801052","distractor":"3940801952","target":"present","response":"present","rt":"3393.6999988556","correct":true,"confidence":-1},{"trial_n":91,"span":10,"encoder":"6079354421","distractor":"6179354421","target":"absent","response":"absent","rt":"2603.6000003815","correct":true,"confidence":3},{"trial_n":92,"span":11,"encoder":"90594253979","distractor":"90596253979","target":"present","response":"present","rt":"4128.5","correct":true,"confidence":2},{"trial_n":93,"span":11,"encoder":"20523845473","distractor":"20723845473","target":"present","response":"present","rt":"6698","correct":true,"confidence":5},{"trial_n":94,"span":12,"encoder":"100618278879","distractor":"100618278859","target":"absent","response":"absent","rt":"5261.1999988556","correct":true,"confidence":5},{"trial_n":95,"span":12,"encoder":"899225998169","distractor":"899225998161","target":"present","response":"present","rt":"2726.2000007629","correct":true,"confidence":5},{"trial_n":96,"span":13,"encoder":"8816465298121","distractor":"9816465298121","target":"present","response":"present","rt":"7106.1000003815","correct":true,"confidence":5},{"trial_n":97,"span":13,"encoder":"7629567305009","distractor":"7629567305019","target":"present","response":"present","rt":"2676.8000011444","correct":true,"confidence":5},{"trial_n":98,"span":14,"encoder":"44049322179238","distractor":"44009322179238","target":"absent","response":"absent","rt":"4757.8999996185","correct":true,"confidence":3},{"trial_n":99,"span":14,"encoder":"33135877784196","distractor":"33135877780196","target":"absent","response":"absent","rt":"5303.9000015259","correct":true,"confidence":4},{"trial_n":100,"span":15,"encoder":"174613242088128","distractor":"174313242088128","target":"absent","response":"present","rt":"4778.6000003815","correct":false,"confidence":3},{"trial_n":101,"span":14,"encoder":"43250180582986","distractor":"43250180588986","target":"absent","response":"absent","rt":"6241.7000007629","correct":true,"confidence":3},{"trial_n":102,"span":14,"encoder":"24942297957439","distractor":"14942297957439","target":"absent","response":"absent","rt":"2580.2000007629","correct":true,"confidence":5},{"trial_n":103,"span":15,"encoder":"988553052704962","distractor":"288553052704962","target":"present","response":"present","rt":"2971.4000015259","correct":true,"confidence":5},{"trial_n":104,"span":15,"encoder":"809024149348594","distractor":"809024149148594","target":"absent","response":"absent","rt":"12972.199998856","correct":true,"confidence":4},{"trial_n":105,"span":16,"encoder":"0366419716304285","distractor":"0366619716304285","target":"absent","response":"absent","rt":"4203.5","correct":true,"confidence":2},{"trial_n":106,"span":16,"encoder":"3380285605666354","distractor":"3380285605566354","target":"absent","response":"absent","rt":"6820.7999992371","correct":true,"confidence":5},{"trial_n":107,"span":17,"encoder":"50329603354716422","distractor":"50325603354716422","target":"absent","response":"absent","rt":"3634.8000011444","correct":true,"confidence":3},{"trial_n":108,"span":17,"encoder":"68975863222654472","distractor":"68975863222654422","target":"present","response":"present","rt":"2987.5999984741","correct":true,"confidence":1},{"trial_n":109,"span":18,"encoder":"098680219045716260","distractor":"098680215045716260","target":"absent","response":"absent","rt":"13233.399999619","correct":true,"confidence":3},{"trial_n":110,"span":18,"encoder":"290734785414258304","distractor":"290724785414258304","target":"present","response":"present","rt":"1859.2999992371","correct":true,"confidence":2},{"trial_n":111,"span":19,"encoder":"0919606533786089699","distractor":"0919606533782089699","target":"absent","response":"present","rt":"17076.300001144","correct":false,"confidence":1},{"trial_n":112,"span":18,"encoder":"854077957201997078","distractor":"854077957201957078","target":"absent","response":"absent","rt":"13539.199998856","correct":true,"confidence":4},{"trial_n":113,"span":18,"encoder":"426347126176505427","distractor":"426347121176505427","target":"present","response":"present","rt":"8398.3000011444","correct":true,"confidence":2},{"trial_n":114,"span":19,"encoder":"2948748676634954994","distractor":"2948748876634954994","target":"absent","response":"absent","rt":"12517.599998474","correct":true,"confidence":2},{"trial_n":115,"span":19,"encoder":"0564800385230048112","distractor":"0564800385236048112","target":"absent","response":"present","rt":"9830.2000007629","correct":false,"confidence":2},{"trial_n":116,"span":18,"encoder":"070328877879929474","distractor":"070328877879929434","target":"present","response":"present","rt":"3315.6000003815","correct":true,"confidence":5},{"trial_n":117,"span":18,"encoder":"174583342366519259","distractor":"174683342366519259","target":"present","response":"present","rt":"14148","correct":true,"confidence":3},{"trial_n":118,"span":19,"encoder":"7926809595706156237","distractor":"7928809595706156237","target":"present","response":"present","rt":"11982.200000763","correct":true,"confidence":3},{"trial_n":119,"span":19,"encoder":"7117533606785874661","distractor":"7117503606785874661","target":"absent","response":"absent","rt":"14164.199998856","correct":true,"confidence":2},{"trial_n":120,"span":20,"encoder":"42741978753607930539","distractor":"42741978752607930539","target":"present","response":"absent","rt":"1549.1999988556","correct":false,"confidence":1},{"trial_n":121,"span":19,"encoder":"9162503954798517578","distractor":"9162503954796517578","target":"present","response":"present","rt":"6222.0999984741","correct":true,"confidence":1},{"trial_n":122,"span":19,"encoder":"6772791621780688803","distractor":"6772791621780618803","target":"present","response":"absent","rt":"4343.8000011444","correct":false,"confidence":2},{"trial_n":123,"span":18,"encoder":"175747641718334642","distractor":"175745641718334642","target":"present","response":"absent","rt":"1755","correct":false,"confidence":1},{"trial_n":124,"span":17,"encoder":"50735574429246821","distractor":"80735574429246821","target":"absent","response":"present","rt":"6249.4000015259","correct":false,"confidence":1},{"trial_n":125,"span":16,"encoder":"2042032092889722","distractor":"1042032092889722","target":"present","response":"present","rt":"2534.1000003815","correct":true,"confidence":5},{"trial_n":126,"span":16,"encoder":"0864593071784187","distractor":"0864593071734187","target":"present","response":"present","rt":"7735.1999988556","correct":true,"confidence":3},{"trial_n":127,"span":17,"encoder":"40408331821778748","distractor":"40408331821778743","target":"absent","response":"absent","rt":"2968","correct":true,"confidence":5},{"trial_n":128,"span":17,"encoder":"53665617317703853","distractor":"53665618317703853","target":"absent","response":"absent","rt":"10655.899999619","correct":true,"confidence":2},{"trial_n":129,"span":18,"encoder":"385451771815369403","distractor":"385451771814369403","target":"present","response":"present","rt":"6527","correct":true,"confidence":3},{"trial_n":130,"span":18,"encoder":"195990647876508510","distractor":"195990647876598510","target":"absent","response":"absent","rt":"5675.6000003815","correct":true,"confidence":4},{"trial_n":131,"span":19,"encoder":"9049689836282221077","distractor":"5049689836282221077","target":"absent","response":"absent","rt":"5922.1999988556","correct":true,"confidence":5},{"trial_n":132,"span":19,"encoder":"5634911564000925384","distractor":"5634911564000955384","target":"absent","response":"absent","rt":"4863.5","correct":true,"confidence":4},{"trial_n":133,"span":20,"encoder":"75972769872116655097","distractor":"75922769872116655097","target":"present","response":"present","rt":"9683.8999996185","correct":true,"confidence":2},{"trial_n":134,"span":20,"encoder":"72550322349178097373","distractor":"72550322342178097373","target":"absent","response":"absent","rt":"8291","correct":true,"confidence":2},{"trial_n":135,"span":21,"encoder":"587575589497547776697","distractor":"687575589497547776697","target":"absent","response":"absent","rt":"12527.100000381","correct":true,"confidence":5},{"trial_n":136,"span":21,"encoder":"575852104713737392774","distractor":"375852104713737392774","target":"absent","response":"absent","rt":"5071","correct":true,"confidence":5},{"trial_n":137,"span":22,"encoder":"5585916793005192372871","distractor":"5585996793005192372871","target":"present","response":"absent","rt":"13531","correct":false,"confidence":1},{"trial_n":138,"span":21,"encoder":"801182667210775667496","distractor":"801182667220775667496","target":"present","response":"present","rt":"13203.700000763","correct":true,"confidence":2},{"trial_n":139,"span":21,"encoder":"637279895931692639328","distractor":"637279898931692639328","target":"present","response":"present","rt":"9676.2000007629","correct":true,"confidence":3},{"trial_n":140,"span":22,"encoder":"9908645669562820372971","distractor":"9908645669562820372171","target":"absent","response":"absent","rt":"4258.8999996185","correct":true,"confidence":1}]