[{"trial_n":1,"n_dots":4.25,"target":"left","response":"right","rt":12530.5,"correct":false,"confidence":-1},{"trial_n":2,"n_dots":4.25,"target":"left","response":"left","rt":1901.3000000007,"correct":true,"confidence":-1},{"trial_n":3,"n_dots":4.25,"target":"left","response":"left","rt":432.60000000149,"correct":true,"confidence":-1},{"trial_n":4,"n_dots":3.85,"target":"left","response":"left","rt":367.69999999925,"correct":true,"confidence":-1},{"trial_n":5,"n_dots":3.85,"target":"right","response":"left","rt":643.89999999851,"correct":false,"confidence":-1},{"trial_n":6,"n_dots":4.25,"target":"right","response":"right","rt":13.70000000298,"correct":true,"confidence":-1},{"trial_n":7,"n_dots":4.25,"target":"right","response":"right","rt":795.69999999925,"correct":true,"confidence":-1},{"trial_n":8,"n_dots":4.05,"target":"left","response":"left","rt":537.30000000075,"correct":true,"confidence":-1},{"trial_n":9,"n_dots":4.05,"target":"right","response":"right","rt":172.69999999925,"correct":true,"confidence":-1},{"trial_n":10,"n_dots":3.85,"target":"left","response":"right","rt":120.80000000075,"correct":false,"confidence":-1},{"trial_n":11,"n_dots":4.05,"target":"right","response":"right","rt":357.19999999925,"correct":true,"confidence":-1},{"trial_n":12,"n_dots":4.05,"target":"left","response":"left","rt":442.60000000149,"correct":true,"confidence":-1},{"trial_n":13,"n_dots":3.95,"target":"left","response":"left","rt":258.59999999776,"correct":true,"confidence":-1},{"trial_n":14,"n_dots":3.95,"target":"left","response":"left","rt":6188,"correct":true,"confidence":-1},{"trial_n":15,"n_dots":3.85,"target":"left","response":"left","rt":1483,"correct":true,"confidence":-1},{"trial_n":16,"n_dots":3.85,"target":"right","response":"right","rt":707.30000000075,"correct":true,"confidence":-1},{"trial_n":17,"n_dots":3.75,"target":"right","response":"right","rt":541.10000000149,"correct":true,"confidence":-1},{"trial_n":18,"n_dots":3.75,"target":"right","response":"right","rt":124.39999999851,"correct":true,"confidence":-1},{"trial_n":19,"n_dots":3.65,"target":"right","response":"right","rt":1348,"correct":true,"confidence":-1},{"trial_n":20,"n_dots":3.65,"target":"left","response":"left","rt":491.20000000298,"correct":true,"confidence":-1},{"trial_n":21,"n_dots":3.55,"target":"left","response":"right","rt":543.70000000298,"correct":false,"confidence":3},{"trial_n":22,"n_dots":3.65,"target":"right","response":"right","rt":467.39999999851,"correct":true,"confidence":3},{"trial_n":23,"n_dots":3.65,"target":"left","response":"left","rt":850.59999999776,"correct":true,"confidence":3},{"trial_n":24,"n_dots":3.55,"target":"left","response":"left","rt":238.10000000149,"correct":true,"confidence":4},{"trial_n":25,"n_dots":3.55,"target":"left","response":"left","rt":837.19999999925,"correct":true,"confidence":3},{"trial_n":26,"n_dots":3.45,"target":"right","response":"right","rt":516.30000000075,"correct":true,"confidence":3},{"trial_n":27,"n_dots":3.45,"target":"right","response":"left","rt":648.89999999851,"correct":false,"confidence":2},{"trial_n":28,"n_dots":3.55,"target":"right","response":"right","rt":165.80000000075,"correct":true,"confidence":4},{"trial_n":29,"n_dots":3.55,"target":"right","response":"right","rt":173,"correct":true,"confidence":3},{"trial_n":30,"n_dots":3.45,"target":"right","response":"right","rt":664.39999999851,"correct":true,"confidence":3},{"trial_n":31,"n_dots":3.45,"target":"left","response":"left","rt":754.5,"correct":true,"confidence":4},{"trial_n":32,"n_dots":3.35,"target":"left","response":"left","rt":431.09999999776,"correct":true,"confidence":2},{"trial_n":33,"n_dots":3.35,"target":"right","response":"right","rt":293.10000000149,"correct":true,"confidence":3},{"trial_n":34,"n_dots":3.25,"target":"right","response":"right","rt":296.60000000149,"correct":true,"confidence":2},{"trial_n":35,"n_dots":3.25,"target":"left","response":"left","rt":2999.1999999993,"correct":true,"confidence":1},{"trial_n":36,"n_dots":3.15,"target":"left","response":"left","rt":646.89999999851,"correct":true,"confidence":4},{"trial_n":37,"n_dots":3.15,"target":"left","response":"left","rt":518.80000000075,"correct":true,"confidence":4},{"trial_n":38,"n_dots":3.05,"target":"left","response":"left","rt":186.69999999925,"correct":true,"confidence":4},{"trial_n":39,"n_dots":3.05,"target":"left","response":"left","rt":270.5,"correct":true,"confidence":4},{"trial_n":40,"n_dots":2.95,"target":"right","response":"right","rt":746.89999999851,"correct":true,"confidence":2},{"trial_n":41,"n_dots":2.95,"target":"right","response":"right","rt":434.79999999702,"correct":true,"confidence":2},{"trial_n":42,"n_dots":2.85,"target":"left","response":"left","rt":755.39999999851,"correct":true,"confidence":3},{"trial_n":43,"n_dots":2.85,"target":"right","response":"left","rt":417.59999999776,"correct":false,"confidence":2},{"trial_n":44,"n_dots":2.95,"target":"right","response":"right","rt":2127.4000000022,"correct":true,"confidence":2},{"trial_n":45,"n_dots":2.95,"target":"right","response":"right","rt":1177.6999999993,"correct":true,"confidence":2},{"trial_n":46,"n_dots":2.85,"target":"right","response":"right","rt":727.60000000149,"correct":true,"confidence":2},{"trial_n":47,"n_dots":2.85,"target":"left","response":"right","rt":481.09999999776,"correct":false,"confidence":3},{"trial_n":48,"n_dots":2.95,"target":"left","response":"left","rt":829.80000000075,"correct":true,"confidence":3},{"trial_n":49,"n_dots":2.95,"target":"left","response":"left","rt":701.5,"correct":true,"confidence":4},{"trial_n":50,"n_dots":2.85,"target":"right","response":"left","rt":711,"correct":false,"confidence":3},{"trial_n":51,"n_dots":2.95,"target":"left","response":"left","rt":701.30000000075,"correct":true,"confidence":4},{"trial_n":52,"n_dots":2.95,"target":"left","response":"left","rt":2655.1000000015,"correct":true,"confidence":2},{"trial_n":53,"n_dots":2.85,"target":"right","response":"left","rt":1556.1000000015,"correct":false,"confidence":2},{"trial_n":54,"n_dots":2.95,"target":"left","response":"left","rt":935.5,"correct":true,"confidence":3},{"trial_n":55,"n_dots":2.95,"target":"left","response":"right","rt":1243.8000000007,"correct":false,"confidence":3},{"trial_n":56,"n_dots":3.05,"target":"left","response":"left","rt":947.10000000149,"correct":true,"confidence":4},{"trial_n":57,"n_dots":3.05,"target":"right","response":"left","rt":786.40000000224,"correct":false,"confidence":3},{"trial_n":58,"n_dots":3.15,"target":"right","response":"left","rt":1078.8000000007,"correct":false,"confidence":3},{"trial_n":59,"n_dots":3.25,"target":"right","response":"right","rt":1259.6000000015,"correct":true,"confidence":2},{"trial_n":60,"n_dots":3.25,"target":"left","response":"left","rt":642,"correct":true,"confidence":4},{"trial_n":61,"n_dots":3.15,"target":"left","response":"left","rt":2423.6999999993,"correct":true,"confidence":1},{"trial_n":62,"n_dots":3.15,"target":"left","response":"left","rt":1440.6000000015,"correct":true,"confidence":1},{"trial_n":63,"n_dots":3.05,"target":"right","response":"right","rt":838.19999999925,"correct":true,"confidence":3},{"trial_n":64,"n_dots":3.05,"target":"right","response":"right","rt":1138.5,"correct":true,"confidence":2},{"trial_n":65,"n_dots":2.95,"target":"left","response":"right","rt":1304.3000000007,"correct":false,"confidence":1},{"trial_n":66,"n_dots":3.05,"target":"left","response":"left","rt":1075.5999999978,"correct":true,"confidence":1},{"trial_n":67,"n_dots":3.05,"target":"right","response":"right","rt":929.89999999851,"correct":true,"confidence":2},{"trial_n":68,"n_dots":2.95,"target":"left","response":"left","rt":751.39999999851,"correct":true,"confidence":4},{"trial_n":69,"n_dots":2.95,"target":"right","response":"right","rt":636.60000000149,"correct":true,"confidence":4},{"trial_n":70,"n_dots":2.85,"target":"left","response":"left","rt":1018.3000000007,"correct":true,"confidence":1},{"trial_n":71,"n_dots":2.85,"target":"right","response":"left","rt":1438.8000000007,"correct":false,"confidence":2},{"trial_n":72,"n_dots":2.95,"target":"right","response":"right","rt":2090.1000000015,"correct":true,"confidence":1},{"trial_n":73,"n_dots":2.95,"target":"left","response":"left","rt":954,"correct":true,"confidence":1},{"trial_n":74,"n_dots":2.85,"target":"right","response":"right","rt":836.5,"correct":true,"confidence":3},{"trial_n":75,"n_dots":2.85,"target":"left","response":"left","rt":636.69999999925,"correct":true,"confidence":4},{"trial_n":76,"n_dots":2.75,"target":"left","response":"right","rt":555.19999999925,"correct":false,"confidence":3},{"trial_n":77,"n_dots":2.85,"target":"right","response":"left","rt":1488.6999999993,"correct":false,"confidence":3},{"trial_n":78,"n_dots":2.95,"target":"right","response":"left","rt":1381.3000000007,"correct":false,"confidence":1},{"trial_n":79,"n_dots":3.05,"target":"right","response":"right","rt":562.69999999925,"correct":true,"confidence":3},{"trial_n":80,"n_dots":3.05,"target":"left","response":"left","rt":727.09999999776,"correct":true,"confidence":3},{"trial_n":81,"n_dots":2.95,"target":"right","response":"right","rt":1464.1000000015,"correct":true,"confidence":1},{"trial_n":82,"n_dots":2.95,"target":"right","response":"right","rt":553.60000000149,"correct":true,"confidence":3},{"trial_n":83,"n_dots":2.85,"target":"left","response":"right","rt":1083.6999999993,"correct":false,"confidence":1},{"trial_n":84,"n_dots":2.95,"target":"right","response":"right","rt":1001,"correct":true,"confidence":1},{"trial_n":85,"n_dots":2.95,"target":"right","response":"right","rt":765,"correct":true,"confidence":3},{"trial_n":86,"n_dots":2.85,"target":"left","response":"right","rt":469.19999999925,"correct":false,"confidence":3},{"trial_n":87,"n_dots":2.95,"target":"right","response":"right","rt":615.90000000224,"correct":true,"confidence":4},{"trial_n":88,"n_dots":2.95,"target":"left","response":"left","rt":852,"correct":true,"confidence":2},{"trial_n":89,"n_dots":2.85,"target":"left","response":"right","rt":5664.1999999993,"correct":false,"confidence":1},{"trial_n":90,"n_dots":2.95,"target":"right","response":"right","rt":613.80000000075,"correct":true,"confidence":3},{"trial_n":91,"n_dots":2.95,"target":"right","response":"right","rt":1198.5,"correct":true,"confidence":1},{"trial_n":92,"n_dots":2.85,"target":"right","response":"right","rt":788.19999999925,"correct":true,"confidence":1},{"trial_n":93,"n_dots":2.85,"target":"left","response":"left","rt":1058.6999999993,"correct":true,"confidence":1},{"trial_n":94,"n_dots":2.75,"target":"right","response":"right","rt":843.89999999851,"correct":true,"confidence":3},{"trial_n":95,"n_dots":2.75,"target":"left","response":"left","rt":742.60000000149,"correct":true,"confidence":3},{"trial_n":96,"n_dots":2.65,"target":"right","response":"right","rt":1288.9000000022,"correct":true,"confidence":1},{"trial_n":97,"n_dots":2.65,"target":"left","response":"left","rt":1436.5,"correct":true,"confidence":1},{"trial_n":98,"n_dots":2.55,"target":"right","response":"right","rt":564.40000000224,"correct":true,"confidence":3},{"trial_n":99,"n_dots":2.55,"target":"left","response":"right","rt":850.10000000149,"correct":false,"confidence":2},{"trial_n":100,"n_dots":2.65,"target":"left","response":"left","rt":707.09999999776,"correct":true,"confidence":1},{"trial_n":101,"n_dots":2.65,"target":"left","response":"right","rt":1927.6000000015,"correct":false,"confidence":1},{"trial_n":102,"n_dots":2.75,"target":"right","response":"right","rt":324.30000000075,"correct":true,"confidence":2},{"trial_n":103,"n_dots":2.75,"target":"right","response":"right","rt":252.19999999925,"correct":true,"confidence":3},{"trial_n":104,"n_dots":2.65,"target":"left","response":"right","rt":457.79999999702,"correct":false,"confidence":3},{"trial_n":105,"n_dots":2.75,"target":"right","response":"right","rt":560.89999999851,"correct":true,"confidence":4},{"trial_n":106,"n_dots":2.75,"target":"right","response":"right","rt":347,"correct":true,"confidence":4},{"trial_n":107,"n_dots":2.65,"target":"right","response":"right","rt":276.19999999925,"correct":true,"confidence":4},{"trial_n":108,"n_dots":2.65,"target":"right","response":"right","rt":1.0999999977648,"correct":true,"confidence":1},{"trial_n":109,"n_dots":2.55,"target":"left","response":"right","rt":540.19999999925,"correct":false,"confidence":3},{"trial_n":110,"n_dots":2.65,"target":"right","response":"right","rt":903.69999999925,"correct":true,"confidence":1},{"trial_n":111,"n_dots":2.65,"target":"left","response":"right","rt":524.80000000075,"correct":false,"confidence":1},{"trial_n":112,"n_dots":2.75,"target":"left","response":"right","rt":452.69999999925,"correct":false,"confidence":1},{"trial_n":113,"n_dots":2.85,"target":"right","response":"right","rt":454.5,"correct":true,"confidence":2},{"trial_n":114,"n_dots":2.85,"target":"left","response":"left","rt":790.59999999776,"correct":true,"confidence":1},{"trial_n":115,"n_dots":2.75,"target":"left","response":"right","rt":532.40000000224,"correct":false,"confidence":2},{"trial_n":116,"n_dots":2.85,"target":"right","response":"right","rt":337.39999999851,"correct":true,"confidence":2},{"trial_n":117,"n_dots":2.85,"target":"right","response":"right","rt":416.79999999702,"correct":true,"confidence":2},{"trial_n":118,"n_dots":2.75,"target":"left","response":"right","rt":724.10000000149,"correct":false,"confidence":2},{"trial_n":119,"n_dots":2.85,"target":"right","response":"right","rt":1435.8000000007,"correct":true,"confidence":1},{"trial_n":120,"n_dots":2.85,"target":"left","response":"right","rt":1100.299999997,"correct":false,"confidence":1}]