[{"trial_n":1,"span":8,"encoder":"58752263","distractor":"53752263","target":"present","response":"present","rt":"8800.7000000477","correct":true,"confidence":-1},{"trial_n":2,"span":8,"encoder":"55610195","distractor":"35610195","target":"present","response":"absent","rt":"5050.8999998569","correct":false,"confidence":-1},{"trial_n":3,"span":6,"encoder":"326842","distractor":"326847","target":"absent","response":"absent","rt":"3295.7999999523","correct":true,"confidence":-1},{"trial_n":4,"span":6,"encoder":"780116","distractor":"780016","target":"absent","response":"absent","rt":"4645.2000000477","correct":true,"confidence":-1},{"trial_n":5,"span":8,"encoder":"27098488","distractor":"27098498","target":"present","response":"absent","rt":"3534.2999999523","correct":false,"confidence":-1},{"trial_n":6,"span":6,"encoder":"768163","distractor":"718163","target":"absent","response":"absent","rt":"4016.7000000477","correct":true,"confidence":-1},{"trial_n":7,"span":6,"encoder":"731570","distractor":"731520","target":"present","response":"present","rt":"4008.2000000477","correct":true,"confidence":-1},{"trial_n":8,"span":8,"encoder":"06589040","distractor":"06089040","target":"absent","response":"absent","rt":"2783.3999998569","correct":true,"confidence":-1},{"trial_n":9,"span":8,"encoder":"76346844","distractor":"76340844","target":"absent","response":"absent","rt":"3888.4000000954","correct":true,"confidence":-1},{"trial_n":10,"span":10,"encoder":"3480076122","distractor":"3480276122","target":"absent","response":"absent","rt":"3484.2000000477","correct":true,"confidence":-1},{"trial_n":11,"span":10,"encoder":"1133776916","distractor":"1133796916","target":"present","response":"present","rt":"3804.8999998569","correct":true,"confidence":-1},{"trial_n":12,"span":11,"encoder":"93502242693","distractor":"93503242693","target":"absent","response":"present","rt":"5303.2999999523","correct":false,"confidence":-1},{"trial_n":13,"span":10,"encoder":"3468874800","distractor":"3468872800","target":"present","response":"present","rt":"3946.5999999046","correct":true,"confidence":-1},{"trial_n":14,"span":10,"encoder":"1475330606","distractor":"2475330606","target":"present","response":"absent","rt":"4123.0999999046","correct":false,"confidence":-1},{"trial_n":15,"span":9,"encoder":"628165380","distractor":"628865380","target":"present","response":"absent","rt":"5782.2000000477","correct":false,"confidence":-1},{"trial_n":16,"span":8,"encoder":"55700922","distractor":"55709922","target":"present","response":"present","rt":"4199.6000001431","correct":true,"confidence":-1},{"trial_n":17,"span":8,"encoder":"42811920","distractor":"42811930","target":"absent","response":"absent","rt":"6277","correct":true,"confidence":-1},{"trial_n":18,"span":9,"encoder":"480446290","distractor":"480406290","target":"absent","response":"present","rt":"6250.2000000477","correct":false,"confidence":-1},{"trial_n":19,"span":8,"encoder":"47569474","distractor":"47569674","target":"present","response":"present","rt":"3324.2000000477","correct":true,"confidence":-1},{"trial_n":20,"span":8,"encoder":"19929942","distractor":"19229942","target":"present","response":"present","rt":"3794.7000000477","correct":true,"confidence":-1},{"trial_n":21,"span":9,"encoder":"107936048","distractor":"107936348","target":"present","response":"present","rt":"5638","correct":true,"confidence":4},{"trial_n":22,"span":9,"encoder":"713492852","distractor":"712492852","target":"absent","response":"absent","rt":"7501.2000000477","correct":true,"confidence":3},{"trial_n":23,"span":10,"encoder":"7801349765","distractor":"7801849765","target":"absent","response":"present","rt":"11952.5","correct":false,"confidence":2},{"trial_n":24,"span":9,"encoder":"131585592","distractor":"131535592","target":"absent","response":"absent","rt":"7163","correct":true,"confidence":3},{"trial_n":25,"span":9,"encoder":"822109681","distractor":"822109641","target":"present","response":"present","rt":"6866.7000000477","correct":true,"confidence":3},{"trial_n":26,"span":10,"encoder":"0251577726","distractor":"0951577726","target":"absent","response":"absent","rt":"8791.4000000954","correct":true,"confidence":4},{"trial_n":27,"span":10,"encoder":"4059798850","distractor":"4859798850","target":"present","response":"present","rt":"8301.7000000477","correct":true,"confidence":3},{"trial_n":28,"span":11,"encoder":"19432756387","distractor":"18432756387","target":"absent","response":"absent","rt":"6773.2999999523","correct":true,"confidence":4},{"trial_n":29,"span":11,"encoder":"61123857900","distractor":"61123857906","target":"present","response":"absent","rt":"6021.6000001431","correct":false,"confidence":4},{"trial_n":30,"span":10,"encoder":"2716923147","distractor":"2816923147","target":"absent","response":"absent","rt":"7443.0999999046","correct":true,"confidence":3},{"trial_n":31,"span":10,"encoder":"6331240465","distractor":"6331243465","target":"present","response":"present","rt":"4551.5999999046","correct":true,"confidence":4},{"trial_n":32,"span":11,"encoder":"08233726683","distractor":"08733726683","target":"absent","response":"absent","rt":"5983.7000000477","correct":true,"confidence":3},{"trial_n":33,"span":11,"encoder":"46246187288","distractor":"46246187281","target":"present","response":"present","rt":"6346.0999999046","correct":true,"confidence":3},{"trial_n":34,"span":12,"encoder":"415965216877","distractor":"415945216877","target":"present","response":"present","rt":"6801.7000000477","correct":true,"confidence":2},{"trial_n":35,"span":12,"encoder":"572596456797","distractor":"572596456097","target":"absent","response":"present","rt":"8367","correct":false,"confidence":2},{"trial_n":36,"span":11,"encoder":"50716661501","distractor":"50616661501","target":"present","response":"absent","rt":"5411.3999998569","correct":false,"confidence":5},{"trial_n":37,"span":10,"encoder":"8450753762","distractor":"8451753762","target":"absent","response":"absent","rt":"5963.2999999523","correct":true,"confidence":3},{"trial_n":38,"span":10,"encoder":"2491425235","distractor":"5491425235","target":"absent","response":"present","rt":"8031.7000000477","correct":false,"confidence":3},{"trial_n":39,"span":9,"encoder":"621137557","distractor":"621337557","target":"present","response":"present","rt":"9353.2000000477","correct":true,"confidence":4},{"trial_n":40,"span":9,"encoder":"295012996","distractor":"295012976","target":"present","response":"present","rt":"5450.0999999046","correct":true,"confidence":5},{"trial_n":41,"span":10,"encoder":"5519502849","distractor":"5719502849","target":"present","response":"present","rt":"6217.2999999523","correct":true,"confidence":4},{"trial_n":42,"span":10,"encoder":"6493163128","distractor":"6293163128","target":"absent","response":"absent","rt":"5913.5999999046","correct":true,"confidence":4},{"trial_n":43,"span":11,"encoder":"27226235211","distractor":"27226735211","target":"present","response":"present","rt":"5608","correct":true,"confidence":2},{"trial_n":44,"span":11,"encoder":"24471289682","distractor":"24471289687","target":"present","response":"absent","rt":"4411.7000000477","correct":false,"confidence":4},{"trial_n":45,"span":10,"encoder":"1468901722","distractor":"1468901222","target":"present","response":"present","rt":"4363.5","correct":true,"confidence":5},{"trial_n":46,"span":10,"encoder":"5085668247","distractor":"5085664247","target":"present","response":"absent","rt":"8302.7000000477","correct":false,"confidence":3},{"trial_n":47,"span":9,"encoder":"817542555","distractor":"817562555","target":"absent","response":"absent","rt":"7173.2999999523","correct":true,"confidence":3},{"trial_n":48,"span":9,"encoder":"871678953","distractor":"871678353","target":"absent","response":"present","rt":"5281.8999998569","correct":false,"confidence":4},{"trial_n":49,"span":8,"encoder":"54086154","distractor":"54046154","target":"present","response":"present","rt":"4731.2000000477","correct":true,"confidence":5},{"trial_n":50,"span":8,"encoder":"18144886","distractor":"14144886","target":"absent","response":"present","rt":"8200.7999999523","correct":false,"confidence":5},{"trial_n":51,"span":7,"encoder":"3180506","distractor":"3100506","target":"present","response":"present","rt":"6261","correct":true,"confidence":3},{"trial_n":52,"span":7,"encoder":"2422987","distractor":"2422587","target":"absent","response":"absent","rt":"3993.4000000954","correct":true,"confidence":5},{"trial_n":53,"span":8,"encoder":"39173850","distractor":"39173650","target":"present","response":"absent","rt":"5522.0999999046","correct":false,"confidence":3},{"trial_n":54,"span":7,"encoder":"9111183","distractor":"9111283","target":"absent","response":"absent","rt":"7581.6000001431","correct":true,"confidence":4},{"trial_n":55,"span":7,"encoder":"1423785","distractor":"1423780","target":"absent","response":"absent","rt":"6043.0999999046","correct":true,"confidence":5},{"trial_n":56,"span":8,"encoder":"99717957","distractor":"99717757","target":"absent","response":"present","rt":"10737.800000191","correct":false,"confidence":3},{"trial_n":57,"span":7,"encoder":"2240537","distractor":"2240557","target":"absent","response":"absent","rt":"9523","correct":true,"confidence":5},{"trial_n":58,"span":7,"encoder":"4254889","distractor":"4254839","target":"present","response":"present","rt":"4271.0999999046","correct":true,"confidence":4},{"trial_n":59,"span":8,"encoder":"15566426","distractor":"15566626","target":"absent","response":"absent","rt":"5936.5","correct":true,"confidence":4},{"trial_n":60,"span":8,"encoder":"91815589","distractor":"91815584","target":"present","response":"present","rt":"7956.2999999523","correct":true,"confidence":2},{"trial_n":61,"span":9,"encoder":"407869937","distractor":"407866937","target":"absent","response":"absent","rt":"5091.5","correct":true,"confidence":3},{"trial_n":62,"span":9,"encoder":"842847022","distractor":"842847028","target":"present","response":"present","rt":"3912.6999998093","correct":true,"confidence":5},{"trial_n":63,"span":10,"encoder":"7071912745","distractor":"7071913745","target":"absent","response":"absent","rt":"5881.1000001431","correct":true,"confidence":4},{"trial_n":64,"span":10,"encoder":"8038476348","distractor":"8038416348","target":"present","response":"absent","rt":"6131.9000000954","correct":false,"confidence":1},{"trial_n":65,"span":9,"encoder":"205350400","distractor":"265350400","target":"present","response":"present","rt":"4971.4000000954","correct":true,"confidence":3},{"trial_n":66,"span":9,"encoder":"379654893","distractor":"379644893","target":"present","response":"present","rt":"6161.3000001907","correct":true,"confidence":2},{"trial_n":67,"span":10,"encoder":"6925237908","distractor":"6945237908","target":"absent","response":"absent","rt":"3232.6000001431","correct":true,"confidence":2},{"trial_n":68,"span":10,"encoder":"4533267053","distractor":"4533263053","target":"present","response":"absent","rt":"5461.7000000477","correct":false,"confidence":3},{"trial_n":69,"span":9,"encoder":"798715200","distractor":"798715207","target":"absent","response":"absent","rt":"3431.2999999523","correct":true,"confidence":5},{"trial_n":70,"span":9,"encoder":"923849098","distractor":"923849068","target":"absent","response":"absent","rt":"6112","correct":true,"confidence":4},{"trial_n":71,"span":8,"encoder":"45881902","distractor":"45881302","target":"present","response":"present","rt":"5567.5","correct":true,"confidence":-1},{"trial_n":72,"span":8,"encoder":"55971999","distractor":"55771999","target":"present","response":"present","rt":"5452","correct":true,"confidence":-1},{"trial_n":73,"span":9,"encoder":"766923432","distractor":"766923932","target":"absent","response":"absent","rt":"3593.7999999523","correct":true,"confidence":-1},{"trial_n":74,"span":9,"encoder":"534446107","distractor":"534446607","target":"absent","response":"absent","rt":"5340","correct":true,"confidence":-1},{"trial_n":75,"span":10,"encoder":"9359557160","distractor":"9319557160","target":"present","response":"present","rt":"7674.8999998569","correct":true,"confidence":-1},{"trial_n":76,"span":10,"encoder":"7239668013","distractor":"7239668019","target":"present","response":"present","rt":"9378.3000001907","correct":true,"confidence":-1},{"trial_n":77,"span":11,"encoder":"63013299251","distractor":"63013199251","target":"absent","response":"present","rt":"8974.2999999523","correct":false,"confidence":-1},{"trial_n":78,"span":10,"encoder":"0830047983","distractor":"5830047983","target":"present","response":"absent","rt":"8826.7000000477","correct":false,"confidence":-1},{"trial_n":79,"span":9,"encoder":"657196992","distractor":"657196192","target":"absent","response":"present","rt":"7924.3999998569","correct":false,"confidence":-1},{"trial_n":80,"span":8,"encoder":"92931348","distractor":"92931448","target":"present","response":"present","rt":"4294.3000001907","correct":true,"confidence":-1},{"trial_n":81,"span":8,"encoder":"48189210","distractor":"48189216","target":"absent","response":"absent","rt":"2606.0999999046","correct":true,"confidence":-1},{"trial_n":82,"span":9,"encoder":"575571948","distractor":"505571948","target":"present","response":"absent","rt":"6194.3999998569","correct":false,"confidence":-1},{"trial_n":83,"span":8,"encoder":"05011557","distractor":"05011857","target":"present","response":"present","rt":"2957.1999998093","correct":true,"confidence":-1},{"trial_n":84,"span":8,"encoder":"56420730","distractor":"36420730","target":"present","response":"present","rt":"7008.3000001907","correct":true,"confidence":-1},{"trial_n":85,"span":9,"encoder":"832032046","distractor":"832035046","target":"present","response":"present","rt":"7012.2999999523","correct":true,"confidence":-1},{"trial_n":86,"span":9,"encoder":"681384861","distractor":"681384821","target":"absent","response":"absent","rt":"6223.5","correct":true,"confidence":-1},{"trial_n":87,"span":10,"encoder":"0136008811","distractor":"0156008811","target":"absent","response":"present","rt":"3099.5","correct":false,"confidence":-1},{"trial_n":88,"span":9,"encoder":"547063179","distractor":"547062179","target":"absent","response":"present","rt":"4774.0999999046","correct":false,"confidence":-1},{"trial_n":89,"span":8,"encoder":"12593683","distractor":"92593683","target":"present","response":"absent","rt":"8300.1000001431","correct":false,"confidence":-1},{"trial_n":90,"span":7,"encoder":"4362746","distractor":"4362716","target":"absent","response":"absent","rt":"4983.3000001907","correct":true,"confidence":-1},{"trial_n":91,"span":7,"encoder":"4358701","distractor":"4353701","target":"present","response":"present","rt":"12484.400000095","correct":true,"confidence":3},{"trial_n":92,"span":8,"encoder":"13128218","distractor":"13128214","target":"present","response":"present","rt":"5414.5999999046","correct":true,"confidence":4},{"trial_n":93,"span":8,"encoder":"19885800","distractor":"14885800","target":"present","response":"absent","rt":"6461.7999999523","correct":false,"confidence":3},{"trial_n":94,"span":7,"encoder":"7292382","distractor":"7292082","target":"present","response":"absent","rt":"8435","correct":false,"confidence":4},{"trial_n":95,"span":6,"encoder":"251259","distractor":"251359","target":"present","response":"present","rt":"2943.7999999523","correct":true,"confidence":5},{"trial_n":96,"span":6,"encoder":"487338","distractor":"487438","target":"present","response":"present","rt":"4422.3999998569","correct":true,"confidence":5},{"trial_n":97,"span":7,"encoder":"5092907","distractor":"1092907","target":"absent","response":"absent","rt":"4712.5","correct":true,"confidence":4},{"trial_n":98,"span":7,"encoder":"9616058","distractor":"9616858","target":"absent","response":"absent","rt":"3496.9000000954","correct":true,"confidence":5},{"trial_n":99,"span":8,"encoder":"85025453","distractor":"85035453","target":"present","response":"present","rt":"6845.9000000954","correct":true,"confidence":3},{"trial_n":100,"span":8,"encoder":"27272004","distractor":"27271004","target":"absent","response":"absent","rt":"5310.6999998093","correct":true,"confidence":4},{"trial_n":101,"span":9,"encoder":"386864090","distractor":"386861090","target":"absent","response":"absent","rt":"6925.9000000954","correct":true,"confidence":5},{"trial_n":102,"span":9,"encoder":"897125718","distractor":"897145718","target":"absent","response":"absent","rt":"7072.6999998093","correct":true,"confidence":3},{"trial_n":103,"span":10,"encoder":"0328256763","distractor":"0228256763","target":"present","response":"present","rt":"7191.8000001907","correct":true,"confidence":2},{"trial_n":104,"span":10,"encoder":"2444241622","distractor":"2404241622","target":"present","response":"present","rt":"4293.3999998569","correct":true,"confidence":5},{"trial_n":105,"span":11,"encoder":"04057559265","distractor":"01057559265","target":"absent","response":"absent","rt":"14850","correct":true,"confidence":2},{"trial_n":106,"span":11,"encoder":"73970773894","distractor":"13970773894","target":"present","response":"absent","rt":"8398","correct":false,"confidence":3},{"trial_n":107,"span":10,"encoder":"1750943639","distractor":"1750943631","target":"present","response":"present","rt":"6360.1999998093","correct":true,"confidence":5},{"trial_n":108,"span":10,"encoder":"6513138335","distractor":"6513138338","target":"absent","response":"absent","rt":"3682.5999999046","correct":true,"confidence":5},{"trial_n":109,"span":11,"encoder":"39075507934","distractor":"39075707934","target":"absent","response":"absent","rt":"18708.200000048","correct":true,"confidence":2},{"trial_n":110,"span":11,"encoder":"69445053920","distractor":"69445053720","target":"present","response":"present","rt":"6930.5999999046","correct":true,"confidence":5},{"trial_n":111,"span":12,"encoder":"193551594361","distractor":"191551594361","target":"present","response":"present","rt":"12864.200000048","correct":true,"confidence":2},{"trial_n":112,"span":12,"encoder":"241812725740","distractor":"541812725740","target":"absent","response":"present","rt":"7302.5","correct":false,"confidence":3},{"trial_n":113,"span":11,"encoder":"32222416055","distractor":"32222406055","target":"absent","response":"absent","rt":"13016.5","correct":true,"confidence":2},{"trial_n":114,"span":11,"encoder":"99874274201","distractor":"99874274801","target":"present","response":"present","rt":"7967.7999999523","correct":true,"confidence":4},{"trial_n":115,"span":12,"encoder":"116851789972","distractor":"916851789972","target":"present","response":"absent","rt":"9157","correct":false,"confidence":3},{"trial_n":116,"span":11,"encoder":"60619118170","distractor":"60619111170","target":"absent","response":"absent","rt":"7005.0999999046","correct":true,"confidence":4},{"trial_n":117,"span":11,"encoder":"14227567056","distractor":"14227557056","target":"absent","response":"absent","rt":"5457.5","correct":true,"confidence":3},{"trial_n":118,"span":12,"encoder":"328096939331","distractor":"328096919331","target":"present","response":"present","rt":"12584.300000191","correct":true,"confidence":4},{"trial_n":119,"span":12,"encoder":"834310004908","distractor":"839310004908","target":"absent","response":"present","rt":"10789.5","correct":false,"confidence":2},{"trial_n":120,"span":11,"encoder":"96871804670","distractor":"96871004670","target":"absent","response":"absent","rt":"4754.5999999046","correct":true,"confidence":3},{"trial_n":121,"span":11,"encoder":"87954296591","distractor":"87954296592","target":"present","response":"present","rt":"5465.4000000954","correct":true,"confidence":5},{"trial_n":122,"span":12,"encoder":"066490025258","distractor":"066490085258","target":"present","response":"absent","rt":"18045","correct":false,"confidence":2},{"trial_n":123,"span":11,"encoder":"02028658218","distractor":"02023658218","target":"absent","response":"absent","rt":"3945.2999999523","correct":true,"confidence":4},{"trial_n":124,"span":11,"encoder":"20582590233","distractor":"20582580233","target":"present","response":"absent","rt":"12293.899999857","correct":false,"confidence":3},{"trial_n":125,"span":10,"encoder":"5148512901","distractor":"5448512901","target":"absent","response":"absent","rt":"7335.9000000954","correct":true,"confidence":4},{"trial_n":126,"span":10,"encoder":"9446414993","distractor":"9446414793","target":"present","response":"present","rt":"3061.6000001431","correct":true,"confidence":4},{"trial_n":127,"span":11,"encoder":"95364758675","distractor":"95464758675","target":"present","response":"absent","rt":"15185.799999952","correct":false,"confidence":2},{"trial_n":128,"span":10,"encoder":"9018737814","distractor":"9018737810","target":"absent","response":"absent","rt":"1925","correct":true,"confidence":5},{"trial_n":129,"span":10,"encoder":"7463830123","distractor":"7463630123","target":"absent","response":"absent","rt":"10692.699999809","correct":true,"confidence":3},{"trial_n":130,"span":11,"encoder":"82922342623","distractor":"02922342623","target":"present","response":"present","rt":"5879.8999998569","correct":true,"confidence":4},{"trial_n":131,"span":11,"encoder":"61042875263","distractor":"61042865263","target":"absent","response":"present","rt":"9735","correct":false,"confidence":3},{"trial_n":132,"span":10,"encoder":"1089686021","distractor":"1089676021","target":"absent","response":"absent","rt":"4009.3000001907","correct":true,"confidence":4},{"trial_n":133,"span":10,"encoder":"8928078323","distractor":"3928078323","target":"absent","response":"absent","rt":"3496.9000000954","correct":true,"confidence":4},{"trial_n":134,"span":11,"encoder":"35258744353","distractor":"35258741353","target":"absent","response":"absent","rt":"6719.0999999046","correct":true,"confidence":4},{"trial_n":135,"span":11,"encoder":"12362530743","distractor":"12362730743","target":"present","response":"present","rt":"9662.2000000477","correct":true,"confidence":3},{"trial_n":136,"span":12,"encoder":"110315254598","distractor":"110315257598","target":"absent","response":"absent","rt":"6617.1000001431","correct":true,"confidence":5},{"trial_n":137,"span":12,"encoder":"343781667542","distractor":"143781667542","target":"present","response":"present","rt":"8986.2999999523","correct":true,"confidence":2},{"trial_n":138,"span":13,"encoder":"5001962074373","distractor":"5006962074373","target":"present","response":"present","rt":"10192.5","correct":true,"confidence":3},{"trial_n":139,"span":13,"encoder":"5200533759714","distractor":"5100533759714","target":"absent","response":"present","rt":"11686.700000048","correct":false,"confidence":3},{"trial_n":140,"span":12,"encoder":"513145306698","distractor":"511145306698","target":"absent","response":"absent","rt":"6244.2999999523","correct":true,"confidence":5}]