[{"trial_n":1,"n_dots":4.25,"target":"right","response":"left","rt":6691.2999999523,"correct":false,"confidence":-1},{"trial_n":2,"n_dots":4.25,"target":"left","response":"left","rt":2941.1000000238,"correct":true,"confidence":-1},{"trial_n":3,"n_dots":4.25,"target":"right","response":"right","rt":1720.3999999762,"correct":true,"confidence":-1},{"trial_n":4,"n_dots":3.85,"target":"right","response":"right","rt":1055.5999999046,"correct":true,"confidence":-1},{"trial_n":5,"n_dots":3.85,"target":"left","response":"left","rt":1193.1000000238,"correct":true,"confidence":-1},{"trial_n":6,"n_dots":3.45,"target":"right","response":"right","rt":1491.1999999285,"correct":true,"confidence":-1},{"trial_n":7,"n_dots":3.45,"target":"left","response":"left","rt":1118.1000000238,"correct":true,"confidence":-1},{"trial_n":8,"n_dots":3.25,"target":"right","response":"right","rt":1044.1000000238,"correct":true,"confidence":-1},{"trial_n":9,"n_dots":3.25,"target":"left","response":"left","rt":655.30000007153,"correct":true,"confidence":-1},{"trial_n":10,"n_dots":3.05,"target":"left","response":"right","rt":1986.1000000238,"correct":false,"confidence":-1},{"trial_n":11,"n_dots":3.25,"target":"left","response":"right","rt":4107,"correct":false,"confidence":-1},{"trial_n":12,"n_dots":3.45,"target":"left","response":"right","rt":723.5,"correct":false,"confidence":-1},{"trial_n":13,"n_dots":3.55,"target":"left","response":"left","rt":720.90000009537,"correct":true,"confidence":-1},{"trial_n":14,"n_dots":3.55,"target":"left","response":"left","rt":1005.6999999285,"correct":true,"confidence":-1},{"trial_n":15,"n_dots":3.45,"target":"right","response":"right","rt":772.80000007153,"correct":true,"confidence":-1},{"trial_n":16,"n_dots":3.45,"target":"right","response":"right","rt":835.39999997616,"correct":true,"confidence":-1},{"trial_n":17,"n_dots":3.35,"target":"right","response":"right","rt":857.79999995232,"correct":true,"confidence":-1},{"trial_n":18,"n_dots":3.35,"target":"left","response":"right","rt":863.29999995232,"correct":false,"confidence":-1},{"trial_n":19,"n_dots":3.45,"target":"right","response":"left","rt":634.69999992847,"correct":false,"confidence":-1},{"trial_n":20,"n_dots":3.55,"target":"left","response":"left","rt":1057.7000000477,"correct":true,"confidence":-1},{"trial_n":21,"n_dots":3.55,"target":"left","response":"left","rt":948.79999995232,"correct":true,"confidence":2},{"trial_n":22,"n_dots":3.45,"target":"right","response":"right","rt":808.79999995232,"correct":true,"confidence":2},{"trial_n":23,"n_dots":3.45,"target":"left","response":"left","rt":953.70000004768,"correct":true,"confidence":2},{"trial_n":24,"n_dots":3.35,"target":"left","response":"left","rt":929.10000002384,"correct":true,"confidence":1},{"trial_n":25,"n_dots":3.35,"target":"right","response":"right","rt":846.80000007153,"correct":true,"confidence":2},{"trial_n":26,"n_dots":3.25,"target":"right","response":"right","rt":885.30000007153,"correct":true,"confidence":2},{"trial_n":27,"n_dots":3.25,"target":"right","response":"right","rt":844.40000009537,"correct":true,"confidence":2},{"trial_n":28,"n_dots":3.15,"target":"right","response":"right","rt":1721.7999999523,"correct":true,"confidence":1},{"trial_n":29,"n_dots":3.15,"target":"left","response":"right","rt":816.89999997616,"correct":false,"confidence":2},{"trial_n":30,"n_dots":3.25,"target":"left","response":"left","rt":928.79999995232,"correct":true,"confidence":2},{"trial_n":31,"n_dots":3.25,"target":"left","response":"left","rt":1070,"correct":true,"confidence":2},{"trial_n":32,"n_dots":3.15,"target":"right","response":"left","rt":1089.6000000238,"correct":false,"confidence":1},{"trial_n":33,"n_dots":3.25,"target":"left","response":"left","rt":712.30000007153,"correct":true,"confidence":1},{"trial_n":34,"n_dots":3.25,"target":"right","response":"right","rt":882.80000007153,"correct":true,"confidence":2},{"trial_n":35,"n_dots":3.15,"target":"left","response":"left","rt":671.10000002384,"correct":true,"confidence":3},{"trial_n":36,"n_dots":3.15,"target":"left","response":"right","rt":1279.6000000238,"correct":false,"confidence":1},{"trial_n":37,"n_dots":3.25,"target":"left","response":"right","rt":1042.5999999046,"correct":false,"confidence":2},{"trial_n":38,"n_dots":3.35,"target":"right","response":"right","rt":875.39999997616,"correct":true,"confidence":2},{"trial_n":39,"n_dots":3.35,"target":"left","response":"right","rt":998.19999992847,"correct":false,"confidence":2},{"trial_n":40,"n_dots":3.45,"target":"left","response":"left","rt":674.79999995232,"correct":true,"confidence":3},{"trial_n":41,"n_dots":3.45,"target":"left","response":"right","rt":2278.3999999762,"correct":false,"confidence":1},{"trial_n":42,"n_dots":3.55,"target":"right","response":"right","rt":1167.1000000238,"correct":true,"confidence":2},{"trial_n":43,"n_dots":3.55,"target":"right","response":"right","rt":792.5,"correct":true,"confidence":2},{"trial_n":44,"n_dots":3.45,"target":"left","response":"left","rt":894.79999995232,"correct":true,"confidence":2},{"trial_n":45,"n_dots":3.45,"target":"right","response":"right","rt":1456.5,"correct":true,"confidence":2},{"trial_n":46,"n_dots":3.35,"target":"right","response":"right","rt":821.39999997616,"correct":true,"confidence":2},{"trial_n":47,"n_dots":3.35,"target":"left","response":"right","rt":1606.1999999285,"correct":false,"confidence":2},{"trial_n":48,"n_dots":3.45,"target":"right","response":"right","rt":1770.7999999523,"correct":true,"confidence":2},{"trial_n":49,"n_dots":3.45,"target":"left","response":"left","rt":1513.8000000715,"correct":true,"confidence":1},{"trial_n":50,"n_dots":3.35,"target":"right","response":"left","rt":21727.100000024,"correct":false,"confidence":2},{"trial_n":51,"n_dots":3.45,"target":"left","response":"right","rt":46016.800000072,"correct":false,"confidence":1},{"trial_n":52,"n_dots":3.55,"target":"left","response":"left","rt":822.70000004768,"correct":true,"confidence":2},{"trial_n":53,"n_dots":3.55,"target":"right","response":"right","rt":1877.5,"correct":true,"confidence":2},{"trial_n":54,"n_dots":3.45,"target":"right","response":"left","rt":797.79999995232,"correct":false,"confidence":2},{"trial_n":55,"n_dots":3.55,"target":"right","response":"right","rt":561.60000002384,"correct":true,"confidence":1},{"trial_n":56,"n_dots":3.55,"target":"right","response":"left","rt":712.5,"correct":false,"confidence":2},{"trial_n":57,"n_dots":3.65,"target":"left","response":"right","rt":1268,"correct":false,"confidence":2},{"trial_n":58,"n_dots":3.75,"target":"left","response":"left","rt":1109.5,"correct":true,"confidence":2},{"trial_n":59,"n_dots":3.75,"target":"left","response":"right","rt":914.80000007153,"correct":false,"confidence":1},{"trial_n":60,"n_dots":3.85,"target":"right","response":"right","rt":1110.5,"correct":true,"confidence":1},{"trial_n":61,"n_dots":3.85,"target":"left","response":"right","rt":845.69999992847,"correct":false,"confidence":2},{"trial_n":62,"n_dots":3.95,"target":"right","response":"left","rt":580.20000004768,"correct":false,"confidence":1},{"trial_n":63,"n_dots":4.05,"target":"left","response":"left","rt":734.39999997616,"correct":true,"confidence":2},{"trial_n":64,"n_dots":4.05,"target":"left","response":"left","rt":678.20000004768,"correct":true,"confidence":2},{"trial_n":65,"n_dots":3.95,"target":"left","response":"left","rt":694.29999995232,"correct":true,"confidence":3},{"trial_n":66,"n_dots":3.95,"target":"right","response":"right","rt":884.89999997616,"correct":true,"confidence":3},{"trial_n":67,"n_dots":3.85,"target":"left","response":"left","rt":1081.4000000954,"correct":true,"confidence":3},{"trial_n":68,"n_dots":3.85,"target":"right","response":"right","rt":1096,"correct":true,"confidence":2},{"trial_n":69,"n_dots":3.75,"target":"left","response":"left","rt":815.5,"correct":true,"confidence":2},{"trial_n":70,"n_dots":3.75,"target":"left","response":"left","rt":884.79999995232,"correct":true,"confidence":3},{"trial_n":71,"n_dots":3.65,"target":"right","response":"right","rt":822.20000004768,"correct":true,"confidence":2},{"trial_n":72,"n_dots":3.65,"target":"left","response":"left","rt":748.60000002384,"correct":true,"confidence":2},{"trial_n":73,"n_dots":3.55,"target":"left","response":"left","rt":614,"correct":true,"confidence":2},{"trial_n":74,"n_dots":3.55,"target":"right","response":"right","rt":807.80000007153,"correct":true,"confidence":2},{"trial_n":75,"n_dots":3.45,"target":"right","response":"right","rt":1527.8999999762,"correct":true,"confidence":2},{"trial_n":76,"n_dots":3.45,"target":"right","response":"right","rt":863.19999992847,"correct":true,"confidence":2},{"trial_n":77,"n_dots":3.35,"target":"right","response":"right","rt":574.10000002384,"correct":true,"confidence":2},{"trial_n":78,"n_dots":3.35,"target":"left","response":"right","rt":3400.5,"correct":false,"confidence":2},{"trial_n":79,"n_dots":3.45,"target":"left","response":"left","rt":991.39999997616,"correct":true,"confidence":2},{"trial_n":80,"n_dots":3.45,"target":"right","response":"left","rt":1034,"correct":false,"confidence":1},{"trial_n":81,"n_dots":3.55,"target":"right","response":"right","rt":719.29999995232,"correct":true,"confidence":2},{"trial_n":82,"n_dots":3.55,"target":"right","response":"right","rt":723.39999997616,"correct":true,"confidence":1},{"trial_n":83,"n_dots":3.45,"target":"left","response":"left","rt":552.5,"correct":true,"confidence":2},{"trial_n":84,"n_dots":3.45,"target":"left","response":"left","rt":512.90000009537,"correct":true,"confidence":1},{"trial_n":85,"n_dots":3.35,"target":"left","response":"left","rt":525.5,"correct":true,"confidence":1},{"trial_n":86,"n_dots":3.35,"target":"right","response":"left","rt":716,"correct":false,"confidence":1},{"trial_n":87,"n_dots":3.45,"target":"right","response":"right","rt":857.10000002384,"correct":true,"confidence":2},{"trial_n":88,"n_dots":3.45,"target":"left","response":"left","rt":677.20000004768,"correct":true,"confidence":2},{"trial_n":89,"n_dots":3.35,"target":"left","response":"left","rt":1244.2000000477,"correct":true,"confidence":2},{"trial_n":90,"n_dots":3.35,"target":"right","response":"right","rt":1023.2000000477,"correct":true,"confidence":2},{"trial_n":91,"n_dots":3.25,"target":"right","response":"left","rt":964.10000002384,"correct":false,"confidence":2},{"trial_n":92,"n_dots":3.35,"target":"left","response":"left","rt":946.5,"correct":true,"confidence":2},{"trial_n":93,"n_dots":3.35,"target":"right","response":"right","rt":938.39999997616,"correct":true,"confidence":2},{"trial_n":94,"n_dots":3.25,"target":"right","response":"right","rt":842.5,"correct":true,"confidence":2},{"trial_n":95,"n_dots":3.25,"target":"left","response":"left","rt":1915.2999999523,"correct":true,"confidence":2},{"trial_n":96,"n_dots":3.15,"target":"left","response":"left","rt":940.70000004768,"correct":true,"confidence":1},{"trial_n":97,"n_dots":3.15,"target":"right","response":"right","rt":19207.899999976,"correct":true,"confidence":1},{"trial_n":98,"n_dots":3.05,"target":"right","response":"right","rt":585.10000002384,"correct":true,"confidence":1},{"trial_n":99,"n_dots":3.05,"target":"right","response":"left","rt":790.09999990463,"correct":false,"confidence":1},{"trial_n":100,"n_dots":3.15,"target":"left","response":"left","rt":721,"correct":true,"confidence":2},{"trial_n":101,"n_dots":3.15,"target":"right","response":"right","rt":738.39999997616,"correct":true,"confidence":1},{"trial_n":102,"n_dots":3.05,"target":"right","response":"left","rt":546.89999997616,"correct":false,"confidence":2},{"trial_n":103,"n_dots":3.15,"target":"right","response":"right","rt":653.70000004768,"correct":true,"confidence":1},{"trial_n":104,"n_dots":3.15,"target":"right","response":"right","rt":637.39999997616,"correct":true,"confidence":1},{"trial_n":105,"n_dots":3.05,"target":"right","response":"right","rt":683.89999997616,"correct":true,"confidence":2},{"trial_n":106,"n_dots":3.05,"target":"left","response":"right","rt":765.39999997616,"correct":false,"confidence":2},{"trial_n":107,"n_dots":3.15,"target":"left","response":"left","rt":613,"correct":true,"confidence":2},{"trial_n":108,"n_dots":3.15,"target":"right","response":"right","rt":1737,"correct":true,"confidence":2},{"trial_n":109,"n_dots":3.05,"target":"left","response":"left","rt":808,"correct":true,"confidence":1},{"trial_n":110,"n_dots":3.05,"target":"right","response":"right","rt":802.79999995232,"correct":true,"confidence":1},{"trial_n":111,"n_dots":2.95,"target":"left","response":"left","rt":768,"correct":true,"confidence":1},{"trial_n":112,"n_dots":2.95,"target":"left","response":"left","rt":887.60000002384,"correct":true,"confidence":1},{"trial_n":113,"n_dots":2.85,"target":"right","response":"right","rt":884.5,"correct":true,"confidence":1},{"trial_n":114,"n_dots":2.85,"target":"right","response":"left","rt":1102.7000000477,"correct":false,"confidence":1},{"trial_n":115,"n_dots":2.95,"target":"left","response":"right","rt":847.70000004768,"correct":false,"confidence":1},{"trial_n":116,"n_dots":3.05,"target":"right","response":"right","rt":648.80000007153,"correct":true,"confidence":1},{"trial_n":117,"n_dots":3.05,"target":"left","response":"left","rt":559.39999997616,"correct":true,"confidence":2},{"trial_n":118,"n_dots":2.95,"target":"right","response":"left","rt":1046.5,"correct":false,"confidence":2},{"trial_n":119,"n_dots":3.05,"target":"right","response":"left","rt":804.90000009537,"correct":false,"confidence":1},{"trial_n":120,"n_dots":3.15,"target":"left","response":"left","rt":645.20000004768,"correct":true,"confidence":2}]