[{"trial_n":1,"min":25,"max":230,"target":"present","response":"present","rt":4712.6000003815,"correct":true,"confidence":-1},{"trial_n":2,"min":25,"max":230,"target":"present","response":"present","rt":2366,"correct":true,"confidence":-1},{"trial_n":3,"min":41,"max":214,"target":"absent","response":"absent","rt":1721.1000003815,"correct":true,"confidence":-1},{"trial_n":4,"min":41,"max":214,"target":"absent","response":"present","rt":2485.7000007629,"correct":false,"confidence":-1},{"trial_n":5,"min":25,"max":230,"target":"present","response":"present","rt":1912.8000011444,"correct":true,"confidence":-1},{"trial_n":6,"min":25,"max":230,"target":"absent","response":"absent","rt":1628,"correct":true,"confidence":-1},{"trial_n":7,"min":41,"max":214,"target":"present","response":"present","rt":1092.6000003815,"correct":true,"confidence":-1},{"trial_n":8,"min":41,"max":214,"target":"present","response":"present","rt":1267.2999992371,"correct":true,"confidence":-1},{"trial_n":9,"min":57,"max":198,"target":"absent","response":"absent","rt":1609.3999996185,"correct":true,"confidence":-1},{"trial_n":10,"min":57,"max":198,"target":"absent","response":"absent","rt":1236.2000007629,"correct":true,"confidence":-1},{"trial_n":11,"min":65,"max":190,"target":"present","response":"present","rt":1353.5,"correct":true,"confidence":-1},{"trial_n":12,"min":65,"max":190,"target":"present","response":"present","rt":1257.2000007629,"correct":true,"confidence":-1},{"trial_n":13,"min":73,"max":182,"target":"absent","response":"absent","rt":1192,"correct":true,"confidence":-1},{"trial_n":14,"min":73,"max":182,"target":"present","response":"present","rt":1003.5,"correct":true,"confidence":-1},{"trial_n":15,"min":81,"max":174,"target":"absent","response":"absent","rt":1476.6000003815,"correct":true,"confidence":-1},{"trial_n":16,"min":81,"max":174,"target":"present","response":"absent","rt":1411.5999984741,"correct":false,"confidence":-1},{"trial_n":17,"min":73,"max":182,"target":"absent","response":"absent","rt":1859.6000003815,"correct":true,"confidence":-1},{"trial_n":18,"min":73,"max":182,"target":"absent","response":"absent","rt":1201,"correct":true,"confidence":-1},{"trial_n":19,"min":81,"max":174,"target":"absent","response":"absent","rt":1200.3999996185,"correct":true,"confidence":-1},{"trial_n":20,"min":81,"max":174,"target":"absent","response":"absent","rt":1352.8999996185,"correct":true,"confidence":-1},{"trial_n":21,"min":85,"max":170,"target":"present","response":"absent","rt":1441.1000003815,"correct":false,"confidence":4},{"trial_n":22,"min":81,"max":174,"target":"absent","response":"absent","rt":3594.7999992371,"correct":true,"confidence":3},{"trial_n":23,"min":81,"max":174,"target":"present","response":"present","rt":1569.7999992371,"correct":true,"confidence":3},{"trial_n":24,"min":85,"max":170,"target":"present","response":"absent","rt":1644.2000007629,"correct":false,"confidence":3},{"trial_n":25,"min":81,"max":174,"target":"present","response":"absent","rt":1434.5999984741,"correct":false,"confidence":4},{"trial_n":26,"min":77,"max":178,"target":"present","response":"present","rt":1109.5,"correct":true,"confidence":5},{"trial_n":27,"min":77,"max":178,"target":"absent","response":"absent","rt":1377.8000011444,"correct":true,"confidence":5},{"trial_n":28,"min":81,"max":174,"target":"present","response":"present","rt":1587.6000003815,"correct":true,"confidence":2},{"trial_n":29,"min":81,"max":174,"target":"present","response":"absent","rt":1654.6000003815,"correct":false,"confidence":3},{"trial_n":30,"min":77,"max":178,"target":"absent","response":"present","rt":2630.8999996185,"correct":false,"confidence":3},{"trial_n":31,"min":75,"max":180,"target":"absent","response":"absent","rt":3080.3999996185,"correct":true,"confidence":4},{"trial_n":32,"min":75,"max":180,"target":"absent","response":"absent","rt":1527.1999988556,"correct":true,"confidence":3},{"trial_n":33,"min":77,"max":178,"target":"absent","response":"absent","rt":2071.1000003815,"correct":true,"confidence":4},{"trial_n":34,"min":77,"max":178,"target":"absent","response":"absent","rt":1802.3999996185,"correct":true,"confidence":3},{"trial_n":35,"min":79,"max":176,"target":"absent","response":"absent","rt":1487,"correct":true,"confidence":4},{"trial_n":36,"min":79,"max":176,"target":"present","response":"present","rt":1964,"correct":true,"confidence":5},{"trial_n":37,"min":81,"max":174,"target":"absent","response":"absent","rt":1496,"correct":true,"confidence":4},{"trial_n":38,"min":81,"max":174,"target":"present","response":"present","rt":1660.8000011444,"correct":true,"confidence":2},{"trial_n":39,"min":83,"max":172,"target":"present","response":"present","rt":1571.3000011444,"correct":true,"confidence":3},{"trial_n":40,"min":83,"max":172,"target":"present","response":"present","rt":1102.7000007629,"correct":true,"confidence":5},{"trial_n":41,"min":84,"max":171,"target":"absent","response":"absent","rt":1265.9000015259,"correct":true,"confidence":5},{"trial_n":42,"min":84,"max":171,"target":"absent","response":"absent","rt":1918.7999992371,"correct":true,"confidence":3},{"trial_n":43,"min":85,"max":170,"target":"present","response":"present","rt":1430.2999992371,"correct":true,"confidence":5},{"trial_n":44,"min":85,"max":170,"target":"absent","response":"absent","rt":1304.5,"correct":true,"confidence":3},{"trial_n":45,"min":86,"max":169,"target":"present","response":"present","rt":1109.8999996185,"correct":true,"confidence":5},{"trial_n":46,"min":86,"max":169,"target":"present","response":"present","rt":1458.1000003815,"correct":true,"confidence":4},{"trial_n":47,"min":87,"max":168,"target":"absent","response":"absent","rt":1382,"correct":true,"confidence":5},{"trial_n":48,"min":87,"max":168,"target":"absent","response":"absent","rt":1243.8999996185,"correct":true,"confidence":3},{"trial_n":49,"min":88,"max":167,"target":"absent","response":"absent","rt":1532.8999996185,"correct":true,"confidence":5},{"trial_n":50,"min":88,"max":167,"target":"absent","response":"absent","rt":3196.8999996185,"correct":true,"confidence":3},{"trial_n":51,"min":89,"max":166,"target":"present","response":"present","rt":1497.5999984741,"correct":true,"confidence":4},{"trial_n":52,"min":89,"max":166,"target":"present","response":"absent","rt":1464.7999992371,"correct":false,"confidence":5},{"trial_n":53,"min":88,"max":167,"target":"present","response":"absent","rt":1753.6000003815,"correct":false,"confidence":3},{"trial_n":54,"min":87,"max":168,"target":"absent","response":"absent","rt":1636.9000015259,"correct":true,"confidence":4},{"trial_n":55,"min":87,"max":168,"target":"present","response":"present","rt":3970.5,"correct":true,"confidence":2},{"trial_n":56,"min":88,"max":167,"target":"absent","response":"absent","rt":4469.6999988556,"correct":true,"confidence":4},{"trial_n":57,"min":88,"max":167,"target":"present","response":"absent","rt":1454.3999996185,"correct":false,"confidence":5},{"trial_n":58,"min":87,"max":168,"target":"absent","response":"absent","rt":1118.8999996185,"correct":true,"confidence":5},{"trial_n":59,"min":87,"max":168,"target":"present","response":"present","rt":1517.5,"correct":true,"confidence":5},{"trial_n":60,"min":88,"max":167,"target":"present","response":"present","rt":1211.8000011444,"correct":true,"confidence":5},{"trial_n":61,"min":88,"max":167,"target":"present","response":"present","rt":1597.8999996185,"correct":true,"confidence":5},{"trial_n":62,"min":89,"max":166,"target":"absent","response":"present","rt":1370.8000011444,"correct":false,"confidence":4},{"trial_n":63,"min":88,"max":167,"target":"absent","response":"absent","rt":1527,"correct":true,"confidence":3},{"trial_n":64,"min":88,"max":167,"target":"present","response":"present","rt":1361.8999996185,"correct":true,"confidence":5},{"trial_n":65,"min":89,"max":166,"target":"present","response":"present","rt":1463.4000015259,"correct":true,"confidence":5},{"trial_n":66,"min":89,"max":166,"target":"absent","response":"absent","rt":1952.2999992371,"correct":true,"confidence":2},{"trial_n":67,"min":90,"max":165,"target":"present","response":"present","rt":1237.8000011444,"correct":true,"confidence":5},{"trial_n":68,"min":90,"max":165,"target":"present","response":"present","rt":3737,"correct":true,"confidence":5},{"trial_n":69,"min":91,"max":164,"target":"absent","response":"present","rt":2444,"correct":false,"confidence":4},{"trial_n":70,"min":90,"max":165,"target":"present","response":"present","rt":2515,"correct":true,"confidence":5},{"trial_n":71,"min":41,"max":214,"target":"present","response":"present","rt":3329.1000003815,"correct":true,"confidence":-1},{"trial_n":72,"min":41,"max":214,"target":"present","response":"present","rt":1363.2000007629,"correct":true,"confidence":-1},{"trial_n":73,"min":57,"max":198,"target":"absent","response":"absent","rt":3593.8000011444,"correct":true,"confidence":-1},{"trial_n":74,"min":57,"max":198,"target":"absent","response":"absent","rt":985.20000076294,"correct":true,"confidence":-1},{"trial_n":75,"min":73,"max":182,"target":"present","response":"present","rt":1345.2000007629,"correct":true,"confidence":-1},{"trial_n":76,"min":73,"max":182,"target":"present","response":"present","rt":1029.1000003815,"correct":true,"confidence":-1},{"trial_n":77,"min":89,"max":166,"target":"present","response":"present","rt":1352.3000011444,"correct":true,"confidence":-1},{"trial_n":78,"min":89,"max":166,"target":"absent","response":"absent","rt":1840.1999988556,"correct":true,"confidence":-1},{"trial_n":79,"min":105,"max":150,"target":"present","response":"absent","rt":2003.2000007629,"correct":false,"confidence":-1},{"trial_n":80,"min":89,"max":166,"target":"absent","response":"present","rt":2076.8999996185,"correct":false,"confidence":-1},{"trial_n":81,"min":81,"max":174,"target":"present","response":"absent","rt":1411.1000003815,"correct":false,"confidence":-1},{"trial_n":82,"min":73,"max":182,"target":"absent","response":"absent","rt":1184.3999996185,"correct":true,"confidence":-1},{"trial_n":83,"min":73,"max":182,"target":"absent","response":"absent","rt":1253.5,"correct":true,"confidence":-1},{"trial_n":84,"min":81,"max":174,"target":"absent","response":"absent","rt":819,"correct":true,"confidence":-1},{"trial_n":85,"min":81,"max":174,"target":"absent","response":"present","rt":1719.8999996185,"correct":false,"confidence":-1},{"trial_n":86,"min":73,"max":182,"target":"absent","response":"absent","rt":1714.1999988556,"correct":true,"confidence":-1},{"trial_n":87,"min":73,"max":182,"target":"present","response":"present","rt":1325.5999984741,"correct":true,"confidence":-1},{"trial_n":88,"min":81,"max":174,"target":"present","response":"present","rt":1303.2000007629,"correct":true,"confidence":-1},{"trial_n":89,"min":81,"max":174,"target":"present","response":"present","rt":811.30000114441,"correct":true,"confidence":-1},{"trial_n":90,"min":89,"max":166,"target":"present","response":"absent","rt":2091.2000007629,"correct":false,"confidence":-1},{"trial_n":91,"min":85,"max":170,"target":"absent","response":"present","rt":1229.0999984741,"correct":false,"confidence":2},{"trial_n":92,"min":81,"max":174,"target":"present","response":"absent","rt":1898.3999996185,"correct":false,"confidence":2},{"trial_n":93,"min":77,"max":178,"target":"absent","response":"present","rt":434.5,"correct":false,"confidence":5},{"trial_n":94,"min":73,"max":182,"target":"present","response":"absent","rt":870.20000076294,"correct":false,"confidence":3},{"trial_n":95,"min":69,"max":186,"target":"present","response":"present","rt":428,"correct":true,"confidence":5},{"trial_n":96,"min":69,"max":186,"target":"present","response":"present","rt":653.30000114441,"correct":true,"confidence":5},{"trial_n":97,"min":73,"max":182,"target":"present","response":"present","rt":735.30000114441,"correct":true,"confidence":5},{"trial_n":98,"min":73,"max":182,"target":"absent","response":"absent","rt":959.89999961853,"correct":true,"confidence":4},{"trial_n":99,"min":77,"max":178,"target":"present","response":"present","rt":585.79999923706,"correct":true,"confidence":5},{"trial_n":100,"min":77,"max":178,"target":"present","response":"absent","rt":1534,"correct":false,"confidence":2},{"trial_n":101,"min":75,"max":180,"target":"absent","response":"absent","rt":1052.6000003815,"correct":true,"confidence":5},{"trial_n":102,"min":75,"max":180,"target":"absent","response":"absent","rt":943.79999923706,"correct":true,"confidence":5},{"trial_n":103,"min":77,"max":178,"target":"absent","response":"present","rt":1417.6000003815,"correct":false,"confidence":3},{"trial_n":104,"min":75,"max":180,"target":"present","response":"present","rt":786,"correct":true,"confidence":5},{"trial_n":105,"min":75,"max":180,"target":"absent","response":"absent","rt":1078.5999984741,"correct":true,"confidence":4},{"trial_n":106,"min":77,"max":178,"target":"present","response":"present","rt":447.90000152588,"correct":true,"confidence":5},{"trial_n":107,"min":77,"max":178,"target":"absent","response":"absent","rt":752.60000038147,"correct":true,"confidence":5},{"trial_n":108,"min":79,"max":176,"target":"absent","response":"absent","rt":981.5,"correct":true,"confidence":4},{"trial_n":109,"min":79,"max":176,"target":"present","response":"present","rt":550.79999923706,"correct":true,"confidence":5},{"trial_n":110,"min":81,"max":174,"target":"absent","response":"absent","rt":2843.1000003815,"correct":true,"confidence":3},{"trial_n":111,"min":81,"max":174,"target":"present","response":"present","rt":826.80000114441,"correct":true,"confidence":3},{"trial_n":112,"min":82,"max":173,"target":"present","response":"present","rt":553.39999961853,"correct":true,"confidence":5},{"trial_n":113,"min":82,"max":173,"target":"absent","response":"present","rt":1037.6000003815,"correct":false,"confidence":1},{"trial_n":114,"min":81,"max":174,"target":"present","response":"absent","rt":1417.6000003815,"correct":false,"confidence":2},{"trial_n":115,"min":80,"max":175,"target":"absent","response":"absent","rt":830.20000076294,"correct":true,"confidence":5},{"trial_n":116,"min":80,"max":175,"target":"absent","response":"absent","rt":1804.6000003815,"correct":true,"confidence":2},{"trial_n":117,"min":81,"max":174,"target":"absent","response":"absent","rt":1146.6000003815,"correct":true,"confidence":5},{"trial_n":118,"min":81,"max":174,"target":"present","response":"present","rt":2592.6999988556,"correct":true,"confidence":4},{"trial_n":119,"min":82,"max":173,"target":"absent","response":"absent","rt":977,"correct":true,"confidence":5},{"trial_n":120,"min":82,"max":173,"target":"present","response":"present","rt":1051.8999996185,"correct":true,"confidence":4},{"trial_n":121,"min":83,"max":172,"target":"absent","response":"present","rt":1557.3999996185,"correct":false,"confidence":3},{"trial_n":122,"min":82,"max":173,"target":"present","response":"present","rt":286,"correct":true,"confidence":5},{"trial_n":123,"min":82,"max":173,"target":"absent","response":"absent","rt":1123.8999996185,"correct":true,"confidence":3},{"trial_n":124,"min":83,"max":172,"target":"absent","response":"absent","rt":422.5,"correct":true,"confidence":4},{"trial_n":125,"min":83,"max":172,"target":"present","response":"present","rt":485.30000114441,"correct":true,"confidence":4},{"trial_n":126,"min":84,"max":171,"target":"present","response":"present","rt":1202.7000007629,"correct":true,"confidence":4},{"trial_n":127,"min":84,"max":171,"target":"present","response":"present","rt":1923.3999996185,"correct":true,"confidence":5},{"trial_n":128,"min":85,"max":170,"target":"absent","response":"absent","rt":1284,"correct":true,"confidence":1},{"trial_n":129,"min":85,"max":170,"target":"absent","response":"absent","rt":631.80000114441,"correct":true,"confidence":5},{"trial_n":130,"min":86,"max":169,"target":"present","response":"present","rt":402.80000114441,"correct":true,"confidence":5},{"trial_n":131,"min":86,"max":169,"target":"absent","response":"absent","rt":1356.5,"correct":true,"confidence":3},{"trial_n":132,"min":87,"max":168,"target":"absent","response":"present","rt":970.60000038147,"correct":false,"confidence":1},{"trial_n":133,"min":86,"max":169,"target":"absent","response":"present","rt":1010.7000007629,"correct":false,"confidence":3},{"trial_n":134,"min":85,"max":170,"target":"absent","response":"absent","rt":1619.2999992371,"correct":true,"confidence":2},{"trial_n":135,"min":85,"max":170,"target":"present","response":"present","rt":352.19999885559,"correct":true,"confidence":4},{"trial_n":136,"min":86,"max":169,"target":"present","response":"present","rt":446.89999961853,"correct":true,"confidence":5},{"trial_n":137,"min":86,"max":169,"target":"present","response":"present","rt":526.79999923706,"correct":true,"confidence":5},{"trial_n":138,"min":87,"max":168,"target":"present","response":"present","rt":1312.5,"correct":true,"confidence":4},{"trial_n":139,"min":87,"max":168,"target":"present","response":"present","rt":704.70000076294,"correct":true,"confidence":5},{"trial_n":140,"min":88,"max":167,"target":"absent","response":"absent","rt":1508.3999996185,"correct":true,"confidence":2}]