[{"trial_n":1,"min":25,"max":230,"target":"present","response":"present","rt":18987.200000048,"correct":true,"confidence":-1},{"trial_n":2,"min":25,"max":230,"target":"present","response":"present","rt":7125.2000000477,"correct":true,"confidence":-1},{"trial_n":3,"min":41,"max":214,"target":"absent","response":"absent","rt":7193,"correct":true,"confidence":-1},{"trial_n":4,"min":41,"max":214,"target":"absent","response":"absent","rt":2430.2999999523,"correct":true,"confidence":-1},{"trial_n":5,"min":57,"max":198,"target":"present","response":"present","rt":1134.0999999046,"correct":true,"confidence":-1},{"trial_n":6,"min":57,"max":198,"target":"absent","response":"absent","rt":809.39999985695,"correct":true,"confidence":-1},{"trial_n":7,"min":73,"max":182,"target":"absent","response":"absent","rt":803,"correct":true,"confidence":-1},{"trial_n":8,"min":73,"max":182,"target":"present","response":"present","rt":768.40000009537,"correct":true,"confidence":-1},{"trial_n":9,"min":89,"max":166,"target":"present","response":"present","rt":1365.8999998569,"correct":true,"confidence":-1},{"trial_n":10,"min":89,"max":166,"target":"present","response":"absent","rt":704.40000009537,"correct":false,"confidence":-1},{"trial_n":11,"min":81,"max":174,"target":"present","response":"present","rt":883.90000009537,"correct":true,"confidence":-1},{"trial_n":12,"min":81,"max":174,"target":"absent","response":"absent","rt":708.09999990463,"correct":true,"confidence":-1},{"trial_n":13,"min":89,"max":166,"target":"present","response":"present","rt":975.79999995232,"correct":true,"confidence":-1},{"trial_n":14,"min":89,"max":166,"target":"absent","response":"absent","rt":1662.1000001431,"correct":true,"confidence":-1},{"trial_n":15,"min":97,"max":158,"target":"absent","response":"absent","rt":881.29999995232,"correct":true,"confidence":-1},{"trial_n":16,"min":97,"max":158,"target":"absent","response":"absent","rt":1386.2999999523,"correct":true,"confidence":-1},{"trial_n":17,"min":105,"max":150,"target":"present","response":"absent","rt":1336.5,"correct":false,"confidence":-1},{"trial_n":18,"min":97,"max":158,"target":"absent","response":"absent","rt":664.5,"correct":true,"confidence":-1},{"trial_n":19,"min":97,"max":158,"target":"absent","response":"present","rt":618.59999990463,"correct":false,"confidence":-1},{"trial_n":20,"min":89,"max":166,"target":"absent","response":"absent","rt":613.89999985695,"correct":true,"confidence":-1},{"trial_n":21,"min":89,"max":166,"target":"absent","response":"absent","rt":1271.3999998569,"correct":true,"confidence":3},{"trial_n":22,"min":93,"max":162,"target":"present","response":"present","rt":993.09999990463,"correct":true,"confidence":4},{"trial_n":23,"min":93,"max":162,"target":"present","response":"present","rt":2285.5,"correct":true,"confidence":4},{"trial_n":24,"min":97,"max":158,"target":"absent","response":"present","rt":5652.5999999046,"correct":false,"confidence":3},{"trial_n":25,"min":93,"max":162,"target":"present","response":"present","rt":1032.0999999046,"correct":true,"confidence":4},{"trial_n":26,"min":93,"max":162,"target":"present","response":"present","rt":2420.5,"correct":true,"confidence":3},{"trial_n":27,"min":97,"max":158,"target":"absent","response":"absent","rt":736.20000004768,"correct":true,"confidence":5},{"trial_n":28,"min":97,"max":158,"target":"present","response":"present","rt":1231.1000001431,"correct":true,"confidence":3},{"trial_n":29,"min":101,"max":154,"target":"present","response":"absent","rt":1888.7000000477,"correct":false,"confidence":3},{"trial_n":30,"min":97,"max":158,"target":"present","response":"present","rt":1424.3000001907,"correct":true,"confidence":4},{"trial_n":31,"min":97,"max":158,"target":"absent","response":"present","rt":1422,"correct":false,"confidence":4},{"trial_n":32,"min":95,"max":160,"target":"absent","response":"present","rt":1292,"correct":false,"confidence":5},{"trial_n":33,"min":93,"max":162,"target":"absent","response":"present","rt":1240.2999999523,"correct":false,"confidence":4},{"trial_n":34,"min":91,"max":164,"target":"present","response":"absent","rt":1727.7999999523,"correct":false,"confidence":3},{"trial_n":35,"min":89,"max":166,"target":"present","response":"present","rt":1131.8000001907,"correct":true,"confidence":5},{"trial_n":36,"min":89,"max":166,"target":"absent","response":"absent","rt":1499.0999999046,"correct":true,"confidence":3},{"trial_n":37,"min":91,"max":164,"target":"absent","response":"present","rt":4938,"correct":false,"confidence":3},{"trial_n":38,"min":89,"max":166,"target":"absent","response":"present","rt":3623.3999998569,"correct":false,"confidence":4},{"trial_n":39,"min":87,"max":168,"target":"present","response":"present","rt":1077.5,"correct":true,"confidence":5},{"trial_n":40,"min":87,"max":168,"target":"absent","response":"present","rt":2737.5999999046,"correct":false,"confidence":4},{"trial_n":41,"min":86,"max":169,"target":"absent","response":"absent","rt":9990.4000000954,"correct":true,"confidence":2},{"trial_n":42,"min":86,"max":169,"target":"present","response":"present","rt":1737.6000001431,"correct":true,"confidence":3},{"trial_n":43,"min":87,"max":168,"target":"absent","response":"absent","rt":1252.7000000477,"correct":true,"confidence":4},{"trial_n":44,"min":87,"max":168,"target":"absent","response":"present","rt":1878.4000000954,"correct":false,"confidence":4},{"trial_n":45,"min":86,"max":169,"target":"absent","response":"absent","rt":1414.4000000954,"correct":true,"confidence":5},{"trial_n":46,"min":86,"max":169,"target":"present","response":"present","rt":1722,"correct":true,"confidence":5},{"trial_n":47,"min":87,"max":168,"target":"present","response":"absent","rt":1505,"correct":false,"confidence":2},{"trial_n":48,"min":86,"max":169,"target":"absent","response":"absent","rt":1575.5999999046,"correct":true,"confidence":3},{"trial_n":49,"min":86,"max":169,"target":"absent","response":"present","rt":4557.4000000954,"correct":false,"confidence":4},{"trial_n":50,"min":85,"max":170,"target":"absent","response":"absent","rt":2353.5,"correct":true,"confidence":2},{"trial_n":51,"min":85,"max":170,"target":"present","response":"present","rt":1538.1000001431,"correct":true,"confidence":4},{"trial_n":52,"min":86,"max":169,"target":"present","response":"absent","rt":4264.2999999523,"correct":false,"confidence":2},{"trial_n":53,"min":85,"max":170,"target":"absent","response":"absent","rt":5632,"correct":true,"confidence":3},{"trial_n":54,"min":85,"max":170,"target":"present","response":"present","rt":1203.7000000477,"correct":true,"confidence":5},{"trial_n":55,"min":86,"max":169,"target":"present","response":"present","rt":1111.3000001907,"correct":true,"confidence":5},{"trial_n":56,"min":86,"max":169,"target":"present","response":"present","rt":1354.6000001431,"correct":true,"confidence":4},{"trial_n":57,"min":87,"max":168,"target":"present","response":"present","rt":1386.3000001907,"correct":true,"confidence":4},{"trial_n":58,"min":87,"max":168,"target":"absent","response":"absent","rt":1193.1000001431,"correct":true,"confidence":4},{"trial_n":59,"min":88,"max":167,"target":"absent","response":"absent","rt":3061.2000000477,"correct":true,"confidence":2},{"trial_n":60,"min":88,"max":167,"target":"absent","response":"absent","rt":1928.2999999523,"correct":true,"confidence":4},{"trial_n":61,"min":89,"max":166,"target":"present","response":"present","rt":1437.3999998569,"correct":true,"confidence":5},{"trial_n":62,"min":89,"max":166,"target":"absent","response":"absent","rt":1256.2999999523,"correct":true,"confidence":4},{"trial_n":63,"min":90,"max":165,"target":"present","response":"present","rt":1366.7000000477,"correct":true,"confidence":5},{"trial_n":64,"min":90,"max":165,"target":"absent","response":"absent","rt":1389.7999999523,"correct":true,"confidence":3},{"trial_n":65,"min":91,"max":164,"target":"present","response":"absent","rt":5608.5,"correct":false,"confidence":2},{"trial_n":66,"min":90,"max":165,"target":"present","response":"absent","rt":1182.4000000954,"correct":false,"confidence":3},{"trial_n":67,"min":89,"max":166,"target":"present","response":"present","rt":1239.9000000954,"correct":true,"confidence":5},{"trial_n":68,"min":89,"max":166,"target":"present","response":"present","rt":1179.9000000954,"correct":true,"confidence":5},{"trial_n":69,"min":90,"max":165,"target":"present","response":"present","rt":1317.9000000954,"correct":true,"confidence":5},{"trial_n":70,"min":90,"max":165,"target":"present","response":"present","rt":1279.8000001907,"correct":true,"confidence":5},{"trial_n":71,"min":41,"max":214,"target":"present","response":"absent","rt":9361,"correct":false,"confidence":-1},{"trial_n":72,"min":41,"max":214,"target":"present","response":"present","rt":1459,"correct":true,"confidence":-1},{"trial_n":73,"min":41,"max":214,"target":"absent","response":"absent","rt":1493,"correct":true,"confidence":-1},{"trial_n":74,"min":57,"max":198,"target":"absent","response":"absent","rt":1292.2000000477,"correct":true,"confidence":-1},{"trial_n":75,"min":57,"max":198,"target":"present","response":"present","rt":1233.5,"correct":true,"confidence":-1},{"trial_n":76,"min":73,"max":182,"target":"present","response":"present","rt":1234.4000000954,"correct":true,"confidence":-1},{"trial_n":77,"min":73,"max":182,"target":"present","response":"present","rt":2481.3999998569,"correct":true,"confidence":-1},{"trial_n":78,"min":89,"max":166,"target":"present","response":"present","rt":1153,"correct":true,"confidence":-1},{"trial_n":79,"min":89,"max":166,"target":"present","response":"absent","rt":3058.4000000954,"correct":false,"confidence":-1},{"trial_n":80,"min":73,"max":182,"target":"present","response":"present","rt":562.40000009537,"correct":true,"confidence":-1},{"trial_n":81,"min":73,"max":182,"target":"absent","response":"absent","rt":1404.5999999046,"correct":true,"confidence":-1},{"trial_n":82,"min":81,"max":174,"target":"absent","response":"absent","rt":1240.3000001907,"correct":true,"confidence":-1},{"trial_n":83,"min":81,"max":174,"target":"absent","response":"absent","rt":1618.5,"correct":true,"confidence":-1},{"trial_n":84,"min":89,"max":166,"target":"present","response":"present","rt":532.70000004768,"correct":true,"confidence":-1},{"trial_n":85,"min":89,"max":166,"target":"present","response":"present","rt":2335.0999999046,"correct":true,"confidence":-1},{"trial_n":86,"min":97,"max":158,"target":"absent","response":"present","rt":1082.7000000477,"correct":false,"confidence":-1},{"trial_n":87,"min":89,"max":166,"target":"present","response":"absent","rt":1730.9000000954,"correct":false,"confidence":-1},{"trial_n":88,"min":81,"max":174,"target":"absent","response":"present","rt":800.90000009537,"correct":false,"confidence":-1},{"trial_n":89,"min":73,"max":182,"target":"present","response":"absent","rt":709.39999985695,"correct":false,"confidence":-1},{"trial_n":90,"min":65,"max":190,"target":"present","response":"present","rt":1412.7000000477,"correct":true,"confidence":-1},{"trial_n":91,"min":65,"max":190,"target":"present","response":"present","rt":1244.9000000954,"correct":true,"confidence":5},{"trial_n":92,"min":69,"max":186,"target":"present","response":"present","rt":712.59999990463,"correct":true,"confidence":5},{"trial_n":93,"min":69,"max":186,"target":"absent","response":"absent","rt":728.39999985695,"correct":true,"confidence":5},{"trial_n":94,"min":73,"max":182,"target":"absent","response":"absent","rt":831.09999990463,"correct":true,"confidence":3},{"trial_n":95,"min":73,"max":182,"target":"absent","response":"absent","rt":1630.5,"correct":true,"confidence":4},{"trial_n":96,"min":77,"max":178,"target":"present","response":"present","rt":545.59999990463,"correct":true,"confidence":5},{"trial_n":97,"min":77,"max":178,"target":"present","response":"present","rt":1015.7000000477,"correct":true,"confidence":5},{"trial_n":98,"min":81,"max":174,"target":"present","response":"present","rt":530,"correct":true,"confidence":5},{"trial_n":99,"min":81,"max":174,"target":"present","response":"present","rt":729.09999990463,"correct":true,"confidence":4},{"trial_n":100,"min":85,"max":170,"target":"absent","response":"absent","rt":1884.2999999523,"correct":true,"confidence":3},{"trial_n":101,"min":85,"max":170,"target":"present","response":"present","rt":608.70000004768,"correct":true,"confidence":4},{"trial_n":102,"min":87,"max":168,"target":"absent","response":"absent","rt":1187.7999999523,"correct":true,"confidence":3},{"trial_n":103,"min":87,"max":168,"target":"present","response":"present","rt":625.09999990463,"correct":true,"confidence":5},{"trial_n":104,"min":89,"max":166,"target":"absent","response":"absent","rt":6078.5999999046,"correct":true,"confidence":2},{"trial_n":105,"min":89,"max":166,"target":"absent","response":"absent","rt":1002.2000000477,"correct":true,"confidence":3},{"trial_n":106,"min":91,"max":164,"target":"absent","response":"absent","rt":4887.2000000477,"correct":true,"confidence":4},{"trial_n":107,"min":91,"max":164,"target":"absent","response":"absent","rt":6725.7000000477,"correct":true,"confidence":2},{"trial_n":108,"min":93,"max":162,"target":"present","response":"present","rt":755.79999995232,"correct":true,"confidence":4},{"trial_n":109,"min":93,"max":162,"target":"absent","response":"absent","rt":7691.9000000954,"correct":true,"confidence":1},{"trial_n":110,"min":95,"max":160,"target":"absent","response":"present","rt":5774.7999999523,"correct":false,"confidence":2},{"trial_n":111,"min":94,"max":161,"target":"present","response":"present","rt":2347.2000000477,"correct":true,"confidence":4},{"trial_n":112,"min":94,"max":161,"target":"present","response":"present","rt":2621.7999999523,"correct":true,"confidence":3},{"trial_n":113,"min":95,"max":160,"target":"absent","response":"present","rt":3966.8999998569,"correct":false,"confidence":2},{"trial_n":114,"min":94,"max":161,"target":"present","response":"present","rt":1366.7000000477,"correct":true,"confidence":4},{"trial_n":115,"min":94,"max":161,"target":"present","response":"present","rt":876.89999985695,"correct":true,"confidence":4},{"trial_n":116,"min":95,"max":160,"target":"present","response":"present","rt":1177.0999999046,"correct":true,"confidence":4},{"trial_n":117,"min":95,"max":160,"target":"present","response":"present","rt":815.09999990463,"correct":true,"confidence":4},{"trial_n":118,"min":96,"max":159,"target":"absent","response":"absent","rt":2541.8999998569,"correct":true,"confidence":3},{"trial_n":119,"min":96,"max":159,"target":"present","response":"present","rt":1252.4000000954,"correct":true,"confidence":4},{"trial_n":120,"min":97,"max":158,"target":"absent","response":"present","rt":1319.8000001907,"correct":false,"confidence":3},{"trial_n":121,"min":96,"max":159,"target":"present","response":"present","rt":1364.0999999046,"correct":true,"confidence":5},{"trial_n":122,"min":96,"max":159,"target":"present","response":"present","rt":1201.2999999523,"correct":true,"confidence":4},{"trial_n":123,"min":97,"max":158,"target":"present","response":"present","rt":1300.3000001907,"correct":true,"confidence":4},{"trial_n":124,"min":97,"max":158,"target":"absent","response":"present","rt":1384.3000001907,"correct":false,"confidence":4},{"trial_n":125,"min":96,"max":159,"target":"absent","response":"absent","rt":1385,"correct":true,"confidence":4},{"trial_n":126,"min":96,"max":159,"target":"absent","response":"present","rt":1765.8999998569,"correct":false,"confidence":3},{"trial_n":127,"min":95,"max":160,"target":"absent","response":"present","rt":1623.0999999046,"correct":false,"confidence":3},{"trial_n":128,"min":94,"max":161,"target":"absent","response":"present","rt":13248.400000095,"correct":false,"confidence":2},{"trial_n":129,"min":93,"max":162,"target":"absent","response":"absent","rt":1582.7999999523,"correct":true,"confidence":4},{"trial_n":130,"min":93,"max":162,"target":"absent","response":"absent","rt":1228.5999999046,"correct":true,"confidence":4},{"trial_n":131,"min":94,"max":161,"target":"absent","response":"present","rt":1662.9000000954,"correct":false,"confidence":4},{"trial_n":132,"min":93,"max":162,"target":"present","response":"present","rt":1144.6000001431,"correct":true,"confidence":5},{"trial_n":133,"min":93,"max":162,"target":"absent","response":"present","rt":1166,"correct":false,"confidence":4},{"trial_n":134,"min":92,"max":163,"target":"absent","response":"absent","rt":2427.4000000954,"correct":true,"confidence":2},{"trial_n":135,"min":92,"max":163,"target":"absent","response":"present","rt":1330.4000000954,"correct":false,"confidence":4},{"trial_n":136,"min":91,"max":164,"target":"present","response":"present","rt":1119,"correct":true,"confidence":5},{"trial_n":137,"min":91,"max":164,"target":"present","response":"present","rt":1204.9000000954,"correct":true,"confidence":4},{"trial_n":138,"min":92,"max":163,"target":"absent","response":"absent","rt":1180,"correct":true,"confidence":3},{"trial_n":139,"min":92,"max":163,"target":"absent","response":"present","rt":1378.1000001431,"correct":false,"confidence":4},{"trial_n":140,"min":91,"max":164,"target":"present","response":"present","rt":1210.5,"correct":true,"confidence":4}]