[{"trial_n":1,"span":8,"encoder":"93661801","distractor":"93661803","target":"present","response":"present","rt":"3931.7000000002","correct":true,"confidence":-1},{"trial_n":2,"span":8,"encoder":"64713449","distractor":"24713449","target":"present","response":"present","rt":"3180.0999999996","correct":true,"confidence":-1},{"trial_n":3,"span":10,"encoder":"3021046690","distractor":"3021046490","target":"absent","response":"absent","rt":"2716.7999999998","correct":true,"confidence":-1},{"trial_n":4,"span":10,"encoder":"4419680477","distractor":"8419680477","target":"absent","response":"absent","rt":"3929.5999999996","correct":true,"confidence":-1},{"trial_n":5,"span":12,"encoder":"371757762502","distractor":"371752762502","target":"present","response":"present","rt":"1865.5999999996","correct":true,"confidence":-1},{"trial_n":6,"span":12,"encoder":"215681401044","distractor":"215781401044","target":"absent","response":"absent","rt":"1946.7999999998","correct":true,"confidence":-1},{"trial_n":7,"span":14,"encoder":"14838869069261","distractor":"14838869069267","target":"present","response":"absent","rt":"2264.8999999994","correct":false,"confidence":-1},{"trial_n":8,"span":12,"encoder":"008317217217","distractor":"008367217217","target":"absent","response":"absent","rt":"891.20000000019","correct":true,"confidence":-1},{"trial_n":9,"span":12,"encoder":"708152003512","distractor":"008152003512","target":"present","response":"present","rt":"13795.199999999","correct":true,"confidence":-1},{"trial_n":10,"span":14,"encoder":"90873419380650","distractor":"90873410380650","target":"present","response":"absent","rt":"417.5","correct":false,"confidence":-1},{"trial_n":11,"span":12,"encoder":"427917213259","distractor":"427917213859","target":"present","response":"present","rt":"422.60000000056","correct":true,"confidence":-1},{"trial_n":12,"span":12,"encoder":"334613595038","distractor":"334613595048","target":"present","response":"present","rt":"1183.7999999998","correct":true,"confidence":-1},{"trial_n":13,"span":13,"encoder":"8842719961777","distractor":"8842719964777","target":"absent","response":"absent","rt":"1205.9000000004","correct":true,"confidence":-1},{"trial_n":14,"span":13,"encoder":"9860767049249","distractor":"9860767009249","target":"absent","response":"absent","rt":"1846.5","correct":true,"confidence":-1},{"trial_n":15,"span":14,"encoder":"74493902862121","distractor":"74293902862121","target":"present","response":"absent","rt":"5475.0999999996","correct":false,"confidence":-1},{"trial_n":16,"span":13,"encoder":"8414992109257","distractor":"8414992109217","target":"absent","response":"present","rt":"1054.7000000002","correct":false,"confidence":-1},{"trial_n":17,"span":12,"encoder":"521152944531","distractor":"521152944571","target":"present","response":"present","rt":"2558.3999999994","correct":true,"confidence":-1},{"trial_n":18,"span":12,"encoder":"136890840898","distractor":"186890840898","target":"absent","response":"present","rt":"2659.2999999998","correct":false,"confidence":-1},{"trial_n":19,"span":11,"encoder":"68135266444","distractor":"68135266474","target":"present","response":"absent","rt":"2462.7000000002","correct":false,"confidence":-1},{"trial_n":20,"span":10,"encoder":"9247176300","distractor":"9247176200","target":"absent","response":"absent","rt":"3691.2999999998","correct":true,"confidence":-1},{"trial_n":21,"span":10,"encoder":"8928941039","distractor":"8528941039","target":"present","response":"present","rt":"1910.3000000007","correct":true,"confidence":3},{"trial_n":22,"span":11,"encoder":"15604908428","distractor":"15684908428","target":"present","response":"present","rt":"1417.5","correct":true,"confidence":3},{"trial_n":23,"span":11,"encoder":"97692263733","distractor":"97692263753","target":"present","response":"absent","rt":"4533.2000000002","correct":false,"confidence":3},{"trial_n":24,"span":10,"encoder":"8012437380","distractor":"8010437380","target":"present","response":"present","rt":"2523.6999999993","correct":true,"confidence":3},{"trial_n":25,"span":10,"encoder":"7926586853","distractor":"7946586853","target":"present","response":"present","rt":"3276.7999999998","correct":true,"confidence":4},{"trial_n":26,"span":11,"encoder":"18528068703","distractor":"18528368703","target":"absent","response":"present","rt":"3706.5999999996","correct":false,"confidence":3},{"trial_n":27,"span":10,"encoder":"2643155879","distractor":"2643195879","target":"absent","response":"present","rt":"3930","correct":false,"confidence":1},{"trial_n":28,"span":9,"encoder":"486387110","distractor":"486087110","target":"present","response":"absent","rt":"3123.2000000002","correct":false,"confidence":3},{"trial_n":29,"span":8,"encoder":"52169942","distractor":"52161942","target":"absent","response":"absent","rt":"3269.5","correct":true,"confidence":3},{"trial_n":30,"span":8,"encoder":"92904323","distractor":"92404323","target":"present","response":"present","rt":"3287.2000000002","correct":true,"confidence":3},{"trial_n":31,"span":9,"encoder":"403805812","distractor":"403805882","target":"absent","response":"present","rt":"462.59999999963","correct":false,"confidence":3},{"trial_n":32,"span":8,"encoder":"23537441","distractor":"23537446","target":"present","response":"present","rt":"2034.9000000004","correct":true,"confidence":3},{"trial_n":33,"span":8,"encoder":"14903019","distractor":"14803019","target":"absent","response":"absent","rt":"2008.7000000002","correct":true,"confidence":4},{"trial_n":34,"span":9,"encoder":"079000476","distractor":"079006476","target":"absent","response":"present","rt":"2365.7999999998","correct":false,"confidence":1},{"trial_n":35,"span":8,"encoder":"15252600","distractor":"15252603","target":"absent","response":"absent","rt":"2964.7999999998","correct":true,"confidence":3},{"trial_n":36,"span":8,"encoder":"16131853","distractor":"16138853","target":"present","response":"present","rt":"1812.1999999993","correct":true,"confidence":1},{"trial_n":37,"span":9,"encoder":"104248513","distractor":"704248513","target":"absent","response":"absent","rt":"2524","correct":true,"confidence":1},{"trial_n":38,"span":9,"encoder":"307544380","distractor":"307544980","target":"absent","response":"present","rt":"1687.2999999998","correct":false,"confidence":1},{"trial_n":39,"span":8,"encoder":"65664175","distractor":"65664173","target":"present","response":"present","rt":"1140","correct":true,"confidence":3},{"trial_n":40,"span":8,"encoder":"50544533","distractor":"50844533","target":"absent","response":"present","rt":"1686","correct":false,"confidence":1},{"trial_n":41,"span":7,"encoder":"0174811","distractor":"0176811","target":"present","response":"present","rt":"1686.0999999996","correct":true,"confidence":3},{"trial_n":42,"span":7,"encoder":"3198925","distractor":"3798925","target":"absent","response":"present","rt":"2862.5","correct":false,"confidence":3},{"trial_n":43,"span":6,"encoder":"106907","distractor":"126907","target":"present","response":"present","rt":"2667.5999999996","correct":true,"confidence":3},{"trial_n":44,"span":6,"encoder":"023745","distractor":"023795","target":"absent","response":"absent","rt":"2093.6999999993","correct":true,"confidence":3},{"trial_n":45,"span":7,"encoder":"7175346","distractor":"7475346","target":"present","response":"present","rt":"2954.2000000002","correct":true,"confidence":3},{"trial_n":46,"span":7,"encoder":"9936000","distractor":"1936000","target":"present","response":"absent","rt":"2504","correct":false,"confidence":1},{"trial_n":47,"span":6,"encoder":"817899","distractor":"817896","target":"absent","response":"present","rt":"1635.3999999994","correct":false,"confidence":3},{"trial_n":48,"span":5,"encoder":"10212","distractor":"10282","target":"absent","response":"absent","rt":"2252.2999999998","correct":true,"confidence":3},{"trial_n":49,"span":5,"encoder":"05446","distractor":"05246","target":"absent","response":"absent","rt":"2046.2999999998","correct":true,"confidence":3},{"trial_n":50,"span":6,"encoder":"883683","distractor":"843683","target":"absent","response":"absent","rt":"2011.5","correct":true,"confidence":3},{"trial_n":51,"span":6,"encoder":"311083","distractor":"311081","target":"present","response":"absent","rt":"2133.5","correct":false,"confidence":3},{"trial_n":52,"span":5,"encoder":"64443","distractor":"64343","target":"present","response":"present","rt":"3556.2000000002","correct":true,"confidence":2},{"trial_n":53,"span":5,"encoder":"30700","distractor":"30780","target":"absent","response":"absent","rt":"1552","correct":true,"confidence":4},{"trial_n":54,"span":6,"encoder":"898284","distractor":"898282","target":"absent","response":"absent","rt":"2791.5999999996","correct":true,"confidence":3},{"trial_n":55,"span":6,"encoder":"104635","distractor":"104630","target":"present","response":"present","rt":"3077.9000000004","correct":true,"confidence":4},{"trial_n":56,"span":7,"encoder":"7213872","distractor":"7218872","target":"absent","response":"absent","rt":"1726.1999999993","correct":true,"confidence":4},{"trial_n":57,"span":7,"encoder":"1048510","distractor":"1048810","target":"present","response":"absent","rt":"1502.2999999998","correct":false,"confidence":3},{"trial_n":58,"span":6,"encoder":"273022","distractor":"273020","target":"present","response":"present","rt":"3454.5","correct":true,"confidence":3},{"trial_n":59,"span":6,"encoder":"964539","distractor":"964533","target":"absent","response":"present","rt":"2324.5999999996","correct":false,"confidence":3},{"trial_n":60,"span":5,"encoder":"97666","distractor":"97676","target":"absent","response":"absent","rt":"2258.2999999998","correct":true,"confidence":5},{"trial_n":61,"span":5,"encoder":"45277","distractor":"45217","target":"absent","response":"absent","rt":"1770.0999999996","correct":true,"confidence":5},{"trial_n":62,"span":6,"encoder":"404006","distractor":"424006","target":"absent","response":"present","rt":"2595.1000000006","correct":false,"confidence":3},{"trial_n":63,"span":5,"encoder":"85330","distractor":"75330","target":"present","response":"present","rt":"2345.4000000004","correct":true,"confidence":3},{"trial_n":64,"span":5,"encoder":"27407","distractor":"27405","target":"present","response":"present","rt":"1706.2999999998","correct":true,"confidence":5},{"trial_n":65,"span":6,"encoder":"063089","distractor":"033089","target":"present","response":"present","rt":"3408.2000000002","correct":true,"confidence":3},{"trial_n":66,"span":6,"encoder":"027937","distractor":"047937","target":"absent","response":"present","rt":"1713.2999999998","correct":false,"confidence":3},{"trial_n":67,"span":5,"encoder":"03802","distractor":"01802","target":"present","response":"present","rt":"2776.0999999996","correct":true,"confidence":3},{"trial_n":68,"span":5,"encoder":"69525","distractor":"68525","target":"present","response":"present","rt":"1671.6000000006","correct":true,"confidence":5},{"trial_n":69,"span":6,"encoder":"158446","distractor":"157446","target":"present","response":"present","rt":"6998.7999999998","correct":true,"confidence":4},{"trial_n":70,"span":6,"encoder":"439892","distractor":"439890","target":"absent","response":"absent","rt":"1563.6999999993","correct":true,"confidence":5},{"trial_n":71,"span":8,"encoder":"05021566","distractor":"05027566","target":"present","response":"present","rt":"2734.2000000002","correct":true,"confidence":-1},{"trial_n":72,"span":8,"encoder":"67719894","distractor":"67719884","target":"present","response":"absent","rt":"2197.2000000002","correct":false,"confidence":-1},{"trial_n":73,"span":7,"encoder":"6714811","distractor":"2714811","target":"absent","response":"present","rt":"382.90000000037","correct":false,"confidence":-1},{"trial_n":74,"span":6,"encoder":"039707","distractor":"019707","target":"absent","response":"absent","rt":"671.39999999944","correct":true,"confidence":-1},{"trial_n":75,"span":6,"encoder":"446031","distractor":"443031","target":"present","response":"present","rt":"745.39999999944","correct":true,"confidence":-1},{"trial_n":76,"span":7,"encoder":"6536691","distractor":"4536691","target":"present","response":"present","rt":"2543.5","correct":true,"confidence":-1},{"trial_n":77,"span":7,"encoder":"4320151","distractor":"4320051","target":"absent","response":"present","rt":"463.09999999963","correct":false,"confidence":-1},{"trial_n":78,"span":6,"encoder":"444834","distractor":"444884","target":"present","response":"absent","rt":"500.40000000037","correct":false,"confidence":-1},{"trial_n":79,"span":5,"encoder":"63551","distractor":"63751","target":"absent","response":"absent","rt":"14911.2","correct":true,"confidence":-1},{"trial_n":80,"span":5,"encoder":"06562","distractor":"06572","target":"absent","response":"absent","rt":"506.39999999944","correct":true,"confidence":-1},{"trial_n":81,"span":6,"encoder":"444192","distractor":"444162","target":"absent","response":"absent","rt":"1074","correct":true,"confidence":-1},{"trial_n":82,"span":6,"encoder":"559434","distractor":"579434","target":"absent","response":"absent","rt":"1182.2999999998","correct":true,"confidence":-1},{"trial_n":83,"span":7,"encoder":"4898970","distractor":"1898970","target":"present","response":"present","rt":"1738","correct":true,"confidence":-1},{"trial_n":84,"span":7,"encoder":"6135930","distractor":"6035930","target":"present","response":"present","rt":"411.20000000019","correct":true,"confidence":-1},{"trial_n":85,"span":8,"encoder":"03132507","distractor":"01132507","target":"present","response":"absent","rt":"273.70000000019","correct":false,"confidence":-1},{"trial_n":86,"span":7,"encoder":"1197736","distractor":"1190736","target":"present","response":"present","rt":"1655.2000000002","correct":true,"confidence":-1},{"trial_n":87,"span":7,"encoder":"8546015","distractor":"8546011","target":"present","response":"present","rt":"8911.4000000004","correct":true,"confidence":-1},{"trial_n":88,"span":8,"encoder":"80273998","distractor":"30273998","target":"present","response":"absent","rt":"1112.8999999994","correct":false,"confidence":-1},{"trial_n":89,"span":7,"encoder":"7469982","distractor":"7469882","target":"present","response":"present","rt":"417.69999999925","correct":true,"confidence":-1},{"trial_n":90,"span":7,"encoder":"2545118","distractor":"2545111","target":"absent","response":"present","rt":"451.60000000056","correct":false,"confidence":-1},{"trial_n":91,"span":6,"encoder":"398171","distractor":"198171","target":"absent","response":"absent","rt":"2311.5999999996","correct":true,"confidence":5},{"trial_n":92,"span":6,"encoder":"042641","distractor":"042691","target":"absent","response":"absent","rt":"4144.2999999998","correct":true,"confidence":5},{"trial_n":93,"span":7,"encoder":"1837130","distractor":"5837130","target":"present","response":"present","rt":"3076.2000000002","correct":true,"confidence":5},{"trial_n":94,"span":7,"encoder":"5919530","distractor":"5919536","target":"present","response":"present","rt":"6938.5","correct":true,"confidence":1},{"trial_n":95,"span":8,"encoder":"04317759","distractor":"03317759","target":"absent","response":"present","rt":"3961.5","correct":false,"confidence":4},{"trial_n":96,"span":7,"encoder":"5849386","distractor":"5848386","target":"absent","response":"absent","rt":"2661.8999999994","correct":true,"confidence":4},{"trial_n":97,"span":7,"encoder":"8514543","distractor":"8514546","target":"absent","response":"absent","rt":"6348.1999999993","correct":true,"confidence":1},{"trial_n":98,"span":8,"encoder":"85627416","distractor":"85627486","target":"present","response":"present","rt":"3425.5","correct":true,"confidence":1},{"trial_n":99,"span":8,"encoder":"22698638","distractor":"72698638","target":"present","response":"present","rt":"2123.4000000004","correct":true,"confidence":5},{"trial_n":100,"span":9,"encoder":"681124083","distractor":"681424083","target":"present","response":"present","rt":"1880.9000000004","correct":true,"confidence":5},{"trial_n":101,"span":9,"encoder":"865583432","distractor":"865183432","target":"absent","response":"absent","rt":"3169.6000000006","correct":true,"confidence":4},{"trial_n":102,"span":10,"encoder":"3847814129","distractor":"3847818129","target":"present","response":"present","rt":"5098.9000000004","correct":true,"confidence":1},{"trial_n":103,"span":10,"encoder":"1826202580","distractor":"1826202680","target":"absent","response":"present","rt":"5434.5","correct":false,"confidence":1},{"trial_n":104,"span":9,"encoder":"748219200","distractor":"749219200","target":"absent","response":"present","rt":"1198","correct":false,"confidence":1},{"trial_n":105,"span":8,"encoder":"65073919","distractor":"65073912","target":"absent","response":"absent","rt":"357.5","correct":true,"confidence":2},{"trial_n":106,"span":8,"encoder":"35070562","distractor":"35077562","target":"present","response":"present","rt":"327.89999999944","correct":true,"confidence":2},{"trial_n":107,"span":9,"encoder":"955063469","distractor":"955073469","target":"absent","response":"absent","rt":"1403.9000000004","correct":true,"confidence":2},{"trial_n":108,"span":9,"encoder":"294880408","distractor":"294880409","target":"absent","response":"absent","rt":"2930.7999999998","correct":true,"confidence":1},{"trial_n":109,"span":10,"encoder":"0266345495","distractor":"0236345495","target":"present","response":"absent","rt":"2519.6000000006","correct":false,"confidence":2},{"trial_n":110,"span":9,"encoder":"140182886","distractor":"840182886","target":"absent","response":"present","rt":"2147.9000000004","correct":false,"confidence":1},{"trial_n":111,"span":8,"encoder":"79207040","distractor":"79207240","target":"absent","response":"absent","rt":"332.39999999944","correct":true,"confidence":2},{"trial_n":112,"span":8,"encoder":"88730156","distractor":"88630156","target":"present","response":"present","rt":"413.89999999944","correct":true,"confidence":1},{"trial_n":113,"span":9,"encoder":"055298159","distractor":"055898159","target":"present","response":"absent","rt":"364","correct":false,"confidence":1},{"trial_n":114,"span":8,"encoder":"30271724","distractor":"30270724","target":"absent","response":"present","rt":"2129.6000000006","correct":false,"confidence":2},{"trial_n":115,"span":7,"encoder":"3154098","distractor":"3154398","target":"present","response":"absent","rt":"481.5","correct":false,"confidence":1},{"trial_n":116,"span":6,"encoder":"346871","distractor":"346878","target":"absent","response":"present","rt":"2391.3000000007","correct":false,"confidence":1},{"trial_n":117,"span":5,"encoder":"29428","distractor":"23428","target":"present","response":"present","rt":"5707.4000000004","correct":true,"confidence":2},{"trial_n":118,"span":5,"encoder":"65960","distractor":"95960","target":"present","response":"present","rt":"2258.7999999998","correct":true,"confidence":1},{"trial_n":119,"span":6,"encoder":"312380","distractor":"313380","target":"absent","response":"absent","rt":"2276.5","correct":true,"confidence":5},{"trial_n":120,"span":6,"encoder":"498705","distractor":"498708","target":"absent","response":"absent","rt":"4719.8999999994","correct":true,"confidence":3},{"trial_n":121,"span":7,"encoder":"0198619","distractor":"0198519","target":"present","response":"present","rt":"3077","correct":true,"confidence":2},{"trial_n":122,"span":7,"encoder":"7216252","distractor":"7416252","target":"present","response":"present","rt":"4428","correct":true,"confidence":5},{"trial_n":123,"span":8,"encoder":"65806640","distractor":"65806740","target":"absent","response":"present","rt":"6446.2999999998","correct":false,"confidence":1},{"trial_n":124,"span":7,"encoder":"5707235","distractor":"7707235","target":"present","response":"present","rt":"2044.3999999994","correct":true,"confidence":5},{"trial_n":125,"span":7,"encoder":"3513242","distractor":"3513212","target":"present","response":"absent","rt":"3860.3000000007","correct":false,"confidence":1},{"trial_n":126,"span":6,"encoder":"571737","distractor":"571767","target":"absent","response":"absent","rt":"2901.8999999994","correct":true,"confidence":4},{"trial_n":127,"span":6,"encoder":"640612","distractor":"641612","target":"present","response":"present","rt":"2877.1999999993","correct":true,"confidence":4},{"trial_n":128,"span":7,"encoder":"3809459","distractor":"3809455","target":"absent","response":"absent","rt":"4661.8000000007","correct":true,"confidence":3},{"trial_n":129,"span":7,"encoder":"2895914","distractor":"2895916","target":"absent","response":"absent","rt":"4389.3999999994","correct":true,"confidence":2},{"trial_n":130,"span":8,"encoder":"76960827","distractor":"76990827","target":"present","response":"present","rt":"4050.7000000002","correct":true,"confidence":1},{"trial_n":131,"span":8,"encoder":"88889596","distractor":"88889594","target":"present","response":"present","rt":"5147.8999999994","correct":true,"confidence":1},{"trial_n":132,"span":9,"encoder":"002144375","distractor":"402144375","target":"present","response":"present","rt":"2000.3999999994","correct":true,"confidence":5},{"trial_n":133,"span":9,"encoder":"698564689","distractor":"698566689","target":"absent","response":"absent","rt":"4439.1999999993","correct":true,"confidence":5},{"trial_n":134,"span":10,"encoder":"4328537425","distractor":"4328547425","target":"absent","response":"absent","rt":"9958","correct":true,"confidence":1},{"trial_n":135,"span":10,"encoder":"8981669233","distractor":"8961669233","target":"absent","response":"present","rt":"6486.6000000006","correct":false,"confidence":1},{"trial_n":136,"span":9,"encoder":"420852437","distractor":"820852437","target":"present","response":"present","rt":"2609","correct":true,"confidence":5},{"trial_n":137,"span":9,"encoder":"569404571","distractor":"569404575","target":"absent","response":"absent","rt":"5190.2000000002","correct":true,"confidence":1},{"trial_n":138,"span":10,"encoder":"0885510715","distractor":"0885510765","target":"present","response":"present","rt":"3476.5","correct":true,"confidence":1},{"trial_n":139,"span":10,"encoder":"4066568265","distractor":"4866568265","target":"present","response":"present","rt":"3462.4000000004","correct":true,"confidence":5},{"trial_n":140,"span":11,"encoder":"94303383855","distractor":"94309383855","target":"absent","response":"absent","rt":"3951.4000000004","correct":true,"confidence":1}]