[{"trial_n":1,"span":8,"encoder":"54979369","distractor":"54979269","target":"present","response":"present","rt":"2719.1000000238","correct":true,"confidence":-1},{"trial_n":2,"span":8,"encoder":"87381014","distractor":"88381014","target":"present","response":"absent","rt":"2839","correct":false,"confidence":-1},{"trial_n":3,"span":6,"encoder":"389508","distractor":"309508","target":"absent","response":"present","rt":"3344.7999999523","correct":false,"confidence":-1},{"trial_n":4,"span":4,"encoder":"4337","distractor":"4330","target":"absent","response":"absent","rt":"4997.6000000238","correct":true,"confidence":-1},{"trial_n":5,"span":4,"encoder":"6873","distractor":"4873","target":"present","response":"present","rt":"2063.5","correct":true,"confidence":-1},{"trial_n":6,"span":6,"encoder":"554690","distractor":"554697","target":"present","response":"present","rt":"1925.7999999523","correct":true,"confidence":-1},{"trial_n":7,"span":6,"encoder":"251512","distractor":"551512","target":"absent","response":"present","rt":"1797.1000000238","correct":false,"confidence":-1},{"trial_n":8,"span":4,"encoder":"8924","distractor":"8824","target":"present","response":"present","rt":"1397.5999999046","correct":true,"confidence":-1},{"trial_n":9,"span":4,"encoder":"6115","distractor":"6135","target":"absent","response":"absent","rt":"2526.7000000477","correct":true,"confidence":-1},{"trial_n":10,"span":6,"encoder":"008580","distractor":"008586","target":"absent","response":"absent","rt":"2819.5","correct":true,"confidence":-1},{"trial_n":11,"span":6,"encoder":"199681","distractor":"199601","target":"present","response":"present","rt":"2477.8999999762","correct":true,"confidence":-1},{"trial_n":12,"span":7,"encoder":"7017444","distractor":"7077444","target":"present","response":"present","rt":"2909.2999999523","correct":true,"confidence":-1},{"trial_n":13,"span":7,"encoder":"2164365","distractor":"2164368","target":"present","response":"present","rt":"2076.6000000238","correct":true,"confidence":-1},{"trial_n":14,"span":8,"encoder":"27505616","distractor":"27505615","target":"present","response":"present","rt":"1231.8999999762","correct":true,"confidence":-1},{"trial_n":15,"span":8,"encoder":"33916518","distractor":"93916518","target":"absent","response":"present","rt":"2114.6999999285","correct":false,"confidence":-1},{"trial_n":16,"span":7,"encoder":"4144936","distractor":"4141936","target":"absent","response":"absent","rt":"3382.6000000238","correct":true,"confidence":-1},{"trial_n":17,"span":7,"encoder":"2762158","distractor":"2762958","target":"present","response":"present","rt":"2748.8999999762","correct":true,"confidence":-1},{"trial_n":18,"span":8,"encoder":"74173382","distractor":"74175382","target":"present","response":"present","rt":"2991.6000000238","correct":true,"confidence":-1},{"trial_n":19,"span":8,"encoder":"00482858","distractor":"00462858","target":"absent","response":"present","rt":"2407.5","correct":false,"confidence":-1},{"trial_n":20,"span":7,"encoder":"1628108","distractor":"1428108","target":"present","response":"absent","rt":"3578.3000000715","correct":false,"confidence":-1},{"trial_n":21,"span":6,"encoder":"076221","distractor":"086221","target":"absent","response":"absent","rt":"3475.7999999523","correct":true,"confidence":2},{"trial_n":22,"span":6,"encoder":"305805","distractor":"335805","target":"absent","response":"absent","rt":"4705.9000000954","correct":true,"confidence":1},{"trial_n":23,"span":7,"encoder":"1283971","distractor":"1273971","target":"present","response":"present","rt":"3226.5","correct":true,"confidence":2},{"trial_n":24,"span":7,"encoder":"2321042","distractor":"2327042","target":"present","response":"present","rt":"3740.5","correct":true,"confidence":2},{"trial_n":25,"span":8,"encoder":"94691563","distractor":"04691563","target":"present","response":"present","rt":"3822.1000000238","correct":true,"confidence":2},{"trial_n":26,"span":8,"encoder":"15455996","distractor":"15455916","target":"absent","response":"present","rt":"3057.3000000715","correct":false,"confidence":1},{"trial_n":27,"span":7,"encoder":"1890409","distractor":"1890459","target":"present","response":"present","rt":"4349.7999999523","correct":true,"confidence":2},{"trial_n":28,"span":7,"encoder":"7015022","distractor":"2015022","target":"present","response":"present","rt":"5318.3999999762","correct":true,"confidence":3},{"trial_n":29,"span":8,"encoder":"00685391","distractor":"00685491","target":"absent","response":"present","rt":"4462.7000000477","correct":false,"confidence":2},{"trial_n":30,"span":7,"encoder":"0414325","distractor":"0614325","target":"present","response":"present","rt":"2806.1000000238","correct":true,"confidence":4},{"trial_n":31,"span":7,"encoder":"8290296","distractor":"8690296","target":"present","response":"present","rt":"2687","correct":true,"confidence":3},{"trial_n":32,"span":8,"encoder":"37656978","distractor":"37650978","target":"absent","response":"present","rt":"2505.1000000238","correct":false,"confidence":2},{"trial_n":33,"span":7,"encoder":"7139104","distractor":"7109104","target":"absent","response":"present","rt":"2855","correct":false,"confidence":2},{"trial_n":34,"span":6,"encoder":"128655","distractor":"028655","target":"present","response":"present","rt":"2622.2999999523","correct":true,"confidence":2},{"trial_n":35,"span":6,"encoder":"425646","distractor":"495646","target":"present","response":"present","rt":"2432","correct":true,"confidence":2},{"trial_n":36,"span":7,"encoder":"7673870","distractor":"7653870","target":"absent","response":"absent","rt":"2296.1000000238","correct":true,"confidence":2},{"trial_n":37,"span":7,"encoder":"3886117","distractor":"3886167","target":"absent","response":"present","rt":"16071","correct":false,"confidence":1},{"trial_n":38,"span":6,"encoder":"800763","distractor":"810763","target":"present","response":"present","rt":"1938.9000000954","correct":true,"confidence":2},{"trial_n":39,"span":6,"encoder":"218652","distractor":"213652","target":"absent","response":"present","rt":"1783.2999999523","correct":false,"confidence":2},{"trial_n":40,"span":5,"encoder":"20825","distractor":"22825","target":"present","response":"present","rt":"2406.3999999762","correct":true,"confidence":2},{"trial_n":41,"span":5,"encoder":"98008","distractor":"90008","target":"present","response":"present","rt":"1748.0999999046","correct":true,"confidence":2},{"trial_n":42,"span":6,"encoder":"494301","distractor":"494901","target":"present","response":"present","rt":"1735.6000000238","correct":true,"confidence":2},{"trial_n":43,"span":6,"encoder":"542034","distractor":"542014","target":"absent","response":"present","rt":"2220.3000000715","correct":false,"confidence":1},{"trial_n":44,"span":5,"encoder":"12060","distractor":"18060","target":"present","response":"present","rt":"1643.8000000715","correct":true,"confidence":4},{"trial_n":45,"span":5,"encoder":"98967","distractor":"98927","target":"absent","response":"absent","rt":"2156.6999999285","correct":true,"confidence":3},{"trial_n":46,"span":6,"encoder":"478961","distractor":"476961","target":"absent","response":"present","rt":"2593.8000000715","correct":false,"confidence":2},{"trial_n":47,"span":5,"encoder":"01117","distractor":"03117","target":"present","response":"present","rt":"3022.6000000238","correct":true,"confidence":3},{"trial_n":48,"span":5,"encoder":"08532","distractor":"88532","target":"present","response":"present","rt":"2429.7999999523","correct":true,"confidence":3},{"trial_n":49,"span":6,"encoder":"903359","distractor":"003359","target":"present","response":"present","rt":"1956.2000000477","correct":true,"confidence":3},{"trial_n":50,"span":6,"encoder":"932773","distractor":"232773","target":"absent","response":"present","rt":"3023.5","correct":false,"confidence":2},{"trial_n":51,"span":5,"encoder":"43538","distractor":"43598","target":"absent","response":"absent","rt":"2401.8999999762","correct":true,"confidence":2},{"trial_n":52,"span":5,"encoder":"74769","distractor":"75769","target":"absent","response":"absent","rt":"2453.5999999046","correct":true,"confidence":3},{"trial_n":53,"span":6,"encoder":"457973","distractor":"457173","target":"absent","response":"absent","rt":"2384.3999999762","correct":true,"confidence":3},{"trial_n":54,"span":6,"encoder":"781200","distractor":"381200","target":"present","response":"present","rt":"1977.7999999523","correct":true,"confidence":3},{"trial_n":55,"span":7,"encoder":"6390052","distractor":"6690052","target":"present","response":"present","rt":"2354.7000000477","correct":true,"confidence":4},{"trial_n":56,"span":7,"encoder":"2944479","distractor":"3944479","target":"absent","response":"present","rt":"76096.300000072","correct":false,"confidence":2},{"trial_n":57,"span":6,"encoder":"165188","distractor":"165158","target":"absent","response":"absent","rt":"2705.7000000477","correct":true,"confidence":1},{"trial_n":58,"span":6,"encoder":"628180","distractor":"628680","target":"present","response":"present","rt":"1999.6999999285","correct":true,"confidence":3},{"trial_n":59,"span":7,"encoder":"1111909","distractor":"3111909","target":"absent","response":"absent","rt":"2664.5999999046","correct":true,"confidence":2},{"trial_n":60,"span":7,"encoder":"8009231","distractor":"8009251","target":"absent","response":"absent","rt":"2407.5","correct":true,"confidence":2},{"trial_n":61,"span":8,"encoder":"14330102","distractor":"14330702","target":"present","response":"present","rt":"3015.1000000238","correct":true,"confidence":3},{"trial_n":62,"span":8,"encoder":"75116554","distractor":"15116554","target":"present","response":"present","rt":"3030","correct":true,"confidence":2},{"trial_n":63,"span":9,"encoder":"797097913","distractor":"797597913","target":"absent","response":"present","rt":"3686","correct":false,"confidence":2},{"trial_n":64,"span":8,"encoder":"50173321","distractor":"58173321","target":"present","response":"present","rt":"2321.7000000477","correct":true,"confidence":2},{"trial_n":65,"span":8,"encoder":"88995902","distractor":"88995908","target":"absent","response":"absent","rt":"1952.7000000477","correct":true,"confidence":3},{"trial_n":66,"span":9,"encoder":"159660154","distractor":"159560154","target":"absent","response":"present","rt":"4204.5","correct":false,"confidence":2},{"trial_n":67,"span":8,"encoder":"54130349","distractor":"54130340","target":"absent","response":"absent","rt":"1288.7000000477","correct":true,"confidence":4},{"trial_n":68,"span":8,"encoder":"17691109","distractor":"17691009","target":"present","response":"present","rt":"1402","correct":true,"confidence":2},{"trial_n":69,"span":9,"encoder":"271853390","distractor":"241853390","target":"absent","response":"absent","rt":"38577.399999976","correct":true,"confidence":1},{"trial_n":70,"span":9,"encoder":"055115799","distractor":"355115799","target":"absent","response":"present","rt":"1554.5","correct":false,"confidence":2},{"trial_n":71,"span":8,"encoder":"70433857","distractor":"10433857","target":"present","response":"present","rt":"2498.1000000238","correct":true,"confidence":-1},{"trial_n":72,"span":8,"encoder":"74580688","distractor":"74550688","target":"present","response":"present","rt":"4372.5","correct":true,"confidence":-1},{"trial_n":73,"span":9,"encoder":"625410895","distractor":"625110895","target":"absent","response":"present","rt":"109148.39999998","correct":false,"confidence":-1},{"trial_n":74,"span":8,"encoder":"90473307","distractor":"90973307","target":"absent","response":"absent","rt":"3166.8999999762","correct":true,"confidence":-1},{"trial_n":75,"span":8,"encoder":"31590841","distractor":"31890841","target":"present","response":"present","rt":"18778.700000048","correct":true,"confidence":-1},{"trial_n":76,"span":9,"encoder":"132726915","distractor":"132726615","target":"present","response":"present","rt":"3038.8999999762","correct":true,"confidence":-1},{"trial_n":77,"span":9,"encoder":"653693714","distractor":"653993714","target":"absent","response":"absent","rt":"4566.5","correct":true,"confidence":-1},{"trial_n":78,"span":10,"encoder":"5043796671","distractor":"5041796671","target":"present","response":"absent","rt":"6065.6999999285","correct":false,"confidence":-1},{"trial_n":79,"span":9,"encoder":"260503076","distractor":"260503476","target":"present","response":"absent","rt":"3042.6000000238","correct":false,"confidence":-1},{"trial_n":80,"span":8,"encoder":"78904826","distractor":"78904866","target":"absent","response":"absent","rt":"7683.3999999762","correct":true,"confidence":-1},{"trial_n":81,"span":8,"encoder":"93344947","distractor":"99344947","target":"absent","response":"absent","rt":"3856","correct":true,"confidence":-1},{"trial_n":82,"span":9,"encoder":"838869754","distractor":"838869724","target":"absent","response":"absent","rt":"5884.9000000954","correct":true,"confidence":-1},{"trial_n":83,"span":9,"encoder":"134691992","distractor":"934691992","target":"present","response":"absent","rt":"128272.89999998","correct":false,"confidence":-1},{"trial_n":84,"span":8,"encoder":"00028319","distractor":"00098319","target":"absent","response":"absent","rt":"2143.1000000238","correct":true,"confidence":-1},{"trial_n":85,"span":8,"encoder":"19599396","distractor":"15599396","target":"absent","response":"absent","rt":"3017.3999999762","correct":true,"confidence":-1},{"trial_n":86,"span":9,"encoder":"347594703","distractor":"947594703","target":"present","response":"absent","rt":"260996.5","correct":false,"confidence":-1},{"trial_n":87,"span":8,"encoder":"74633669","distractor":"74733669","target":"present","response":"absent","rt":"3763.9000000954","correct":false,"confidence":-1},{"trial_n":88,"span":7,"encoder":"5853340","distractor":"5853040","target":"present","response":"present","rt":"4093.5999999046","correct":true,"confidence":-1},{"trial_n":89,"span":7,"encoder":"1409523","distractor":"1409923","target":"absent","response":"absent","rt":"4555.0999999046","correct":true,"confidence":-1},{"trial_n":90,"span":8,"encoder":"45460495","distractor":"47460495","target":"present","response":"absent","rt":"2978.3000000715","correct":false,"confidence":-1},{"trial_n":91,"span":7,"encoder":"7694603","distractor":"7094603","target":"present","response":"present","rt":"2424.5","correct":true,"confidence":4},{"trial_n":92,"span":7,"encoder":"7584792","distractor":"7581792","target":"absent","response":"present","rt":"2732.8000000715","correct":false,"confidence":2},{"trial_n":93,"span":6,"encoder":"549122","distractor":"549142","target":"absent","response":"absent","rt":"2851.1999999285","correct":true,"confidence":3},{"trial_n":94,"span":6,"encoder":"316737","distractor":"316747","target":"absent","response":"absent","rt":"2354.1000000238","correct":true,"confidence":4},{"trial_n":95,"span":7,"encoder":"5209959","distractor":"5229959","target":"present","response":"absent","rt":"11068","correct":false,"confidence":1},{"trial_n":96,"span":6,"encoder":"021046","distractor":"021546","target":"present","response":"present","rt":"2167.5","correct":true,"confidence":3},{"trial_n":97,"span":6,"encoder":"013879","distractor":"053879","target":"absent","response":"absent","rt":"1918","correct":true,"confidence":4},{"trial_n":98,"span":7,"encoder":"8789435","distractor":"8789438","target":"present","response":"present","rt":"2714.5","correct":true,"confidence":2},{"trial_n":99,"span":7,"encoder":"9057711","distractor":"9057715","target":"absent","response":"absent","rt":"3998.7999999523","correct":true,"confidence":2},{"trial_n":100,"span":8,"encoder":"71324037","distractor":"71334037","target":"absent","response":"absent","rt":"6345.5","correct":true,"confidence":2},{"trial_n":101,"span":8,"encoder":"07742794","distractor":"07702794","target":"absent","response":"absent","rt":"36105.199999928","correct":true,"confidence":2},{"trial_n":102,"span":9,"encoder":"985220264","distractor":"985220204","target":"absent","response":"absent","rt":"65728.199999928","correct":true,"confidence":2},{"trial_n":103,"span":9,"encoder":"021796785","distractor":"021796185","target":"absent","response":"absent","rt":"23535.200000048","correct":true,"confidence":1},{"trial_n":104,"span":10,"encoder":"8839286432","distractor":"8839486432","target":"absent","response":"present","rt":"5260.5","correct":false,"confidence":1},{"trial_n":105,"span":9,"encoder":"373991578","distractor":"373091578","target":"absent","response":"absent","rt":"3418.6999999285","correct":true,"confidence":1},{"trial_n":106,"span":9,"encoder":"891933922","distractor":"491933922","target":"present","response":"present","rt":"2778.5","correct":true,"confidence":2},{"trial_n":107,"span":10,"encoder":"5166598879","distractor":"5866598879","target":"present","response":"present","rt":"59030.100000024","correct":true,"confidence":2},{"trial_n":108,"span":10,"encoder":"8155622662","distractor":"8155122662","target":"present","response":"present","rt":"21057.600000024","correct":true,"confidence":2},{"trial_n":109,"span":11,"encoder":"65103457635","distractor":"65103357635","target":"present","response":"absent","rt":"4900.2999999523","correct":false,"confidence":1},{"trial_n":110,"span":10,"encoder":"6576940611","distractor":"5576940611","target":"present","response":"present","rt":"5535.2000000477","correct":true,"confidence":2},{"trial_n":111,"span":10,"encoder":"8720833002","distractor":"8720033002","target":"absent","response":"present","rt":"4248.2999999523","correct":false,"confidence":2},{"trial_n":112,"span":9,"encoder":"384522584","distractor":"384520584","target":"absent","response":"absent","rt":"3072.1000000238","correct":true,"confidence":2},{"trial_n":113,"span":9,"encoder":"824629156","distractor":"824629126","target":"absent","response":"absent","rt":"1701.1000000238","correct":true,"confidence":2},{"trial_n":114,"span":10,"encoder":"5533897229","distractor":"5532897229","target":"absent","response":"present","rt":"10608.800000072","correct":false,"confidence":2},{"trial_n":115,"span":9,"encoder":"067555594","distractor":"067955594","target":"present","response":"absent","rt":"5145.3999999762","correct":false,"confidence":2},{"trial_n":116,"span":8,"encoder":"38553252","distractor":"38253252","target":"present","response":"present","rt":"16380.799999952","correct":true,"confidence":2},{"trial_n":117,"span":8,"encoder":"82923975","distractor":"82823975","target":"present","response":"present","rt":"41955.5","correct":true,"confidence":1},{"trial_n":118,"span":9,"encoder":"008986042","distractor":"608986042","target":"present","response":"absent","rt":"2429.5","correct":false,"confidence":2},{"trial_n":119,"span":8,"encoder":"29788062","distractor":"29788032","target":"present","response":"present","rt":"3245.8999999762","correct":true,"confidence":2},{"trial_n":120,"span":8,"encoder":"86053825","distractor":"86059825","target":"absent","response":"absent","rt":"4926.4000000954","correct":true,"confidence":1},{"trial_n":121,"span":9,"encoder":"566112202","distractor":"566112402","target":"absent","response":"absent","rt":"3286","correct":true,"confidence":2},{"trial_n":122,"span":9,"encoder":"380962876","distractor":"386962876","target":"present","response":"absent","rt":"33633.200000048","correct":false,"confidence":1},{"trial_n":123,"span":8,"encoder":"67960720","distractor":"67060720","target":"absent","response":"absent","rt":"20172","correct":true,"confidence":1},{"trial_n":124,"span":8,"encoder":"44784457","distractor":"84784457","target":"absent","response":"present","rt":"5831.2999999523","correct":false,"confidence":1},{"trial_n":125,"span":7,"encoder":"0364826","distractor":"0364626","target":"absent","response":"absent","rt":"3644.9000000954","correct":true,"confidence":2},{"trial_n":126,"span":7,"encoder":"8861432","distractor":"8861412","target":"present","response":"present","rt":"3799.3999999762","correct":true,"confidence":3},{"trial_n":127,"span":8,"encoder":"47776837","distractor":"47777837","target":"absent","response":"present","rt":"3847.5","correct":false,"confidence":1},{"trial_n":128,"span":7,"encoder":"4513375","distractor":"4513372","target":"present","response":"absent","rt":"12492.899999976","correct":false,"confidence":1},{"trial_n":129,"span":6,"encoder":"314123","distractor":"364123","target":"absent","response":"present","rt":"4163.4000000954","correct":false,"confidence":1},{"trial_n":130,"span":5,"encoder":"52994","distractor":"52984","target":"absent","response":"absent","rt":"3136.6999999285","correct":true,"confidence":1},{"trial_n":131,"span":5,"encoder":"69614","distractor":"69664","target":"absent","response":"absent","rt":"1917.1999999285","correct":true,"confidence":3},{"trial_n":132,"span":6,"encoder":"211194","distractor":"311194","target":"present","response":"present","rt":"3332","correct":true,"confidence":2},{"trial_n":133,"span":6,"encoder":"627098","distractor":"627092","target":"present","response":"present","rt":"2050.1000000238","correct":true,"confidence":3},{"trial_n":134,"span":7,"encoder":"6451025","distractor":"6451075","target":"absent","response":"absent","rt":"3501","correct":true,"confidence":3},{"trial_n":135,"span":7,"encoder":"1966158","distractor":"1964158","target":"present","response":"present","rt":"1902.8999999762","correct":true,"confidence":4},{"trial_n":136,"span":8,"encoder":"80034028","distractor":"81034028","target":"present","response":"present","rt":"3545.2000000477","correct":true,"confidence":1},{"trial_n":137,"span":8,"encoder":"72670199","distractor":"72670139","target":"present","response":"present","rt":"4133.1000000238","correct":true,"confidence":1},{"trial_n":138,"span":9,"encoder":"399209203","distractor":"399209253","target":"present","response":"present","rt":"2044.6999999285","correct":true,"confidence":2},{"trial_n":139,"span":9,"encoder":"932990310","distractor":"832990310","target":"present","response":"present","rt":"82639.700000048","correct":true,"confidence":1},{"trial_n":140,"span":10,"encoder":"8670797221","distractor":"8770797221","target":"present","response":"present","rt":"3156.5","correct":true,"confidence":2}]