[{"trial_n":1,"n_dots":4.25,"target":"left","response":"left","rt":6462.8000000119,"correct":true,"confidence":-1},{"trial_n":2,"n_dots":4.25,"target":"left","response":"right","rt":956.30000001192,"correct":false,"confidence":-1},{"trial_n":3,"n_dots":4.65,"target":"right","response":"right","rt":577.5,"correct":true,"confidence":-1},{"trial_n":4,"n_dots":4.65,"target":"left","response":"left","rt":798,"correct":true,"confidence":-1},{"trial_n":5,"n_dots":4.25,"target":"right","response":"right","rt":440.60000002384,"correct":true,"confidence":-1},{"trial_n":6,"n_dots":4.25,"target":"left","response":"right","rt":532.90000000596,"correct":false,"confidence":-1},{"trial_n":7,"n_dots":4.65,"target":"left","response":"left","rt":720.29999998212,"correct":true,"confidence":-1},{"trial_n":8,"n_dots":4.65,"target":"right","response":"right","rt":451.39999997616,"correct":true,"confidence":-1},{"trial_n":9,"n_dots":4.45,"target":"right","response":"right","rt":640.20000001788,"correct":true,"confidence":-1},{"trial_n":10,"n_dots":4.45,"target":"left","response":"left","rt":676.59999999404,"correct":true,"confidence":-1},{"trial_n":11,"n_dots":4.25,"target":"right","response":"right","rt":506.79999998212,"correct":true,"confidence":-1},{"trial_n":12,"n_dots":4.25,"target":"left","response":"left","rt":1288.099999994,"correct":true,"confidence":-1},{"trial_n":13,"n_dots":4.15,"target":"left","response":"left","rt":584,"correct":true,"confidence":-1},{"trial_n":14,"n_dots":4.15,"target":"left","response":"left","rt":785.89999997616,"correct":true,"confidence":-1},{"trial_n":15,"n_dots":4.05,"target":"left","response":"left","rt":580.29999998212,"correct":true,"confidence":-1},{"trial_n":16,"n_dots":4.05,"target":"right","response":"right","rt":749.5,"correct":true,"confidence":-1},{"trial_n":17,"n_dots":3.95,"target":"right","response":"right","rt":736.09999999404,"correct":true,"confidence":-1},{"trial_n":18,"n_dots":3.95,"target":"left","response":"left","rt":673,"correct":true,"confidence":-1},{"trial_n":19,"n_dots":3.85,"target":"right","response":"right","rt":575.30000001192,"correct":true,"confidence":-1},{"trial_n":20,"n_dots":3.85,"target":"left","response":"left","rt":157.70000001788,"correct":true,"confidence":-1},{"trial_n":21,"n_dots":3.75,"target":"left","response":"left","rt":562.40000000596,"correct":true,"confidence":4},{"trial_n":22,"n_dots":3.75,"target":"right","response":"right","rt":731.5,"correct":true,"confidence":5},{"trial_n":23,"n_dots":3.65,"target":"right","response":"right","rt":696.09999999404,"correct":true,"confidence":2},{"trial_n":24,"n_dots":3.65,"target":"left","response":"right","rt":868.30000001192,"correct":false,"confidence":3},{"trial_n":25,"n_dots":3.75,"target":"left","response":"left","rt":1539.7999999821,"correct":true,"confidence":2},{"trial_n":26,"n_dots":3.75,"target":"left","response":"left","rt":1139.2999999821,"correct":true,"confidence":3},{"trial_n":27,"n_dots":3.65,"target":"right","response":"left","rt":946.90000000596,"correct":false,"confidence":3},{"trial_n":28,"n_dots":3.75,"target":"left","response":"left","rt":561.5,"correct":true,"confidence":4},{"trial_n":29,"n_dots":3.75,"target":"left","response":"left","rt":683.90000000596,"correct":true,"confidence":2},{"trial_n":30,"n_dots":3.65,"target":"right","response":"left","rt":647.5,"correct":false,"confidence":2},{"trial_n":31,"n_dots":3.75,"target":"left","response":"left","rt":726.90000000596,"correct":true,"confidence":4},{"trial_n":32,"n_dots":3.75,"target":"left","response":"left","rt":674.09999999404,"correct":true,"confidence":5},{"trial_n":33,"n_dots":3.65,"target":"right","response":"right","rt":688.19999998808,"correct":true,"confidence":5},{"trial_n":34,"n_dots":3.65,"target":"right","response":"right","rt":658.5,"correct":true,"confidence":4},{"trial_n":35,"n_dots":3.55,"target":"left","response":"left","rt":895.20000001788,"correct":true,"confidence":2},{"trial_n":36,"n_dots":3.55,"target":"right","response":"right","rt":638.40000000596,"correct":true,"confidence":4},{"trial_n":37,"n_dots":3.45,"target":"right","response":"right","rt":635.69999998808,"correct":true,"confidence":3},{"trial_n":38,"n_dots":3.45,"target":"left","response":"right","rt":2106.7000000179,"correct":false,"confidence":1},{"trial_n":39,"n_dots":3.55,"target":"right","response":"right","rt":584.90000000596,"correct":true,"confidence":2},{"trial_n":40,"n_dots":3.55,"target":"right","response":"right","rt":445.29999998212,"correct":true,"confidence":3},{"trial_n":41,"n_dots":3.45,"target":"right","response":"right","rt":446.90000000596,"correct":true,"confidence":4},{"trial_n":42,"n_dots":3.45,"target":"right","response":"right","rt":758.40000000596,"correct":true,"confidence":3},{"trial_n":43,"n_dots":3.35,"target":"right","response":"right","rt":2817.1999999881,"correct":true,"confidence":2},{"trial_n":44,"n_dots":3.35,"target":"left","response":"left","rt":687.80000001192,"correct":true,"confidence":3},{"trial_n":45,"n_dots":3.25,"target":"left","response":"left","rt":797.80000001192,"correct":true,"confidence":4},{"trial_n":46,"n_dots":3.25,"target":"right","response":"right","rt":603.30000001192,"correct":true,"confidence":5},{"trial_n":47,"n_dots":3.15,"target":"right","response":"right","rt":3333,"correct":true,"confidence":2},{"trial_n":48,"n_dots":3.15,"target":"right","response":"right","rt":1571.099999994,"correct":true,"confidence":1},{"trial_n":49,"n_dots":3.05,"target":"left","response":"left","rt":1207.7000000179,"correct":true,"confidence":1},{"trial_n":50,"n_dots":3.05,"target":"left","response":"right","rt":1421.7000000179,"correct":false,"confidence":1},{"trial_n":51,"n_dots":3.15,"target":"right","response":"right","rt":1573.3999999762,"correct":true,"confidence":2},{"trial_n":52,"n_dots":3.15,"target":"right","response":"right","rt":741.19999998808,"correct":true,"confidence":4},{"trial_n":53,"n_dots":3.05,"target":"left","response":"right","rt":924.5,"correct":false,"confidence":3},{"trial_n":54,"n_dots":3.15,"target":"left","response":"left","rt":886.59999999404,"correct":true,"confidence":3},{"trial_n":55,"n_dots":3.15,"target":"right","response":"right","rt":1282.8000000119,"correct":true,"confidence":4},{"trial_n":56,"n_dots":3.05,"target":"left","response":"right","rt":1752.3000000119,"correct":false,"confidence":4},{"trial_n":57,"n_dots":3.15,"target":"left","response":"right","rt":2941.6999999881,"correct":false,"confidence":1},{"trial_n":58,"n_dots":3.25,"target":"left","response":"left","rt":1819.900000006,"correct":true,"confidence":1},{"trial_n":59,"n_dots":3.25,"target":"right","response":"left","rt":1320.099999994,"correct":false,"confidence":2},{"trial_n":60,"n_dots":3.35,"target":"right","response":"right","rt":1140.7999999821,"correct":true,"confidence":3},{"trial_n":61,"n_dots":3.35,"target":"left","response":"left","rt":899.40000000596,"correct":true,"confidence":3},{"trial_n":62,"n_dots":3.25,"target":"right","response":"right","rt":817.40000000596,"correct":true,"confidence":4},{"trial_n":63,"n_dots":3.25,"target":"right","response":"left","rt":787,"correct":false,"confidence":2},{"trial_n":64,"n_dots":3.35,"target":"left","response":"left","rt":730.5,"correct":true,"confidence":4},{"trial_n":65,"n_dots":3.35,"target":"right","response":"right","rt":1207.400000006,"correct":true,"confidence":3},{"trial_n":66,"n_dots":3.25,"target":"left","response":"left","rt":2287.900000006,"correct":true,"confidence":2},{"trial_n":67,"n_dots":3.25,"target":"right","response":"left","rt":835.90000000596,"correct":false,"confidence":1},{"trial_n":68,"n_dots":3.35,"target":"right","response":"right","rt":582.30000001192,"correct":true,"confidence":4},{"trial_n":69,"n_dots":3.35,"target":"left","response":"right","rt":970.60000002384,"correct":false,"confidence":4},{"trial_n":70,"n_dots":3.45,"target":"left","response":"right","rt":1690.099999994,"correct":false,"confidence":2},{"trial_n":71,"n_dots":3.55,"target":"right","response":"right","rt":771.90000000596,"correct":true,"confidence":2},{"trial_n":72,"n_dots":3.55,"target":"right","response":"left","rt":659.19999998808,"correct":false,"confidence":3},{"trial_n":73,"n_dots":3.65,"target":"left","response":"left","rt":788.90000000596,"correct":true,"confidence":1},{"trial_n":74,"n_dots":3.65,"target":"left","response":"left","rt":1043,"correct":true,"confidence":1},{"trial_n":75,"n_dots":3.55,"target":"right","response":"right","rt":1790.1999999881,"correct":true,"confidence":2},{"trial_n":76,"n_dots":3.55,"target":"left","response":"right","rt":2374.599999994,"correct":false,"confidence":1},{"trial_n":77,"n_dots":3.65,"target":"left","response":"right","rt":1380.3000000119,"correct":false,"confidence":2},{"trial_n":78,"n_dots":3.75,"target":"left","response":"left","rt":792.90000000596,"correct":true,"confidence":2},{"trial_n":79,"n_dots":3.75,"target":"left","response":"left","rt":790.5,"correct":true,"confidence":2},{"trial_n":80,"n_dots":3.65,"target":"left","response":"right","rt":887,"correct":false,"confidence":3},{"trial_n":81,"n_dots":3.75,"target":"right","response":"right","rt":564.59999999404,"correct":true,"confidence":3},{"trial_n":82,"n_dots":3.75,"target":"right","response":"right","rt":707.29999998212,"correct":true,"confidence":3},{"trial_n":83,"n_dots":3.65,"target":"right","response":"right","rt":554.10000002384,"correct":true,"confidence":4},{"trial_n":84,"n_dots":3.65,"target":"right","response":"right","rt":571.29999998212,"correct":true,"confidence":4},{"trial_n":85,"n_dots":3.55,"target":"right","response":"right","rt":553.19999998808,"correct":true,"confidence":2},{"trial_n":86,"n_dots":3.55,"target":"left","response":"right","rt":1374.5,"correct":false,"confidence":2},{"trial_n":87,"n_dots":3.65,"target":"right","response":"right","rt":935.19999998808,"correct":true,"confidence":2},{"trial_n":88,"n_dots":3.65,"target":"left","response":"left","rt":527.79999998212,"correct":true,"confidence":3},{"trial_n":89,"n_dots":3.55,"target":"right","response":"right","rt":589.30000001192,"correct":true,"confidence":3},{"trial_n":90,"n_dots":3.55,"target":"left","response":"left","rt":1068.099999994,"correct":true,"confidence":1},{"trial_n":91,"n_dots":3.45,"target":"left","response":"left","rt":699.30000001192,"correct":true,"confidence":2},{"trial_n":92,"n_dots":3.45,"target":"left","response":"left","rt":1019.099999994,"correct":true,"confidence":4},{"trial_n":93,"n_dots":3.35,"target":"left","response":"right","rt":1107.7999999821,"correct":false,"confidence":1},{"trial_n":94,"n_dots":3.45,"target":"right","response":"right","rt":653.70000001788,"correct":true,"confidence":1},{"trial_n":95,"n_dots":3.45,"target":"right","response":"left","rt":732.89999997616,"correct":false,"confidence":2},{"trial_n":96,"n_dots":3.55,"target":"left","response":"left","rt":731.29999998212,"correct":true,"confidence":3},{"trial_n":97,"n_dots":3.55,"target":"right","response":"left","rt":633.40000000596,"correct":false,"confidence":3},{"trial_n":98,"n_dots":3.65,"target":"left","response":"left","rt":1489.7000000179,"correct":true,"confidence":2},{"trial_n":99,"n_dots":3.65,"target":"left","response":"left","rt":557.5,"correct":true,"confidence":2},{"trial_n":100,"n_dots":3.55,"target":"left","response":"left","rt":1141.6000000238,"correct":true,"confidence":4},{"trial_n":101,"n_dots":3.55,"target":"left","response":"left","rt":2276,"correct":true,"confidence":2},{"trial_n":102,"n_dots":3.45,"target":"right","response":"left","rt":633.80000001192,"correct":false,"confidence":3},{"trial_n":103,"n_dots":3.55,"target":"right","response":"right","rt":884.09999999404,"correct":true,"confidence":3},{"trial_n":104,"n_dots":3.55,"target":"right","response":"left","rt":530.90000000596,"correct":false,"confidence":1},{"trial_n":105,"n_dots":3.65,"target":"right","response":"left","rt":718.60000002384,"correct":false,"confidence":4},{"trial_n":106,"n_dots":3.75,"target":"left","response":"left","rt":406.09999999404,"correct":true,"confidence":4},{"trial_n":107,"n_dots":3.75,"target":"right","response":"right","rt":558.80000001192,"correct":true,"confidence":4},{"trial_n":108,"n_dots":3.65,"target":"left","response":"left","rt":394.80000001192,"correct":true,"confidence":4},{"trial_n":109,"n_dots":3.65,"target":"left","response":"left","rt":426.59999999404,"correct":true,"confidence":4},{"trial_n":110,"n_dots":3.55,"target":"right","response":"right","rt":1926.099999994,"correct":true,"confidence":5},{"trial_n":111,"n_dots":3.55,"target":"right","response":"left","rt":708.69999998808,"correct":false,"confidence":4},{"trial_n":112,"n_dots":3.65,"target":"right","response":"left","rt":793.30000001192,"correct":false,"confidence":2},{"trial_n":113,"n_dots":3.75,"target":"right","response":"right","rt":742,"correct":true,"confidence":2},{"trial_n":114,"n_dots":3.75,"target":"right","response":"left","rt":903.69999998808,"correct":false,"confidence":3},{"trial_n":115,"n_dots":3.85,"target":"left","response":"left","rt":1021.400000006,"correct":true,"confidence":4},{"trial_n":116,"n_dots":3.85,"target":"right","response":"left","rt":569,"correct":false,"confidence":4},{"trial_n":117,"n_dots":3.95,"target":"left","response":"left","rt":611.30000001192,"correct":true,"confidence":4},{"trial_n":118,"n_dots":3.95,"target":"right","response":"right","rt":690.70000001788,"correct":true,"confidence":5},{"trial_n":119,"n_dots":3.85,"target":"right","response":"right","rt":732.90000000596,"correct":true,"confidence":2},{"trial_n":120,"n_dots":3.85,"target":"left","response":"left","rt":478.90000000596,"correct":true,"confidence":2}]