[{"trial_n":1,"n_dots":4.25,"target":"left","response":"left","rt":2816.2999999998,"correct":true,"confidence":-1},{"trial_n":2,"n_dots":4.25,"target":"right","response":"right","rt":139.20000000019,"correct":true,"confidence":-1},{"trial_n":3,"n_dots":3.85,"target":"right","response":"right","rt":683.5,"correct":true,"confidence":-1},{"trial_n":4,"n_dots":3.85,"target":"left","response":"left","rt":548.09999999963,"correct":true,"confidence":-1},{"trial_n":5,"n_dots":3.45,"target":"left","response":"right","rt":2582.5,"correct":false,"confidence":-1},{"trial_n":6,"n_dots":3.85,"target":"right","response":"left","rt":539.19999999972,"correct":false,"confidence":-1},{"trial_n":7,"n_dots":4.25,"target":"left","response":"right","rt":181.5,"correct":false,"confidence":-1},{"trial_n":8,"n_dots":4.45,"target":"right","response":"left","rt":361.60000000009,"correct":false,"confidence":-1},{"trial_n":9,"n_dots":4.65,"target":"right","response":"right","rt":400.39999999991,"correct":true,"confidence":-1},{"trial_n":10,"n_dots":4.65,"target":"right","response":"left","rt":386.19999999972,"correct":false,"confidence":-1},{"trial_n":11,"n_dots":4.85,"target":"right","response":"right","rt":533.09999999963,"correct":true,"confidence":-1},{"trial_n":12,"n_dots":4.85,"target":"right","response":"right","rt":278,"correct":true,"confidence":-1},{"trial_n":13,"n_dots":4.75,"target":"right","response":"right","rt":341.60000000009,"correct":true,"confidence":-1},{"trial_n":14,"n_dots":4.75,"target":"right","response":"right","rt":238.70000000019,"correct":true,"confidence":-1},{"trial_n":15,"n_dots":4.65,"target":"right","response":"right","rt":229.89999999991,"correct":true,"confidence":-1},{"trial_n":16,"n_dots":4.65,"target":"left","response":"left","rt":230.89999999991,"correct":true,"confidence":-1},{"trial_n":17,"n_dots":4.55,"target":"left","response":"left","rt":410.70000000019,"correct":true,"confidence":-1},{"trial_n":18,"n_dots":4.55,"target":"left","response":"left","rt":269.20000000019,"correct":true,"confidence":-1},{"trial_n":19,"n_dots":4.45,"target":"right","response":"left","rt":280.5,"correct":false,"confidence":-1},{"trial_n":20,"n_dots":4.55,"target":"left","response":"left","rt":238.39999999991,"correct":true,"confidence":-1},{"trial_n":21,"n_dots":4.55,"target":"left","response":"left","rt":1563.1000000001,"correct":true,"confidence":1},{"trial_n":22,"n_dots":4.45,"target":"left","response":"right","rt":571.20000000019,"correct":false,"confidence":2},{"trial_n":23,"n_dots":4.55,"target":"left","response":"left","rt":992.30000000028,"correct":true,"confidence":3},{"trial_n":24,"n_dots":4.55,"target":"right","response":"right","rt":768,"correct":true,"confidence":2},{"trial_n":25,"n_dots":4.45,"target":"right","response":"left","rt":984,"correct":false,"confidence":1},{"trial_n":26,"n_dots":4.55,"target":"right","response":"right","rt":345.69999999972,"correct":true,"confidence":1},{"trial_n":27,"n_dots":4.55,"target":"right","response":"right","rt":970,"correct":true,"confidence":1},{"trial_n":28,"n_dots":4.45,"target":"left","response":"left","rt":732.29999999981,"correct":true,"confidence":2},{"trial_n":29,"n_dots":4.45,"target":"right","response":"right","rt":313.20000000019,"correct":true,"confidence":3},{"trial_n":30,"n_dots":4.35,"target":"right","response":"right","rt":667.20000000019,"correct":true,"confidence":4},{"trial_n":31,"n_dots":4.35,"target":"right","response":"right","rt":539.60000000009,"correct":true,"confidence":5},{"trial_n":32,"n_dots":4.25,"target":"left","response":"left","rt":1010.6000000001,"correct":true,"confidence":2},{"trial_n":33,"n_dots":4.25,"target":"left","response":"right","rt":3023.5,"correct":false,"confidence":3},{"trial_n":34,"n_dots":4.35,"target":"left","response":"right","rt":354.10000000009,"correct":false,"confidence":3},{"trial_n":35,"n_dots":4.45,"target":"right","response":"right","rt":83853.3,"correct":true,"confidence":1},{"trial_n":36,"n_dots":4.45,"target":"right","response":"left","rt":161.89999999991,"correct":false,"confidence":1},{"trial_n":37,"n_dots":4.55,"target":"right","response":"right","rt":223.80000000028,"correct":true,"confidence":1},{"trial_n":38,"n_dots":4.55,"target":"left","response":"left","rt":480.39999999991,"correct":true,"confidence":3},{"trial_n":39,"n_dots":4.45,"target":"left","response":"right","rt":922.80000000028,"correct":false,"confidence":1},{"trial_n":40,"n_dots":4.55,"target":"right","response":"left","rt":493.30000000028,"correct":false,"confidence":3},{"trial_n":41,"n_dots":4.65,"target":"right","response":"left","rt":14010.1,"correct":false,"confidence":2},{"trial_n":42,"n_dots":4.75,"target":"right","response":"right","rt":361.70000000019,"correct":true,"confidence":3},{"trial_n":43,"n_dots":4.75,"target":"right","response":"right","rt":571.60000000009,"correct":true,"confidence":4},{"trial_n":44,"n_dots":4.65,"target":"left","response":"left","rt":994,"correct":true,"confidence":2},{"trial_n":45,"n_dots":4.65,"target":"right","response":"right","rt":59.899999999907,"correct":true,"confidence":5},{"trial_n":46,"n_dots":4.55,"target":"right","response":"right","rt":561.89999999991,"correct":true,"confidence":3},{"trial_n":47,"n_dots":4.55,"target":"left","response":"left","rt":235.30000000028,"correct":true,"confidence":3},{"trial_n":48,"n_dots":4.45,"target":"right","response":"right","rt":432.5,"correct":true,"confidence":4},{"trial_n":49,"n_dots":4.45,"target":"left","response":"left","rt":240,"correct":true,"confidence":3},{"trial_n":50,"n_dots":4.35,"target":"right","response":"right","rt":801,"correct":true,"confidence":4},{"trial_n":51,"n_dots":4.35,"target":"right","response":"left","rt":233.20000000019,"correct":false,"confidence":4},{"trial_n":52,"n_dots":4.45,"target":"left","response":"right","rt":200.20000000019,"correct":false,"confidence":4},{"trial_n":53,"n_dots":4.55,"target":"left","response":"left","rt":117.5,"correct":true,"confidence":5},{"trial_n":54,"n_dots":4.55,"target":"right","response":"right","rt":111.5,"correct":true,"confidence":1},{"trial_n":55,"n_dots":4.45,"target":"right","response":"left","rt":136.39999999991,"correct":false,"confidence":1},{"trial_n":56,"n_dots":4.55,"target":"right","response":"right","rt":652.29999999981,"correct":true,"confidence":3},{"trial_n":57,"n_dots":4.55,"target":"left","response":"left","rt":261.60000000009,"correct":true,"confidence":5},{"trial_n":58,"n_dots":4.45,"target":"left","response":"right","rt":693.30000000028,"correct":false,"confidence":3},{"trial_n":59,"n_dots":4.55,"target":"left","response":"left","rt":395.29999999981,"correct":true,"confidence":3},{"trial_n":60,"n_dots":4.55,"target":"left","response":"left","rt":277.10000000009,"correct":true,"confidence":4},{"trial_n":61,"n_dots":4.45,"target":"right","response":"right","rt":21107,"correct":true,"confidence":1},{"trial_n":62,"n_dots":4.45,"target":"right","response":"right","rt":410.39999999991,"correct":true,"confidence":3},{"trial_n":63,"n_dots":4.35,"target":"left","response":"left","rt":592.70000000019,"correct":true,"confidence":4},{"trial_n":64,"n_dots":4.35,"target":"right","response":"right","rt":312.10000000009,"correct":true,"confidence":3},{"trial_n":65,"n_dots":4.25,"target":"left","response":"left","rt":782.5,"correct":true,"confidence":1},{"trial_n":66,"n_dots":4.25,"target":"left","response":"right","rt":225.70000000019,"correct":false,"confidence":1},{"trial_n":67,"n_dots":4.35,"target":"left","response":"left","rt":315.5,"correct":true,"confidence":3},{"trial_n":68,"n_dots":4.35,"target":"left","response":"left","rt":957.20000000019,"correct":true,"confidence":3},{"trial_n":69,"n_dots":4.25,"target":"right","response":"right","rt":2044.5999999996,"correct":true,"confidence":4},{"trial_n":70,"n_dots":4.25,"target":"right","response":"left","rt":850.30000000028,"correct":false,"confidence":4},{"trial_n":71,"n_dots":4.35,"target":"right","response":"right","rt":630.5,"correct":true,"confidence":4},{"trial_n":72,"n_dots":4.35,"target":"left","response":"left","rt":1025.1000000001,"correct":true,"confidence":3},{"trial_n":73,"n_dots":4.25,"target":"left","response":"left","rt":1302.1999999997,"correct":true,"confidence":1},{"trial_n":74,"n_dots":4.25,"target":"left","response":"left","rt":1324.2999999998,"correct":true,"confidence":2},{"trial_n":75,"n_dots":4.15,"target":"right","response":"left","rt":2667.6000000001,"correct":false,"confidence":1},{"trial_n":76,"n_dots":4.25,"target":"right","response":"right","rt":1164.7000000002,"correct":true,"confidence":3},{"trial_n":77,"n_dots":4.25,"target":"left","response":"left","rt":1599.3999999999,"correct":true,"confidence":2},{"trial_n":78,"n_dots":4.15,"target":"right","response":"left","rt":1819.5,"correct":false,"confidence":1},{"trial_n":79,"n_dots":4.25,"target":"left","response":"right","rt":1359.6999999997,"correct":false,"confidence":1},{"trial_n":80,"n_dots":4.35,"target":"left","response":"right","rt":1420.2999999998,"correct":false,"confidence":1},{"trial_n":81,"n_dots":4.45,"target":"right","response":"right","rt":872.70000000019,"correct":true,"confidence":3},{"trial_n":82,"n_dots":4.45,"target":"left","response":"left","rt":1983.5,"correct":true,"confidence":2},{"trial_n":83,"n_dots":4.35,"target":"left","response":"left","rt":821.69999999972,"correct":true,"confidence":4},{"trial_n":84,"n_dots":4.35,"target":"left","response":"left","rt":752.10000000009,"correct":true,"confidence":3},{"trial_n":85,"n_dots":4.25,"target":"left","response":"left","rt":2023,"correct":true,"confidence":3},{"trial_n":86,"n_dots":4.25,"target":"left","response":"left","rt":349.29999999981,"correct":true,"confidence":3},{"trial_n":87,"n_dots":4.15,"target":"right","response":"right","rt":715.29999999981,"correct":true,"confidence":3},{"trial_n":88,"n_dots":4.15,"target":"right","response":"right","rt":796.69999999972,"correct":true,"confidence":2},{"trial_n":89,"n_dots":4.05,"target":"right","response":"right","rt":758,"correct":true,"confidence":2},{"trial_n":90,"n_dots":4.05,"target":"right","response":"right","rt":875.60000000009,"correct":true,"confidence":2},{"trial_n":91,"n_dots":3.95,"target":"left","response":"left","rt":1532.2999999998,"correct":true,"confidence":2},{"trial_n":92,"n_dots":3.95,"target":"right","response":"right","rt":985.39999999991,"correct":true,"confidence":3},{"trial_n":93,"n_dots":3.85,"target":"right","response":"right","rt":1209.2000000002,"correct":true,"confidence":3},{"trial_n":94,"n_dots":3.85,"target":"left","response":"right","rt":638.60000000009,"correct":false,"confidence":1},{"trial_n":95,"n_dots":3.95,"target":"right","response":"left","rt":584.5,"correct":false,"confidence":1},{"trial_n":96,"n_dots":4.05,"target":"left","response":"left","rt":748.29999999981,"correct":true,"confidence":3},{"trial_n":97,"n_dots":4.05,"target":"right","response":"left","rt":580,"correct":false,"confidence":1},{"trial_n":98,"n_dots":4.15,"target":"left","response":"left","rt":437.79999999981,"correct":true,"confidence":1},{"trial_n":99,"n_dots":4.15,"target":"right","response":"left","rt":258.90000000037,"correct":false,"confidence":1},{"trial_n":100,"n_dots":4.25,"target":"left","response":"right","rt":327.29999999981,"correct":false,"confidence":1},{"trial_n":101,"n_dots":4.35,"target":"right","response":"right","rt":404.20000000019,"correct":true,"confidence":1},{"trial_n":102,"n_dots":4.35,"target":"left","response":"left","rt":708.60000000009,"correct":true,"confidence":1},{"trial_n":103,"n_dots":4.25,"target":"left","response":"left","rt":645.39999999991,"correct":true,"confidence":1},{"trial_n":104,"n_dots":4.25,"target":"left","response":"left","rt":337.19999999972,"correct":true,"confidence":2},{"trial_n":105,"n_dots":4.15,"target":"left","response":"right","rt":141.89999999991,"correct":false,"confidence":1},{"trial_n":106,"n_dots":4.25,"target":"left","response":"right","rt":156.89999999991,"correct":false,"confidence":2},{"trial_n":107,"n_dots":4.35,"target":"right","response":"right","rt":184.60000000009,"correct":true,"confidence":2},{"trial_n":108,"n_dots":4.35,"target":"left","response":"right","rt":2518.6999999997,"correct":false,"confidence":2},{"trial_n":109,"n_dots":4.45,"target":"left","response":"left","rt":533.60000000009,"correct":true,"confidence":1},{"trial_n":110,"n_dots":4.45,"target":"right","response":"right","rt":629.29999999981,"correct":true,"confidence":3},{"trial_n":111,"n_dots":4.35,"target":"left","response":"left","rt":1517.7999999998,"correct":true,"confidence":2},{"trial_n":112,"n_dots":4.35,"target":"left","response":"left","rt":357.70000000019,"correct":true,"confidence":3},{"trial_n":113,"n_dots":4.25,"target":"right","response":"right","rt":1799.6000000001,"correct":true,"confidence":1},{"trial_n":114,"n_dots":4.25,"target":"left","response":"right","rt":619.69999999972,"correct":false,"confidence":1},{"trial_n":115,"n_dots":4.35,"target":"right","response":"right","rt":929.39999999991,"correct":true,"confidence":1},{"trial_n":116,"n_dots":4.35,"target":"left","response":"left","rt":489,"correct":true,"confidence":1},{"trial_n":117,"n_dots":4.25,"target":"right","response":"right","rt":290.90000000037,"correct":true,"confidence":1},{"trial_n":118,"n_dots":4.25,"target":"right","response":"right","rt":165.10000000009,"correct":true,"confidence":3},{"trial_n":119,"n_dots":4.15,"target":"left","response":"right","rt":67.399999999907,"correct":false,"confidence":3},{"trial_n":120,"n_dots":4.25,"target":"left","response":"left","rt":2261.2999999998,"correct":true,"confidence":1}]